timestamp,accel_x,accel_y,accel_z,accel_rms,gyro_x,gyro_y,gyro_z,gyro_rms
1781878974.865115,-0.3125,0.4189452826976776,1.35205078125,1.4495560406460222,-92.34809875488281,-3.6029815673828125,8.356094360351562,92.79535081444322
1781878974.875763,0.28662109375,0.19970703125,1.36669921875,1.4106386157499713,-104.98428344726562,-77.0263671875,-6.9026947021484375,130.39328283002334
1781878974.88641,-0.0908203125,0.52294921875,1.41796875,1.5140540249708383,-90.33203125,-121.9482421875,-11.419296264648438,152.1895199070946
1781878974.894411,-0.3056640625,0.2270507663488388,1.30126953125,1.355833678060548,-62.98828125,-109.31396484375,-14.776229858398438,127.02520794518676
1781878974.902409,0.0424804724752903,0.0483398400247097,1.00341796875,1.0054794630850072,-45.71723937988281,-87.95356750488281,-19.048690795898438,100.93933145405329
1781878974.910407,0.10986328125,0.01318359375,1.0615234375,1.0672749205677974,-51.334381103515625,-87.40234375,-23.199081420898438,103.98358406521493
1781878974.92641,-0.26025390625,0.033203125,0.9008788466453552,0.9383055150435891,-54.874420166015625,-67.07763671875,-33.33091735839844,92.85236339631537
1781878974.934417,-0.244140625,0.19873046875,0.8847655653953552,0.939099861406841,-56.583404541015625,-26.06201171875,-21.368026733398438,65.85971978956273
1781878974.942424,-0.26953125,0.24853515625,0.7836913466453552,0.8652103475026086,-62.68501281738281,-3.2939910888671875,-7.8182220458984375,63.25650800643327
1781878974.950431,-0.2978515625,0.2270507663488388,0.7993163466453552,0.8827084602504748,-71.78115844726562,12.939453125,2.3136138916015625,72.97476936890543
1781878974.961121,-0.2939453125,0.1875,0.8764647841453552,0.9432659299411205,-72.51167297363281,36.86332702636719,6.6471099853515625,81.61514361958402
1781878974.971811,-0.2392578125,0.1845703125,0.8764647841453552,0.9270927779600038,-68.05419921875,57.9833984375,8.539199829101562,89.81295262593541
1781878974.982501,-0.3427734375,0.13134765625,0.8588866591453552,0.9340407536696694,-57.68013000488281,65.73295593261719,21.478652954101562,90.05082690204634
1781878974.993134,-0.3193359375,0.14892578125,0.8579100966453552,0.9274503022943976,-44.80171203613281,65.91606140136719,22.027969360351562,82.68828203668258
1781878975.003769,-0.2421874850988388,0.15771484375,0.7724609375,0.8247573278492081,-32.71675109863281,60.73188781738281,24.286270141601562,73.13392453372039
1781878975.014404,-0.2197265625,0.1318359375,0.7529296875,0.7953386643458358,-24.538040161132812,46.68998718261719,22.821426391601562,57.47075622096522
1781878975.022408,-0.2363281100988388,-0.0483398400247097,0.7080078125,0.7479724448918814,-18.495559692382812,27.097702026367188,22.394180297851562,39.72241803638045
1781878975.030411,-0.1928710788488388,-0.15869140625,0.68310546875,0.7273343776490114,-22.464752197265625,21.3623046875,21.722793579101562,37.853572007492126
1781878975.038414,-0.15380859375,-0.193359375,0.68798828125,0.731008075570354,-35.28022766113281,15.073776245117188,17.816543579101562,42.30061960793536
1781878975.046417,-0.1499023288488388,-0.20556640625,0.69287109375,0.7381047406209817,-58.89892578125,6.34765625,8.844375610351562,59.89657066969979
1781878975.057117,-0.13330078125,-0.17236328125,0.73486328125,0.7664869477914439,-86.12251281738281,-1.3408660888671875,-0.5550384521484375,86.13473865712895
1781878975.067817,-0.13916015625,-0.1728515625,0.7656249403953552,0.7971353467897451,-112.48779296875,-4.638671875,-5.0716400146484375,112.69757040940351
1781878975.078517,-0.2314452975988388,-0.158203125,0.728515625,0.7805960353534479,-135.62393188476562,-5.79833984375,-4.9495697021484375,135.83802812564525
1781878975.089141,-0.271484375,-0.16748046875,0.7021484375,0.771210672621659,-154.66690063476562,-12.39013671875,-0.0667572021484375,155.16239910621974
1781878975.099766,-0.2104492038488388,-0.28369140625,0.70751953125,0.7907929997672795,-171.2646484375,-22.3388671875,4.9381256103515625,172.7859655069961
1781878975.11039,-0.3076171875,-0.3115234375,0.71875,0.8415917945519826,-185.6098175048828,-30.580520629882812,13.666152954101562,188.6078904307969
1781878975.118397,-0.3984375,-0.42626953125,0.75146484375,0.9513976908057726,-199.76806640625,-44.921875,21.478652954101562,205.88003240219842
1781878975.126405,-0.3852538764476776,-0.39208984375,0.791015625,0.963255269325843,-201.4789581298828,-51.93901062011719,23.859024047851562,209.42942587376703
1781878975.134413,-0.3872070014476776,-0.3779296875,0.82080078125,0.9830941120587386,-201.2958526611328,-54.14009094238281,26.666641235351562,210.14823220906933
1781878975.142421,-0.3115234375,-0.33154296875,0.8427733778953552,0.9577236337944924,-197.45254516601562,-51.025390625,30.755996704101562,206.24507124834275
1781878975.15309,-0.2373046725988388,-0.3466796875,0.8603515625,0.9574471914724755,-193.54248046875,-46.44775390625,32.34291076660156,201.6485791315882
1781878975.163761,-0.21142578125,-0.3701171875,0.865234375,0.9645299980517577,-189.94140625,-42.1142578125,30.633926391601562,196.95122737746854
1781878975.174431,-0.150390625,-0.51904296875,0.8925780653953552,1.0434167654018307,-185.85205078125,-42.96875,23.736953735351562,192.2257558934105
1781878975.185088,-0.0488281175494194,-0.5576171875,0.9536132216453552,1.1057573374640854,-177.73818969726562,-49.6826171875,12.750625610351562,184.9913646117467
1781878975.195747,0.0517578125,-0.533203125,0.9692382216453552,1.1074326950035391,-167.72842407226562,-59.6923828125,3.2291412353515625,178.06300053834224
1781878975.206405,0.2392578125,-0.44140625,1.02392578125,1.1403980813250127,-156.3739776611328,-67.99125671386719,-3.4236907958984375,170.55014962690996
1781878975.21445,0.30517578125,-0.28173828125,0.9399413466453552,1.02761785295738,-140.0165557861328,-80.20210266113281,1.6422271728515625,161.36824370230156
1781878975.222493,0.47314453125,-0.07275390625,0.9106444716453552,1.0288013569512164,-141.72744750976562,-88.0126953125,1.1539459228515625,166.83595387384938
1781878975.230536,0.55078125,0.0078125,0.8945311903953552,1.0505270444390966,-157.0453643798828,-79.10346984863281,-7.8182220458984375,176.016277688351
1781878975.238579,0.4638671875,-0.115234375,0.8627929091453552,0.9863383460518536,-169.43740844726562,-58.89892578125,-23.992538452148438,180.9800009417851
1781878975.249173,0.25830078125,-0.427734375,0.796875,0.9405773518302474,-173.34365844726562,-48.2177734375,-41.38755798339844,184.62369174886936
1781878975.259768,0.1884765625,-0.57568359375,0.74169921875,0.9576287097926272,-169.92568969726562,-50.23193359375,-61.83433532714844,187.67384526621856
1781878975.270364,0.16845703125,-0.69580078125,0.74951171875,1.0364768763022418,-161.1347198486328,-54.32319641113281,-77.21519470214844,186.75543874787311
1781878975.281043,0.38427734375,-0.552734375,0.80224609375,1.047274157593574,-146.48818969726562,-61.34033203125,-88.01841735839844,181.57276185805867
1781878975.291721,0.5126953125,-0.60693359375,0.8632811903953552,1.1732345393706172,-133.6688995361328,-63.17329406738281,-95.76988220214844,176.15365486852147
1781878975.302399,0.62109375,-0.54443359375,0.9941405653953552,1.2924708306407535,-112.60986328125,-57.55615234375,-104.13169860839844,163.82033645402242
1781878975.310426,0.0869140625,-0.8525390625,1.16357421875,1.445088879580874,-47.97554016113281,-60.60981750488281,-121.40464782714844,143.92460160014897
1781878975.318452,-0.0405273400247097,-0.88916015625,1.19970703125,1.4938357371487305,-11.171340942382812,-64.21089172363281,-137.33482360839844,152.01543095996857
1781878975.326478,0.1845703125,-0.9233397841453552,1.01123046875,1.3817415164097384,18.306732177734375,-60.48583984375,-146.12388610839844,159.20384215228998
1781878975.334504,0.244140625,-1.0458984375,0.7666015625,1.3195401251829266,43.514251708984375,-58.04443359375,-125.49400329589844,144.9530656324421
1781878975.345127,-0.15771484375,-1.0654296875,0.65283203125,1.2594459305470147,72.14164733886719,-85.69145202636719,-95.09849548339844,146.93932786820085
1781878975.35575,-0.3803710639476776,-1.0888671875,0.5927734375,1.296801544766359,86.11679077148438,-117.49267578125,-80.87730407714844,166.61863290102065
1781878975.366373,-0.39892578125,-0.9477538466453552,0.4428710639476776,1.119604355144771,90.69442749023438,-135.68115234375,-81.42662048339844,182.387359217838
1781878975.377054,-0.08544921875,-0.81591796875,0.34423828125,0.8896761742297393,86.11679077148438,-146.240234375,-87.16392517089844,190.78746723522625
1781878975.387733,0.10205078125,-0.7548828125,0.25390625,0.8029513100747193,71.71440124511719,-155.9467315673828,-81.79283142089844,190.13785973430575
1781878975.398412,0.091796875,-0.75830078125,0.265625,0.8087047555994251,53.707122802734375,-162.353515625,-74.16343688964844,186.39563955959372
1781878975.406409,-0.0849609300494194,-0.85107421875,0.4462890326976776,0.9647380920032202,27.341842651367188,-175.2338409423828,-66.35093688964844,189.35924111890222
1781878975.414405,-0.0268554650247097,-0.83154296875,0.5166015625,0.979317159686635,24.715423583984375,-186.82861328125,-72.21031188964844,201.8170261566921
1781878975.4224,0.080078125,-0.8896484375,0.6162109375,1.0851740726465666,30.452728271484375,-200.1953125,-75.99449157714844,216.28845220265183
1781878975.430397,0.25927734375,-0.7431640625,0.626953125,1.0062742100048203,50.16899108886719,-218.0767059326172,-69.21958923339844,234.2343460531278
1781878975.441069,0.2646484375,-0.60595703125,0.61572265625,0.9035137567364764,61.34033203125,-229.3701171875,-52.92320251464844,243.2573788330335
1781878975.451741,0.3935546875,-0.6357421875,0.50732421875,0.9035658713955533,68.05229187011719,-253.6640167236328,-41.75376892089844,265.9321812572575
1781878975.462413,0.4287109375,-0.63037109375,0.4926757514476776,0.9076839647323478,72.87406921386719,-267.64105224609375,-28.936386108398438,278.8900809498217
1781878975.470426,0.4990234375,-0.5830078125,0.4355468451976776,0.8823964839979822,75.25634765625,-273.13232421875,-20.391464233398438,284.0432998845012
1781878975.47844,0.60498046875,-0.4907226264476776,0.3623046576976776,0.8591127566659152,70.36972045898438,-286.7431640625,-13.799667358398438,295.573967922163
1781878975.486454,0.75634765625,-0.48974609375,0.3618163764476776,0.9709912995099285,62.98828125,-296.69189453125,-4.0340423583984375,303.3312996594991
1781878975.494467,0.66259765625,-0.4248046875,0.38818359375,0.8775996690100965,55.538177490234375,-303.28369140625,5.6705474853515625,308.37905528865264
1781878975.505111,0.8193359375,-0.6142578125,0.35400390625,1.0834864116990799,49.739837646484375,-316.22314453125,14.703750610351562,320.44863686454005
1781878975.515754,0.86474609375,-0.69384765625,0.3876952826976776,1.1745288455229757,49.31449890136719,-322.02337646484375,20.746231079101562,326.4374073167763
1781878975.526397,0.8857421875,-0.61572265625,0.3374023139476776,1.1302627719225684,52.059173583984375,-328.369140625,22.394180297851562,333.2235726659522
1781878975.537088,1.04736328125,-0.494140625,0.25048828125,1.1848582949997593,54.500579833984375,-341.9189453125,35.02845764160156,348.0026885105952
1781878975.547781,1.1845703125,-0.5830078125,0.29443359375,1.3526995512015678,55.23490905761719,-347.10882568359375,43.87855529785156,354.2044037855449
1781878975.558473,1.201171875,-0.607421875,0.2207031100988388,1.3639959935156816,56.08940124511719,-346.98297119140625,53.52210998535156,355.5387735341057
1781878975.569099,1.12939453125,-0.58251953125,0.2451171725988388,1.2941960592614923,59.69047546386719,-343.01947021484375,57.06214904785156,352.8192152668755
1781878975.579727,1.1513671875,-0.5439453125,0.25048828125,1.2977932356450168,62.80517578125,-340.9423828125,56.20765686035156,351.20577898507025
1781878975.590354,1.169921875,-0.41455078125,0.1972656100988388,1.2567749459494202,59.87548828125,-333.43505859375,53.15589904785156,342.9133447387561
1781878975.598361,1.205078125,-0.3466796875,0.083984375,1.256763091566089,35.70365905761719,-302.06488037109375,53.09486389160156,308.7669149947472
1781878975.606369,1.18994140625,-0.384765625,-0.0009765662252902985,1.2506022909668206,18.489837646484375,-277.03857421875,56.45179748535156,283.33558043542354
1781878975.614377,1.14892578125,-0.39892578125,-0.0249023474752903,1.2164671621859038,-0.003814697265625,-249.51171875,60.84632873535156,256.823623385197
1781878975.622385,1.1103515625,-0.38818359375,-0.0693359375,1.1782930734888755,-20.56884765625,-220.21484375,63.47084045410156,230.10041827361582
1781878975.633053,1.234375,-0.60107421875,-0.0415039099752903,1.3735699587622612,-44.132232666015625,-194.15283203125,60.54115295410156,208.1062405283754
1781878975.643721,1.18994140625,-0.51025390625,0.08837890625,1.2977405095863956,-62.259674072265625,-173.40087890625,59.32044982910156,193.55373307940013
1781878975.654389,1.296875,-0.60693359375,0.52685546875,1.52572272638218,-74.34272766113281,-138.3686065673828,57.00111389160156,167.09829270336627
1781878975.662382,1.0859375,-0.4365234375,0.33642578125,1.2177829329082992,-66.16592407226562,-104.736328125,46.13685607910156,132.19772095731537
1781878975.670374,1.16845703125,-0.5126953125,0.3115234375,1.313466851294258,-67.14057922363281,-75.68168640136719,33.07533264160156,106.44037140292397
1781878975.678366,1.07861328125,-0.478515625,0.3178710639476776,1.2220580293722803,-65.86074829101562,-48.52294921875,14.642715454101562,83.10549850766611
1781878975.686357,1.14404296875,-0.4731445014476776,0.3823241889476776,1.2957128613435094,-55.78804016113281,-20.753860473632812,-0.1277923583984375,59.523478396898575
1781878975.697044,1.05419921875,-0.5576171875,0.33935546875,1.2399334880464568,-39.493560791015625,6.34765625,-9.527206420898438,41.11935974706098
1781878975.70773,1.0576171875,-0.5712890625,0.2377929538488388,1.225345174686584,-27.530670166015625,25.5126953125,-20.208358764648438,42.62878353717293
1781878975.718415,1.0166015625,-0.591796875,0.1484375,1.1856373684830692,-22.464752197265625,47.66845703125,-26.372909545898438,58.92772899867107
1781878975.729163,0.9374999403953552,-0.63427734375,0.014160152524709702,1.131995758364568,-32.108306884765625,88.92822265625,-36.99302673339844,101.52662794904495
1781878975.739911,0.919921875,-0.62744140625,0.008789058774709702,1.1135601564058577,-42.11616516113281,105.83305358886719,-41.14341735839844,121.10816401775404
1781878975.750658,0.90869140625,-0.5966796875,0.0234374962747097,1.0873343724445241,-51.63764953613281,122.06840515136719,-43.88999938964844,139.61903320191752
1781878975.761289,0.88330078125,-0.5947265625,0.0288085900247097,1.0652463983319251,-58.22944641113281,137.8154754638672,-44.74449157714844,156.15967223702884
1781878975.771918,0.96630859375,-0.6689453125,0.083984375,1.1782586747887605,-60.428619384765625,153.9306640625,-47.00279235839844,171.9172180700869
1781878975.782547,0.9833984375,-0.6591796875,0.1113281100988388,1.1891107162027506,-58.658599853515625,166.50390625,-49.26109313964844,183.27857875539294
1781878975.790559,0.87841796875,-0.583984375,0.28759765625,1.0933289943779547,-45.108795166015625,176.94091796875,-55.48667907714844,190.8446053939276
1781878975.798572,0.89794921875,-0.5908203125,0.26025390625,1.1059446355196614,-25.026321411132812,168.4551239013672,-59.02671813964844,180.24316626806078
1781878975.806585,0.81005859375,-0.595703125,0.259765625,1.038525550179019,-1.708984375,174.4384765625,-54.87632751464844,182.87458558950945
1781878975.814598,0.77099609375,-0.58447265625,0.26708984375,1.0036833400610419,18.611907958984375,166.50390625,-56.76841735839844,176.8971653920995
1781878975.825201,0.85009765625,-0.6259765625,0.2348632663488388,1.081514417768485,34.7900390625,154.11376953125,-57.25669860839844,168.0468098853248
1781878975.835804,0.8310546875,-0.60205078125,0.1948242038488388,1.0445446410875852,50.048828125,148.0712890625,-54.93736267089844,165.6746983052936
1781878975.846407,0.84619140625,-0.6416015625,0.1889648288488388,1.0786102945715217,61.214447021484375,135.498046875,-51.39732360839844,157.316922501021
1781878975.85716,0.826171875,-0.54638671875,0.1464843600988388,1.0012772249586892,69.51713562011719,124.87602233886719,-45.96519470214844,150.13144981651726
1781878975.867913,0.81787109375,-0.55712890625,0.1357421725988388,0.9988651969074683,75.86479187011719,120.96977233886719,-42.11997985839844,148.87325202495393
1781878975.878666,0.82861328125,-0.5390625,0.0820312350988388,0.9919261425640432,78.18412780761719,115.17143249511719,-34.97886657714844,143.52957120759856
1781878975.886659,0.90673828125,-0.548828125,0.0263671837747097,1.0602272633051033,72.99423217773438,112.548828125,-17.766952514648438,135.31836994726754
1781878975.894655,0.88330078125,-0.54736328125,0.0283203087747097,1.0395330065499229,61.702728271484375,104.55322265625,-11.602401733398438,121.95580662656121
1781878975.902651,0.87353515625,-0.5302734375,0.0336914025247097,1.0224425159033932,50.35209655761719,100.89302062988281,-8.367538452148438,113.0696729424727
1781878975.9186,0.8994140625,-0.517578125,0.0400390587747097,1.0384776827302713,42.049407958984375,104.91943359375,-6.0482025146484375,113.1937321983537
1781878975.926553,0.9609375,-0.4970703125,0.068359375,1.0840446386683014,31.734466552734375,104.248046875,-5.8040618896484375,109.1257017345487
1781878975.934508,0.990234375,-0.4711913764476776,0.09521484375,1.1007503336999878,18.856048583984375,96.435546875,-7.2689056396484375,98.53020987737727
1781878975.942462,0.98046875,-0.4619140625,0.08349609375,1.0870396352172838,5.367279052734375,87.70751953125,-9.710311889648438,88.40648632169909
1781878975.950473,0.8193359375,-0.45068359375,0.1337890625,0.9446304004207401,-6.65283203125,74.8291015625,-12.701034545898438,76.19035958192526
1781878975.958484,0.6748046875,-0.35498046875,0.1220703125,0.7721875812649346,-18.495559692382812,59.20219421386719,-17.889022827148438,64.55232502227308
1781878975.966495,0.53173828125,-0.279296875,0.1826171875,0.6277749447866487,-25.089263916015625,40.58837890625,-22.527694702148438,52.76726916070236
1781878975.974506,0.466796875,-0.244140625,0.2094726413488388,0.566906301569153,-26.859283447265625,22.216796875,-23.443222045898438,42.00704501127002
1781878975.985223,0.41650390625,-0.24267578125,0.2324218600988388,0.5351513428728464,-25.943756103515625,-2.25830078125,-22.832870483398438,34.634063834452725
1781878975.995939,0.4033203125,-0.291015625,0.2446288913488388,0.5542568564770312,-20.570755004882812,-26.002883911132812,-17.461776733398438,37.47291795222005
1781878976.006656,0.39990234375,-0.29248046875,0.2426757663488388,0.5516867197150563,-12.6953125,-45.22705078125,-10.992050170898438,48.243986659499555
1781878976.017281,0.45947265625,-0.44775390625,0.2314452975988388,0.6820305038516822,5.1250457763671875,-84.71488952636719,-1.3484954833984375,84.88048681377364
1781878976.027907,0.5966796875,-0.578125,0.2255859225988388,0.8608973072178046,12.693405151367188,-99.91645812988281,-1.8978118896484375,100.73739538783933
1781878976.038532,0.78173828125,-0.62353515625,0.2226562350988388,1.0244445472937056,18.186569213867188,-114.62593078613281,-4.3392181396484375,116.14079439379407
1781878976.046557,0.9863280653953552,-0.6689453125,0.2119140475988388,1.2104703413433928,20.8740234375,-124.3896484375,-6.5975189208984375,126.30137271140705
1781878976.054581,1.13623046875,-0.68408203125,0.20654296875,1.3422547826456177,23.008346557617188,-126.58882141113281,-4.4612884521484375,128.74011345430904
1781878976.062604,1.16064453125,-0.6591796875,0.2055663913488388,1.3505077302945414,23.435592651367188,-126.58882141113281,0.8487701416015625,128.74267792746028
1781878976.070629,1.12060546875,-0.60205078125,0.1865234225988388,1.2856954332088637,21.907806396484375,-124.69482421875,5.4874420166015625,126.723569977871
1781878976.081246,1.0869140625,-0.462890625,0.2319335788488388,1.2039281934445987,19.100189208984375,-118.7744140625,9.515762329101562,120.67613018494232
1781878976.091862,0.9194335341453552,-0.38330078125,0.2099609225988388,1.0180182226445822,16.599655151367188,-108.27827453613281,8.844375610351562,109.8997555393252
1781878976.10248,0.873046875,-0.33984375,0.1894531100988388,0.95582273528487,13.792037963867188,-95.76606750488281,9.210586547851562,97.19153718869761
1781878976.113132,0.9111328125,-0.32373046875,0.1376953125,0.9766905433635198,-1.4667510986328125,-61.70845031738281,15.130996704101562,63.55337332209657
1781878976.123783,0.9531249403953552,-0.36328125,0.13818359375,1.0293275106528907,-12.331008911132812,-47.97554016113281,19.220352172851562,53.13311747081423
1781878976.134434,0.9282225966453552,-0.3818359375,0.15185546875,1.0151137647962576,-21.671295166015625,-26.42822265625,22.882461547851562,41.130317691817105
1781878976.14508,0.92431640625,-0.416015625,0.16796875,1.0274450447997783,-29.726028442382812,-7.6313018798828125,25.568008422851562,39.944919452294094
1781878976.155728,0.91162109375,-0.44091796875,0.2309570163488388,1.038654329956473,-35.64643859863281,5.9185028076171875,28.863906860351562,46.24740402977146
1781878976.166376,1.03662109375,-0.3701171875,0.2260742038488388,1.1236901575328684,-34.05952453613281,18.552780151367188,29.413223266601562,48.676427209721844
1781878976.174417,1.03564453125,-0.45654296875,0.26513671875,1.1624493782752918,-3.787994384765625,22.27783203125,24.591445922851562,33.39745370605575
1781878976.18246,0.994140625,-0.35595703125,0.25244140625,1.085701457105581,5.4912567138671875,29.233932495117188,8.356094360351562,30.896618300159634
1781878976.190503,1.02880859375,-0.43408203125,0.2412109225988388,1.1423909320407624,15.682220458984375,43.64013671875,-1.2264251708984375,46.38855128213419
1781878976.198546,0.92138671875,-0.4111328125,0.1982421725988388,1.0282429839292655,19.468307495117188,47.17826843261719,-6.5364837646484375,51.454150746368676
1781878976.209229,0.9248046875,-0.46533203125,0.1635742038488388,1.0481193297969489,19.651412963867188,55.23490905761719,-5.2547454833984375,58.86157966088733
1781878976.219912,0.87841796875,-0.4765624701976776,0.1259765475988388,1.007273550912914,17.330169677734375,70.556640625,4.3888092041015625,72.78623471216567
1781878976.230595,0.8583984375,-0.46484375,0.1059570163488388,0.9819136819140734,11.898040771484375,80.50537109375,15.436172485351562,82.83087329094042
1781878976.241189,0.84130859375,-0.47998046875,0.078125,0.9717432355947081,4.695892333984375,95.458984375,26.483535766601562,99.17583762903004
1781878976.251782,0.78662109375,-0.4677734375,0.07470703125,0.9182406408350706,-3.9081573486328125,108.94584655761719,35.94398498535156,114.78868076881413
1781878976.262375,0.7724609375,-0.4248046875,0.06396484375,0.8838814534321406,-15.628814697265625,115.05126953125,42.65785217285156,123.69618757906267
1781878976.270385,0.6181640625,-0.30810546875,0.0478515587747097,0.6923478603399671,-40.16304016113281,123.04496765136719,57.55043029785156,141.6516356657368
1781878976.278395,0.5791015625,-0.2734375,0.0166015587747097,0.6406264885640786,-51.94282531738281,120.90873718261719,62.86048889160156,145.83696682507664
1781878976.286405,0.92822265625,-0.21435546875,-0.189453125,0.9713073937385134,-61.09809875488281,104.55131530761719,57.61146545410156,134.10084323293177
1781878976.294415,1.4404296875,-0.14111328125,0.0322265587747097,1.4476840794410046,-65.00434875488281,76.66206359863281,43.02406311035156,109.33301129471725
1781878976.305081,1.478515625,-0.27001953125,0.3872070014476776,1.5520464756558394,-63.35639953613281,85.20317077636719,27.276992797851562,109.62503367672426
1781878976.315747,1.43212890625,-0.3046875,0.71630859375,1.6300078767457455,-64.27383422851562,83.3740234375,-0.2498626708984375,105.2730543963925
1781878976.326412,1.05859375,-0.33447265625,0.57275390625,1.2492156428906207,-55.057525634765625,95.76416015625,-9.283065795898438,110.85251828454666
1781878976.337123,0.82177734375,-0.4091796875,0.732421875,1.1743882758023085,-32.108306884765625,110.83984375,-26.617050170898438,118.426693331068
1781878976.347831,0.81640625,-0.6005859375,0.8325194716453552,1.3116063830396976,-7.8754425048828125,121.09184265136719,-32.04917907714844,125.50859265751613
1781878976.358538,0.8515625,-0.6318359375,0.7568359375,1.3027570685335996,10.677337646484375,126.5869140625,-47.36900329589844,135.58051048853088
1781878976.369179,0.599609375,-0.255859375,0.4726562201976776,0.8052324663442457,35.76469421386719,128.3550262451172,-36.26060485839844,138.09039640501092
1781878976.379817,0.6435546875,-0.2646484375,0.4438476264476776,0.8253497118056389,45.650482177734375,134.21630859375,-19.842147827148438,143.1492048388212
1781878976.390455,0.60986328125,-0.2822265625,0.52392578125,0.852105203983643,50.47416687011719,140.6230926513672,-6.1702728271484375,149.53450429525915
1781878976.398449,0.6728515625,-0.4033203125,0.60791015625,0.9924471057470461,51.32865905761719,147.0966339111328,-1.9588470458984375,155.8072143079009
1781878976.406442,0.71728515625,-0.49267578125,0.7353515625,1.139284574317618,50.594329833984375,155.517578125,-4.8274993896484375,163.61176017503306
1781878976.414437,0.7939453125,-0.55712890625,0.8344725966453552,1.279486729892923,51.937103271484375,163.63525390625,-14.593124389648438,172.29892134499127
1781878976.422431,0.86376953125,-0.59814453125,0.8525390028953552,1.353032680624505,57.00492858886719,175.6572723388672,-26.739120483398438,186.60123197122388
1781878976.433098,0.8369140625,-0.6318359375,0.83544921875,1.3407524741863217,66.64657592773438,187.07275390625,-36.93199157714844,201.99493394343878
1781878976.443765,0.79150390625,-0.6591796875,0.8251952528953552,1.3198270717872989,80.01518249511719,194.6392059326172,-45.29380798339844,215.263510510824
1781878976.454432,0.7314453125,-0.705078125,0.81640625,1.303329034653491,91.55082702636719,197.2637176513672,-47.61314392089844,222.624211856847
1781878976.462418,0.60009765625,-0.6552734375,0.8427733778953552,1.2246499260682446,112.17880249023438,199.3408203125,-46.33140563964844,233.38261614685246
1781878976.470405,0.525390625,-0.62890625,0.8271483778953552,1.1643594029258624,124.62997436523438,204.1015625,-44.80552673339844,243.30559704017838
1781878976.478392,0.50927734375,-0.63427734375,0.791015625,1.134626317624332,137.56942749023438,209.9609375,-41.63169860839844,254.44477000891624
1781878976.486378,0.4814453125,-0.59521484375,0.73388671875,1.0604998892532715,148.9849090576172,216.4287567138672,-37.72544860839844,265.44513431653195
1781878976.497078,0.46533203125,-0.60693359375,0.64599609375,1.001106008207822,156.61239624023438,223.57177734375,-32.90367126464844,274.9444195895664
1781878976.507779,0.46337890625,-0.51025390625,0.58740234375,0.9056050866927721,159.1167449951172,233.9458465576172,-27.898788452148438,284.30114325570173
1781878976.518479,0.47412109375,-0.46240234375,0.55419921875,0.8635644232524287,155.08651733398438,244.5068359375,-21.306991577148438,290.3263828332183
1781878976.529159,0.4814453125,-0.42138671875,0.52001953125,0.8244856994203016,144.0410614013672,249.6356964111328,-12.578964233398438,288.48576851118463
1781878976.539838,0.46435546875,-0.40185546875,0.4897460639476776,0.7854712128872433,126.27983093261719,247.5566864013672,-2.0198822021484375,277.9118360316915
1781878976.550517,0.48046875,-0.37451171875,0.5537109375,0.823228430944152,105.58891296386719,232.6641082763672,7.6847076416015625,255.61819292152333
1781878976.561159,0.58154296875,-0.2900390625,0.607421875,0.8895370798943448,55.35697937011719,203.1841278076172,17.023086547851562,211.27699930077893
1781878976.571799,0.525390625,-0.23583984375,0.64794921875,0.8668874960550823,31.8603515625,193.42041015625,14.032363891601562,196.5284821675586
1781878976.582439,0.4892578125,-0.212890625,0.71337890625,0.890845154439099,8.663177490234375,182.2509765625,9.637832641601562,182.7111297109176
1781878976.590439,0.33642578125,-0.27197265625,0.7792968153953552,0.8913220285187031,-8.668899536132812,171.9989776611328,3.6563873291015625,172.25610962733032
1781878976.598441,0.208984375,-0.32861328125,0.8847655653953552,0.966680538397973,-15.933990478515625,160.0341796875,-0.9212493896484375,160.8281051970034
1781878976.606442,0.15869140625,-0.16259765625,0.9438475966453552,0.9708085526656679,-14.894485473632812,146.8486785888672,-4.4002532958984375,147.66767530468115
1781878976.614444,0.0703125,-0.1328125,0.9692382216453552,0.9808189119866881,-11.415481567382812,140.5620574951172,1.6422271728515625,141.03440054385007
1781878976.625081,-0.0322265587747097,-0.072265625,1.078125,1.0810246931833243,-6.8378448486328125,138.3037567138672,7.3795318603515625,138.66918451415398
1781878976.635717,-0.0976562425494194,-0.2666015625,1.17333984375,1.2072031824707832,-2.4433135986328125,136.0454559326172,10.919570922851562,136.50484566635038
1781878976.646353,0.064453125,-0.26708984375,1.26318359375,1.2927196066726265,14.768600463867188,130.4302215576172,18.304824829101562,132.53384800591334
1781878976.654378,0.08935546875,-0.2587890625,1.3056640625,1.334059527445895,36.49711608886719,119.26078796386719,21.112442016601562,126.49470438113644
1781878976.662405,0.11474609375,-0.27880859375,1.26904296875,1.3043661121454935,48.03276062011719,112.79106140136719,5.6095123291015625,122.72096908599934
1781878976.670432,0.0502929724752903,-0.298828125,1.17822265625,1.216567408355255,62.923431396484375,122.802734375,16.534805297851562,138.9721899335358
1781878976.678459,0.03955078125,-0.21728515625,1.10009765625,1.1220481080198013,82.21244812011719,122.25151062011719,2.9239654541015625,147.3528691569335
1781878976.689109,0.07861328125,-0.1806640625,1.14404296875,1.1608849494304805,100.94833374023438,130.67626953125,-2.5081634521484375,165.14582764162202
1781878976.699759,-0.0502929650247097,-0.0493164025247097,1.16162109375,1.1637547230125007,118.10111999511719,141.2334442138672,-11.175155639648438,184.4441498453745
1781878976.710409,-0.0527343712747097,-0.0180664099752903,1.15869140625,1.1600315012967264,131.03866577148438,144.95849609375,-15.264511108398438,196.0028132867254
1781878976.721107,-0.240234375,-0.08447265625,1.150390625,1.1782388444935357,145.07675170898438,138.97705078125,-11.785507202148438,201.24806262495133
1781878976.731805,-0.3706054389476776,-0.1123046875,1.14208984375,1.205956029633325,160.70175170898438,119.56787109375,-2.1419525146484375,200.3150437705633
1781878976.742503,-0.39111328125,-0.08642578125,1.109375,1.1794710276474851,175.5352020263672,92.28324890136719,14.032363891601562,198.8107452192048
1781878976.750484,-0.263671875,0.11474609375,1.13427734375,1.1701600814595647,201.4751434326172,34.11674499511719,33.56361389160156,207.08138952527827
1781878976.758463,-0.2426757663488388,0.2026367038488388,1.1552734375,1.1977520096884766,208.9214324951172,7.0209503173828125,37.28675842285156,212.33878838510654
1781878976.766442,-0.15283203125,0.1416015625,1.09375,1.1134171252403307,216.6118621826172,-15.810012817382812,32.77015686035156,219.64639428900034
1781878976.774421,-0.18994140625,0.2080078125,1.02099609375,1.059140222691038,225.5229949951172,-28.993606567382812,32.22084045410156,229.65067614296393
1781878976.785107,-0.13330078125,0.1787109375,1.02783203125,1.051734463601669,233.88290405273438,-43.5791015625,23.187637329101562,239.03559865852867
1781878976.795793,-0.033203125,0.1767578125,0.9374999403953552,0.9545951550426208,237.12158203125,-48.7060546875,24.225234985351562,243.2812907691836
1781878976.806479,-0.0356445275247097,0.2158203125,0.8403319716453552,0.868335627622999,232.11288452148438,-55.908203125,25.690078735351562,240.1293369894207
1781878976.814483,-0.0966796725988388,0.2407226413488388,0.8432616591453552,0.8822610582681056,230.15975952148438,-53.5888671875,26.361465454101562,237.78185054859594
1781878976.822487,-0.1982421875,0.3271484375,0.8593749403953552,0.9406653779336183,226.49765014648438,-45.2880859375,26.300430297851562,232.4734584498062
1781878976.830491,-0.14990234375,0.23876953125,0.72802734375,0.7807082777598612,224.4853973388672,-39.48783874511719,28.314590454101562,229.68391119042917
1781878976.838495,-0.1020507737994194,0.146484375,0.65771484375,0.6815136449413818,221.92001342773438,-35.82763671875,37.40882873535156,227.88491038234056
1781878976.849181,-0.0927734300494194,0.03125,0.546875,0.5555679413430319,222.1050262451172,-34.73091125488281,46.13685607910156,229.48962584134924
1781878976.859867,-0.14599609375,0.05224609375,0.4594726264476776,0.48493258104309683,222.6543426513672,-36.50093078613281,53.21693420410156,231.81742025967367
1781878976.870553,-0.1186523362994194,-0.01025390625,0.3974609076976776,0.4149201039363556,219.2363739013672,-37.17231750488281,59.80873107910156,230.26822000310025
1781878976.881179,-0.0917968675494194,-0.0791015625,0.158203125,0.19927857597241275,193.4795379638672,-11.415481567382812,69.75746154785156,205.9872526923129
1781878976.891807,-0.07666015625,0.0371093712747097,0.08544921875,0.12064598616474571,173.0327606201172,-25.209426879882812,60.96839904785156,185.18368484801516
1781878976.902435,0.0224609412252903,0.2026367038488388,0.0190429650247097,0.20476513898703624,140.31982421875,-32.77587890625,52.60658264160156,153.39936063779965
1781878976.913093,-0.0249023400247097,0.39794921875,-0.06640625,0.40421961516173865,99.67041015625,-22.8271484375,50.83656311035156,114.19117967415661
1781878976.923748,0.0947265625,0.572265625,-0.0024414099752902985,0.580057779606803,45.89653015136719,-22.035598754882812,44.54994201660156,67.65172892176601
1781878976.934405,-0.08837890625,0.4335937201976776,-0.29248046875,0.530433002239706,-15.871047973632812,-29.481887817382812,47.35755920410156,57.998364518562795
1781878976.942413,0.16455078125,0.3935546875,-0.31884765625,0.5325655636251054,-129.33349609375,-52.001953125,25.445938110351562,141.69986629126572
1781878976.950419,0.25341796875,0.32275390625,-0.20458984375,0.458527812734036,-187.07656860351562,-65.61279296875,16.168594360351562,198.90727630032927
1781878976.958425,0.6318359375,0.361328125,0.162109375,0.7456903615411763,-236.3300323486328,-82.21626281738281,9.088516235351562,250.3876977587418
1781878976.966431,0.27783203125,0.24951171875,0.4633788764476776,0.5951190792774099,-271.91351318359375,-64.02778625488281,18.793106079101562,279.9816010037905
1781878976.977094,0.4521484375,0.33642578125,0.8115234375,0.9880236866771872,-304.01800537109375,-88.62495422363281,11.896133422851562,316.8956422726158
1781878976.987756,0.9477538466453552,0.275390625,1.3037109375,1.6351573498370384,-329.71380615234375,-77.45552062988281,16.046524047851562,339.069377233524
1781878976.99842,0.759765625,0.095703125,1.56396484375,1.7413755842874243,-347.7821350097656,-22.8271484375,18.976211547851562,349.04668562020083
1781878977.009093,0.53076171875,-0.14208984375,1.3857421875,1.490697466290407,-345.09466552734375,5.0678253173828125,10.187149047851562,345.2821875431745
1781878977.019768,0.21630859375,-0.06494140625,1.384765625,1.403061876809954,-329.40863037109375,16.965866088867188,-1.6536712646484375,329.84939139515893
1781878977.030445,0.0712890625,-0.119140625,1.27734375,1.2848671817046236,-314.51605224609375,15.439987182617188,10.736465454101562,315.07778724485496
1781878977.038439,0.29931640625,-0.072265625,1.2392578125,1.276938744595582,-290.6532287597656,-2.01416015625,38.87367248535156,293.2482201857499
1781878977.046433,0.36865234375,-0.08984375,1.27392578125,1.3292341201232587,-278.3851623535156,-0.3662109375,47.35755920410156,282.38479269042443
1781878977.054429,0.439453125,-0.21728515625,1.34765625,1.4340534356720864,-264.4081115722656,-1.89208984375,51.44691467285156,269.3733737742915
1781878977.062423,0.5419921875,-0.3291015625,1.52978515625,1.6559909402028181,-249.21035766601562,8.11767578125,56.81800842285156,255.73420793717088
1781878977.073114,0.21240234375,-0.3583984375,1.52685546875,1.5826723659951598,-226.1981964111328,8.668899536132812,52.66761779785156,232.4105243815726
1781878977.083804,0.0439453125,-0.42919921875,1.55908203125,1.617677328775105,-203.5541534423828,-3.8471221923828125,39.30091857910156,207.34911606748994
1781878977.094494,0.1201171875,-0.494140625,1.55615234375,1.637135673353592,-173.4638214111328,-0.1239776611328125,26.727676391601562,175.51091531385737
1781878977.105171,0.11083984375,-0.46923828125,1.47265625,1.5495762214931672,-143.4955596923828,-3.4198760986328125,11.957168579101562,144.03348598291043
1781878977.115849,0.03955078125,-0.42626953125,1.3486328125,1.4149489179900596,-114.32075500488281,-10.316848754882812,-6.5364837646484375,114.97129212600456
1781878977.126527,0.11572265625,-0.46435546875,1.3642578125,1.4457583178024165,-83.92715454101562,-15.13671875,-17.217636108398438,87.0019224904217
1781878977.13717,0.41259765625,-0.55859375,1.23779296875,1.4192939219798675,-17.887115478515625,-24.84130859375,-33.39195251464844,45.299691009235445
1781878977.147814,0.341796875,-0.3935546875,1.10400390625,1.2208746949741596,-3.7250518798828125,-32.59468078613281,-34.12437438964844,47.33668930694888
1781878977.158458,0.23046875,-0.34326171875,1.1162109375,1.1903240354123727,2.6226043701171875,-45.04585266113281,-39.67857360839844,60.08657170489707
1781878977.166455,0.2138671875,-0.4150390625,1.15771484375,1.2483189723500665,8.480072021484375,-46.2646484375,-33.63609313964844,57.82487421719254
1781878977.174451,0.123046875,-0.43115234375,1.16015625,1.2437826986183906,9.641647338867188,-37.96577453613281,-28.264999389648438,48.30395004585424
1781878977.182446,0.09326171875,-0.39697265625,1.11767578125,1.1897412281614783,1.583099365234375,-28.3203125,-28.692245483398438,40.34589513912735
1781878977.190443,0.09912109375,-0.419921875,1.04150390625,1.1273374645880092,-8.670806884765625,-17.08984375,-30.645370483398438,36.14393978936249
1781878977.201085,0.0273437537252903,-0.4609375,1.02734375,1.1263419731316515,-12.638092041015625,-9.033203125,-29.180526733398438,33.05787757211998
1781878977.211727,0.0048828125,-0.40673828125,1.03466796875,1.1117543239625225,-11.476516723632812,-8.974075317382812,-25.030136108398438,28.961218508806468
1781878977.222368,0.115234375,-0.3642578125,1.0146484375,1.0841928642405452,-7.1430206298828125,-8.790969848632812,-24.785995483398438,27.25159567257577
1781878977.230391,0.27099609375,-0.34814453125,0.9624022841453552,1.0587075394060619,4.390716552734375,-11.3525390625,-32.84263610839844,35.025666040215725
1781878977.238411,0.28076171875,-0.2890625,0.9047850966453552,0.9904647104936394,10.374069213867188,-7.2040557861328125,-39.31236267089844,41.29142272424225
1781878977.246433,0.22802734375,-0.2197265625,0.8549804091453552,0.911738850651932,10.190963745117188,-4.7588348388671875,-44.68345642089844,46.07725609013886
1781878977.254453,0.18017578125,-0.1923827975988388,0.79150390625,0.8342379076558512,6.649017333984375,-5.2490234375,-46.94175720214844,47.70000259727984
1781878977.265125,0.1904296875,-0.21240234375,0.76123046875,0.8129268405368256,2.9277801513671875,-6.5326690673828125,-48.22349548339844,48.75195563663092
1781878977.275796,0.23095703125,-0.22998046875,0.76416015625,0.8307664597769385,0.484466552734375,-9.09423828125,-49.74937438964844,50.57608258770423
1781878977.286467,0.25830078125,-0.20556640625,0.7656249403953552,0.8337615908209562,-2.0771026611328125,-10.560989379882812,-51.21421813964844,52.33302009059268
1781878977.29712,0.2744140625,-0.14697265625,0.7822265625,0.8418921750815249,-3.665924072265625,-11.5966796875,-51.94664001464844,53.351432856949266
1781878977.307775,0.27978515625,-0.01123046875,0.8032225966453552,0.8506305877687967,-6.900787353515625,-17.27294921875,-48.40660095214844,51.857252689980555
1781878977.31843,0.24462890625,0.1220703125,0.76806640625,0.8152732470630377,-11.661529541015625,-25.45166015625,-39.67857360839844,48.56096662487596
1781878977.329088,0.1728515625,-0.083984375,0.787109375,0.8102297242854786,-24.232864379882812,-24.171829223632812,-17.034530639648438,38.231979783727965
1781878977.339749,0.0732421875,-0.19091796875,0.81201171875,0.8373631949212601,-29.483795166015625,-19.8974609375,-8.428573608398438,36.554671140951264
1781878977.35041,-0.1318359375,-0.1826171875,0.8076171875,0.8384362069545448,-33.145904541015625,-17.4560546875,5.8536529541015625,37.916092704842
1781878977.358402,-0.024414055049419403,-0.21826171875,0.8530272841453552,0.8808460543432437,-36.502838134765625,-16.90673828125,16.229629516601562,43.37851847919346
1781878977.366396,0.0478515625,-0.20263671875,0.8681640028953552,0.8927822510235877,-42.484283447265625,-12.20703125,29.230117797851562,52.993638660148285
1781878977.374389,0.09130859375,-0.20361328125,0.8754882216453552,0.9034795259626754,-47.91259765625,-8.9111328125,35.69984436035156,60.411126371927814
1781878977.382382,0.15625,-0.29736328125,0.8593749403953552,0.9226940293051034,-53.226470947265625,-9.70458984375,37.40882873535156,65.77732695151417
1781878977.393115,0.25244140625,-0.37646484375,0.8334960341453552,0.9487718804355579,-58.048248291015625,-10.43701171875,33.31947326660156,67.74007412187042
1781878977.403848,0.306640625,-0.40869140625,0.8569335341453552,0.9976934501067158,-62.320709228515625,-9.94873046875,27.154922485351562,68.70398716137572
1781878977.414581,0.27294921875,-0.400390625,0.8715819716453552,0.9972306964295327,-64.14794921875,-9.70458984375,21.905899047851562,68.47632339795565
1781878977.422547,0.203125,-0.48046875,0.8896483778953552,1.031302197051572,-59.635162353515625,2.86865234375,22.516250610351562,63.8088026587839
1781878977.430512,0.14111328125,-0.4482421576976776,0.8559569716453552,0.9764713653717136,-49.869537353515625,17.9443359375,27.887344360351562,59.88884640368669
1781878977.438477,0.07958984375,-0.4462890625,0.7851561903953552,0.9066304174532341,-38.94233703613281,30.698776245117188,33.50257873535156,59.84432520048967
1781878977.446442,0.09619140625,-0.43994140625,0.81689453125,0.932801105678878,-28.810501098632812,47.17826843261719,41.25404357910156,68.97630098432951
1781878977.45712,0.0522460974752903,-0.416015625,0.8647460341453552,0.9610329643231069,-21.671295166015625,62.5,47.60169982910156,81.49734266092644
1781878977.4678,-0.011230465024709702,-0.36181640625,0.9653319716453552,1.0309718961528704,-18.070220947265625,66.71142578125,51.38587951660156,86.12465285006911
1781878977.478479,0.0219726599752903,-0.5068359375,1.08056640625,1.193729124903943,-14.469146728515625,63.53759765625,51.50794982910156,83.06293649141031
1781878977.489205,-0.0087890625,-0.501953125,1.111328125,1.2194606958540772,-8.485794067382812,57.00874328613281,53.15589904785156,78.40634614368666
1781878977.499933,0.0410156287252903,-0.51611328125,1.18017578125,1.2887474832299073,-5.252838134765625,41.56494140625,52.78968811035156,67.39427151741636
1781878977.510661,0.13525390625,-0.5380859375,1.20654296875,1.3279969995189,-3.2978057861328125,20.017623901367188,52.24037170410156,56.041388503875716
1781878977.518594,0.296875,-0.60986328125,1.16845703125,1.3510587778922056,1.277923583984375,-28.25927734375,46.01478576660156,54.0146309237018
1781878977.526529,0.32373046875,-0.60400390625,1.1044921875,1.2998173438644711,7.015228271484375,-52.001953125,40.52162170410156,66.297951567496
1781878977.534464,0.3271484375,-0.576171875,1.01611328125,1.2130483626106374,14.034271240234375,-70.1904296875,34.23500061035156,79.34539971385313
1781878977.542399,0.2939453125,-0.51904296875,0.9516600966453552,1.1231502079849263,19.8974609375,-80.99365234375,27.521133422851562,87.82535770845443
1781878977.553112,0.26416015625,-0.45361328125,0.9028319716453552,1.0443424563338672,25.571823120117188,-82.39936828613281,23.004531860351562,89.2904391172663
1781878977.563825,0.232421875,-0.388671875,0.8999022841453552,1.0074273549018604,32.527923583984375,-73.18115234375,21.844863891601562,83.01051107834039
1781878977.574538,0.18994140625,-0.32373046875,0.8793944716453552,0.9561452771235842,38.448333740234375,-59.99755859375,22.943496704101562,74.8624434921946
1781878977.585181,0.15380859375,-0.2802734375,0.8608397841453552,0.9182893973289906,41.50199890136719,-47.97554016113281,27.032852172851562,68.95537298253701
1781878977.595825,0.0712890625,-0.26025390625,0.8637694716453552,0.9049375261845476,42.11235046386719,-36.37504577636719,34.66224670410156,65.55963211764067
1781878977.606469,-0.27294921875,-0.271484375,0.76318359375,0.8547831535860665,42.049407958984375,-27.52685546875,45.03822326660156,67.48571727936809
1781878977.614455,0.1123046875,-0.13134765625,0.72314453125,0.743506935215552,25.754928588867188,0.3643035888671875,77.99720764160156,82.14020613323063
1781878977.622442,0.0546875,-0.2294921875,0.7099609375,0.7481322874703805,11.775970458984375,1.0986328125,86.23695373535156,87.04419948428925
1781878977.630428,-0.025390617549419403,-0.26318359375,0.74853515625,0.7938609246089127,-1.3446807861328125,3.1108856201171875,94.78187561035156,94.84244682616641
1781878977.638414,0.009277347475290298,-0.32568359375,0.7993163466453552,0.8631700263728868,-9.708404541015625,2.86865234375,99.48158264160156,99.99533774071227
1781878977.649077,0.0517578162252903,-0.47021484375,0.9233397841453552,1.0374667357601588,-16.481399536132812,-1.8939971923828125,97.89466857910156,99.29043202769604
1781878977.65974,0.115234375,-0.57080078125,0.9809569716453552,1.1407756454609632,-17.152786254882812,-6.4716339111328125,91.73011779785156,93.54418545795963
1781878977.670403,0.171875,-0.6015625,1.0185546875,1.1953543861380493,-13.18359375,-8.544921875,81.59828186035156,83.09694601233112
1781878977.681059,0.119140625,-0.48974609375,1.0771484375,1.1892411367243676,-8.548736572265625,-10.8642578125,72.99232482910156,74.28992178455658
1781878977.691717,0.0327148474752903,-0.4130859375,1.1259765625,1.1998055977136053,-0.5512237548828125,-10.316848754882812,66.76673889160156,67.56136942127783
1781878977.702375,-0.0390624962747097,-0.32861328125,1.072265625,1.122170280209623,7.5664520263671875,-7.1430206298828125,68.47572326660156,69.2618121107905
1781878977.710419,-0.0786132737994194,-0.2763671875,0.8583983778953552,0.9052108286567829,20.933151245117188,12.449264526367188,80.56068420410156,84.16177783133739
1781878977.718463,-0.02783203125,-0.3115234375,0.7998046278953552,0.8587833934573637,15.010833740234375,20.5078125,84.83314514160156,88.55821823934892
1781878977.726506,-0.0561523400247097,-0.3779296875,0.771484375,0.860913511831031,7.5664520263671875,22.768020629882812,86.48109436035156,89.74749936033938
1781878977.73455,-0.0620117150247097,-0.43701171875,0.7802733778953552,0.8964659722361819,3.2939910888671875,26.121139526367188,88.06800842285156,91.91919503029241
1781878977.745339,-0.0595703050494194,-0.43408203125,0.76171875,0.8787441522988186,-0.3070831298828125,26.548385620117188,88.92250061035156,92.8015204287143
1781878977.756127,-0.15771484375,-0.29541015625,0.78125,0.8499957028448651,-5.619049072265625,24.23095703125,91.54701232910156,94.86605534916842
1781878977.766915,-0.1728515625,-0.35595703125,0.8237304091453552,0.9138461893041844,-14.591217041015625,18.12744140625,87.27455139160156,90.32361301055418
1781878977.777411,-0.1616210788488388,-0.4326171875,0.9223632216453552,1.031519712217208,-18.495559692382812,6.5898895263671875,75.31166076660156,77.829034554772
1781878977.787907,0.0361328162252903,-0.353515625,0.9770507216453552,1.0396667688231747,-13.980865478515625,1.3427734375,83.55140686035156,84.72369933127807
1781878977.798403,-0.0439453050494194,-0.37939453125,0.9541015028953552,1.0277067081640896,-9.220123291015625,0.244140625,74.88441467285156,75.45028720317697
1781878977.806427,-0.0981445237994194,-0.42578125,0.8989257216453552,0.9994946090094733,-4.3354034423828125,-18.186569213867188,74.70130920410156,77.00540643088507
1781878977.814451,0.0244140625,-0.3916015625,0.8940429091453552,0.9763506304567459,-5.3730010986328125,-20.082473754882812,74.02992248535156,76.89346081500446
1781878977.822474,0.0537109375,-0.396484375,0.9057616591453552,0.9901963985008309,-7.9364776611328125,-18.674850463867188,73.35853576660156,76.11315580984159
1781878977.830498,0.0595703162252903,-0.40283203125,0.9536132216453552,1.0369187260692208,-7.3261260986328125,-13.185501098632812,74.64027404785156,76.14919614003486
1781878977.841141,0.015625,-0.4306640625,0.9433593153953552,1.0371318495240598,-3.787994384765625,-8.85009765625,76.53236389160156,77.13543837187092
1781878977.851785,-0.01416015625,-0.40576171875,0.9130858778953552,0.9992841952317219,-2.0771026611328125,-8.974075317382812,77.75306701660156,78.29679312561325
1781878977.862428,0.019042976200580597,-0.4296875,0.9077147841453552,1.0044601096882217,-1.285552978515625,-9.70458984375,78.54652404785156,79.15420488196258
1781878977.87312,0.01220703125,-0.4384765625,0.8886718153953552,0.9910339565079651,-2.140045166015625,-8.72802734375,79.64515686035156,80.15054127038594
1781878977.883813,0.0224609412252903,-0.4169921875,0.9174804091453552,1.008046268522576,-5.31005859375,-6.2255859375,80.25550842285156,80.67156422646492
1781878977.894506,0.0224609412252903,-0.42578125,0.9018554091453552,0.9975657099845726,-8.607864379882812,-0.0019073486328125,81.41517639160156,81.86895797367907
1781878977.905272,-0.0498046837747097,-0.4916991889476776,0.9809569716453552,1.0984194003919128,-15.750885009765625,10.92529296875,85.13832092285156,87.26961724796519
1781878977.916042,-0.0532226487994194,-0.490234375,1.005859375,1.1202300991547485,-15.079498291015625,14.83154296875,87.09144592285156,89.62302097383015
1781878977.926811,-0.0576171875,-0.46826171875,1.05810546875,1.1585231808387657,-10.990142822265625,16.66259765625,89.10560607910156,91.31393340904708
1781878977.934711,-0.0932617112994194,-0.4716796875,1.05615234375,1.16044700335828,-4.3964385986328125,16.782760620117188,89.10560607910156,90.77884533914124
1781878977.942614,-0.0966796800494194,-0.48193359375,1.05712890625,1.1658166552887161,3.414154052734375,15.31982421875,89.65492248535156,91.01845190863004
1781878977.950516,-0.0727538987994194,-0.4599609375,1.0283203125,1.1288489088077698,10.921478271484375,11.8408203125,88.86146545410156,90.30971019750812
1781878977.958418,-0.076171875,-0.4960937201976776,0.9995116591453552,1.1184519169495344,17.881393432617188,7.6923370361328125,89.77699279785156,91.86307591189725
1781878977.969087,-0.0947265625,-0.4907226264476776,0.9458007216453552,1.0697293222192463,23.679733276367188,3.1719207763671875,89.77699279785156,92.90155695830363
1781878977.979755,-0.07958984375,-0.4570312201976776,0.8745116591453552,0.9899407666343929,26.426315307617188,-1.2226104736328125,87.82386779785156,91.72173500366392
1781878977.990425,-0.0610351525247097,-0.44580078125,0.8286132216453552,0.942901637230692,25.081634521484375,-5.31005859375,86.90834045410156,90.61095272109438
1781878978.001091,-0.0058593712747097015,-0.388671875,0.79150390625,0.8818041688814809,12.569427490234375,-13.18359375,85.56556701660156,87.48293496716849
1781878978.011759,-0.0214843712747097,-0.42431640625,0.80078125,0.9065079156706505,4.573822021484375,-16.4794921875,87.09144592285156,88.75479403150608
1781878978.022427,-0.00048827752470970154,-0.421875,0.826171875,0.9276522630172132,-1.8939971923828125,-19.346237182617188,87.64076232910156,89.77063740509422
1781878978.030482,-0.0004882737994194031,-0.404296875,0.8701171278953552,0.9594581897106985,-5.6171417236328125,-20.143508911132812,89.28871154785156,91.70489213925124
1781878978.038538,0.0693359375,-0.38330078125,0.8881835341453552,0.9698437768335669,-3.9081573486328125,-24.660110473632812,85.01625061035156,88.60675826524492
1781878978.046596,0.0258789099752903,-0.4169921875,0.9150390028953552,1.0059068442143488,-1.9550323486328125,-25.026321411132812,83.61244201660156,87.29936640570241
1781878978.054653,-0.00439453125,-0.44873046875,0.9267577528953552,1.0296884373640165,1.155853271484375,-29.84619140625,78.91273498535156,84.37624595294602
1781878978.065243,-0.009765617549419403,-0.46337890625,0.9584960341453552,1.0646736709038793,4.1484832763671875,-35.88676452636719,77.63099670410156,85.62500470620397
1781878978.075833,-0.015136715024709702,-0.5107421875,0.9609374403953552,1.0883416130000734,9.519577026367188,-38.57612609863281,78.72962951660156,88.18783598297385
1781878978.086422,-0.10009765625,-0.2958984375,0.8969725966453552,0.9498080149348055,15.439987182617188,-40.15922546386719,82.26966857910156,92.84101982514147
1781878978.097086,0.03955078125,-0.5029296875,0.9277343153953552,1.0560272225792389,23.128509521484375,-44.43359375,82.20863342285156,96.26801969230601
1781878978.107749,0.0244140625,-0.42333984375,0.8388671278953552,0.939952513703448,20.442962646484375,-43.27392578125,77.81410217285156,91.35415628888305
1781878978.118412,-0.014648430049419403,-0.41357421875,0.7988280653953552,0.8996579844479076,13.669967651367188,-44.31343078613281,74.21302795410156,87.51069467066907
1781878978.126426,-0.0087890625,-0.439453125,0.7978515625,0.9109135043875384,5.2471160888671875,-41.87202453613281,72.50404357910156,83.8906133087893
1781878978.134441,-0.0019531212747097015,-0.42138671875,0.77783203125,0.884643007240834,-2.201080322265625,-39.12353515625,71.71058654785156,81.71844333285054
1781878978.142456,0.0615234375,-0.41943359375,0.80126953125,0.906500156998029,-7.877349853515625,-37.78076171875,71.28334045410156,81.06018272283255
1781878978.150471,0.1064453125,-0.396484375,0.8227538466453552,0.9194859195996924,-10.623931884765625,-33.8134765625,74.45716857910156,82.46265262985193
1781878978.161128,0.14306640625,-0.353515625,0.82666015625,0.9103890968414028,-12.454986572265625,-30.6396484375,74.88441467285156,81.86324149326424
1781878978.171785,0.13671875,-0.37744140625,0.8671874403953552,0.9555982882639482,-12.6953125,-29.84619140625,77.38685607910156,83.90882906308934
1781878978.182442,0.1328125,-0.33203125,0.8979491591453552,0.9665384645955188,-10.990142822265625,-32.16552734375,77.63099670410156,84.74653997555035
1781878978.193119,0.1669921875,-0.3564453125,0.9052733778953552,0.9871471725205541,-10.623931884765625,-33.8134765625,72.19886779785156,80.42944508839113
1781878978.203794,0.126953125,-0.3701171875,0.8876952528953552,0.9701065356150965,-11.598587036132812,-32.89985656738281,69.45228576660156,77.72096101821435
1781878978.214469,0.1328125,-0.45166015625,0.8789061903953552,0.9970517280539164,-13.124465942382812,-33.57124328613281,64.87464904785156,74.21590174033723
1781878978.22247,0.22607421875,-0.4521484375,0.8623046278953552,0.9995584191065879,-19.594192504882812,-33.32710266113281,63.59291076660156,74.42235182707572
1781878978.23047,0.16162109375,-0.2919921875,0.8564452528953552,0.919173153825203,-23.927688598632812,-34.85298156738281,62.92152404785156,75.80489954029245
1781878978.23847,0.140625,-0.20458984375,0.8666991591453552,0.9015541177621648,-28.444290161132812,-34.42192077636719,62.00599670410156,76.41132049620835
1781878978.24647,0.10498046875,-0.28955078125,0.9052733778953552,0.956232420736466,-30.946731567382812,-33.75053405761719,57.67250061035156,73.64045131942788
1781878978.25715,0.0673828125,-0.37939453125,0.9497069716453552,1.0249019395798844,-31.131744384765625,-35.2783203125,51.32484436035156,69.62747332141278
1781878978.267829,0.0317382849752903,-0.39794921875,0.9760741591453552,1.0545575676975725,-28.139114379882812,-38.02299499511719,44.36683654785156,64.85348172416506
1781878978.27851,0.0273437537252903,-0.34619140625,0.9765624403953552,1.0364701494110062,-24.904251098632812,-40.77339172363281,36.00502014160156,59.8251842523673
1781878978.289169,0.07421875,-0.49853515625,1.08349609375,1.1949935188277312,-9.950637817382812,-45.59516906738281,22.821426391601562,51.94951527977176
1781878978.299829,0.095703125,-0.4130859375,1.08349609375,1.1635131563787873,6.832122802734375,-43.3349609375,18.610000610351562,47.654263861312344
1781878978.310488,0.10009765625,-0.396484375,1.03515625,1.1129994889127066,17.332077026367188,-40.28511047363281,17.755508422851562,47.31330784541151
1781878978.318516,0.13525390625,-0.4184570014476776,0.9804686903953552,1.0745783982856012,21.970748901367188,-42.72651672363281,14.032363891601562,50.05173598396089
1781878978.326542,0.150390625,-0.3974609375,0.9125975966453552,1.0066910699559959,22.274017333984375,-41.19873046875,12.140274047851562,48.382367598002936
1781878978.334568,0.1298828125,-0.39453125,0.8608397841453552,0.9558083417594212,21.480560302734375,-37.2314453125,9.759902954101562,44.077780078522174
1781878978.342593,0.12109375,-0.40771484375,0.8525390028953552,0.952742274469311,17.9443359375,-33.14208984375,7.7457427978515625,38.47588651271755
1781878978.353304,0.115234375,-0.41455078125,0.8608397841453552,0.9623806135745087,13.547897338867188,-29.481887817382812,4.9991607666015625,32.82862835927749
1781878978.364014,0.13671875,-0.41259765625,0.8749999403953552,0.9770126602232087,9.944915771484375,-25.146484375,3.4122467041015625,27.2560168347044
1781878978.374724,0.13916015625,-0.40576171875,0.8857421278953552,0.9841479759767178,6.4697265625,-21.3623046875,2.2525787353515625,22.433892535939023
1781878978.385288,0.1669921875,-0.40771484375,0.9018554091453552,1.0037235493425758,2.0122528076171875,-14.585494995117188,1.6422271728515625,14.814949736722154
1781878978.395854,0.16064453125,-0.40380859375,0.9121093153953552,1.0103521411061929,0.972747802734375,-10.55908203125,1.6422271728515625,10.730207906543248
1781878978.406421,0.1650390625,-0.39697265625,0.9155272841453552,1.0114422326438766,0.423431396484375,-7.75146484375,1.3980865478515625,7.887911470516414
1781878978.41443,0.15576171875,-0.404296875,0.9331054091453552,1.0287873350401628,0.244140625,-5.615234375,1.0929107666015625,5.725811355145281
1781878978.42244,0.1650390625,-0.40283203125,0.9243163466453552,1.021700663711097,1.461029052734375,-4.2724609375,-0.1888275146484375,4.5193123576143295
1781878978.43045,0.15185546875,-0.39501953125,0.9262694716453552,1.0183691116488252,2.197265625,-3.662109375,-0.9212493896484375,4.368949729534222
1781878978.43846,0.16943359375,-0.4033203125,0.8999022841453552,1.0005993894542238,1.7070770263671875,-3.7250518798828125,-2.0198822021484375,4.568374721093393
1781878978.449142,0.125,-0.4033203125,0.8925780653953552,0.9874147443197375,-0.5512237548828125,-4.5795440673828125,-4.3392181396484375,6.332841823107716
1781878978.459826,0.14306640625,-0.40625,0.8779296278953552,0.9778893038753246,-1.1615753173828125,-5.5561065673828125,-5.8650970458984375,8.162042683291602
1781878978.470509,0.1279296875,-0.40966796875,0.9018554091453552,0.9987677550703841,-2.3822784423828125,-5.3730010986328125,-6.9637298583984375,9.112514742029294
1781878978.47851,0.12060546875,-0.42919921875,0.9272460341453552,1.0288551192010986,-0.9784698486328125,-8.848190307617188,-7.3909759521484375,11.570410558391208
1781878978.48651,0.111328125,-0.416015625,0.9174804091453552,1.013525161417162,0.5474090576171875,-11.110305786132812,-7.0247650146484375,13.156210504881953
1781878978.494509,0.11865234375,-0.40625,0.8994140028953552,0.9940135762561869,2.0122528076171875,-11.903762817382812,-7.1468353271484375,14.029468477730928
1781878978.50251,0.09814453125,-0.3818359375,0.9135741591453552,0.9950119478875261,3.292083740234375,-13.00048828125,-7.4520111083984375,15.342196076941782
1781878978.513133,0.12841796875,-0.40478515625,0.8886718153953552,0.9849262880522021,4.024505615234375,-12.451171875,-7.0858001708984375,14.880755712320136
1781878978.523756,0.12841796875,-0.3837890625,0.8642577528953552,0.9543200106003403,4.3315887451171875,-10.560989379882812,-6.7195892333984375,13.245755441062153
1781878978.534379,0.1123046875,-0.36181640625,0.8525390028953552,0.9329234728121831,3.4770965576171875,-8.668899536132812,-6.4144134521484375,11.33069810619186
1781878978.545069,0.13037109375,-0.373046875,0.8344725966453552,0.9233120315391101,2.5005340576171875,-7.0781707763671875,-5.8650970458984375,9.526412518389519
1781878978.555761,0.12646484375,-0.38330078125,0.83642578125,0.9287200510117379,2.5615692138671875,-4.5795440673828125,-4.5223236083984375,6.927140212353951
1781878978.566453,0.09326171875,-0.3515625,0.82666015625,0.903139498373163,2.742767333984375,-2.8076171875,-2.9354095458984375,4.901236183053092
1781878978.57711,0.09033203125,-0.36572265625,0.8154296278953552,0.8982418467282985,2.6226043701171875,-1.2836456298828125,-1.2874603271484375,3.191136769124159
1781878978.587769,0.0849609375,-0.3701171875,0.7993163466453552,0.884935995085671,2.2563934326171875,-0.3070831298828125,-0.9822845458984375,2.4800190121302492
1781878978.598428,0.07763671875,-0.349609375,0.7958984375,0.872759129428675,1.1577606201171875,0.5474090576171875,-0.4940032958984375,1.3726272568377735
1781878978.606524,0.0561523474752903,-0.3486328125,0.80078125,0.8751848572902804,-0.4901885986328125,1.5239715576171875,0.1773834228515625,1.610664164051058
1781878978.614619,0.06103515625,-0.3515625,0.8134765028953552,0.8882935902434335,-1.163482666015625,1.77001953125,0.5435943603515625,2.186814094460551
1781878978.622714,0.0566406287252903,-0.3564453125,0.8203124403953552,0.896199710719102,-1.7719268798828125,1.7070770263671875,0.9098052978515625,2.6232770577277287
1781878978.638736,0.0419921912252903,-0.36865234375,0.8666991591453552,0.9427806357470094,-2.140045166015625,0.6103515625,0.7266998291015625,2.341028616666032
1781878978.64666,0.0429687537252903,-0.37109375,0.9072265028953552,0.9811303749459106,-1.346588134765625,-0.06103515625,0.7266998291015625,1.5313776596928228
1781878978.654583,0.07421875,-0.36328125,0.9213866591453552,0.9931943742813709,-0.1239776611328125,-0.0629425048828125,0.9708404541015625,0.9807463518672977
1781878978.662508,0.08056640625,-0.376953125,0.9438475966453552,1.0195258162285636,0.6694793701171875,0.5474090576171875,0.7877349853515625,1.1697801975245905
1781878978.673136,0.07275390625,-0.380859375,0.9443358778953552,1.0208414395391754,0.118255615234375,0.9765625,1.4591217041015625,1.7597428375535324
1781878978.683764,0.06982421875,-0.4111328125,0.9423827528953552,1.0305294095720103,-0.064849853515625,0.732421875,0.4825592041015625,0.8794945661814216
1781878978.694391,0.09375,-0.4072265625,0.9741210341453552,1.0599690207123897,-1.4057159423828125,2.1343231201171875,-0.3719329833984375,2.582577517883176
1781878978.7024,0.10009765625,-0.4150390625,1.00390625,1.09091921010526,-3.1147003173828125,2.3174285888671875,-1.7757415771484375,4.2690855555279255
1781878978.71041,0.08984375,-0.4248046875,1.0302734375,1.1180314297702465,-4.2133331298828125,2.6226043701171875,-3.6067962646484375,6.135080198351753
1781878978.71842,0.10400390625,-0.423828125,1.06201171875,1.1481794210046632,-4.276275634765625,3.173828125,-5.2547454833984375,7.48144828003425
1781878978.72643,0.11083984375,-0.4345703125,1.08740234375,1.1762570657223979,-2.689361572265625,3.90625,-6.5364837646484375,8.075708930762156
1781878978.737088,0.10400390625,-0.3994140625,1.08837890625,1.164009041806789,0.118255615234375,4.82177734375,-6.4754486083984375,8.074339342834467
1781878978.747748,0.08447265625,-0.40869140625,1.08642578125,1.1638235576586367,3.719329833984375,4.638671875,-7.3299407958984375,9.438152533693152
1781878978.758407,0.0712890625,-0.41015625,1.0517578125,1.1311519685705262,7.991790771484375,4.150390625,-8.550643920898438,12.418050311432472
1781878978.769067,0.0546875,-0.3935546875,0.9682616591453552,1.0466167661949568,15.682220458984375,4.0283203125,-8.977890014648438,18.513830294658433
1781878978.779726,0.04443359375,-0.4013671875,0.9291991591453552,1.013154006462806,16.965866088867188,4.6367645263671875,-8.916854858398438,19.719292532545243
1781878978.790385,0.0468750037252903,-0.3935546875,0.9047850966453552,0.9877847078888261,15.806198120117188,6.1016082763671875,-8.123397827148438,18.789760903980355
1781878978.798392,0.0546875037252903,-0.39794921875,0.8911132216453552,0.977464617036649,13.671875,7.99560546875,-7.6351165771484375,17.58251625832255
1781878978.806401,0.0581054650247097,-0.392578125,0.8901366591453552,0.9745958656021005,11.289596557617188,8.726119995117188,-6.3533782958984375,15.619397439521768
1781878978.81441,0.0620117224752903,-0.4013671875,0.8959960341453552,0.9837428353641093,9.153366088867188,8.543014526367188,-4.7054290771484375,13.375659638112005
1781878978.822419,0.056640625,-0.390625,0.9038085341453552,0.9862382660490143,7.381439208984375,8.30078125,-4.0950775146484375,11.83884597447161
1781878978.833131,0.0615234375,-0.3759765625,0.9096679091453552,0.9862247278587244,6.4067840576171875,7.8716278076171875,-3.3626556396484375,10.691906249750293
1781878978.843843,0.0615234412252903,-0.39306640625,0.9038085341453552,0.9874999746513756,5.245208740234375,7.50732421875,-2.8133392333984375,9.580553705096605
1781878978.854555,0.05859375,-0.38037109375,0.9116210341453552,0.9895293357934775,3.9653778076171875,6.4067840576171875,-2.8743743896484375,8.064312199434461
1781878978.865219,0.060546875,-0.35546875,0.8740233778953552,0.9454844374215977,3.719329833984375,4.8828125,-3.3626556396484375,6.998765982298732
1781878978.875885,0.06689453125,-0.35302734375,0.8671874403953552,0.9386784542780268,3.4160614013671875,3.4770965576171875,-3.7288665771484375,6.137110225430105
1781878978.88655,0.07421875,-0.37109375,0.8666991591453552,0.9457200572071477,3.35693359375,1.77001953125,-4.4002532958984375,5.810697149389118
1781878978.89452,0.07080078125,-0.36572265625,0.865234375,0.9420171631142432,3.414154052734375,0.244140625,-4.6443939208984375,5.769440824989569
1781878978.902488,0.06494140625,-0.3603515625,0.8720702528953552,0.9458208925726307,3.84521484375,-1.52587890625,-5.4378509521484375,6.832584182351192
1781878978.910458,0.0869140625,-0.3740234375,0.8764647841453552,0.956889807609285,4.207611083984375,-3.96728515625,-6.2313079833984375,8.50132588065149
1781878978.918427,0.076171875,-0.35693359375,0.8696288466453552,0.9431108502217734,5.184173583984375,-6.65283203125,-6.4144134521484375,10.596250738823153
1781878978.929103,0.11328125,-0.36572265625,0.8691405653953552,0.9497320808058849,5.7964324951171875,-9.336471557617188,-6.8416595458984375,12.945139480076234
1781878978.939779,0.1083984375,-0.3671875,0.8764647841453552,0.9564347334009026,6.9561004638671875,-11.293411254882812,-6.1702728271484375,14.62876406935232
1781878978.950454,0.12109375,-0.37158203125,0.8842772841453552,0.966790162078837,8.543014526367188,-13.856887817382812,-5.4988861083984375,17.182380091663386
1781878978.958503,0.13134765625,-0.357421875,0.8798827528953552,0.9587472359144471,10.7421875,-16.11328125,-4.3392181396484375,19.845937594132756
1781878978.966551,0.13623046875,-0.359375,0.8676757216453552,0.9489838192369945,10.862350463867188,-15.321731567382812,-4.0950775146484375,19.222793128829895
1781878978.974599,0.12158203125,-0.36328125,0.8500975966453552,0.9324276812421688,10.189056396484375,-15.44189453125,-3.7288665771484375,18.872557402619353
1781878978.982646,0.11376953125,-0.37060546875,0.845703125,0.9303255856650496,8.543014526367188,-15.016555786132812,-4.0340423583984375,17.741294840713078
1781878978.993237,0.11865234375,-0.3642578125,0.8369140028953552,0.920427716274874,6.038665771484375,-13.671875,-4.0340423583984375,15.480928527212921
1781878979.003827,0.12548828125,-0.37744140625,0.8530272841453552,0.9412039478133617,3.1719207763671875,-12.392044067382812,-4.5833587646484375,13.5878995854763
1781878979.014417,0.12548828125,-0.38818359375,0.865234375,0.9565899512692911,0.423431396484375,-11.23046875,-4.5833587646484375,12.137128987439118
1781878979.025098,0.119140625,-0.3623046875,0.8706054091453552,0.9504803804093037,-2.689361572265625,-9.8876953125,-4.8274993896484375,11.327132674082597
1781878979.035777,0.1201171875,-0.384765625,0.8867186903953552,0.9740342708606328,-5.1898956298828125,-9.401321411132812,-5.1326751708984375,11.902277737242493
1781878979.046456,0.10986328125,-0.3779296875,0.8881835341453552,0.971478656269811,-6.5326690673828125,-9.096145629882812,-5.1937103271484375,12.344644888627
1781878979.054476,0.13427734375,-0.375,0.9106444716453552,0.993946054261902,-6.595611572265625,-7.9345703125,-5.7430267333984375,11.808550042945141
1781878979.062498,0.1240234375,-0.3828125,0.9150390028953552,0.9996117246337661,-5.9814453125,-6.89697265625,-5.9261322021484375,10.884161094215258
1781878979.070518,0.1142578125,-0.38037109375,0.9218749403953552,1.003788036592784,-5.252838134765625,-5.31005859375,-6.2923431396484375,9.766402250889884
1781878979.07854,0.11376953125,-0.3701171875,0.9121093153953552,0.9908953738688755,-4.0302276611328125,-3.7250518798828125,-6.8416595458984375,8.770806795863294
1781878979.08659,0.12255859375,-0.37255859375,0.9047850966453552,0.9861321340421373,-3.421783447265625,-1.03759765625,-6.9637298583984375,7.828074118005427
1781878979.09464,0.1103515625,-0.36865234375,0.9067382216453552,0.9850158478375568,-2.689361572265625,1.15966796875,-7.7571868896484375,8.291649046182393
1781878979.10269,0.11767578125,-0.3720703125,0.9130858778953552,0.9929802250541433,-2.017974853515625,4.08935546875,-8.001327514648438,9.209576138774633
1781878979.11074,0.1162109375,-0.3701171875,0.9091796278953552,0.9884833383813182,-1.708984375,6.8359375,-8.672714233398438,11.174374312331418
1781878979.121317,0.1083984375,-0.3720703125,0.9130858778953552,0.9919235651542011,-1.7108917236328125,9.214401245117188,-9.466171264648438,13.32068839090789
1781878979.131893,0.10986328125,-0.3583984375,0.9106444716453552,0.9847805513451746,-1.8939971923828125,11.350631713867188,-10.198593139648438,15.37645497820241
1781878979.142471,0.11376953125,-0.36328125,0.9008788466453552,0.9780079085444415,-1.8939971923828125,13.608932495117188,-10.564804077148438,17.33220569373508
1781878979.150444,0.11669921875,-0.35302734375,0.9257811903953552,0.9976561660120595,-2.323150634765625,17.08984375,-11.419296264648438,20.684779801850436
1781878979.158418,0.1240234375,-0.35107421875,0.9213866591453552,0.9937747711485124,-2.7484893798828125,18.735885620117188,-11.480331420898438,22.144652026507675
1781878979.166392,0.1044921875,-0.35302734375,0.9165038466453552,0.9876873106400874,-2.7484893798828125,20.143508911132812,-11.541366577148438,23.377730591148804
1781878979.174366,0.11865234375,-0.35986328125,0.9169921278953552,0.9921968164086379,-2.689361572265625,21.42333984375,-11.968612670898438,24.68683545927213
1781878979.185058,0.109375,-0.3447265625,0.9091796278953552,0.9784717110361459,-2.8095245361328125,21.665573120117188,-11.968612670898438,24.910603686146736
1781878979.19575,0.0966796875,-0.34619140625,0.9389647841453552,1.0054105219270304,-2.445220947265625,21.05712890625,-11.785507202148438,24.254483364262136
1781878979.206442,0.09521484375,-0.35009765625,0.9296874403953552,0.997974434647976,-2.506256103515625,21.05712890625,-11.907577514648438,24.320246703070257
1781878979.217094,0.0927734375,-0.35693359375,0.9516600966453552,1.0206201255118885,-2.323150634765625,20.56884765625,-11.358261108398438,23.611112175930838
1781878979.227745,0.09521484375,-0.34521484375,0.9458007216453552,1.011324952663855,-2.017974853515625,19.22607421875,-11.724472045898438,22.60923256391863
1781878979.238396,0.07177734375,-0.361328125,0.9399413466453552,1.0095542264412076,-0.675201416015625,17.4560546875,-11.846542358398438,21.107115104971324
1781878979.249116,0.0693359375,-0.35302734375,0.9399413466453552,1.0064420066738413,1.277923583984375,13.00048828125,-13.250350952148438,18.606923028607472
1781878979.259838,0.07763671875,-0.357421875,0.9150390028953552,0.9854309887792794,0.8525848388671875,11.167526245117188,-13.738632202148438,17.725421239811407
1781878979.27056,0.0595703125,-0.37548828125,0.9199218153953552,0.9953874712531361,-0.1239776611328125,8.848190307617188,-14.287948608398438,16.80628803800844
1781878979.278558,0.09228515625,-0.35595703125,0.9370116591453552,1.0065847244691983,-0.4901885986328125,7.2612762451171875,-14.593124389648438,16.307228367257412
1781878979.286556,0.09228515625,-0.36279296875,0.9399413466453552,1.011743556130707,-1.773834228515625,6.34765625,-14.715194702148438,16.123776941540562
1781878979.294554,0.0986328125,-0.36083984375,0.9453124403953552,1.0166363334572528,-2.2602081298828125,5.6133270263671875,-15.386581420898438,16.533749390784585
1781878979.302552,0.10498046875,-0.3564453125,0.9565429091453552,1.0261815125300453,-1.8939971923828125,4.8198699951171875,-14.898300170898438,15.772689057886653
1781878979.313184,0.10302734375,-0.365234375,0.9545897841453552,1.0272548068695018,-0.9784698486328125,4.1484832763671875,-15.081405639648438,15.672144486527728
1781878979.323816,0.09423828125,-0.35400390625,0.9521483778953552,1.0201892730380815,-0.1239776611328125,2.9888153076171875,-14.593124389648438,14.896565606046881
1781878979.334448,0.0966796875,-0.34716796875,0.9223632216453552,0.9902658598301253,0.7305145263671875,1.2187957763671875,-14.898300170898438,14.965910015763036
1781878979.34515,0.099609375,-0.34130859375,0.9277343153953552,0.9935313501433065,-0.675201416015625,-0.18310546875,-15.996932983398438,16.012223126106395
1781878979.355851,0.1123046875,-0.3349609375,0.9101561903953552,0.9763172964770919,-2.201080322265625,0.30517578125,-16.790390014648438,16.936796736293804
1781878979.366554,0.09716796875,-0.34033203125,0.9296874403953552,0.994779494397939,-3.421783447265625,0.6103515625,-17.583847045898438,17.924084576998023
1781878979.37454,0.09912109375,-0.35986328125,0.9316405653953552,1.003633755664082,-4.33349609375,0.91552734375,-18.438339233398438,18.962851378355012
1781878979.382524,0.1044921875,-0.34619140625,0.9326171278953552,1.0002708704414365,-5.252838134765625,1.5869140625,-18.865585327148438,19.647414955859375
1781878979.390507,0.1201171875,-0.34521484375,0.9233397841453552,0.9930547739494726,-4.7016143798828125,0.9136199951171875,-19.536972045898438,20.11549542006897
1781878979.398492,0.11328125,-0.35400390625,0.9184569716453552,0.9908151270574033,-3.9691925048828125,-0.3070831298828125,-20.208358764648438,20.59676074411265
1781878979.409203,0.11865234375,-0.33056640625,0.9008788466453552,0.9669204848132413,-3.2367706298828125,-1.4667510986328125,-20.940780639648438,21.24015858447595
1781878979.419914,0.1337890625,-0.31982421875,0.8823241591453552,0.9479889060296196,-3.0536651611328125,-2.8705596923828125,-22.771835327148438,23.154296966883162
1781878979.430624,0.119140625,-0.32080078125,0.8535155653953552,0.9195631844240796,-3.5419464111328125,-2.5653839111328125,-24.663925170898438,25.0486683044531
1781878979.441237,0.1279296875,-0.35791015625,0.8388671278953552,0.9209580572176723,-5.741119384765625,0.79345703125,-28.264999389648438,28.853079841628663
1781878979.451848,0.1142578125,-0.3330078125,0.8359375,0.9070504698248991,-9.096145629882812,4.2705535888671875,-29.668807983398438,31.324362091368908
1781878979.462459,0.115234375,-0.34423828125,0.83544921875,0.9109085313957599,-12.271881103515625,9.27734375,-32.72056579589844,36.15665359070453
1781878979.470454,0.11279296875,-0.3388671875,0.8579100966453552,0.929280882451394,-15.504837036132812,13.246536254882812,-34.91783142089844,40.43668687475821
1781878979.478451,0.12890625,-0.33154296875,0.8715819716453552,0.9413780827668715,-18.375396728515625,16.29638671875,-38.39683532714844,45.58008762779585
1781878979.486448,-0.0053710900247097015,-0.30029296875,0.8828124403953552,0.9325033622489222,-20.936965942382812,22.279739379882812,-35.28404235839844,46.68733205974886
1781878979.494445,0.12939453125,-0.28173828125,0.8623046278953552,0.9163452816099718,-27.099609375,20.56884765625,-37.17613220214844,50.39376080126613
1781878979.505113,0.13232421875,-0.30908203125,0.8730468153953552,0.9355491129713048,-31.740188598632812,19.960403442382812,-36.44371032714844,52.287678283402236
1781878979.515781,0.11865234375,-0.2646484375,0.8623046278953552,0.9097727438422777,-36.869049072265625,16.845703125,-38.09165954589844,55.6244462464967
1781878979.526449,0.16943359375,-0.3447265625,0.8803710341453552,0.9605192883780463,-41.812896728515625,15.9912109375,-39.31236267089844,59.57767215027272
1781878979.537102,0.27685546875,-0.4638671875,0.8969725966453552,1.0470824023679577,-47.42431640625,18.00537109375,-41.99790954589844,65.85653787627488
1781878979.547753,0.232421875,-0.40966796875,0.9238280653953552,1.036969655780916,-49.92866516113281,22.947311401367188,-42.05894470214844,69.19830586641709
1781878979.558403,0.22119140625,-0.41357421875,0.7685546875,0.9003585842828112,-49.56245422363281,25.632858276367188,-47.73521423339844,73.43113079610356
1781878979.569072,0.36474609375,-0.4697265625,0.9365233778953552,1.1093956885478131,-55.2978515625,23.0712890625,-54.14390563964844,80.75703860561548
1781878979.579739,0.3544921875,-0.5625,0.9897460341453552,1.1923372732180244,-55.240631103515625,27.28271484375,-68.05992126464844,91.80428495724053
1781878979.590406,0.37548828125,-0.6357421875,1.00439453125,1.246582509394493,-55.423736572265625,29.47998046875,-78.06968688964844,100.17851982894098
1781878979.598423,0.20751953125,-0.66552734375,1.0615234375,1.269969688414242,-39.00337219238281,30.332565307617188,-94.97642517089844,107.06002474668905
1781878979.606438,0.0888671875,-0.5859375,1.03564453125,1.1932224126408464,-25.455474853515625,30.21240234375,-94.36607360839844,102.30213244925186
1781878979.614453,0.10986328125,-0.59521484375,1.03759765625,1.2012325116491174,-13.126373291015625,27.83203125,-88.01841735839844,93.24250872618819
1781878979.622468,0.1435546875,-0.54638671875,1.0224609375,1.1681492898782215,-1.834869384765625,23.37646484375,-81.48765563964844,84.79424435594764
1781878979.633149,0.21435546875,-0.5078125,0.9833983778953552,1.1273394217299855,9.944915771484375,19.71435546875,-78.92417907714844,81.95476315780522
1781878979.64383,0.22265625,-0.5009765625,0.9423827528953552,1.0902470246659732,20.320892333984375,17.4560546875,-78.25279235839844,82.71125692666625
1781878979.65451,0.1943359375,-0.48486328125,0.8881835341453552,1.0304022750535122,28.926849365234375,14.58740234375,-78.92417907714844,85.31459994830426
1781878979.662506,0.19482421875,-0.470703125,0.8178710341453552,0.963551211192382,34.175872802734375,12.3291015625,-78.68003845214844,86.66340333727193
1781878979.670502,0.193359375,-0.45166015625,0.767578125,0.9113511522035185,36.55815124511719,10.374069213867188,-78.06968688964844,86.82739052604722
1781878979.678498,0.177734375,-0.42236328125,0.71533203125,0.8495176068435298,36.62109375,9.6435546875,-77.94761657714844,86.65987297772388
1781878979.686494,0.17138671875,-0.42822265625,0.6826171875,0.8238411711975236,32.527923583984375,10.25390625,-77.88658142089844,85.02663095468124
1781878979.697172,0.16455078125,-0.44677734375,0.67919921875,0.829456769969901,26.668548583984375,11.29150390625,-78.25279235839844,83.43985292369477
1781878979.70785,0.16357421875,-0.439453125,0.7109375,0.8516499885623133,20.078659057617188,13.303756713867188,-78.49693298339844,82.10914066079333
1781878979.718528,0.1474609375,-0.43896484375,0.7470703125,0.8789476172990563,14.341354370117188,14.280319213867188,-78.61900329589844,81.18220027358038
1781878979.729179,0.13818359375,-0.46923828125,0.8139647841453552,0.949640953203322,6.038665771484375,14.46533203125,-78.06968688964844,79.62780498118575
1781878979.73983,0.1142578125,-0.47412109375,0.8281249403953552,0.9610601313969861,3.536224365234375,12.3291015625,-78.06968688964844,79.11629186929493
1781878979.750483,0.1064453125,-0.4575195014476776,0.8393554091453552,0.9618587222766766,0.789642333984375,9.46044921875,-77.82554626464844,78.40241887739882
1781878979.761211,0.14599609375,-0.4423827826976776,0.8500975966453552,0.9693726371420892,-0.9174346923828125,5.2471160888671875,-78.00865173339844,78.19030412351319
1781878979.771938,0.14892578125,-0.4375,0.8378905653953552,0.9568937965623305,-1.956939697265625,2.9296875,-78.68003845214844,78.75887970672225
1781878979.782665,0.16845703125,-0.43359375,0.8320311903953552,0.9532351300740746,-3.3588409423828125,1.4667510986328125,-78.37486267089844,78.4605140815669
1781878979.790585,0.17724609375,-0.41015625,0.8154296278953552,0.9298224589744291,-8.11767578125,3.90625,-75.56724548339844,76.10232610834043
1781878979.798506,0.19140625,-0.39453125,0.8334960341453552,0.9418104367130682,-11.415481567382812,7.4443817138671875,-73.55308532714844,74.80500250424296
1781878979.806429,0.19091796875,-0.39111328125,0.8369140028953552,0.9433155981982352,-14.833450317382812,13.120651245117188,-72.33238220214844,74.99437480539417
1781878979.814351,0.20263671875,-0.40966796875,0.8715819716453552,0.9841466444096237,-18.922805786132812,19.346237182617188,-70.01304626464844,75.06114919984628
1781878979.82512,0.2177734375,-0.4248046875,0.8994140028953552,1.0182484182196332,-22.096633911132812,25.449752807617188,-68.67027282714844,76.49547384209372
1781878979.835889,0.21630859375,-0.44091796875,0.9174804091453552,1.0406576593972952,-23.378372192382812,29.844284057617188,-66.96128845214844,76.94831855504803
1781878979.846658,0.20947265625,-0.4443359375,0.9433593153953552,1.0635976762919463,-22.953033447265625,31.55517578125,-65.25230407714844,76.0291657878312
1781878979.854632,0.201171875,-0.4384765625,0.9511718153953552,1.0665175298865592,-21.488189697265625,31.18896484375,-64.33677673339844,74.65731487894206
1781878979.862607,0.189453125,-0.45458984375,0.9399413466453552,1.0611475617209885,-18.983840942382812,29.481887817382812,-63.84849548339844,72.84365656456289
1781878979.870581,0.21337890625,-0.46044921875,0.9536132216453552,1.0802417401566953,-15.504837036132812,27.585983276367188,-64.39781188964844,71.75280218232311
1781878979.878557,0.19873046875,-0.45654296875,0.9365233778953552,1.060660793500535,-12.027740478515625,25.87890625,-64.70298767089844,70.71676564475533
1781878979.889209,0.1787109375,-0.41552734375,0.9140624403953552,1.0198581850078823,-8.607864379882812,24.412155151367188,-65.92369079589844,70.82359533707748
1781878979.899861,0.1748046875,-0.42724609375,0.8950194716453552,1.007053006559703,-6.229400634765625,23.681640625,-66.35093688964844,70.72533040639809
1781878979.910513,0.16943359375,-0.416015625,0.8388671278953552,0.951564396769122,-4.82177734375,23.193359375,-66.10679626464844,70.2231441066714
1781878979.918498,0.18505859375,-0.4091796576976776,0.763671875,0.8859285569730393,-6.16455078125,21.728515625,-65.31333923339844,69.10833784296554
1781878979.926482,0.1748046875,-0.38818359375,0.7333984375,0.8480073403904468,-8.548736572265625,22.39990234375,-64.45884704589844,68.77339227112516
1781878979.934466,0.189453125,-0.3876953125,0.70361328125,0.8253919017400946,-11.598587036132812,23.744583129882812,-63.78746032714844,69.04471409336271
1781878979.94245,0.18017578125,-0.380859375,0.6865234375,0.8055008416576949,-15.872955322265625,25.32958984375,-62.44468688964844,69.23061283176305
1781878979.953088,0.1591796875,-0.38134765625,0.66162109375,0.7800683813198123,-21.547317504882812,27.833938598632812,-60.85777282714844,70.30422137432075
1781878979.963726,0.16796875,-0.376953125,0.69775390625,0.8106587895723835,-27.894973754882812,30.637741088867188,-59.94224548339844,72.8688790459004
1781878979.974364,0.16357421875,-0.39111328125,0.70263671875,0.8206244465927036,-34.42573547363281,33.44535827636719,-58.78257751464844,75.88883101221651
1781878979.985079,0.15625,-0.40087890625,0.70751953125,0.8280711606356159,-39.859771728515625,35.58349609375,-58.17222595214844,78.98730574422137
1781878979.995793,0.14404296875,-0.41943359375,0.7275390625,0.8520481229811685,-44.00825500488281,36.19575500488281,-58.41636657714844,81.60472457538275
1781878980.006506,0.13671875,-0.416015625,0.74462890625,0.8638479176734608,-47.42431640625,35.82763671875,-58.23326110839844,83.20936268695817
1781878980.014569,0.1826171875,-0.3486328125,0.8056640625,0.8966540340209674,-49.80659484863281,33.93363952636719,-58.96568298339844,84.315719481126
1781878980.022634,0.15673828125,-0.537109375,0.83154296875,1.0022559944443625,-47.489166259765625,32.2265625,-59.63706970214844,82.76685523368022
1781878980.030699,0.08203125,-0.4819335639476776,0.8183593153953552,0.9532581261810608,-48.76899719238281,29.787063598632812,-57.56187438964844,81.1113655921863
1781878980.038764,0.1474609375,-0.4912109076976776,0.8334960341453552,0.9786462705521287,-48.46382141113281,27.036666870117188,-59.45396423339844,81.32955922837704
1781878980.049295,0.138671875,-0.49658203125,0.8491210341453552,0.9933932420267761,-47.855377197265625,24.0478515625,-60.06431579589844,80.4745818472766
1781878980.059826,0.138671875,-0.50634765625,0.8730468153953552,1.0187387200739233,-47.855377197265625,17.822265625,-63.48228454589844,81.47251518068559
1781878980.070357,0.142578125,-0.53125,0.9218749403953552,1.0735029063572465,-48.28071594238281,11.110305786132812,-64.88609313964844,81.6374393859678
1781878980.0811,0.1728515625,-0.52294921875,0.9428710341453552,1.0919520754503187,-48.28071594238281,4.6977996826171875,-66.59507751464844,82.3893269965782
1781878980.091845,0.18798828125,-0.55078125,0.9873046278953552,1.1460671915304432,-47.733306884765625,-0.8544921875,-67.57164001464844,82.73527226837989
1781878980.10259,0.19921875,-0.53125,1.01220703125,1.1603782775300049,-46.51069641113281,-6.3495635986328125,-68.48716735839844,83.03043978757984
1781878980.113275,0.1923828125,-0.55029296875,1.0556640625,1.2059270752641316,-42.72651672363281,-12.697219848632812,-67.87681579589844,81.203674460025
1781878980.12396,0.166015625,-0.56396484375,1.04541015625,1.1993748069393286,-39.12544250488281,-13.551712036132812,-66.96128845214844,78.72904992113766
1781878980.134646,0.189453125,-0.56494140625,1.06201171875,1.2177520970338431,-35.52436828613281,-12.697219848632812,-65.31333923339844,75.42567477875353
1781878980.142814,0.185546875,-0.546875,1.0400390625,1.1896138701163266,-32.169342041015625,-9.09423828125,-63.42124938964844,71.69258407542576
1781878980.150982,0.1787109375,-0.53515625,1.0400390625,1.183220631421744,-28.507232666015625,-3.7841796875,-62.20054626464844,68.5265662776292
1781878980.15915,0.1767578125,-0.5537109375,1.0234375,1.1769721504747528,-24.843215942382812,1.6460418701171875,-60.00328063964844,64.96374773455155
1781878980.167317,0.17041015625,-0.5263671875,0.9926757216453552,1.136444950613067,-20.694732666015625,6.16455078125,-58.05015563964844,61.93621086440364
1781878980.177688,0.17529296875,-0.5390625,0.9907225966453552,1.1414233514797012,-15.993118286132812,10.374069213867188,-56.52427673339844,59.65228415410554
1781878980.188058,0.16845703125,-0.52734375,0.9829100966453552,1.1280875232573966,-11.41357421875,13.0615234375,-54.93736267089844,57.6106490866845
1781878980.198428,0.138671875,-0.5146484375,0.9653319716453552,1.1027051820944327,-7.4462890625,13.85498046875,-54.57115173339844,56.79276631844364
1781878980.209146,0.13134765625,-0.4970702826976776,0.9155272841453552,1.0500101336454268,-1.1005401611328125,17.271041870117188,-53.89976501464844,56.60993503405499
1781878980.219865,0.12451171875,-0.4970703125,0.8876952528953552,1.0249804513686471,1.094818115234375,19.4091796875,-53.16734313964844,56.609904251608036
1781878980.230584,0.1142578125,-0.4931640625,0.84130859375,0.9818685198010941,1.583099365234375,22.52197265625,-52.25181579589844,56.92097776652804
1781878980.241205,0.1279296875,-0.4809570014476776,0.8212890625,0.9603131605718616,0.911712646484375,26.2451171875,-51.58042907714844,57.88072269692309
1781878980.251828,0.12255859375,-0.47216796875,0.82666015625,0.959859475937365,-0.553131103515625,30.09033203125,-50.17662048339844,58.51006134763102
1781878980.26245,0.1220703125,-0.4721679389476776,0.8105468153953552,0.9459544723249093,-2.445220947265625,33.38623046875,-48.65074157714844,59.05517882793953
1781878980.270429,0.1103515625,-0.474609375,0.81591796875,0.9503439682100413,-6.290435791015625,38.87939453125,-45.78208923339844,60.39185869082305
1781878980.27841,0.1083984375,-0.47900390625,0.8247069716453552,0.9598627779717541,-6.900787353515625,40.4052734375,-44.86656188964844,60.771830344784235
1781878980.286391,0.11181640625,-0.46826171875,0.8403319716453552,0.9684677426340741,-7.8144073486328125,42.60063171386719,-43.82896423339844,61.61864077049601
1781878980.294372,0.1162109375,-0.4697265625,0.8520507216453552,0.9798665510002196,-7.8754425048828125,44.24858093261719,-43.03550720214844,62.22551236706901
1781878980.305042,0.111328125,-0.4809570014476776,0.8608397841453552,0.9923501008338633,-7.3261260986328125,46.38481140136719,-41.93687438964844,62.95970366771609
1781878980.315712,0.10107421875,-0.4770507514476776,0.8715819716453552,0.9987234604483473,-5.7392120361328125,47.17826843261719,-40.53306579589844,62.46324511190887
1781878980.326382,0.109375,-0.4697265625,0.8520507216453552,0.9790793463246158,-3.9081573486328125,46.02241516113281,-39.31236267089844,60.65309761169325
1781878980.337087,0.12890625,-0.486328125,0.85546875,0.9924508293520846,-2.0771026611328125,44.12651062011719,-37.90855407714844,58.21101070409521
1781878980.347792,0.15087890625,-0.4931640625,0.8657225966453552,1.0076958128498286,0.0591278076171875,42.72651672363281,-36.13853454589844,55.960275254483896
1781878980.358496,0.1650390625,-0.4829101264476776,0.8784179091453552,1.0159026062984031,2.132415771484375,40.771484375,-34.36851501464844,53.367180546431904
1781878980.366474,0.22314453125,-0.5,0.7597655653953552,0.9365026407796756,9.519577026367188,34.54780578613281,-31.316757202148438,47.59109699361432
1781878980.37445,0.25537109375,-0.490234375,0.58349609375,0.803748610808268,15.134811401367188,54.92973327636719,-40.65513610839844,69.99412979643505
1781878980.382426,-0.014648433774709702,-0.45654296875,0.6181640625,0.7686175037647915,-6.900787353515625,54.931640625,-31.805038452148438,63.848778209103045
1781878980.390402,0.0180664099752903,-0.37451171875,0.6689453125,0.7668593441865313,-31.436920166015625,36.0107421875,-32.47642517089844,57.79075786230872
1781878980.401134,0.0615234375,-0.498046875,0.7529296875,0.904841940549801,-36.43989562988281,34.11674499511719,-30.279159545898438,58.38360887599
1781878980.411868,0.0371093787252903,-0.4526366889476776,0.8100585341453552,0.928682888241522,-30.885696411132812,40.03715515136719,-29.485702514648438,58.5346622796925
1781878980.422601,0.0332031287252903,-0.419921875,0.8500975966453552,0.9487374519238043,-30.580520629882812,37.29057312011719,-33.26988220214844,58.58873737644743
1781878980.433232,0.07177734375,-0.37451171875,0.8325194716453552,0.9156962843790217,-34.24263000488281,30.332565307617188,-34.00230407714844,56.99806058408503
1781878980.443862,0.0693359375,-0.45703125,0.8417968153953552,0.9603681138580811,-31.986236572265625,29.84619140625,-30.706405639648438,53.4490207470828
1781878980.454494,0.0693359375,-0.484375,0.8657225966453552,0.9944356325053826,-29.056549072265625,26.123046875,-29.546737670898438,48.98679749703298
1781878980.462497,0.08154296875,-0.47998046875,0.845703125,0.9758300475845161,-37.72163391113281,12.144088745117188,-30.035018920898438,49.72426890315768
1781878980.470503,0.1220703125,-0.5087890625,0.8818358778953552,1.0253789479294708,-39.73579406738281,10.984420776367188,-29.851913452148438,50.899190236312236
1781878980.478508,0.09326171875,-0.53271484375,0.9033202528953552,1.0528391768103615,-38.63716125488281,12.269973754882812,-28.692245483398438,49.665153142429034
1781878980.486513,0.08837890625,-0.53173828125,0.9077147841453552,1.0557000332351512,-36.37886047363281,12.327194213867188,-27.654647827148438,47.330336497747936
1781878980.497216,0.078125,-0.5234375,0.8906249403953552,1.036003434591546,-34.305572509765625,11.8408203125,-26.311874389648438,44.82624303677854
1781878980.507919,0.05322265625,-0.56591796875,0.9384765028953552,1.097193667945239,-26.857376098632812,9.519577026367188,-25.640487670898438,38.33243542570503
1781878980.518622,0.009765621274709702,-0.53466796875,0.9570311903953552,1.0963000973983732,-21.728515625,6.34765625,-24.175643920898438,33.11922236593285
1781878980.529242,0.015625,-0.45166015625,0.9770507216453552,1.076507849500636,-17.215728759765625,5.79833984375,-25.152206420898438,31.0263686162742
1781878980.539861,-0.07861328125,-0.5048828125,0.8974608778953552,1.032725873453117,-11.537551879882812,9.519577026367188,-25.640487670898438,29.684542410881463
1781878980.550482,-0.0581054612994194,-0.5185546875,0.8847655653953552,1.0271734587061736,-10.868072509765625,15.19775390625,-26.556015014648438,32.470119453594464
1781878980.558465,0.00732421875,-0.47802734375,0.9204100966453552,1.0371685164714992,-12.941360473632812,8.726119995117188,-28.020858764648438,32.074795509653136
1781878980.56645,0.0888671875,-0.51318359375,0.9096679091453552,1.0482129949763108,-8.485794067382812,11.293411254882812,-27.288436889648438,30.727977912747022
1781878980.574434,0.166015625,-0.38525390625,0.7685546875,0.8755901254030033,-7.3261260986328125,7.6274871826171875,-28.692245483398438,30.57933346581734
1781878980.582418,0.328125,-0.4619140326976776,0.71630859375,0.9133064057084751,-16.786575317382812,-5.6781768798828125,-40.53306579589844,44.237543177487076
1781878980.593094,0.435546875,-0.5224609375,0.71337890625,0.9856855357658906,-26.369094848632812,-5.2471160888671875,-39.49546813964844,47.77816859148357
1781878980.60377,0.2841796875,-0.46484375,0.65673828125,0.8533129418688459,-37.845611572265625,8.4228515625,-38.51890563964844,54.65291241460838
1781878980.614446,0.27978515625,-0.5302734375,0.67578125,0.9034101781734949,-49.62348937988281,16.542434692382812,-38.33580017089844,64.85195770776815
1781878980.625136,0.2392578125,-0.50244140625,0.681640625,0.8799577314889354,-62.931060791015625,17.51708984375,-36.50474548339844,74.83156614480424
1781878980.635826,0.22900390625,-0.4599609375,0.6552734375,0.8327005049816555,-74.22256469726562,14.34326171875,-37.90855407714844,84.56817805293211
1781878980.646516,0.3115234375,-0.5625,0.70654296875,0.9553303453789583,-81.72798156738281,15.745162963867188,-38.82408142089844,91.84052714359686
1781878980.654482,0.29052734375,-0.5341796875,0.7597655653953552,0.973138114742482,-94.78759765625,25.32958984375,-43.64585876464844,107.38360106831664
1781878980.66245,0.26123046875,-0.6025390625,0.7597655653953552,1.0042601226785057,-98.75679016113281,30.458450317382812,-45.72105407714844,113.00900665253202
1781878980.670418,0.25244140625,-0.5986328125,0.7275390625,0.9753978651066019,-102.47993469238281,35.27641296386719,-48.65074157714844,118.80007147371091
1781878980.678386,0.232421875,-0.5625,0.6865234375,0.9174642272128827,-106.26411437988281,39.48783874511719,-49.32212829589844,123.62857175159091
1781878980.689139,0.2060546875,-0.5986328125,0.716796875,0.9563563867367376,-107.48672485351562,45.10498046875,-47.12486267089844,125.73228688198083
1781878980.699892,0.146484375,-0.60791015625,0.66357421875,0.9117802224114717,-109.68017578125,50.9033203125,-42.54722595214844,128.18406848928632
1781878980.710645,0.1201171875,-0.64794921875,0.6845703125,0.9502119982235507,-110.05020141601562,55.96923828125,-37.23716735839844,128.95816801725402
1781878980.718613,0.0966796875,-0.6318359375,0.67822265625,0.931960077118332,-111.20986938476562,60.9130859375,-29.973983764648438,130.29381715848723
1781878980.726582,0.09228515625,-0.69873046875,0.72412109375,1.0104910570793677,-111.14692687988281,67.68608093261719,-24.297714233398438,132.38362369956005
1781878980.73455,0.0341796837747097,-0.7412109375,0.7792968153953552,1.076041556417739,-109.74502563476562,72.69287109375,-14.287948608398438,132.40985474980386
1781878980.74252,0.0019531287252902985,-0.73583984375,0.8466796278953552,1.1217533073964432,-105.59272766113281,72.32475280761719,-6.7806243896484375,128.1665747014977
1781878980.753157,-0.0214843712747097,-0.759765625,0.9169921278953552,1.1910415382188657,-99.85542297363281,71.47026062011719,1.5811920166015625,122.80718146160653
1781878980.763794,-0.01904296875,-0.6845703125,0.8876952528953552,1.1211610095914457,-93.81294250488281,71.28715515136719,6.7081451416015625,118.01578658061106
1781878980.774431,0.02197265625,-0.67626953125,0.8833007216453552,1.1126740049893233,-86.79389953613281,70.37162780761719,7.8067779541015625,112.01023515289468
1781878980.785112,0.13623046875,-0.67724609375,0.787109375,1.0472641406676584,-76.84707641601562,68.115234375,-3.9730072021484375,102.76644926180164
1781878980.795791,0.19970703125,-0.69384765625,0.75,1.0410607419427105,-70.1904296875,69.7021484375,-15.020370483398438,100.05347293311569
1781878980.80647,0.17822265625,-0.6826171875,0.7392578125,1.0218765352103458,-63.17138671875,72.021484375,-24.358749389648438,98.8487075452984
1781878980.817114,0.1318359375,-0.626953125,0.7060546875,0.9533961176260852,-56.64253234863281,70.92475891113281,-33.51402282714844,96.75684794125351
1781878980.827761,0.1669921875,-0.64892578125,0.6923828125,0.9635273837843781,-51.151275634765625,65.97900390625,-44.31724548339844,94.51825327819235
1781878980.838408,0.16455078125,-0.9389647841453552,0.6162109375,1.1350981212960172,-38.75923156738281,55.84907531738281,-49.26109313964844,83.95268037897195
1781878980.849105,-0.1782226413488388,-1.25341796875,0.787109375,1.4907585594212174,-16.422271728515625,16.6015625,-16.973495483398438,28.86871031223177
1781878980.8598,-0.2182617038488388,-1.06201171875,0.8691405653953552,1.3895727345285258,-13.246536254882812,20.200729370117188,3.9615631103515625,24.47926004016335
1781878980.870495,-0.09033203125,-0.908203125,0.9145507216453552,1.292051010831831,6.404876708984375,22.0947265625,10.370254516601562,25.23373865022836
1781878980.878572,0.06640625,-0.86865234375,0.9384765028953552,1.280509598100743,17.696380615234375,13.5498046875,17.023086547851562,28.045401932657068
1781878980.88665,0.12255859375,-0.75537109375,0.9604491591453552,1.2280344805737617,24.349212646484375,-3.41796875,19.891738891601562,31.62669668193859
1781878980.894727,0.17041015625,-0.74560546875,0.9511718153953552,1.2205306054276364,31.187057495117188,-18.129348754882812,18.365859985351562,40.479756106990735
1781878980.902804,0.17333984375,-0.77880859375,0.9550780653953552,1.2444933258677853,39.73197937011719,-27.956008911132812,17.023086547851562,51.47770482959006
1781878980.913338,0.16796875,-0.845703125,0.9458007216453552,1.2798305675659583,51.69677734375,-39.36767578125,14.398574829101562,66.55591364601734
1781878980.923872,0.2001953125,-0.82568359375,0.9340819716453552,1.2626720436787067,68.29452514648438,-52.1240234375,9.332656860351562,86.41848452946802
1781878980.934406,0.29345703125,-0.7646484375,0.9067382216453552,1.2218749791831554,86.73095703125,-58.53271484375,4.1446685791015625,104.7163592385014
1781878980.942394,0.12744140625,-0.6181640625,0.77392578125,0.9986637247226438,120.66268920898438,-62.43896484375,-3.7288665771484375,135.9117851543904
1781878980.950381,0.166015625,-0.61572265625,0.75634765625,0.9893115557187051,133.3599090576172,-64.63813781738281,-6.3533782958984375,148.3351597569696
1781878980.958368,0.16259765625,-0.58203125,0.728515625,0.9465375796362743,142.14706420898438,-63.17138671875,-5.1937103271484375,155.63864105730724
1781878980.966355,0.16455078125,-0.607421875,0.7216796875,0.9575279970782048,146.48056030273438,-60.1806640625,-6.5975189208984375,158.49856191624608
1781878980.977066,0.1025390625,-0.6064453125,0.67724609375,0.9148510522982609,147.8252410888672,-53.22456359863281,-6.2923431396484375,157.2410558837408
1781878980.987777,0.0751953125,-0.58837890625,0.6640625,0.8904061299475475,148.25057983398438,-45.2880859375,-4.3392181396484375,155.07441427604496
1781878980.998487,0.08984375,-0.52294921875,0.6318359375,0.8250845027764137,151.66854858398438,-37.2314453125,-0.6160736083984375,156.17268870170952
1781878981.009144,0.0654296875,-0.51953125,0.611328125,0.804932195994747,152.8911590576172,-27.956008911132812,4.9991607666015625,155.50638752344312
1781878981.019802,0.080078125,-0.54345703125,0.62109375,0.8291655427040138,151.30233764648438,-21.728515625,11.041641235351562,153.25287471929147
1781878981.03046,0.08984375,-0.51220703125,0.65625,0.8373123698931009,147.3369598388672,-21.299362182617188,15.985488891601562,149.72434143802332
1781878981.038468,0.21484375,-0.4951171875,0.6474609375,0.8429143087291564,137.3271942138672,-28.261184692382812,36.85951232910156,144.96922597575445
1781878981.046475,0.22509765625,-0.49951171875,0.642578125,0.844445118848074,126.220703125,-24.2919921875,42.35267639160156,135.33482914364163
1781878981.054484,0.22119140625,-0.51708984375,0.64599609375,0.8565153225999583,111.93656921386719,-20.387649536132812,44.06166076660156,122.01180979925726
1781878981.062492,0.41455078125,-0.6826171875,0.4541015326976776,0.9187092994542808,92.03720092773438,-13.12255859375,36.79847717285156,99.98587810735789
1781878981.073164,0.30615234375,-0.46484375,0.53076171875,0.7691014052698999,60.97221374511719,-10.560989379882812,28.497695922851562,68.12682304770688
1781878981.083838,0.26708984375,-0.44140625,0.54296875,0.7489936753070913,36.86332702636719,-18.800735473632812,24.286270141601562,47.98119893451243
1781878981.094511,0.20068359375,-0.4858398139476776,0.6103515625,0.8055080753557474,14.585494995117188,-11.110305786132812,26.056289672851562,31.86072488863861
1781878981.105134,0.15966796875,-0.46435546875,0.67333984375,0.8333705099078427,-1.1005401611328125,-8.424758911132812,26.605606079101562,27.9293040764231
1781878981.11576,0.09912109375,-0.39013671875,0.55029296875,0.6818020255168661,-29.664993286132812,-14.894485473632812,23.736953735351562,40.80809352107477
1781878981.126386,0.014160159975290298,-0.4208984375,0.4873046576976776,0.644066638038579,-57.55805969238281,-9.828567504882812,16.901016235351562,60.78795377817515
1781878981.134398,0.18994140625,-0.51708984375,0.3759765326976776,0.6669467725815867,-120.24116516113281,-5.6781768798828125,18.121719360351562,121.73157439449058
1781878981.142409,0.2001953125,-0.52099609375,0.4594726264476776,0.722931661572834,-135.37979125976562,12.75634765625,25.201797485351562,138.29512964510897
1781878981.15042,0.15087890625,-0.5146484375,0.50732421875,0.7382447571792742,-145.6928253173828,15.562057495117188,26.727676391601562,148.93940267013605
1781878981.158431,0.21435546875,-0.56689453125,0.5654296875,0.8288717681587044,-157.7167510986328,9.214401245117188,24.408340454101562,159.86008210662675
1781878981.169142,0.2119140625,-0.59619140625,0.6494140625,0.9066920024707179,-165.52734375,11.77978515625,24.591445922851562,167.75817142492525
1781878981.179852,0.18896484375,-0.60498046875,0.697265625,0.9422783195792378,-168.46084594726562,13.427734375,22.211074829101562,170.44850399102324
1781878981.190564,0.197265625,-0.59033203125,0.74462890625,0.9705039113519651,-169.7406768798828,7.5664520263671875,20.013809204101562,171.08390088715618
1781878981.201179,0.119140625,-0.54150390625,0.7529296875,0.935052984235785,-171.3886260986328,-1.9550323486328125,27.276992797851562,173.55666983309862
1781878981.211796,0.1123046875,-0.6650390625,0.7666015625,1.0210618262929982,-171.39053344726562,-10.19287109375,30.694961547851562,174.41556765637685
1781878981.222413,0.11328125,-0.64111328125,0.7651366591453552,1.0046357489980235,-168.39981079101562,-14.6484375,37.10365295410156,173.05997243204357
1781878981.230419,0.0341796875,-0.8642578125,0.720703125,1.1258431559900555,-167.97256469726562,-7.26318359375,48.76136779785156,175.05772566902314
1781878981.238425,0.09326171875,-0.9379882216453552,0.69580078125,1.1716050440817205,-164.49356079101562,-4.69970703125,50.04310607910156,172.00154433589063
1781878981.246433,0.0908203125,-1.02978515625,0.81591796875,1.316976814118062,-156.2519073486328,-1.1577606201171875,48.70033264160156,163.66954927274
1781878981.25444,0.22265625,-1.08154296875,0.65087890625,1.281777808170286,-144.6552276611328,2.3174285888671875,45.03822326660156,151.5221004341311
1781878981.265108,0.23681640625,-1.1259765625,0.767578125,1.3831418609625685,-133.9111328125,2.0751953125,41.62025451660156,140.24529764929278
1781878981.275776,0.2890625,-0.8564453125,0.77734375,1.1921908437299522,-122.62153625488281,1.3408660888671875,38.20228576660156,128.44163543481102
1781878981.286443,0.21142578125,-0.77587890625,0.65869140625,1.0395014703253054,-108.64639282226562,2.74658203125,33.86878967285156,113.83618625045506
1781878981.297101,0.16748046875,-0.9526366591453552,0.625,1.1516037998202087,-97.66006469726562,-0.732421875,33.56361389160156,103.26926384913178
1781878981.307759,0.1484375,-0.78955078125,0.5771484375,0.9892039458511206,-91.37344360351562,-5.615234375,32.34291076660156,97.09119903424504
1781878981.318416,0.11181640625,-1.06298828125,0.68408203125,1.2690213632010376,-82.21626281738281,-8.790969848632812,34.47914123535156,89.58574776639337
1781878981.326457,0.18408203125,-0.9340819716453552,0.54443359375,1.0967238768192933,-70.61958312988281,-16.359329223632812,32.58705139160156,79.47747537815049
1781878981.334497,0.1923828125,-0.9130859375,0.5185546875,1.0675373715865346,-68.42231750488281,-19.472122192382812,30.389785766601562,77.35836189032197
1781878981.342539,0.15966796875,-0.9072265625,0.4853515326976776,1.0412108365947323,-69.15473937988281,-19.655227661132812,27.215957641601562,76.87271494789243
1781878981.35058,0.1083984375,-0.9619140028953552,0.4296874701976776,1.0590845538782476,-69.88525390625,-16.41845703125,26.178359985351562,76.41217819399398
1781878981.361241,0.09326171875,-0.8759765625,0.4560546576976776,0.9919770849375839,-72.14736938476562,-15.380859375,23.981094360351562,77.56872198879795
1781878981.371902,0.119140625,-0.857421875,0.4594726264476776,0.9800417617166287,-74.34463500976562,-18.06640625,23.981094360351562,80.17862979775467
1781878981.382563,0.08349609375,-0.8359375,0.4663085639476776,0.9608364993008457,-74.83100891113281,-18.922805786132812,24.530410766601562,80.99070024302755
1781878981.390568,0.12353515625,-0.81591796875,0.4667968451976776,0.9480940677197293,-73.85444641113281,-19.655227661132812,21.844863891601562,79.4858811836948
1781878981.398571,0.13525390625,-0.8212890625,0.4584960639476776,0.9502778456817382,-72.45254516601562,-18.6767578125,20.990371704101562,77.70964089285616
1781878981.406576,0.12158203125,-0.82861328125,0.4682616889476776,0.9595056901982912,-70.13320922851562,-17.88330078125,17.450332641601562,74.4512833524443
1781878981.41458,0.13427734375,-0.84228515625,0.4526366889476776,0.9655851395217095,-67.50869750976562,-18.9208984375,13.605117797851562,71.41795199696392
1781878981.425251,0.15966796875,-0.8330078125,0.4516601264476776,0.9609332681063333,-65.61279296875,-19.8974609375,9.759902954101562,69.25462626130378
1781878981.435924,0.16455078125,-0.86279296875,0.4682616889476776,0.9953681107362017,-62.625885009765625,-17.4560546875,7.1353912353515625,65.40358649639109
1781878981.446596,0.111328125,-0.89794921875,0.5234375,1.0453198397026628,-58.353424072265625,-12.39013671875,4.4498443603515625,59.820052688862944
1781878981.454555,0.046875,-0.92626953125,0.552734375,1.0796702271776022,-52.37007141113281,-10.072708129882812,1.8863677978515625,53.3633039845335
1781878981.462514,0.0229492224752903,-0.90380859375,0.564453125,1.065834870545545,-46.14448547363281,-9.950637817382812,0.1163482666015625,47.205320351822415
1781878981.470473,0.04638671875,-0.89794921875,0.57373046875,1.0665979457612984,-38.883209228515625,-8.7890625,-1.1653900146484375,39.88119498490073
1781878981.478432,0.01611328125,-0.89794921875,0.564453125,1.0607449116581436,-30.946731567382812,-6.1664581298828125,-1.8367767333984375,31.60852969278387
1781878981.486467,0.0043945349752902985,-0.8974609375,0.56298828125,1.0594391209979255,-22.464752197265625,-4.150390625,-2.5081634521484375,22.982204366146686
1781878981.494502,-0.00390625,-0.91552734375,0.5419921875,1.0639366086633302,-14.286041259765625,-3.72314453125,-2.3250579833984375,14.945189015280716
1781878981.502537,-0.0058593712747097015,-0.8974609375,0.5029296875,1.0287899382959387,-7.1430206298828125,-2.9315948486328125,-1.5316009521484375,7.8716449076469335
1781878981.510571,-0.008300777524709702,-0.88427734375,0.4697265326976776,1.0013282873749512,-0.980377197265625,-2.50244140625,-0.0057220458984375,2.687635611916568
1781878981.521202,-0.0209960900247097,-0.876953125,0.4331054389476776,0.9782984925316259,2.5005340576171875,-2.7484893798828125,1.9474029541015625,4.195145135782024
1781878981.531832,-0.015624992549419403,-0.896484375,0.4335937201976776,0.995957774810846,5.184173583984375,-2.01416015625,4.3888092041015625,7.084782502936347
1781878981.542462,-0.00927734375,-0.9150390625,0.4262695014476776,1.0094990058798405,7.137298583984375,-1.40380859375,6.2808990478515625,9.61048398854784
1781878981.553139,0.09375,-0.84814453125,0.4033203125,0.9438249217224453,10.068893432617188,0.5474090576171875,3.5343170166015625,10.685207925333144
1781878981.563815,0.1064453125,-0.9448241591453552,0.4077148139476776,1.0345311333016225,10.557174682617188,1.0356903076171875,5.5484771728515625,11.97130697251726
1781878981.574491,0.008789066225290298,-0.9697265028953552,0.4433593451976776,1.0663087015854655,10.921478271484375,1.5869140625,4.2667388916015625,11.8322459679205
1781878981.585124,0.09423828125,-1.08935546875,0.3095703125,1.1364022040324604,11.350631713867188,3.2939910888671875,4.0836334228515625,12.504530360218027
1781878981.595757,0.06494140625,-1.00146484375,0.2358398288488388,1.030907194845583,7.137298583984375,5.55419921875,7.1964263916015625,11.557625744427268
1781878981.606392,0.0024414099752902985,-0.9545897841453552,0.3852538764476776,1.029401848548615,6.160736083984375,6.9580078125,4.0836334228515625,10.151088796161156
1781878981.617099,0.0034179724752902985,-0.9326171875,0.3759765326976776,1.0055569869955754,0.7915496826171875,6.4067840576171875,3.5343170166015625,7.359675919144028
1781878981.627807,0.0585937462747097,-1.0615234375,0.29443359375,1.1031574577515495,-1.3446807861328125,5.2471160888671875,2.6798248291015625,6.043331430702181
1781878981.638515,-0.0268554650247097,-0.9291991591453552,0.5048828125,1.0578463724549225,-0.9174346923828125,4.5795440673828125,2.1305084228515625,5.133515016022658
1781878981.646505,0.119140625,-0.7998046875,0.4316405951976776,0.9166218577444947,-7.9364776611328125,4.2705535888671875,0.5435943603515625,9.028886999495153
1781878981.654494,0.10400390625,-0.92138671875,0.36474609375,0.9963985201263771,-7.572174072265625,7.2021484375,-0.1888275146484375,10.452005459564388
1781878981.662483,0.0859375,-0.67724609375,0.20654296875,0.7132373541437291,-12.271881103515625,9.1552734375,0.6656646728515625,15.325182119338729
1781878981.670472,0.0512695349752903,-0.9135741591453552,0.14208984375,0.9259783113937522,-6.046295166015625,9.6435546875,0.4215240478515625,11.390062105550799
1781878981.678453,0.09375,-0.62109375,0.36328125,0.7256168240818462,-10.927200317382812,6.7729949951171875,0.3604888916015625,12.861069948533117
1781878981.686436,0.009765625,-0.95947265625,0.1640624850988388,0.9734472993130537,-7.6313018798828125,5.1250457763671875,4.3888092041015625,10.186486578883255
1781878981.694418,0.08984375,-0.7763671875,0.27001953125,0.8268787435272432,-9.767532348632812,4.8198699951171875,3.6563873291015625,11.489343029600684
1781878981.7024,0.0429687537252903,-0.9648436903953552,0.40283203125,1.0464431690700808,-6.9580078125,5.55419921875,6.3419342041015625,10.93083396313051
1781878981.713066,0.08837890625,-1.04052734375,0.4189452826976776,1.1251769345556342,-10.622024536132812,5.0678253173828125,5.0601959228515625,12.810770526059596
1781878981.723732,0.08447265625,-0.74658203125,0.2192382663488388,0.7826785907835675,-11.415481567382812,4.8847198486328125,6.2198638916015625,13.887419279510972
1781878981.734398,0.1201171875,-1.05029296875,0.3486328125,1.1131434305112071,-0.244140625,6.4697265625,9.393692016601562,11.408699143244045
1781878981.745044,0.11865234375,-0.7880859375,0.3173827826976776,0.8578401099945976,-7.14111328125,0.42724609375,7.1353912353515625,10.104050979770523
1781878981.755689,0.1083984375,-0.771484375,0.3349609375,0.8480195703947291,-5.0067901611328125,-1.6460418701171875,4.8160552978515625,7.139453073433519
1781878981.766334,0.1142578125,-0.83740234375,0.29052734375,0.8937022269759145,-2.86865234375,-1.3427734375,3.9005279541015625,5.024572130488889
1781878981.777055,0.0566406287252903,-0.9282225966453552,0.3857421576976776,1.0067782089272204,-3.665924072265625,-0.79345703125,3.4732818603515625,5.111972246159388
1781878981.787776,0.12060546875,-0.94189453125,0.2822265625,0.9906375824041963,-9.279251098632812,0.3643035888671875,3.1070709228515625,9.792400511415442
1781878981.798496,0.0927734375,-0.9868163466453552,0.30615234375,1.0373729658592759,-7.2650909423828125,4.7588348388671875,1.7642974853515625,8.86232481020227
1781878981.806489,0.0654296875,-1.001953125,0.3872070014476776,1.0761600116496222,-4.276275634765625,7.4462890625,2.0694732666015625,8.83269345714974
1781878981.81448,0.12158203125,-0.83837890625,0.34423828125,0.91441859946404,-10.07080078125,4.0283203125,2.7408599853515625,11.187524586566372
1781878981.822471,0.0947265625,-0.9091796875,0.4155273139476776,1.004113427079947,-1.5888214111328125,3.4198760986328125,5.8536529541015625,6.963128529155267
1781878981.830462,0.14501953125,-0.8681640625,0.2133788913488388,0.905687614541423,-2.994537353515625,2.5634765625,-1.7147064208984375,4.29870726590652
1781878981.841173,0.07177734375,-1.03369140625,0.3481445014476776,1.0931031535583273,-10.744094848632812,3.9081573486328125,2.3746490478515625,11.67682431479352
1781878981.851886,0.0517578162252903,-0.9438475966453552,0.4487304389476776,1.0463680824986012,-2.9315948486328125,3.1108856201171875,-0.1888275146484375,4.278728026910644
1781878981.862598,0.07373046875,-0.91162109375,0.2685546875,0.953210795559022,-0.186920166015625,0.79345703125,-0.3108978271484375,0.8724509543974331
1781878981.873199,0.08740234375,-0.9013671875,0.333984375,0.9652189073670252,-2.506256103515625,-1.15966796875,0.7266998291015625,2.855563358738572
1781878981.883801,0.05224609375,-0.93115234375,0.27197265625,0.9714645991135923,-1.4667510986328125,-1.4057159423828125,2.6798248291015625,3.362864435370385
1781878981.894403,0.0620117224752903,-0.9716796278953552,0.29052734375,1.016077206937366,-3.5419464111328125,-1.6460418701171875,1.4591217041015625,4.169397362316975
1781878981.902386,0.013183597475290298,-0.8706054091453552,0.33544921875,0.9330882938047863,1.277923583984375,3.35693359375,2.6187896728515625,4.445239160043558
1781878981.91037,0.06689453125,-0.9814452528953552,0.3896484076976776,1.058081067009197,-4.7626495361328125,1.8291473388671875,1.4591217041015625,5.306377930254427
1781878981.918354,0.0673828125,-0.9492186903953552,0.3676757514476776,1.0201676449578754,-1.2226104736328125,0.8525848388671875,2.4356842041015625,2.8555620847414085
1781878981.926337,0.05078125,-0.9697265625,0.3330077826976776,1.0265683244221266,-0.732421875,-0.732421875,3.4122467041015625,3.5659937150265715
1781878981.937052,0.052734375,-1.03369140625,0.3359375,1.0881878705297139,-0.4291534423828125,-0.9174346923828125,4.3888092041015625,4.5041653302141516
1781878981.947766,0.0244140625,-0.94873046875,0.333984375,1.0060969692462498,-1.956939697265625,-1.15966796875,4.9991607666015625,5.49236298389019
1781878981.95848,0.0439453125,-0.908203125,0.30029296875,0.9575698271307304,-4.7626495361328125,-0.7953643798828125,5.7926177978515625,7.541210516409096
1781878981.969138,0.056640625,-0.92529296875,0.3134765326976776,0.9785922414216951,-4.764556884765625,0.9765625,4.9991607666015625,6.974688881584761
1781878981.979797,0.080078125,-0.9501953125,0.27392578125,0.9921285056049499,-8.424758911132812,-0.4901885986328125,5.1212310791015625,9.871365424220556
1781878981.990456,0.0439453125,-1.0546875,0.3046875,1.0986953107223234,-8.180618286132812,-5.1898956298828125,8.172988891601562,12.674986375327187
1781878982.001111,0.0654296875,-0.87646484375,0.3955077826976776,0.9637935839745422,-4.093170166015625,-7.4462890625,11.285781860351562,14.126929426089305
1781878982.011765,-0.0346679650247097,-1.0107421875,0.4521484076976776,1.1078085664837518,-0.858306884765625,-8.23974609375,12.994766235351562,15.410842154448844
1781878982.022421,-0.0800781175494194,-0.95068359375,0.4096679389476776,1.0382868681329414,0.8525848388671875,-12.880325317382812,21.966934204101562,25.478930109335558
1781878982.03046,-0.014160152524709702,-0.9916991591453552,0.4140624701976776,1.074762979170445,6.343841552734375,-15.80810546875,23.920059204101562,29.3651112118624
1781878982.0385,0.0170898474752903,-0.9545897841453552,0.40380859375,1.0366267888048026,8.848190307617188,-15.687942504882812,23.553848266601562,29.651067095846802
1781878982.04654,0.014160159975290298,-0.9135741591453552,0.3837890625,0.9910157914399232,10.3759765625,-13.97705078125,22.821426391601562,28.702549376570698
1781878982.05458,0.037109375,-0.88623046875,0.3759765326976776,0.9634001778041683,9.761810302734375,-14.5263671875,21.173477172851562,27.470428093532032
1781878982.06518,0.09521484375,-0.83935546875,0.3974609076976776,0.9335730515276943,10.007858276367188,-15.016555786132812,19.037246704101562,26.23110628682511
1781878982.07578,0.0541992150247097,-0.8701171875,0.3847655951976776,0.9529354847732495,9.58251953125,-17.27294921875,18.610000610351562,27.138746802267594
1781878982.08638,0.0439453125,-0.85107421875,0.3662109076976776,0.9275607501551596,10.677337646484375,-15.93017578125,17.206192016601562,25.76488081382718
1781878982.094403,0.0063476599752902985,-0.83935546875,0.4296874701976776,0.9429683015629816,12.752532958984375,-13.12255859375,16.168594360351562,24.418273577507012
1781878982.102429,0.0009765625,-0.8427734375,0.4326171875,0.9473255256511844,14.034271240234375,-13.0615234375,15.375137329101562,24.575577544415182
1781878982.110455,-0.0205078087747097,-0.8251953125,0.4423827826976776,0.9365203683957191,15.867233276367188,-14.406204223632812,13.483047485351562,25.319960139619397
1781878982.118481,-0.0400390587747097,-0.84033203125,0.4453124701976776,0.9518740699724272,17.024993896484375,-15.44189453125,11.896133422851562,25.880890910165068
1781878982.129152,-0.10546875,-0.8193359375,0.3974609076976776,0.9167388989529288,16.355514526367188,-14.223098754882812,15.497207641601562,26.64512785295411
1781878982.139822,-0.0947265625,-0.853515625,0.3754882514476776,0.9372584866179882,13.423919677734375,-12.51220703125,15.192031860351562,23.823408159897337
1781878982.150494,-0.0415039025247097,-0.8754882216453552,0.35986328125,0.947472311656939,10.007858276367188,-13.429641723632812,14.459609985351562,22.126744564744925
1781878982.161158,-0.020996086299419403,-0.88134765625,0.3603515625,0.9524010580703133,5.6133270263671875,-16.233444213867188,13.116836547851562,21.61216214016397
1781878982.171819,0.0024414099752902985,-0.9233397841453552,0.3583984375,0.9904603765273501,0.5474090576171875,-17.946243286132812,11.835098266601562,21.504345043305637
1781878982.182482,0.0385742150247097,-0.9677733778953552,0.4023437201976776,1.0487867992162494,-4.82177734375,-20.56884765625,9.759902954101562,23.271930223602045
1781878982.19048,-0.2128906100988388,-0.5830078125,0.25927734375,0.6726405149010477,-17.763137817382812,-26.185989379882812,16.717910766601562,35.787199461856794
1781878982.198478,-0.29443359375,-0.82080078125,0.3608398139476776,0.9437215876300303,-17.457962036132812,-21.425247192382812,32.34291076660156,42.54274947116269
1781878982.206475,-0.3276366889476776,-0.84521484375,0.30126953125,0.9552472258528307,-16.420364379882812,-12.941360473632812,46.07582092285156,50.59731663824986
1781878982.214474,-0.3369140625,-0.8466796875,0.3422851264476776,0.9734149611150705,-15.445709228515625,-4.5166015625,58.58802795410156,60.75793481346133
1781878982.225128,-0.30322265625,-0.8984375,0.37890625,1.0211287220319571,-15.382766723632812,5.2471160888671875,67.56019592285156,69.4877097943071
1781878982.235782,-0.2705078125,-0.95556640625,0.4262695014476776,1.0807346210987816,-11.232376098632812,17.271041870117188,75.43373107910156,78.1965660666419
