timestamp,accel_x,accel_y,accel_z,accel_rms,gyro_x,gyro_y,gyro_z,gyro_rms
1780415685.973979,-0.0205078087747097,-0.1640625,0.9702147841453552,0.9842021141519705,0.244140625,-6.89697265625,3.5991668701171875,7.783433601231832
1780415685.982008,-0.0224609337747097,-0.14599609375,0.9858397841453552,0.9968447386328781,0.3662109375,-5.92041015625,2.7446746826171875,6.535947213860631
1780415685.990037,-0.0249023400247097,-0.150390625,0.9824218153953552,0.9941780977225873,0.4291534423828125,-5.4950714111328125,2.0732879638671875,5.888845852259569
1780415685.998066,-0.0327148400247097,-0.15380859375,0.9858397841453552,0.9983022709945898,0.2460479736328125,-5.2471160888671875,1.3408660888671875,5.42131798769005
1780415686.008725,-0.0219726525247097,-0.15283203125,0.9716796278953552,0.983870787503028,0.2460479736328125,-4.0302276611328125,-0.1850128173828125,4.041967880684457
1780415686.019386,-0.0161132775247097,-0.13818359375,0.9814452528953552,0.991256338050396,-0.3643035888671875,-3.3588409423828125,-0.9174346923828125,3.5008878867904523
1780415686.030047,-0.014648433774709702,-0.15234375,0.9692382216453552,0.9812471274222235,-0.30517578125,-2.62451171875,-1.7108917236328125,3.147752294783197
1780415686.040674,-0.0253906212747097,-0.15283203125,0.9819335341453552,0.9940803684330076,-1.1577606201171875,-1.6460418701171875,-2.6874542236328125,3.357420690916595
1780415686.051302,-0.0209960900247097,-0.1494140625,0.9765624403953552,0.9881495827353323,-1.3408660888671875,-1.1005401611328125,-3.5419464111328125,3.9439187230312993
1780415686.06193,-0.0478515625,-0.15966796875,0.9711913466453552,0.9853914268336522,-2.0751953125,-0.54931640625,-4.0912628173828125,4.620239770844857
1780415686.07261,-0.0434570237994194,-0.1396484375,0.9750975966453552,0.9860048285871842,-2.6836395263671875,-0.1811981201171875,-4.8236846923828125,5.522923852249148
1780415686.083293,-0.0400390587747097,-0.1484375,0.9804686903953552,0.9924493289228411,-2.9888153076171875,-0.2460479736328125,-4.9457550048828125,5.783947537512683
1780415686.093976,-0.0385742150247097,-0.15625,0.9750975966453552,0.9882901170953398,-2.44140625,-0.30517578125,-4.3964385986328125,5.038081885653414
1780415686.102083,-0.0439453087747097,-0.1474609375,0.9853515028953552,0.9972930875674506,-2.6836395263671875,-0.6122589111328125,-4.3964385986328125,5.1870467930499995
1780415686.110188,-0.0400390587747097,-0.17041015625,0.9824218153953552,0.9978954709514517,-2.2563934326171875,-0.7953643798828125,-4.2743682861328125,4.898381371947503
1780415686.118293,-0.0375976525247097,-0.15478515625,0.9868163466453552,0.9995891806523276,-2.44140625,-1.03759765625,-3.5419464111328125,4.42520708590357
1780415686.126398,-0.0390624962747097,-0.15234375,0.9794921278953552,0.9920379656990176,-2.0122528076171875,-1.3408660888671875,-3.6640167236328125,4.390000202858557
1780415686.137014,-0.0380859375,-0.154296875,0.9794921278953552,0.9923018154165548,-2.0751953125,-1.8310546875,-3.1757354736328125,4.212421233937499
1780415686.14763,-0.0292968712747097,-0.15771484375,0.9741210341453552,0.9872406331639668,-1.827239990234375,-1.52587890625,-2.8705596923828125,3.729239247619187
1780415686.158246,-0.0327148400247097,-0.1650390625,0.9902343153953552,1.004426280169545,-1.953125,-1.89208984375,-2.0160675048828125,3.3851483611049176
1780415686.166172,-0.0395507775247097,-0.16259765625,0.9804686903953552,0.994646225884553,-2.0122528076171875,-1.2226104736328125,-2.0160675048828125,3.09975255726071
1780415686.174098,-0.0415039025247097,-0.16259765625,0.9809569716453552,0.9952070899880084,-2.0732879638671875,-1.2836456298828125,-1.8939971923828125,3.087635737743001
1780415686.182024,-0.0209960900247097,-0.15380859375,0.9790038466453552,0.9912348112602182,-1.8291473388671875,-1.1005401611328125,-1.2226104736328125,2.4600294721380473
1780415686.18995,-0.0229492150247097,-0.1611328125,0.9804686903953552,0.9938859605508036,-1.7681121826171875,-1.2836456298828125,-0.7343292236328125,2.305039305981077
1780415686.200633,-0.0312499962747097,-0.154296875,0.9741210341453552,0.9867602936206702,-2.0732879638671875,-1.5888214111328125,-0.7343292236328125,2.713321924555171
1780415686.211316,-0.0327148400247097,-0.171875,0.9833983778953552,0.9988411515501643,-1.8291473388671875,-1.5888214111328125,-0.1850128173828125,2.4298895461223955
1780415686.221999,-0.024902336299419403,-0.1689453125,0.9829100966453552,0.9976346540975176,-2.0751953125,-1.52587890625,-0.1239776611328125,2.578781200881655
1780415686.232677,-0.033203125,-0.1591796875,0.9907225966453552,1.003978029603277,-1.89208984375,-1.708984375,1.2798309326171875,2.8528229505000517
1780415686.243354,-0.0458984337747097,-0.1474609375,0.9843749403953552,0.996416287296484,-2.0122528076171875,-1.3408660888671875,1.5850067138671875,2.891250510253531
1780415686.254031,-0.0302734337747097,-0.1533203125,0.9702147841453552,0.9827208791878941,-2.3174285888671875,-0.9784698486328125,2.5005340576171875,3.5469069740389245
1780415686.262021,-0.0297851525247097,-0.14599609375,0.9765624403953552,0.9878644718240002,-2.44140625,-0.1220703125,2.6226043701171875,3.585166568081695
1780415686.270011,-0.0336913987994194,-0.16015625,0.9907225966453552,1.0041495895885428,-2.1343231201171875,0.5474090576171875,3.2939910888671875,3.9630000190467505
1780415686.278001,-0.0219726525247097,-0.14990234375,0.9799804091453552,0.9916224646655665,-1.8901824951171875,0.6694793701171875,3.1108856201171875,3.7011622273701867
1780415686.285991,-0.0297851525247097,-0.15234375,0.9926757216453552,1.0047392008969838,-1.89208984375,0.91552734375,3.8433074951171875,4.380548686637301
1780415686.296632,-0.0400390587747097,-0.15380859375,0.9809569716453552,0.9937488565822571,-1.953125,0.732421875,4.3926239013671875,4.862744472771092
1780415686.307273,-0.0400390587747097,-0.14990234375,0.9907225966453552,1.0027986350175309,-1.644134521484375,0.91552734375,4.2095184326171875,4.611010092857578
1780415686.317914,-0.0371093712747097,-0.16943359375,0.9765624403953552,0.9918462825046913,-1.77001953125,0.8544921875,4.3926239013671875,4.81230410285627
1780415686.328592,-0.0307617150247097,-0.15771484375,0.9892577528953552,1.0022231072540266,-1.5239715576171875,1.1577606201171875,4.5146942138671875,4.903607121971147
1780415686.339273,-0.0327148400247097,-0.16015625,0.9838866591453552,0.9973731714940568,-1.4019012451171875,1.1577606201171875,4.0264129638671875,4.417888422103144
1780415686.349954,-0.0312499962747097,-0.140625,0.9838866591453552,0.99437664440411,-1.2798309326171875,1.6460418701171875,3.9043426513671875,4.426207472944261
1780415686.357952,-0.0444335900247097,-0.1513671875,0.9804686903953552,0.9930786586266603,-1.2187957763671875,1.5239715576171875,3.7212371826171875,4.201851808692133
1780415686.36595,-0.0410156212747097,-0.158203125,0.9780272841453552,0.9915885631052102,-1.40380859375,1.5869140625,3.5381317138671875,4.123996948873674
1780415686.373948,-0.0317382775247097,-0.14453125,0.9843749403953552,0.9954348917760303,-1.28173828125,1.77001953125,3.4160614013671875,4.055280219730681
1780415686.381946,-0.0336913987994194,-0.154296875,0.9677733778953552,0.9805753142675034,-1.0356903076171875,1.8901824951171875,2.8667449951171875,3.586596038748867
1780415686.392615,-0.0302734337747097,-0.158203125,0.9663085341453552,0.9796412061129434,-1.5850067138671875,2.0122528076171875,2.6226043701171875,3.6659870876648055
1780415686.403284,-0.0371093712747097,-0.16259765625,0.9868163466453552,1.0008104741962303,-1.953125,1.708984375,2.4394989013671875,3.5618084942049952
1780415686.413953,-0.0478515587747097,-0.15234375,0.9721679091453552,0.9851948200296649,-1.8291473388671875,2.0122528076171875,2.3174285888671875,3.5728723197935763
1780415686.424611,-0.0429687462747097,-0.1611328125,0.9868163466453552,1.0008079728035075,-2.0751953125,2.5634765625,2.0732879638671875,3.89568615941086
1780415686.435272,-0.0366210900247097,-0.15625,0.9794921278953552,0.9925522632806641,-1.6460418701171875,2.9888153076171875,1.9512176513671875,3.9306133241814303
1780415686.445933,-0.0322265587747097,-0.1552734375,0.9848632216453552,0.9975489746539737,-1.77001953125,3.173828125,1.5850067138671875,3.9646437911938
1780415686.45394,-0.0429687462747097,-0.16796875,0.9809569716453552,0.9961608275537686,-2.0751953125,3.173828125,0.9746551513671875,3.915299888405687
1780415686.461947,-0.0429687462747097,-0.16015625,0.9707030653953552,0.9847643264956454,-2.38037109375,3.41796875,0.9746551513671875,4.277689748453449
1780415686.469954,-0.0415039025247097,-0.15771484375,0.9755858778953552,0.9891230211721485,-2.6836395263671875,2.9888153076171875,0.7915496826171875,4.094079744042426
1780415686.477961,-0.0595703050494194,-0.1494140625,0.9746093153953552,0.9877937542684898,-3.23486328125,2.5634765625,0.4863739013671875,4.155997125455872
1780415686.485963,-0.0439453087747097,-0.1708984375,0.9814452528953552,0.9971821551422156,-3.4770965576171875,2.1953582763671875,0.0,4.112152530318787
1780415686.493965,-0.0419921837747097,-0.17431640625,0.9775390028953552,0.9938470984853401,-3.4770965576171875,1.7719268798828125,-0.3070831298828125,3.9146168889564605
1780415686.501967,-0.0463867150247097,-0.177734375,0.9707030653953552,0.9879299957767066,-3.4770965576171875,0.8525848388671875,-0.6732940673828125,3.64285962941648
1780415686.509969,-0.0585937462747097,-0.16259765625,0.9838866591453552,0.9989515418501073,-3.6602020263671875,0.4901885986328125,-0.9784698486328125,3.820309801669962
1780415686.520657,-0.0493163987994194,-0.17333984375,0.9833983778953552,0.9997755639487462,-3.2939910888671875,0.1811981201171875,-1.1005401611328125,3.4777002025097965
1780415686.531345,-0.0463867150247097,-0.171875,0.9838866591453552,0.9998628410937133,-3.0517578125,-0.06103515625,-1.2226104736328125,3.288119129029527
1780415686.542033,-0.0517578087747097,-0.1826171875,0.9746093153953552,0.992920553516228,-2.5005340576171875,-0.6694793701171875,-1.1005401611328125,2.81283875232517
1780415686.552691,-0.0512695275247097,-0.17724609375,0.9843749403953552,1.0015182302287862,-1.6460418701171875,-1.4057159423828125,-1.4667510986328125,2.614737067888213
1780415686.563349,-0.0585937425494194,-0.16455078125,0.9892577528953552,1.0045601465016918,-1.28173828125,-1.64794921875,-0.7343292236328125,2.213103941951577
1780415686.574007,-0.0483398362994194,-0.1796875,0.9907225966453552,1.008045435946922,-0.42724609375,-1.64794921875,-0.4901885986328125,1.7715983502004538
1780415686.584657,-0.0517578087747097,-0.18017578125,0.9858397841453552,1.0035049889870842,0.244140625,-1.708984375,0.1201629638671875,1.7305118828412818
1780415686.595305,-0.0507812462747097,-0.1728515625,0.9873046278953552,1.0036069080548868,0.5512237548828125,-2.0771026611328125,0.1811981201171875,2.1566260342410133
1780415686.605953,-0.0541992150247097,-0.17529296875,0.9790038466453552,0.9960490507745516,1.285552978515625,-1.8310546875,0.2422332763671875,2.2503521256384964
1780415686.614051,-0.0507812462747097,-0.15478515625,0.9916991591453552,1.0049897520960869,1.64794921875,-1.77001953125,0.7305145263671875,2.5263327654564196
1780415686.622147,-0.0332031212747097,-0.17236328125,0.9809569716453552,0.9965380716286136,1.8310546875,-1.15966796875,0.8525848388671875,2.329053879545654
1780415686.630243,-0.0258789025247097,-0.1630859375,0.9755858778953552,0.9894617454732589,1.4057159423828125,-0.7343292236328125,0.6084442138671875,1.698670386137001
1780415686.638339,-0.0434570237994194,-0.158203125,0.9785155653953552,0.9921741043779869,1.3427734375,-0.732421875,0.0,1.5295366316090904
1780415686.64892,-0.0415039025247097,-0.16796875,0.9775390028953552,0.9927328830470906,1.2226104736328125,-0.1239776611328125,0.0,1.2288803158552961
1780415686.659501,-0.0273437462747097,-0.171875,0.9780272841453552,0.9933911941516671,0.6122589111328125,-0.0019073486328125,-0.4901885986328125,0.7843146527191398
1780415686.670082,-0.0341796837747097,-0.15576171875,0.9663085341453552,0.979378449310091,0.18310546875,0.3662109375,-0.7343292236328125,0.840760056206261
1780415686.678087,-0.0361328087747097,-0.15966796875,0.9824218153953552,0.9959679028359328,0.1239776611328125,0.3643035888671875,-1.1615753173828125,1.2236604035738252
1780415686.686092,-0.0551757775247097,-0.1572265625,0.9716796278953552,0.9858630014600804,-0.42724609375,0.732421875,-1.5277862548828125,1.747315617801203
1780415686.694097,-0.0512695275247097,-0.1630859375,0.9677733778953552,0.9827567849808246,-0.7915496826171875,0.6694793701171875,-1.7108917236328125,2.000475947633246
1780415686.702102,-0.04248046875,-0.16845703125,0.9882811903953552,1.0034351363650984,-1.338958740234375,0.6103515625,-1.1615753173828125,1.8747257815075775
1780415686.710125,-0.0502929650247097,-0.154296875,0.9790038466453552,0.9923635622654353,-1.7070770263671875,0.3070831298828125,-1.5888214111328125,2.352183134682188
1780415686.718148,-0.06689453125,-0.166015625,0.9682616591453552,0.9846657842264115,-2.1343231201171875,0.4901885986328125,-0.9784698486328125,2.3985460779355243
1780415686.726171,-0.0502929650247097,-0.17236328125,0.9770507216453552,0.9934115943162495,-1.8901824951171875,0.1811981201171875,-0.7343292236328125,2.0358934236011983
1780415686.742717,-0.06494140625,-0.15966796875,0.9853515028953552,1.000314365961328,-1.89208984375,-0.244140625,-0.4291534423828125,1.955449129664668
1780415686.751242,-0.0571289025247097,-0.17578125,0.9873046278953552,1.0044566628873672,-1.644134521484375,-0.3662109375,-0.2460479736328125,1.7023009078333058
1780415686.759767,-0.0581054612994194,-0.1591796875,0.9736327528953552,0.9882687666095715,-1.0356903076171875,-0.9784698486328125,0.0591278076171875,1.42602726327701
1780415686.768292,-0.0512695275247097,-0.17333984375,0.9868163466453552,1.0032356492322068,-0.732421875,-1.220703125,0.4253387451171875,1.485756026560601
1780415686.77744,-0.0561523400247097,-0.17333984375,0.9682616591453552,0.9852565286728331,-0.30517578125,-1.28173828125,0.7305145263671875,1.5065313645313623
1780415686.786589,-0.0483398362994194,-0.16552734375,0.9780272841453552,0.9931129894604765,-0.0591278076171875,-1.9550323486328125,0.9136199951171875,2.1587841664493177
1780415686.795738,-0.0493164025247097,-0.17041015625,0.9731444716453552,0.9891824359566066,0.18310546875,-1.5869140625,1.2187957763671875,2.009300126645322
1780415686.804887,-0.0507812462747097,-0.1689453125,0.9809569716453552,0.9966934502687181,0.0629425048828125,-2.0771026611328125,1.2798309326171875,2.440550028147285
1780415686.814036,-0.0537109337747097,-0.16650390625,0.9770507216453552,0.9925908159313028,-0.0591278076171875,-2.0771026611328125,1.4019012451171875,2.506626949424215
1780415686.822073,-0.06640625,-0.16357421875,0.9726561903953552,0.9885476112930226,0.3070831298828125,-2.3822784423828125,1.5850067138671875,2.8778111315207195
1780415686.83011,-0.0410156212747097,-0.17138671875,0.9692382216453552,0.9851286306116033,0.4291534423828125,-2.3174285888671875,1.7681121826171875,2.946331385287014
1780415686.838147,-0.0429687462747097,-0.16748046875,0.9863280653953552,1.0013686000448008,0.6122589111328125,-2.5653839111328125,1.8901824951171875,3.2448182461592605
1780415686.856758,-0.0449218712747097,-0.1748046875,0.9755858778953552,0.9921403421087388,0.8544921875,-3.0517578125,1.9512176513671875,3.721643852877409
1780415686.867335,-0.0458984337747097,-0.17138671875,0.9716796278953552,0.9877456012829007,0.9174346923828125,-3.4198760986328125,1.8901824951171875,4.013730036964988
1780415686.877912,-0.0541992150247097,-0.158203125,0.9760741591453552,0.9902961919649962,0.797271728515625,-3.662109375,2.2563934326171875,4.374699830423929
1780415686.885918,-0.0439453050494194,-0.1650390625,0.9804686903953552,0.9952326033809124,1.52587890625,-4.150390625,1.8291473388671875,4.785376554035377
1780415686.893925,-0.0439453050494194,-0.16015625,0.9882811903953552,1.0021381768694422,2.3193359375,-4.2724609375,1.8291473388671875,5.194133386882483
1780415686.901932,-0.0390624962747097,-0.16162109375,0.9833983778953552,0.9973563185779563,2.445220947265625,-3.96728515625,1.5239715576171875,4.903156768896375
1780415686.909939,-0.0302734337747097,-0.1494140625,0.9848632216453552,0.9965924985744844,2.8095245361328125,-3.6029815673828125,1.6460418701171875,4.856372939984273
1780415686.920599,-0.0439453087747097,-0.13720703125,0.9755858778953552,0.9861667023057481,2.750396728515625,-2.99072265625,1.4019012451171875,4.298189301542875
1780415686.931259,-0.0268554650247097,-0.14306640625,0.9707030653953552,0.9815567501509643,2.50244140625,-2.685546875,0.9746551513671875,3.797937291955113
1780415686.941919,-0.0463867150247097,-0.1533203125,0.9711913466453552,0.9843126928749318,2.0771026611328125,-2.1991729736328125,1.0967254638671875,3.217689229235275
1780415686.952566,-0.0366210900247097,-0.14697265625,0.9843749403953552,0.995959883327706,0.7953643798828125,-2.5653839111328125,0.6084442138671875,2.7539069464442543
1780415686.963216,-0.0419921837747097,-0.15283203125,0.9672850966453552,0.9801843864632737,0.3662109375,-2.01416015625,0.7915496826171875,2.194880973041824
1780415686.973866,-0.0424804650247097,-0.1474609375,0.9746093153953552,0.9866167623005893,-0.7305145263671875,-2.1343231201171875,0.7305145263671875,2.3712102664111674
1780415686.981901,-0.0488281212747097,-0.15771484375,0.9736327528953552,0.9875317184156125,-2.44140625,-1.03759765625,1.1577606201171875,2.8943881956794755
1780415686.989939,-0.0283203087747097,-0.14794921875,0.9731444716453552,0.984734062532493,-2.86865234375,-0.06103515625,1.4019012451171875,3.193464992866205
1780415686.997977,-0.0263671837747097,-0.15185546875,0.9873046278953552,0.999262598135784,-3.6602020263671875,0.4253387451171875,1.7070770263671875,4.0610471427786905
1780415687.006015,-0.0410156212747097,-0.162109375,0.9682616591453552,0.9825947136140908,-4.57763671875,1.40380859375,1.8901824951171875,5.147642796618862
1780415687.017993,-0.0444335900247097,-0.181640625,0.9775390028953552,0.9952638658941255,-4.268646240234375,1.77001953125,2.4394989013671875,5.225463113930214
1780415687.02997,-0.0283203087747097,-0.1728515625,0.9672850966453552,0.9830158496891088,-4.39453125,1.89208984375,2.1953582763671875,5.264172000007444
1780415687.041947,-0.0385742112994194,-0.1875,0.9785155653953552,0.9970641561596545,-3.72314453125,2.74658203125,2.1343231201171875,5.095179411564319
1780415687.053924,-0.0307617150247097,-0.18505859375,0.9804686903953552,0.9982543859545882,-3.6602020263671875,2.6836395263671875,1.5850067138671875,4.807415757380136
1780415687.061942,-0.0405273400247097,-0.169921875,0.9868163466453552,1.0021588750789368,-2.0751953125,2.5634765625,0.3032684326171875,3.3120717706189393
1780415687.069959,-0.0219726525247097,-0.17529296875,0.9887694716453552,1.0044279418703936,-1.708984375,2.0751953125,-0.1239776611328125,2.691176998912572
1780415687.077976,-0.0361328087747097,-0.18017578125,0.9790038466453552,0.9961011112158242,-1.4019012451171875,2.0122528076171875,-1.1615753173828125,2.7136222435662183
1780415687.085993,-0.0356445275247097,-0.17138671875,0.9726561903953552,0.9882833624121965,-0.8525848388671875,1.3408660888671875,-1.6498565673828125,2.290600242005657
1780415687.096637,-0.0336914025247097,-0.17236328125,0.9814452528953552,0.997035102570705,-0.5474090576171875,1.0356903076171875,-1.9550323486328125,2.2791363657873243
1780415687.107281,-0.0356445275247097,-0.1767578125,0.9853515028953552,1.001714251111753,-0.179290771484375,0.79345703125,-2.9315948486328125,3.0423621739875037
1780415687.117925,-0.0327148400247097,-0.16650390625,0.9838866591453552,0.9984121241243816,-0.3643035888671875,0.1811981201171875,-3.1757354736328125,3.201694186221623
1780415687.125931,-0.0605468712747097,-0.1787109375,0.9780272841453552,0.9960626944806359,-0.3643035888671875,-0.5512237548828125,-3.2367706298828125,3.303520673959919
1780415687.133938,-0.0673828050494194,-0.177734375,0.9804686903953552,0.998723587044259,0.0,-1.46484375,-2.9315948486328125,3.2771962969044903
1780415687.141945,-0.06884765625,-0.17236328125,0.9609374403953552,0.9786980457975594,-0.2422332763671875,-2.0771026611328125,-2.0160675048828125,2.904747942474356
1780415687.149952,-0.06494140625,-0.16552734375,0.9833983778953552,0.999344313748707,-0.732421875,-2.197265625,-1.5277862548828125,2.774625897376799
1780415687.160643,-0.0639648362994194,-0.1689453125,0.9960936903953552,1.0123421649541087,-0.5474090576171875,-2.5653839111328125,-0.5512237548828125,2.6804288678880344
1780415687.171334,-0.0654296800494194,-0.16357421875,0.9814452528953552,0.9971320637216867,-0.5474090576171875,-3.1757354736328125,0.1811981201171875,3.2276594048296303
1780415687.182025,-0.0673828050494194,-0.162109375,0.9775390028953552,0.9931779266882969,-0.6084442138671875,-2.9315948486328125,1.2798309326171875,3.2561357364217303
1780415687.192663,-0.0595703087747097,-0.16015625,0.9907225966453552,1.0053506401277577,-0.4253387451171875,-1.2836456298828125,2.9888153076171875,3.2804993665998365
1780415687.203301,-0.0502929650247097,-0.1611328125,0.9755858778953552,0.9900812950177312,-0.6103515625,-0.91552734375,3.7212371826171875,3.8805058325291597
1780415687.213939,-0.0493163987994194,-0.1689453125,0.9687499403953552,0.9846070651901043,-0.91552734375,-0.3662109375,3.7212371826171875,3.8496632238666364
1780415687.221935,-0.0371093712747097,-0.1650390625,0.9755858778953552,0.990142819363012,-1.2187957763671875,-0.6122589111328125,3.9043426513671875,4.135724320845986
1780415687.229933,-0.0361328087747097,-0.16015625,0.9677733778953552,0.9816011996972082,-1.4019012451171875,-0.4291534423828125,3.9043426513671875,4.170538492503708
1780415687.237931,-0.0292968712747097,-0.16259765625,0.9648436903953552,0.9788869451475017,-1.953125,-0.8544921875,3.6602020263671875,4.23579190210591
1780415687.245929,-0.0405273400247097,-0.17138671875,0.9570311903953552,0.973100494318506,-2.3784637451171875,-1.2836456298828125,2.9888153076171875,4.029621921843406
1780415687.256666,-0.0419921837747097,-0.16943359375,0.9868163466453552,1.0021365117566043,-3.1719207763671875,-1.9550323486328125,2.6226043701171875,4.556455484025749
1780415687.267403,-0.0346679650247097,-0.1513671875,0.9785155653953552,0.99076061940895,-3.5381317138671875,-1.5888214111328125,2.4394989013671875,4.581908378712797
1780415687.27814,-0.0395507775247097,-0.17236328125,0.9882811903953552,1.003978623286042,-3.9043426513671875,-1.9550323486328125,1.1577606201171875,4.517350183125039
1780415687.28874,-0.0488281175494194,-0.16943359375,0.9790038466453552,0.9947564825126107,-4.3315887451171875,-1.8939971923828125,0.0,4.727566649089135
1780415687.299341,-0.0429687462747097,-0.16748046875,0.9731444716453552,0.9883856450106192,-4.4536590576171875,-1.9550323486328125,-1.1005401611328125,4.986824553958419
1780415687.309942,-0.0400390550494194,-0.1689453125,0.9775390028953552,0.9928384293159781,-4.3315887451171875,-1.7719268798828125,-1.0395050048828125,4.794054294608432
1780415687.320596,-0.0458984337747097,-0.17333984375,0.9702147841453552,0.9866458812707141,-4.0283203125,-2.01416015625,-1.7108917236328125,4.8178165350208575
1780415687.331252,-0.0400390587747097,-0.177734375,0.9790038466453552,0.9958118125582802,-3.9653778076171875,-1.9550323486328125,-2.0771026611328125,4.8847444258864385
1780415687.341908,-0.0454101525247097,-0.181640625,0.9736327528953552,0.9914717021243198,-3.5400390625,-2.197265625,-2.6264190673828125,4.925233995288399
1780415687.349901,-0.0458984337747097,-0.18408203125,0.9838866591453552,1.002010887414057,-2.5634765625,-2.13623046875,-2.8705596923828125,4.401704857170182
1780415687.357892,-0.0517578087747097,-0.18115234375,0.9746093153953552,0.9926521848415388,-1.7070770263671875,-2.7484893798828125,-3.2367706298828125,4.576569671244089
1780415687.365883,-0.0532226487994194,-0.1845703125,0.9858397841453552,1.0043798736560459,-0.9765625,-2.62451171875,-3.1757354736328125,4.234032578612516
1780415687.373874,-0.0483398362994194,-0.185546875,0.9770507216453552,0.995686946416106,-0.42724609375,-2.8076171875,-3.5419464111328125,4.539894037916155
1780415687.38455,-0.0473632775247097,-0.19970703125,0.9794921278953552,1.0007652107250442,0.1239776611328125,-3.0536651611328125,-3.2978057861328125,4.496194433054169
1780415687.395226,-0.0595703087747097,-0.1845703125,0.9838866591453552,1.0028199140364487,0.67138671875,-3.35693359375,-3.1757354736328125,4.669588748214451
1780415687.405902,-0.0546874962747097,-0.1826171875,0.9985350966453552,1.0165687869749669,1.0395050048828125,-3.6029815673828125,-2.9926300048828125,4.797695402607551
1780415687.416572,-0.0395507775247097,-0.1748046875,0.9887694716453552,1.0048810928824448,1.2836456298828125,-3.9081573486328125,-2.9926300048828125,5.086971034998607
1780415687.427244,-0.0502929612994194,-0.18798828125,0.9755858778953552,0.9948048959431417,0.980377197265625,-4.2724609375,-2.9926300048828125,5.3076262356638
1780415687.437916,-0.0512695275247097,-0.185546875,0.9702147841453552,0.9891273601761761,1.2836456298828125,-4.5795440673828125,-2.6264190673828125,5.433051360490747
1780415687.445924,-0.0385742112994194,-0.16796875,0.9833983778953552,0.9983856170844764,1.7108917236328125,-4.5795440673828125,-2.0160675048828125,5.288090632670811
1780415687.453934,-0.0405273400247097,-0.1826171875,0.9819335341453552,0.9995924009010253,1.708984375,-4.45556640625,-1.7108917236328125,5.069501956256939
1780415687.461944,-0.0317382775247097,-0.17041015625,0.9794921278953552,0.9947119021215921,1.2836456298828125,-3.8471221923828125,-1.2836456298828125,4.253920705579597
1780415687.469954,-0.0439453087747097,-0.16552734375,0.9833983778953552,0.9981998103282985,1.64794921875,-3.5400390625,-1.2226104736328125,4.09174651730056
1780415687.480638,-0.0327148400247097,-0.169921875,0.9760741591453552,0.9912943399983025,1.5888214111328125,-2.8057098388671875,-0.7953643798828125,3.3209886589954762
1780415687.491322,-0.0366210900247097,-0.16943359375,0.9667968153953552,0.9822142990123074,1.2226104736328125,-1.9550323486328125,-0.4901885986328125,2.357374114701988
1780415687.502006,-0.02197265625,-0.16845703125,0.9746093153953552,0.9893047491322616,0.980377197265625,-1.52587890625,-0.1850128173828125,1.8230950682981468
1780415687.509993,-0.0346679612994194,-0.173828125,0.9760741591453552,0.9920377254585563,0.732421875,-1.03759765625,-0.1239776611328125,1.2760960620948454
1780415687.517978,-0.0283203125,-0.1748046875,0.9677733778953552,0.983841465803844,0.4291534423828125,-0.7953643798828125,0.0591278076171875,0.9056893902045027
1780415687.525963,-0.0244140587747097,-0.18212890625,0.9863280653953552,1.0032995750742748,0.3070831298828125,-0.1811981201171875,-0.0629425048828125,0.3620698362381902
1780415687.533948,-0.0346679612994194,-0.16845703125,0.9819335341453552,0.9968816902709212,0.0,-0.06103515625,-0.0629425048828125,0.08767581889771427
1780415687.544655,-0.0332031212747097,-0.171875,0.9721679091453552,0.9878025645134936,0.06103515625,0.244140625,-0.2460479736328125,0.35195104830454155
1780415687.555362,-0.0346679650247097,-0.17041015625,0.9746093153953552,0.9900024276775825,-0.0591278076171875,0.7953643798828125,-0.3070831298828125,0.8546348009990058
1780415687.566069,-0.0273437462747097,-0.17724609375,0.9765624403953552,0.9928937799185275,-0.3643035888671875,0.3070831298828125,-0.6122589111328125,0.7758080482836422
1780415687.574857,-0.0493164025247097,-0.166015625,0.9750975966453552,0.9903578233576326,-0.7305145263671875,0.4901885986328125,-1.5888214111328125,1.8161194376849608
1780415687.583644,-0.0224609375,-0.18408203125,0.9833983778953552,1.0007312614232258,-0.48828125,0.48828125,-1.5888214111328125,1.732394480098914
1780415687.592431,-0.0317382775247097,-0.18017578125,0.9814452528953552,0.9983513483939965,-0.362396240234375,0.1220703125,-1.7108917236328125,1.7531065815075575
1780415687.601218,-0.0498046837747097,-0.171875,0.9794921278953552,0.9957039473457308,-0.4253387451171875,0.0591278076171875,-1.8939971923828125,1.9420696461469797
1780415687.611133,-0.01806640625,-0.17431640625,0.9863280653953552,1.0017762510207802,0.0,-0.42724609375,-1.8329620361328125,1.8820969822325255
1780415687.621048,-0.0415039025247097,-0.16796875,0.9833983778953552,0.998503101922352,0.2460479736328125,-0.9784698486328125,-1.7719268798828125,2.039035977530453
1780415687.630963,-0.0600585900247097,-0.1826171875,0.9824218153953552,1.001053792146492,0.492095947265625,-0.732421875,-1.7108917236328125,1.925032652785148
1780415687.641277,-0.0439453050494194,-0.169921875,0.9760741591453552,0.9917284898553204,0.7953643798828125,-0.9174346923828125,-1.2836456298828125,1.7669286954178878
1780415687.651593,-0.0585937425494194,-0.16943359375,0.9682616591453552,0.9847190512668594,0.8563995361328125,-0.7953643798828125,-0.6732940673828125,1.3488326669560455
1780415687.661909,-0.0424804650247097,-0.17138671875,0.9770507216453552,0.9928776913297612,0.9174346923828125,-0.9174346923828125,-0.1850128173828125,1.3105733753479878
1780415687.672584,-0.0498046837747097,-0.17724609375,0.9741210341453552,0.9913669721349148,1.15966796875,-1.220703125,0.4863739013671875,1.7525711081324646
1780415687.683261,-0.0493164025247097,-0.17138671875,0.9770507216453552,0.9931936505987038,0.7953643798828125,-1.2836456298828125,0.7305145263671875,1.6774987550329477
1780415687.693938,-0.0507812462747097,-0.171875,0.9736327528953552,0.9899901454604488,0.5512237548828125,-1.2836456298828125,0.8525848388671875,1.6366107168568027
1780415687.701944,-0.0297851525247097,-0.16650390625,0.9663085341453552,0.9810009629299933,0.4291534423828125,-1.2226104736328125,1.1577606201171875,1.7376301968024734
1780415687.709951,-0.0205078087747097,-0.16015625,0.9824218153953552,0.9956019375229781,0.4901885986328125,-0.9784698486328125,1.1577606201171875,1.593140847636283
1780415687.717958,-0.0312499962747097,-0.1708984375,0.9687499403953552,0.9842049000198663,0.4291534423828125,-1.1005401611328125,1.2798309326171875,1.7416453541002643
1780415687.725965,-0.0253906212747097,-0.16650390625,0.9726561903953552,0.9871313484838935,0.1239776611328125,-0.6694793701171875,1.0356903076171875,1.2394464493331905
1780415687.736644,-0.0263671837747097,-0.1708984375,0.9829100966453552,0.9980048909737528,-0.6694793701171875,-0.9174346923828125,0.6694793701171875,1.3183670463162214
1780415687.747323,-0.0351562462747097,-0.18505859375,0.9765624403953552,0.9945636454062592,-0.9765625,-1.220703125,0.3032684326171875,1.5924076670291125
1780415687.758002,-0.0351562462747097,-0.18212890625,0.9653319716453552,0.9829917169664545,-0.91552734375,-1.3427734375,0.4253387451171875,1.6799237690167257
1780415687.768649,-0.0361328087747097,-0.16796875,0.9716796278953552,0.9867524411489278,-1.2187957763671875,-1.1005401611328125,0.1811981201171875,1.652115174402419
1780415687.779296,-0.0278320275247097,-0.1865234375,0.9897460341453552,1.0075528902243351,-1.46484375,-1.220703125,0.1201629638671875,1.9105817096330047
1780415687.789943,-0.0327148400247097,-0.185546875,0.9819335341453552,0.9998456726211779,-1.0356903076171875,-1.1005401611328125,0.0,1.5112389154460062
1780415687.800609,-0.0395507737994194,-0.1943359375,0.9775390028953552,0.9974533685810991,-1.155853271484375,-1.03759765625,0.2422332763671875,1.5720313742531373
1780415687.811276,-0.0463867150247097,-0.16943359375,0.9765624403953552,0.9922367005975719,-0.91552734375,-0.732421875,0.2422332763671875,1.1972088707957473
1780415687.821943,-0.0434570237994194,-0.1787109375,0.9833983778953552,1.0004491400100497,-1.0356903076171875,-0.3643035888671875,0.1201629638671875,1.104450386409025
1780415687.829937,-0.0312499962747097,-0.17626953125,0.9697265028953552,0.9861120627656471,-0.48828125,-0.8544921875,0.4863739013671875,1.097786431657468
1780415687.837931,-0.0385742150247097,-0.1865234375,0.9770507216453552,0.9954431553179208,-0.6694793701171875,-0.7953643798828125,0.2422332763671875,1.0674661980495959
1780415687.845925,-0.0361328087747097,-0.17236328125,0.9741210341453552,0.9899123545837948,-0.3643035888671875,-1.4057159423828125,0.6694793701171875,1.5990487930464217
1780415687.853919,-0.0395507737994194,-0.16845703125,0.9663085341453552,0.9816792848215966,-0.1220703125,-1.3427734375,0.5474090576171875,1.455197011407992
1780415687.864647,-0.0361328087747097,-0.17919921875,0.9775390028953552,0.9944850134879889,0.06103515625,-1.64794921875,0.4253387451171875,1.7030487268352192
1780415687.875375,-0.0375976525247097,-0.18115234375,0.9829100966453552,1.0001709919853048,-0.0591278076171875,-1.2836456298828125,0.7915496826171875,1.509235932782621
1780415687.886103,-0.0375976525247097,-0.1728515625,0.9750975966453552,0.9910129005808189,0.2460479736328125,-1.1005401611328125,1.0356903076171875,1.5311377027841861
1780415687.896723,-0.0385742112994194,-0.17529296875,0.9687499403953552,0.985237048474409,0.3662109375,-0.8544921875,1.0967254638671875,1.4377322742214078
1780415687.907343,-0.0385742150247097,-0.171875,0.9804686903953552,0.9961665716813406,0.18310546875,-0.42724609375,1.1577606201171875,1.2475882697448408
1780415687.917963,-0.0341796837747097,-0.166015625,0.9775390028953552,0.9921249622445376,0.1239776611328125,-0.3643035888671875,1.2798309326171875,1.3364336053112609
1780415687.926064,-0.0385742112994194,-0.1787109375,0.9770507216453552,0.9940088941388857,0.4291534423828125,-0.2460479736328125,1.8291473388671875,1.894859432708069
1780415687.934165,-0.0322265587747097,-0.18212890625,0.9765624403953552,0.9939233821443244,0.42724609375,-0.06103515625,1.7681121826171875,1.8200234078830992
1780415687.942266,-0.033203125,-0.17919921875,0.9648436903953552,0.9819053693743119,0.732421875,0.1220703125,1.4629364013671875,1.6405870530445923
1780415687.950367,-0.0419921837747097,-0.18017578125,0.9819335341453552,0.9992097483143388,0.9174346923828125,-0.4901885986328125,1.3408660888671875,1.6970247921851744
1780415687.958297,-0.0385742112994194,-0.173828125,0.9824218153953552,0.9984271681915978,0.7953643798828125,-0.3070831298828125,1.2187957763671875,1.487403001857765
1780415687.966227,-0.0317382775247097,-0.162109375,0.9819335341453552,0.9957310044396095,0.7953643798828125,-0.4291534423828125,1.0967254638671875,1.4211206553245528
1780415687.974157,-0.037109375,-0.173828125,0.9785155653953552,0.9945280460976945,0.9784698486328125,-0.4291534423828125,1.0356903076171875,1.4880290101623428
1780415687.982087,-0.0341796837747097,-0.162109375,0.9707030653953552,0.9847396312801516,1.0395050048828125,-0.4901885986328125,0.5474090576171875,1.272993398948853
1780415687.992965,-0.0336914025247097,-0.17138671875,0.9926757216453552,1.0079253971956954,0.9174346923828125,-0.3070831298828125,0.3643035888671875,1.0337811994361683
1780415688.003843,-0.0317382775247097,-0.1650390625,0.9829100966453552,0.9971747432112869,0.91552734375,-0.3662109375,-0.1239776611328125,0.9938164963203832
1780415688.014721,-0.0415039025247097,-0.166015625,0.9731444716453552,0.988075869740193,1.3446807861328125,-0.4901885986328125,-0.1239776611328125,1.4366007584866165
1780415688.025142,-0.0390624962747097,-0.1826171875,0.9843749403953552,1.001932602056636,1.0395050048828125,-0.9784698486328125,-0.6732940673828125,1.5783848710098645
1780415688.035565,-0.0444335900247097,-0.16748046875,0.9667968153953552,0.9822016766396829,0.732421875,-0.67138671875,-0.6122589111328125,1.1670745063422234
1780415688.045988,-0.0410156212747097,-0.15966796875,0.9702147841453552,0.984120352806261,0.67138671875,-1.40380859375,-0.6122589111328125,1.6722140019332996
1780415688.054001,-0.0449218712747097,-0.16015625,0.9731444716453552,0.9872579002605153,0.6122589111328125,-2.0771026611328125,-0.3681182861328125,2.1965262374330763
1780415688.062013,-0.0400390550494194,-0.16357421875,0.9863280653953552,1.0006011710744034,0.67138671875,-2.685546875,0.0591278076171875,2.768829760308454
1780415688.070025,-0.0590820237994194,-0.1640625,0.9785155653953552,0.9939315374629567,0.492095947265625,-3.2958984375,0.3643035888671875,3.3522860910864556
1780415688.078037,-0.0444335900247097,-0.1669921875,0.9663085341453552,0.9816378750693477,0.67138671875,-3.5400390625,0.6694793701171875,3.6648109524438333
1780415688.088701,-0.0478515587747097,-0.16748046875,0.9716796278953552,0.9871680598341628,0.9174346923828125,-3.2939910888671875,0.7915496826171875,3.509788399373295
1780415688.099365,-0.0473632775247097,-0.16748046875,0.9804686903953552,0.9957970879231297,0.4901885986328125,-3.4198760986328125,1.4629364013671875,3.7518022744642026
1780415688.110029,-0.0410156212747097,-0.16650390625,0.9956054091453552,1.0102652932297285,0.91552734375,-3.173828125,1.5850067138671875,3.663826083099334
1780415688.120689,-0.04296875,-0.16455078125,0.9736327528953552,0.9883744283403612,1.03759765625,-3.35693359375,1.5239715576171875,3.829895737161645
1780415688.13135,-0.02880859375,-0.16552734375,0.9804686903953552,0.9947603175882953,0.67138671875,-3.2958984375,1.7070770263671875,3.7719780766037694
1780415688.142011,-0.0322265587747097,-0.1748046875,0.9814452528953552,0.9974116573878913,1.1005401611328125,-3.5419464111328125,1.6460418701171875,4.057835243548182
1780415688.152632,-0.01416015625,-0.1640625,0.9726561903953552,0.9864973789350279,0.6122589111328125,-3.1108856201171875,1.1577606201171875,3.375334052980174
1780415688.163255,-0.01171875,-0.16845703125,0.9780272841453552,0.9924980952182555,0.67138671875,-2.9296875,0.9746551513671875,3.159712271371673
1780415688.173878,-0.0224609337747097,-0.16650390625,0.9794921278953552,0.9937971991062923,0.732421875,-2.8076171875,0.6084442138671875,2.9646855543062887
1780415688.182025,-0.0219726525247097,-0.16162109375,0.9682616591453552,0.9819036693967662,0.4291534423828125,-2.7484893798828125,0.4253387451171875,2.8141214608711347
1780415688.190175,-0.0175781212747097,-0.17578125,0.9633788466453552,0.979442106692808,0.7953643798828125,-2.3822784423828125,0.3032684326171875,2.5297878994196994
1780415688.198325,-0.0380859337747097,-0.1669921875,0.9824218153953552,0.997240970078061,0.5512237548828125,-2.2602081298828125,0.1811981201171875,2.333499770102725
1780415688.206475,-0.0366210900247097,-0.17431640625,0.9750975966453552,0.9912328872197799,0.4901885986328125,-2.2602081298828125,-0.1239776611328125,2.3160734256663633
1780415688.214346,-0.0253906212747097,-0.1552734375,0.9794921278953552,0.9920480596476932,0.3070831298828125,-1.9550323486328125,-0.2460479736328125,1.9942394886743589
1780415688.222217,-0.0385742112994194,-0.173828125,0.9682616591453552,0.9844972460039204,0.2460479736328125,-1.4057159423828125,-0.1239776611328125,1.4324619982596307
1780415688.230088,-0.0405273400247097,-0.166015625,0.9853515028953552,1.0000606168086783,0.0,-1.28173828125,-0.2460479736328125,1.3051408456371738
1780415688.237959,-0.033203125,-0.17431640625,0.9726561903953552,0.9887106359861242,0.0,-1.0986328125,-0.1239776611328125,1.1056059502198885
1780415688.248609,-0.0468749962747097,-0.1748046875,0.9750975966453552,0.9917506072754756,-0.179290771484375,-1.220703125,0.0,1.233799538062901
1780415688.259259,-0.0444335900247097,-0.17724609375,0.9731444716453552,0.9901518491453901,-0.30517578125,-0.732421875,-0.1239776611328125,0.803084379688726
1780415688.269909,-0.0297851525247097,-0.1630859375,0.9804686903953552,0.9943857557139266,-0.1201629638671875,-0.7953643798828125,-0.2460479736328125,0.8411796716519789
1780415688.280621,-0.0341796800494194,-0.169921875,0.9824218153953552,0.9975942649677281,0.3070831298828125,-0.6694793701171875,-0.3070831298828125,0.7979992007074661
1780415688.291332,-0.033203125,-0.1689453125,0.9853515028953552,1.0002812356450677,0.18310546875,-0.54931640625,-0.3681182861328125,0.6861393440453123
1780415688.302043,-0.02734375,-0.16357421875,0.9760741591453552,0.9900631140765964,0.3681182861328125,-0.4901885986328125,-0.4901885986328125,0.7849081456097652
1780415688.312719,-0.02294921875,-0.16455078125,0.9750975966453552,0.9891506200952253,0.3681182861328125,-0.3070831298828125,-0.7343292236328125,0.8769552610738776
1780415688.323397,-0.0268554650247097,-0.17578125,0.9726561903953552,0.988777188535244,0.1239776611328125,-0.4291534423828125,-1.2226104736328125,1.3016602889408706
1780415688.334075,-0.02685546875,-0.17822265625,0.9760741591453552,0.9925750830813255,0.1239776611328125,-0.3643035888671875,-1.4667510986328125,1.516392545043017
1780415688.342062,-0.03271484375,-0.16357421875,0.9848632216453552,0.9988905602672036,0.0,-0.67138671875,-2.0160675048828125,2.124920777431079
1780415688.350049,-0.0209960900247097,-0.15966796875,0.9721679091453552,0.9854162265830253,0.06103515625,-0.3662109375,-1.9550323486328125,1.9899716644323913
1780415688.358036,-0.0410156212747097,-0.16748046875,0.9736327528953552,0.9887834576447252,-0.30517578125,-0.6103515625,-1.4667510986328125,1.6177206411022584
1780415688.366023,-0.0263671837747097,-0.1708984375,0.9765624403953552,0.9917538526827523,-0.2422332763671875,-0.4901885986328125,-1.1615753173828125,1.2838298331017879
1780415688.37405,-0.0439453087747097,-0.16064453125,0.9770507216453552,0.9911437677005017,-0.3643035888671875,-0.3643035888671875,-0.3070831298828125,0.5997785077690345
1780415688.382077,-0.0395507737994194,-0.17431640625,0.9804686903953552,0.9966289811367272,-0.0591278076171875,0.0591278076171875,0.0,0.08361934744561376
1780415688.390104,-0.0488281212747097,-0.1513671875,0.9892577528953552,1.0019616322706402,-0.1811981201171875,0.1811981201171875,0.9746551513671875,1.0077788356353792
1780415688.398131,-0.0429687462747097,-0.166015625,0.9877929091453552,1.0025678691532085,-0.1811981201171875,-0.0019073486328125,1.5239715576171875,1.5347070421220352
1780415688.407699,-0.0449218712747097,-0.16943359375,0.9746093153953552,0.990246956503914,-0.06103515625,0.1220703125,2.1953582763671875,2.1995964205067753
1780415688.417267,-0.0488281175494194,-0.16845703125,0.9897460341453552,1.005166239259677,0.3662109375,-0.06103515625,2.8667449951171875,2.890685491033664
1780415688.426835,-0.0380859337747097,-0.16064453125,0.9731444716453552,0.9870498297785889,0.492095947265625,-0.06103515625,3.1108856201171875,3.1501576235270536
1780415688.436403,-0.0400390550494194,-0.1689453125,0.9833983778953552,0.9986080383174316,0.6122589111328125,-0.2460479736328125,3.2329559326171875,3.2996067404821168
1780415688.445971,-0.0317382775247097,-0.162109375,0.9721679091453552,0.9861020288464971,0.4291534423828125,-0.6694793701171875,3.6602020263671875,3.7455912988397424
1780415688.454475,-0.0361328087747097,-0.1708984375,0.9697265028953552,0.9853331143463852,0.3662109375,-0.91552734375,3.4160614013671875,3.5555275650470373
1780415688.462979,-0.037109375,-0.16845703125,0.9780272841453552,0.9931224726201666,0.54931640625,-1.220703125,3.3550262451171875,3.612210644326451
1780415688.471483,-0.0346679612994194,-0.1591796875,0.9916991591453552,1.0049911754353171,0.18310546875,-1.64794921875,3.3550262451171875,3.7423876530485223
1780415688.479987,-0.0312499962747097,-0.1494140625,0.9760741591453552,0.9879382007449836,0.5512237548828125,-1.9550323486328125,3.2939910888671875,3.8699323515643367
1780415688.489988,-0.0200195275247097,-0.16064453125,0.9863280653953552,0.9995251369972588,0.8544921875,-2.50244140625,2.9888153076171875,3.990662455440179
1780415688.499989,-0.020507805049419403,-0.15869140625,0.9663085341453552,0.9794670569486718,0.797271728515625,-2.50244140625,2.3784637451171875,3.5432957804340366
1780415688.50999,-0.0327148400247097,-0.1630859375,0.9785155653953552,0.9925522633539696,0.492095947265625,-2.62451171875,1.8291473388671875,3.236664976554763
1780415688.520661,-0.0268554650247097,-0.15771484375,0.9868163466453552,0.9997008002133769,0.5512237548828125,-3.2367706298828125,1.8901824951171875,3.7885777810764982
1780415688.531331,-0.0258789025247097,-0.14453125,0.9853515028953552,0.9962311900761696,0.5512237548828125,-3.2367706298828125,1.7681121826171875,3.7291758377339086
1780415688.542001,-0.0371093712747097,-0.1513671875,0.9794921278953552,0.99181347011272,0.308990478515625,-3.173828125,1.9512176513671875,3.7384368933902326
1780415688.552672,-0.0312499962747097,-0.150390625,0.9711913466453552,0.9832632069562445,0.54931640625,-2.62451171875,2.1953582763671875,3.4654593112090355
1780415688.563346,-0.0312499962747097,-0.1513671875,0.9843749403953552,0.9964349507103756,0.54931640625,-2.38037109375,2.5005340576171875,3.4957954218517227
1780415688.57402,-0.0419921837747097,-0.15185546875,0.9819335341453552,0.9944932842240005,0.8563995361328125,-2.2602081298828125,2.7446746826171875,3.657212062388045
1780415688.584764,-0.0312499962747097,-0.1650390625,0.9897460341453552,1.0038982351436359,0.8563995361328125,-1.7719268798828125,3.0498504638671875,3.629701487049677
1780415688.595507,-0.0268554650247097,-0.15478515625,0.9750975966453552,0.9876714957821645,0.7953643798828125,-1.4057159423828125,2.7446746826171875,3.1846319914324996
1780415688.60625,-0.0170898400247097,-0.15771484375,0.9785155653953552,0.9912914537572433,0.67138671875,-1.5869140625,2.9277801513671875,3.397197813288743
1780415688.616827,-0.0302734337747097,-0.162109375,0.9819335341453552,0.9956853899372984,0.0,-1.03759765625,2.3174285888671875,2.539110899656503
1780415688.627406,-0.0278320275247097,-0.16796875,0.9829100966453552,0.9975471822525891,-0.179290771484375,-1.03759765625,2.1953582763671875,2.4348207405492635
1780415688.637985,-0.0234374962747097,-0.16259765625,0.9721679091453552,0.9859501800910997,-0.6103515625,-1.03759765625,2.0122528076171875,2.3448452588315796
1780415688.646122,-0.00830078125,-0.169921875,0.9794921278953552,0.9941565144291149,-0.91552734375,-0.8544921875,1.3408660888671875,1.8347395139164726
1780415688.654258,-0.010253902524709702,-0.17626953125,0.9790038466453552,0.9947987846346029,-0.9765625,-0.732421875,0.8525848388671875,1.4889650858401462
1780415688.662394,-0.02880859375,-0.16845703125,0.9677733778953552,0.982747687565024,-0.8525848388671875,-1.1005401611328125,0.1811981201171875,1.4038954065265787
1780415688.67053,-0.0229492150247097,-0.16552734375,0.9790038466453552,0.9931638836292745,-1.0967254638671875,-1.2836456298828125,0.0,1.6883580325902263
1780415688.681022,-0.0249023400247097,-0.16650390625,0.9848632216453552,0.9991492594627107,-1.2187957763671875,-0.9784698486328125,-0.4291534423828125,1.6208143219638185
1780415688.691514,-0.0209960900247097,-0.169921875,0.9809569716453552,0.9957865532429465,-1.220703125,-1.52587890625,-1.1005401611328125,2.242679469337894
1780415688.702006,-0.0214843712747097,-0.1572265625,0.9726561903953552,0.9855160246688237,-0.8525848388671875,-1.6460418701171875,-1.5888214111328125,2.4414561683796694
1780415688.712704,-0.014648430049419403,-0.16845703125,0.9770507216453552,0.99157473775212,-0.30517578125,-2.01416015625,-1.5888214111328125,2.5834718633963547
1780415688.723403,-0.0307617150247097,-0.16943359375,0.9799804091453552,0.9949952904968944,-0.3643035888671875,-2.3822784423828125,-1.6498565673828125,2.920615410292767
1780415688.734102,-0.0346679650247097,-0.17236328125,0.9638671278953552,0.9797707939918714,-0.3032684326171875,-2.4433135986328125,-1.4667510986328125,2.8658527297868384
1780415688.740517,-0.0258789025247097,-0.1611328125,0.9824218153953552,0.9958845938283959,0.308990478515625,-2.685546875,-1.5277862548828125,3.1051196392803337
1780415688.746932,-0.0263671837747097,-0.17041015625,0.9692382216453552,0.9844580133411528,0.492095947265625,-2.8076171875,-1.0395050048828125,3.034047354283891
1780415688.753347,-0.0400390550494194,-0.154296875,0.9692382216453552,0.9822593251592304,0.492095947265625,-2.50244140625,-1.1005401611328125,2.7776896981657195
1780415688.759762,-0.0327148400247097,-0.17041015625,0.9799804091453552,0.9952243387396078,0.492095947265625,-1.8310546875,-0.6732940673828125,2.0120249976339424
1780415688.766177,-0.0200195275247097,-0.1630859375,0.9765624403953552,0.9902888490150226,0.3662109375,-1.8310546875,-0.6122589111328125,1.9651291798815387
1780415688.778159,-0.0341796837747097,-0.16064453125,0.9702147841453552,0.9840181114073508,0.54931640625,-1.220703125,-0.4291534423828125,1.4057159423828125
1780415688.790141,-0.0268554650247097,-0.1787109375,0.9721679091453552,0.9888221572941587,0.308990478515625,-1.03759765625,-0.0629425048828125,1.084456440337615
1780415688.802123,-0.0205078087747097,-0.15380859375,0.9770507216453552,0.9892955910140315,0.3070831298828125,-1.5888214111328125,0.0,1.6182254246960421
1780415688.814105,-0.0166015587747097,-0.15771484375,0.9843749403953552,0.9970675037183773,-0.0591278076171875,-1.6460418701171875,0.3643035888671875,1.6869105016787393
1780415688.824709,-0.0351562462747097,-0.15625,0.9780272841453552,0.991053678003804,-0.30517578125,-1.8310546875,0.7915496826171875,2.01802983776966
1780415688.835316,-0.0200195275247097,-0.16015625,0.9746093153953552,0.987883658915248,-0.6103515625,-1.5869140625,1.3408660888671875,2.165351504924878
1780415688.845923,-0.0356445275247097,-0.154296875,0.9824218153953552,0.9951033520905911,-0.8525848388671875,-1.3408660888671875,1.4629364013671875,2.1598624239023545
1780415688.853935,-0.0244140587747097,-0.14599609375,0.9990233778953552,1.0099300051179585,-0.6694793701171875,-0.9784698486328125,1.4629364013671875,1.883026496399135
1780415688.861945,-0.0312499962747097,-0.14794921875,0.9794921278953552,0.9910955363661343,-0.9765625,-0.9765625,1.7070770263671875,2.195782458888662
1780415688.869955,-0.015624996274709702,-0.15087890625,0.9833983778953552,0.9950281174454302,-0.8525848388671875,-1.1005401611328125,1.7681121826171875,2.25040224050096
1780415688.877965,-0.0263671837747097,-0.1484375,0.9877929091453552,0.999231580337763,-0.6694793701171875,-0.6122589111328125,1.8291473388671875,2.0417746174734757
1780415688.888757,-0.02294921875,-0.16455078125,0.9804686903953552,0.994445815063246,-0.6103515625,-0.54931640625,1.6460418701171875,1.8394921533402893
1780415688.899549,-0.0249023400247097,-0.15625,0.9848632216453552,0.9974917314887248,-0.5474090576171875,-0.9174346923828125,1.5239715576171875,1.861137394061771
1780415688.910341,-0.0356445275247097,-0.16796875,0.9814452528953552,0.996352757686679,-0.244140625,-1.03759765625,1.7070770263671875,2.0125420529721914
1780415688.920889,-0.029785148799419403,-0.16357421875,0.9931640028953552,1.006984814570608,0.0,-1.40380859375,1.8901824951171875,2.3544571418341405
1780415688.931439,-0.0253906212747097,-0.15966796875,0.9804686903953552,0.99370890945943,0.06103515625,-1.8310546875,1.7681121826171875,2.546116110713237
1780415688.941989,-0.0229492150247097,-0.15576171875,0.9794921278953552,0.9920651229164219,0.18310546875,-1.89208984375,1.7070770263671875,2.554925353793863
1780415688.952731,-0.012207027524709702,-0.1572265625,0.9677733778953552,0.9805378699670612,0.3070831298828125,-1.9550323486328125,1.3408660888671875,2.3904755596184923
1780415688.963473,-0.0312499962747097,-0.1728515625,0.9814452528953552,0.997040124246105,0.42724609375,-1.52587890625,1.0356903076171875,1.8930134902993994
1780415688.974215,-0.02880859375,-0.16943359375,0.9721679091453552,0.987242686140011,0.492095947265625,-1.3427734375,1.0356903076171875,1.7657444149884785
1780415688.982143,-0.0209960900247097,-0.1533203125,0.9790038466453552,0.9911591626816681,0.3070831298828125,-1.2836456298828125,0.6084442138671875,1.4533583567600685
1780415688.990073,-0.0336913987994194,-0.15966796875,0.9814452528953552,0.9949189690766983,0.1239776611328125,-1.3408660888671875,0.4253387451171875,1.412163367614319
1780415688.998003,-0.0249023400247097,-0.16259765625,0.9843749403953552,0.9980241217701397,0.244140625,-1.52587890625,0.0,1.5452867311001175
1780415689.005933,-0.010742183774709702,-0.169921875,0.9692382216453552,0.9840790458159425,-0.30517578125,-1.8310546875,-0.1239776611328125,1.8604472544356727
1780415689.016593,-0.0258789025247097,-0.1552734375,0.9858397841453552,0.9983284219096992,-0.2422332763671875,-1.7719268798828125,-0.1239776611328125,1.7926997206143542
1780415689.027253,-0.0312499962747097,-0.15966796875,0.9736327528953552,0.9871327975619634,-0.179290771484375,-1.52587890625,-0.0629425048828125,1.5376649102451032
1780415689.037913,-0.02294921875,-0.16455078125,0.9770507216453552,0.9910760510268272,-0.362396240234375,-1.03759765625,-0.2460479736328125,1.1262679683451524
1780415689.048585,-0.02197265625,-0.15869140625,0.9794921278953552,0.9925072234745973,-1.0356903076171875,-0.8525848388671875,-0.3070831298828125,1.3761741784443555
1780415689.059255,-0.0209960900247097,-0.17236328125,0.9736327528953552,0.9889947795768086,-0.91552734375,-0.18310546875,0.0,0.9336583582018039
1780415689.069925,-0.009765621274709702,-0.17138671875,0.9868163466453552,1.0016362996263957,-0.8525848388671875,0.3643035888671875,-0.0629425048828125,0.9292899285199554
1780415689.078052,-0.02392578125,-0.15771484375,0.9848632216453552,0.9976983413322775,-1.338958740234375,0.6103515625,-0.3681182861328125,1.516855500857473
1780415689.086179,-0.0180664025247097,-0.1513671875,0.9702147841453552,0.9821176852730344,-1.5850067138671875,0.1811981201171875,-0.3070831298828125,1.6246165979690985
1780415689.094306,-0.0385742112994194,-0.1689453125,0.9663085341453552,0.9817243358271405,-1.953125,-0.18310546875,-0.5512237548828125,2.0376634919088734
1780415689.102433,-0.029296867549419403,-0.1640625,0.9877929091453552,1.0017532838540146,-2.0122528076171875,-0.3643035888671875,-0.3681182861328125,2.0778328949196387
1780415689.110402,-0.01904296875,-0.16552734375,0.9750975966453552,0.9892306400285487,-1.827239990234375,-0.3662109375,-0.9174346923828125,2.0771622101905987
1780415689.118371,-0.0292968712747097,-0.162109375,0.9799804091453552,0.9937300229127001,-1.46484375,-0.6103515625,-0.7953643798828125,1.7750776711306535
1780415689.12634,-0.0317382775247097,-0.158203125,0.9858397841453552,0.9989572698688176,-1.5239715576171875,-0.0629425048828125,-0.8563995361328125,1.7492487624221935
1780415689.134309,-0.0190429650247097,-0.1611328125,0.9819335341453552,0.995248653985666,-1.3408660888671875,0.0591278076171875,-0.7953643798828125,1.5601353988336957
1780415689.144847,-0.0346679650247097,-0.16259765625,0.9667968153953552,0.9809872312500036,-1.77001953125,0.1220703125,-0.6732940673828125,1.897681533707173
1780415689.155385,-0.0273437462747097,-0.16748046875,0.9736327528953552,0.9883107433310857,-1.155853271484375,0.6103515625,0.0591278076171875,1.308442552304433
1780415689.165923,-0.0307617150247097,-0.162109375,0.9873046278953552,1.0009975828331146,-1.0356903076171875,1.4019012451171875,0.0,1.7429806408429513
1780415689.17395,-0.0229492150247097,-0.15771484375,0.9804686903953552,0.9933375515175695,-0.3643035888671875,1.7719268798828125,0.3643035888671875,1.8453073124480552
1780415689.181975,-0.0366210900247097,-0.169921875,0.9887694716453552,1.0039320773319023,0.18310546875,2.44140625,0.7915496826171875,2.573041583472096
1780415689.19,-0.0375976525247097,-0.169921875,0.9868163466453552,1.0020446741964004,0.732421875,2.86865234375,1.0967254638671875,3.1572796542871493
1780415689.206066,-0.0327148400247097,-0.17041015625,0.9833983778953552,0.9985901320152366,1.5277862548828125,2.9888153076171875,1.8291473388671875,3.822685936738799
1780415689.214105,-0.0336913987994194,-0.17041015625,0.9785155653953552,0.9938145920780207,1.9550323486328125,3.1719207763671875,1.5850067138671875,4.049133139173694
1780415689.222144,-0.02880859375,-0.16552734375,0.9863280653953552,1.0005360009461566,1.8310546875,2.9296875,1.4629364013671875,3.751801304802421
1780415689.230183,-0.0283203125,-0.1640625,0.9721679091453552,0.9863209353848266,1.708984375,2.5634765625,1.7070770263671875,3.5222367402591774
1780415689.240818,-0.0410156212747097,-0.16650390625,0.9799804091453552,0.994870561577614,1.956939697265625,2.44140625,1.7070770263671875,3.564293679009037
1780415689.251453,-0.0258789025247097,-0.16650390625,0.9770507216453552,0.9914743471518068,1.4057159423828125,2.3784637451171875,1.3408660888671875,3.071001296935588
1780415689.262088,-0.0478515587747097,-0.16552734375,0.9799804091453552,0.9950129021850913,1.2836456298828125,2.0122528076171875,0.9136199951171875,2.5557012658678295
1780415689.272713,-0.0327148400247097,-0.16162109375,0.9750975966453552,0.9889423449758518,1.285552978515625,1.5869140625,0.8525848388671875,2.213107229620119
1780415689.283338,-0.0317382775247097,-0.1513671875,0.9760741591453552,0.9882510348404437,0.9174346923828125,0.9784698486328125,1.1577606201171875,1.771863232014593
1780415689.293963,-0.0395507775247097,-0.1572265625,0.9819335341453552,0.9952275726875552,0.4291534423828125,0.7953643798828125,0.9136199951171875,1.285098700245751
1780415689.304635,-0.0498046837747097,-0.150390625,0.9672850966453552,0.9801725892953769,0.0629425048828125,-0.6122589111328125,1.0967254638671875,1.2576285128276783
1780415689.31531,-0.0551757775247097,-0.16552734375,0.9741210341453552,0.9896238968005993,0.0629425048828125,-1.4667510986328125,1.1577606201171875,1.8696871924885243
1780415689.325985,-0.0458984337747097,-0.158203125,0.9750975966453552,0.9889136554655744,0.0629425048828125,-2.0771026611328125,1.6460418701171875,2.6509943534426514
1780415689.334017,-0.0527343712747097,-0.16748046875,0.9882811903953552,1.0037581046326445,0.2460479736328125,-2.4433135986328125,1.7681121826171875,3.025977798483021
1780415689.342047,-0.0439453050494194,-0.154296875,0.9785155653953552,0.991580267649394,0.0,-2.74658203125,1.8901824951171875,3.334141976466031
1780415689.350077,-0.0351562462747097,-0.16259765625,0.9916991591453552,1.0055551609532547,0.1239776611328125,-3.4198760986328125,2.1953582763671875,4.065774336098089
1780415689.358107,-0.0390624962747097,-0.15673828125,0.9746093153953552,0.9879048967789454,0.3662109375,-3.35693359375,2.1953582763671875,4.027742738210303
1780415689.368769,-0.0234374962747097,-0.15576171875,0.9726561903953552,0.9853279119024217,0.67138671875,-3.41796875,2.3174285888671875,4.183747813454991
1780415689.379431,-0.0224609337747097,-0.14697265625,0.9794921278953552,0.9907120085272932,0.3662109375,-3.11279296875,2.2563934326171875,3.8619815949589973
1780415689.390093,-0.0224609337747097,-0.1611328125,0.9853515028953552,0.998692075200523,0.42724609375,-3.173828125,2.0122528076171875,3.78218000013602
1780415689.398188,-0.0214843712747097,-0.14599609375,0.9741210341453552,0.9852351124293859,0.1239776611328125,-2.4433135986328125,1.8901824951171875,3.0915920925263447
1780415689.406283,-0.0200195275247097,-0.16943359375,0.9721679091453552,0.9870253126163504,-0.42724609375,-2.01416015625,1.0967254638671875,2.332849567105508
1780415689.414378,-0.010253902524709702,-0.14501953125,0.9819335341453552,0.9926375332618365,-0.6103515625,-1.3427734375,0.9136199951171875,1.7350132650154833
1780415689.422473,-0.008789058774709702,-0.15625,0.9785155653953552,0.9909510693142911,-0.48828125,-0.91552734375,-0.1239776611328125,1.044978160879669
1780415689.433235,-0.0239257775247097,-0.1611328125,0.9731444716453552,0.9866845437059606,-0.9136199951171875,-0.4901885986328125,-0.6732940673828125,1.236248866078518
1780415689.443997,-0.0209960900247097,-0.15673828125,0.9892577528953552,1.0018176611884508,-1.220703125,0.1220703125,-1.1005401611328125,1.6480916014727003
1780415689.454759,-0.0244140587747097,-0.14599609375,0.9721679091453552,0.9833724366831549,-1.1577606201171875,0.6694793701171875,-1.3446807861328125,1.8965175182690508
1780415689.462552,-0.0209960900247097,-0.15478515625,0.9711913466453552,0.9836726651638141,-1.77001953125,1.28173828125,-1.8329620361328125,2.85229240936695
1780415689.470344,-0.0361328087747097,-0.15625,0.9750975966453552,0.9881978371528131,-2.0751953125,1.953125,-1.8939971923828125,3.4217478304809297
1780415689.478136,-0.0312499962747097,-0.1591796875,0.9658202528953552,0.9793485059378071,-1.8291473388671875,1.8291473388671875,-1.8939971923828125,3.206054481652457
1780415689.485928,-0.0297851525247097,-0.15966796875,0.9760741591453552,0.989495719903317,-2.0751953125,1.708984375,-1.5277862548828125,3.0921180474918746
1780415689.496611,-0.0380859337747097,-0.1708984375,0.9785155653953552,0.9940571039997776,-1.8291473388671875,1.8901824951171875,-1.0395050048828125,2.8282751823874506
1780415689.507294,-0.0522460900247097,-0.16796875,0.9868163466453552,1.0023720152248459,-1.46484375,1.5869140625,-0.6122589111328125,2.2447548703446114
1780415689.517977,-0.0351562425494194,-0.173828125,0.9760741591453552,0.9920549090562082,-1.220703125,1.28173828125,-0.0629425048828125,1.7711383062672978
1780415689.528662,-0.0493164025247097,-0.1611328125,0.9643554091453552,0.9789674386669073,-0.79345703125,1.03759765625,0.3032684326171875,1.340952907046941
1780415689.539345,-0.0458984337747097,-0.1748046875,0.9824218153953552,0.9989073872785452,-0.9136199951171875,1.0356903076171875,0.5474090576171875,1.4856017585919354
1780415689.550028,-0.0380859337747097,-0.16796875,0.9858397841453552,1.0007717618577248,-0.4253387451171875,0.6694793701171875,0.9746551513671875,1.2566098595813122
1780415689.558014,-0.0253906212747097,-0.16943359375,0.9931640028953552,1.0078329042985652,-0.732421875,0.30517578125,1.3408660888671875,1.5580423385499034
1780415689.565999,-0.0258789025247097,-0.16455078125,0.9794921278953552,0.9935549837904492,-0.6694793701171875,-0.0019073486328125,1.4019012451171875,1.5535550733889139
1780415689.573984,-0.0195312462747097,-0.16796875,0.9755858778953552,0.9901327061088614,-0.5474090576171875,-0.1811981201171875,1.1577606201171875,1.293406002997309
1780415689.581969,-0.0346679612994194,-0.16845703125,0.9882811903953552,1.0031347617381634,-0.2422332763671875,-0.0019073486328125,1.3408660888671875,1.3625720041276268
1780415689.592621,-0.0351562462747097,-0.16943359375,0.9980468153953552,1.0129368934262284,-0.0591278076171875,-0.2460479736328125,1.2798309326171875,1.3046083393287842
1780415689.603273,-0.0366210900247097,-0.1572265625,0.9716796278953552,0.984998779419051,0.1239776611328125,-0.3643035888671875,1.2187957763671875,1.2781043423022904
1780415689.613925,-0.0307617150247097,-0.1650390625,0.9746093153953552,0.9889628369749509,0.2460479736328125,-0.4291534423828125,1.1577606201171875,1.2590162572151187
1780415689.621954,-0.0410156212747097,-0.1650390625,0.9902343153953552,1.00473089567602,0.0,-0.3662109375,1.3408660888671875,1.389975654110034
1780415689.629984,-0.0473632775247097,-0.16748046875,0.9838866591453552,0.999162622156579,-0.2422332763671875,-0.7953643798828125,1.5239715576171875,1.7360215336775375
1780415689.638014,-0.0385742112994194,-0.15380859375,0.9775390028953552,0.9903168964883766,0.0629425048828125,-0.9784698486328125,1.8901824951171875,2.1293555054175144
1780415689.646044,-0.0341796800494194,-0.15869140625,0.9780272841453552,0.9914073741296373,0.06103515625,-1.15966796875,1.6460418701171875,2.014450030708655
1780415689.656695,-0.0478515587747097,-0.1669921875,0.9877929091453552,1.0029511422402633,0.1239776611328125,-1.3408660888671875,2.1343231201171875,2.523613977969039
1780415689.667346,-0.0312499962747097,-0.17041015625,0.9804686903953552,0.9956580921510665,0.18310546875,-1.52587890625,2.4394989013671875,2.8832254401965463
1780415689.677997,-0.0458984337747097,-0.171875,0.9877929091453552,1.0036844689471962,0.0629425048828125,-1.4667510986328125,2.5615692138671875,2.952449386813201
1780415689.685996,-0.0429687462747097,-0.15625,0.9765624403953552,0.9899164488214912,0.980377197265625,-1.8310546875,3.0498504638671875,3.6899171494066128
1780415689.693995,-0.0380859337747097,-0.15576171875,0.9643554091453552,0.9775958298434743,0.6122589111328125,-1.6460418701171875,3.2329559326171875,3.679173667372212
1780415689.701994,-0.0292968712747097,-0.15625,0.9804686903953552,0.9932729846381959,0.0629425048828125,-1.4667510986328125,2.8057098388671875,3.1665956868816747
1780415689.709993,-0.033203125,-0.15380859375,0.9780272841453552,0.9906043102843121,0.3070831298828125,-0.9784698486328125,2.7446746826171875,2.930007236636439
1780415689.720754,-0.02392578125,-0.15087890625,0.9843749403953552,0.9961580751256189,0.06103515625,-1.220703125,2.3174285888671875,2.6199840980781146
1780415689.731515,-0.0317382775247097,-0.15380859375,0.9843749403953552,0.9968241695755311,-0.0591278076171875,-0.9174346923828125,1.6460418701171875,1.885374326387216
1780415689.742276,-0.0288085900247097,-0.1572265625,0.9726561903953552,0.9857028921176927,-0.3643035888671875,-1.4667510986328125,1.2187957763671875,1.941530075660063
1780415689.75297,-0.0258789025247097,-0.15185546875,0.9829100966453552,0.9949080656385026,-0.79345703125,-1.5869140625,0.8525848388671875,1.9684438548423233
1780415689.763663,-0.0244140587747097,-0.158203125,0.9638671278953552,0.9770691455894315,-1.5239715576171875,-0.9784698486328125,0.4863739013671875,1.875220553705834
1780415689.774356,-0.0234374962747097,-0.15087890625,0.9819335341453552,0.9937339815373181,-1.6460418701171875,-0.9174346923828125,-0.3070831298828125,1.909303616930806
1780415689.784987,-0.0224609337747097,-0.1533203125,0.9667968153953552,0.9791361978957422,-2.5615692138671875,-0.3070831298828125,-1.1615753173828125,2.829345172304674
1780415689.795618,-0.0292968712747097,-0.16015625,0.9799804091453552,0.9934132742163491,-2.620697021484375,0.1220703125,-1.5888214111328125,3.067133436302533
1780415689.806249,-0.0449218675494194,-0.1640625,0.9672850966453552,0.9821277596537997,-2.5005340576171875,0.1239776611328125,-1.8329620361328125,3.1028681666592903
1780415689.814211,-0.0444335900247097,-0.17578125,0.9858397841453552,1.0023739181452234,-2.620697021484375,-0.18310546875,-1.6498565673828125,3.1021939307592343
1780415689.822174,-0.0576171837747097,-0.166015625,0.9755858778953552,0.9912864029931613,-2.1343231201171875,-0.3070831298828125,-1.4667510986328125,2.607871548804878
1780415689.830137,-0.0400390550494194,-0.18310546875,0.9736327528953552,0.9915096954271276,-1.6460418701171875,-0.4291534423828125,-1.3446807861328125,2.1683618083434935
1780415689.8381,-0.0410156212747097,-0.17529296875,0.9848632216453552,1.001182037109839,-1.2798309326171875,-0.7953643798828125,-1.1615753173828125,1.9025848025313175
1780415689.848733,-0.05224609375,-0.19775390625,0.9755858778953552,0.996796903535579,-0.8525848388671875,-1.1005401611328125,-0.3070831298828125,1.4256190242806979
1780415689.859366,-0.0463867150247097,-0.16552734375,0.9853515028953552,1.0002342791155727,-0.30517578125,-1.52587890625,0.1201629638671875,1.560729903566146
1780415689.869999,-0.0327148400247097,-0.16552734375,0.9716796278953552,0.9862204933754058,-0.48828125,-1.8310546875,0.1811981201171875,1.903683956556678
1780415689.880644,-0.0488281212747097,-0.171875,0.9736327528953552,0.9898918822592726,0.54931640625,-1.52587890625,0.9136199951171875,1.8613856253318497
1780415689.891287,-0.0454101525247097,-0.1533203125,0.9833983778953552,0.9963139915832915,0.8544921875,-1.3427734375,0.8525848388671875,1.8055742328744864
1780415689.90193,-0.0380859337747097,-0.1552734375,0.9687499403953552,0.9818537700495743,0.7343292236328125,-1.2836456298828125,0.7305145263671875,1.649435353395788
1780415689.909938,-0.0302734337747097,-0.15185546875,0.9775390028953552,0.9897267634874988,1.220703125,-1.64794921875,0.4253387451171875,2.0944607408737372
1780415689.917945,-0.0253906212747097,-0.14892578125,0.9755858778953552,0.9872139469833727,0.8544921875,-1.89208984375,0.1201629638671875,2.0795672658526296
1780415689.925952,-0.0361328087747097,-0.15771484375,0.9721679091453552,0.9855404585206475,0.9784698486328125,-1.8939971923828125,0.1201629638671875,2.13519735559101
1780415689.933959,-0.0288085900247097,-0.16650390625,0.9760741591453552,0.990592877930703,0.7343292236328125,-1.9550323486328125,-0.4291534423828125,2.132032731922969
1780415689.942008,-0.0351562462747097,-0.17724609375,0.9721679091453552,0.9888187816651813,0.797271728515625,-2.197265625,-0.4291534423828125,2.376508176507279
1780415689.950057,-0.0268554650247097,-0.17529296875,0.9672850966453552,0.9834069854780858,0.1239776611328125,-2.6874542236328125,-0.7343292236328125,2.7887309072879325
1780415689.958106,-0.0302734337747097,-0.166015625,0.9707030653953552,0.9852624572694281,-0.179290771484375,-2.99072265625,-0.6122589111328125,3.0580104907616086
1780415689.966155,-0.0468749962747097,-0.15478515625,0.9877929091453552,1.0009448242680188,-0.5474090576171875,-2.9315948486328125,-0.6122589111328125,3.0444648145697655
1780415689.976833,-0.0424804650247097,-0.16796875,0.9760741591453552,0.991331859185707,-0.667572021484375,-3.173828125,-0.1239776611328125,3.2456444400719118
1780415689.987511,-0.0483398362994194,-0.1591796875,0.9809569716453552,0.9949630610759771,-0.6084442138671875,-2.9315948486328125,-0.1239776611328125,2.996635309539495
1780415689.998189,-0.0380859375,-0.1494140625,0.9873046278953552,0.9992724998575682,-0.9765625,-3.35693359375,0.1811981201171875,3.500787086925959
1780415690.009014,-0.0410156212747097,-0.16650390625,0.9804686903953552,0.9953515383173134,-0.9136199951171875,-3.5419464111328125,0.6694793701171875,3.718640679311063
1780415690.019838,-0.0346679650247097,-0.1650390625,0.9736327528953552,0.9881297978810382,-1.0356903076171875,-3.6640167236328125,0.9746551513671875,3.9303467567683783
1780415690.030662,-0.0415039025247097,-0.1630859375,0.9785155653953552,0.992880812915642,-1.28173828125,-3.72314453125,1.5239715576171875,4.222220687105856
1780415690.041072,-0.0390624925494194,-0.1552734375,0.9819335341453552,0.9949015952326277,-1.40380859375,-3.7841796875,1.7681121826171875,4.406462885977058
1780415690.051483,-0.0302734337747097,-0.15185546875,0.9755858778953552,0.987797737054831,-1.644134521484375,-3.7841796875,1.8901824951171875,4.538279861012506
1780415690.061894,-0.0239257775247097,-0.1572265625,0.9892577528953552,1.001959847723099,-1.1577606201171875,-3.1108856201171875,2.1343231201171875,3.9463089306354107
1780415690.072599,-0.0307617150247097,-0.15576171875,0.9838866591453552,0.996614747123192,-1.28173828125,-1.8310546875,2.6226043701171875,3.4458189117240616
1780415690.083304,-0.024414055049419403,-0.16455078125,0.9760741591453552,0.9901483574925798,-0.9765625,-1.40380859375,2.8667449951171875,3.3380502919102413
1780415690.094009,-0.0185546875,-0.158203125,0.9785155653953552,0.9913955905232683,-0.7305145263671875,-0.7953643798828125,2.7446746826171875,2.949490648132251
1780415690.104674,-0.0249023400247097,-0.16650390625,0.9658202528953552,0.9803838218973541,-0.91552734375,-0.244140625,2.5615692138671875,2.731196038251645
1780415690.115338,-0.0356445237994194,-0.17333984375,0.9746093153953552,0.9905455825773818,-0.6103515625,0.1220703125,2.6226043701171875,2.695456153083891
1780415690.126002,-0.0219726525247097,-0.1650390625,0.9838866591453552,0.9978745650902516,-0.732421875,0.6103515625,2.3174285888671875,2.505882299176015
1780415690.133998,-0.02880859375,-0.1728515625,0.9921874403953552,1.0075433065684227,-0.30517578125,1.28173828125,1.8291473388671875,2.2542771050534505
1780415690.141995,-0.0239257775247097,-0.16650390625,0.9829100966453552,0.9972002064350228,-0.1220703125,1.52587890625,1.3408660888671875,2.0349765271389577
1780415690.149992,-0.0234374962747097,-0.17041015625,0.9936522841453552,1.0084313558056681,0.0,1.5869140625,1.0356903076171875,1.8949803838173203
1780415690.157989,-0.019531242549419403,-0.1591796875,0.9863280653953552,0.9992810890508566,0.2460479736328125,1.4667510986328125,0.5474090576171875,1.5847886505874256
1780415690.168679,-0.0180664025247097,-0.16162109375,0.9804686903953552,0.993864490607605,0.0,1.15966796875,0.3032684326171875,1.1986665674685502
1780415690.179369,-0.0322265587747097,-0.162109375,0.9843749403953552,0.9981543086275336,0.18310546875,1.220703125,0.2422332763671875,1.257903292089859
1780415690.190059,-0.0278320275247097,-0.16015625,0.9780272841453552,0.9914444082766003,0.18310546875,1.220703125,0.0,1.2343596445408132
1780415690.19807,-0.0454101525247097,-0.16015625,0.9584960341453552,0.9728446709720694,0.4291534423828125,0.6694793701171875,-0.4901885986328125,0.9341628157613237
1780415690.206082,-0.0312499962747097,-0.15283203125,0.9809569716453552,0.9932828259175714,-0.0591278076171875,0.5474090576171875,0.2422332763671875,0.6015228459290093
1780415690.214094,-0.0488281175494194,-0.15478515625,0.9794921278953552,0.9928481546881818,-0.1220703125,-0.18310546875,0.1201629638671875,0.2507347438337015
1780415690.222106,-0.0532226487994194,-0.14794921875,0.9755858778953552,0.988174795682835,-0.1811981201171875,-0.6694793701171875,0.7305145263671875,1.007316662713362
1780415690.232734,-0.0380859337747097,-0.1669921875,0.9750975966453552,0.990026389557912,0.06103515625,-0.91552734375,0.6694793701171875,1.135833717788347
1780415690.243362,-0.0366210900247097,-0.1728515625,0.9809569716453552,0.9967423674716127,-0.06103515625,-0.8544921875,0.7305145263671875,1.1258479746530938
1780415690.25399,-0.0419921837747097,-0.16015625,0.9604491591453552,0.9746157987716243,-0.2422332763671875,-1.1577606201171875,1.2187957763671875,1.6983962312028993
1780415690.264617,-0.0444335862994194,-0.16357421875,0.9716796278953552,0.9863529631414694,-0.667572021484375,-1.52587890625,1.4019012451171875,2.17699011055828
1780415690.275243,-0.0366210900247097,-0.17529296875,0.9746093153953552,0.9909248441648788,-0.6103515625,-1.40380859375,1.4629364013671875,2.1174018305880726
1780415690.285869,-0.0371093712747097,-0.1611328125,0.9770507216453552,0.9909434905019932,-0.5474090576171875,-0.9784698486328125,1.8291473388671875,2.1454230138436032
1780415690.296718,-0.030761711299419403,-0.16845703125,0.9770507216453552,0.9919436309223129,-0.30517578125,-0.6103515625,1.6460418701171875,1.7818852728182664
1780415690.307566,-0.0385742112994194,-0.17822265625,0.9858397841453552,1.0025623995452544,-0.244140625,-0.67138671875,1.4629364013671875,1.6280502711324547
1780415690.318414,-0.0317382775247097,-0.16796875,0.9770507216453552,0.9918915928187452,-0.1811981201171875,-0.2460479736328125,1.1577606201171875,1.1974063711025387
1780415690.326315,-0.0175781212747097,-0.16650390625,0.9746093153953552,0.9888861707999865,0.1239776611328125,-0.3643035888671875,0.7915496826171875,0.8801354812600419
1780415690.334217,-0.0244140587747097,-0.17138671875,0.9833983778953552,0.9985198161663906,-0.0591278076171875,-0.4901885986328125,0.7305145263671875,0.8817212899191512
1780415690.342119,-0.0322265587747097,-0.16943359375,0.9843749403953552,0.9993699600547632,0.0,-0.732421875,0.7305145263671875,1.0344531290551506
1780415690.350021,-0.0488281175494194,-0.16357421875,0.9750975966453552,0.9899272867673871,-0.1220703125,-0.732421875,0.7915496826171875,1.0853081885914864
1780415690.360652,-0.0341796800494194,-0.15869140625,0.9799804091453552,0.9933341911233001,0.18310546875,-0.732421875,0.7305145263671875,1.0505336210222638
1780415690.371283,-0.0439453087747097,-0.1669921875,0.9721679091453552,0.9873844359829617,0.18310546875,-1.15966796875,0.7305145263671875,1.3827540937073317
1780415690.381914,-0.0512695275247097,-0.16845703125,0.9741210341453552,0.9899081396748826,0.3681182861328125,-1.7719268798828125,0.8525848388671875,2.0005341405991515
1780415690.392586,-0.0356445275247097,-0.14990234375,0.9775390028953552,0.989607875466767,-0.0591278076171875,-2.1343231201171875,1.0967254638671875,2.4003412302827027
1780415690.403258,-0.0439453050494194,-0.1533203125,0.9794921278953552,0.9923926323134181,0.18310546875,-2.3193359375,1.2798309326171875,2.6553368938326716
1780415690.41393,-0.0581054612994194,-0.1591796875,0.9858397841453552,1.0002972046092984,0.492095947265625,-2.50244140625,1.4629364013671875,2.940162296111374
1780415690.421924,-0.037109375,-0.1640625,0.9736327528953552,0.9880558421110258,0.67138671875,-3.35693359375,2.1343231201171875,4.0342407538504625
1780415690.429918,-0.0351562462747097,-0.1650390625,0.9873046278953552,1.0016208274924163,1.220703125,-3.47900390625,2.1953582763671875,4.291058407980651
1780415690.437912,-0.0346679650247097,-0.1669921875,0.9760741591453552,0.9908627668029019,1.2226104736328125,-3.2367706298828125,2.0122528076171875,4.002576900257118
1780415690.445906,-0.0366210900247097,-0.166015625,0.9833983778953552,0.9979853013075666,1.52587890625,-3.662109375,2.0732879638671875,4.476368449102256
1780415690.456608,-0.0253906212747097,-0.15185546875,0.9775390028953552,0.9895894447798255,1.5888214111328125,-3.2939910888671875,1.7681121826171875,4.062136317300272
1780415690.46731,-0.0258789025247097,-0.1552734375,0.9780272841453552,0.9906144186926058,1.5888214111328125,-2.5653839111328125,1.5850067138671875,3.4084885757439776
1780415690.478012,-0.0297851525247097,-0.1552734375,0.9702147841453552,0.9830125752390988,1.15966796875,-2.74658203125,1.2187957763671875,3.220870347688746
1780415690.488651,-0.0253906212747097,-0.169921875,0.9648436903953552,0.9800211600511284,1.220703125,-2.50244140625,1.1577606201171875,3.01541684756741
1780415690.499288,-0.0126953125,-0.14453125,0.9697265028953552,0.9805202413023867,1.1005401611328125,-2.3822784423828125,1.0967254638671875,2.8441599755292972
1780415690.509925,-0.0161132775247097,-0.162109375,0.9785155653953552,0.9919837694722987,1.0395050048828125,-1.9550323486328125,0.6694793701171875,2.3132065982937307
1780415690.517999,-0.0258789025247097,-0.15869140625,0.9746093153953552,0.9877833758820245,0.3681182861328125,-0.7953643798828125,-0.0629425048828125,0.8786793091297035
1780415690.526074,-0.02197265625,-0.15869140625,0.9677733778953552,0.9809439693495593,-0.1220703125,-0.42724609375,-0.0629425048828125,0.4487785029827123
1780415690.534149,-0.015136715024709702,-0.15576171875,0.9765624403953552,0.9890222612057956,-0.3643035888671875,0.0591278076171875,-0.1239776611328125,0.3893374666726674
1780415690.542224,-0.0424804650247097,-0.1650390625,0.9682616591453552,0.983144507501573,-0.6694793701171875,0.2422332763671875,0.0,0.7119547648496275
1780415690.552788,-0.0312499962747097,-0.14990234375,0.9794921278953552,0.9913889769096101,-1.3408660888671875,0.4253387451171875,-0.1239776611328125,1.412163367614319
1780415690.563352,-0.0292968712747097,-0.1806640625,0.9848632216453552,1.0017251995907654,-1.220703125,1.28173828125,-0.1850128173828125,1.7796625757717095
1780415690.573916,-0.0317382775247097,-0.1494140625,0.9809569716453552,0.9927781527373654,-1.3408660888671875,1.4019012451171875,-0.1850128173828125,1.948712064911344
1780415690.581961,-0.0439453050494194,-0.158203125,0.9770507216453552,0.9907509935717256,-1.5850067138671875,0.8525848388671875,-0.3070831298828125,1.8257730524708904
1780415690.590005,-0.0385742150247097,-0.1513671875,0.9716796278953552,0.9841551172367539,-1.644134521484375,0.42724609375,-0.4291534423828125,1.7521102209822037
1780415690.598049,-0.0322265587747097,-0.1572265625,0.9775390028953552,0.990626693173403,-1.5869140625,0.06103515625,-0.8563995361328125,1.8042842618465673
1780415690.606093,-0.0268554650247097,-0.16015625,0.9858397841453552,0.9991252776401548,-1.8291473388671875,-0.6122589111328125,-0.5512237548828125,2.0061128057747792
1780415690.616723,-0.0410156212747097,-0.16455078125,0.9643554091453552,0.979152999253151,-1.5239715576171875,-0.6694793701171875,-0.8563995361328125,1.8719273759756705
1780415690.627353,-0.0366210900247097,-0.15869140625,0.9902343153953552,1.0035377750930496,-1.5239715576171875,-0.9784698486328125,-1.0395050048828125,2.088172217104253
1780415690.637983,-0.0219726525247097,-0.169921875,0.9716796278953552,0.9866699247110673,-1.5239715576171875,-0.9174346923828125,-0.7953643798828125,1.9485328378038882
1780415690.645986,-0.0327148400247097,-0.1728515625,0.9794921278953552,0.9951646858814398,-0.6694793701171875,-0.9174346923828125,-0.8563995361328125,1.4224307390128168
1780415690.653988,-0.0336913987994194,-0.1640625,0.9804686903953552,0.9946710346164175,-0.244140625,-1.03759765625,-0.8563995361328125,1.3673454963978124
1780415690.66199,-0.0302734337747097,-0.17529296875,0.9824218153953552,0.9983970798486971,-0.0591278076171875,-1.2836456298828125,-0.6732940673828125,1.4507126186546213
1780415690.669992,-0.0327148400247097,-0.17529296875,0.9868163466453552,1.002798278647065,0.3070831298828125,-1.1577606201171875,-0.5512237548828125,1.318543639816243
1780415690.68103,-0.0263671837747097,-0.1650390625,0.9814452528953552,0.9955741584442196,0.6122589111328125,-1.7719268798828125,-0.3681182861328125,1.9105226809693037
1780415690.692068,-0.0332031212747097,-0.17724609375,0.9873046278953552,1.0036379094452355,0.8563995361328125,-1.7719268798828125,-0.1850128173828125,1.9767080653793219
1780415690.703106,-0.0346679650247097,-0.16796875,0.9853515028953552,1.000166462661917,1.5277862548828125,-1.7719268798828125,0.3643035888671875,2.367820266219884
1780415690.710854,-0.0380859337747097,-0.17236328125,0.9790038466453552,0.9947905160490627,1.3427734375,-1.5869140625,0.3643035888671875,2.11046294709889
1780415690.718602,-0.0224609337747097,-0.1728515625,0.9790038466453552,0.9943996620831714,1.4667510986328125,-1.5888214111328125,0.6694793701171875,2.2636066108816544
1780415690.72635,-0.0258789025247097,-0.1591796875,0.9829100966453552,0.9960522820594623,1.8329620361328125,-0.9784698486328125,0.8525848388671875,2.245897143248963
1780415690.734098,-0.0317382775247097,-0.15771484375,0.9824218153953552,0.9955068626403476,1.8310546875,-1.03759765625,0.7915496826171875,2.248537539140182
1780415690.744726,-0.0249023400247097,-0.15478515625,0.9873046278953552,0.999674446706341,1.4057159423828125,-1.2836456298828125,0.7915496826171875,2.0616338942299652
1780415690.755354,-0.0366210900247097,-0.1474609375,0.9794921278953552,0.9912066691320977,1.5277862548828125,-1.1005401611328125,1.0967254638671875,2.1790195570416033
1780415690.765982,-0.0395507775247097,-0.142578125,0.9804686903953552,0.9915702892770172,1.15966796875,-1.52587890625,1.0967254638671875,2.2081537485823186
1780415690.773978,-0.0332031212747097,-0.15234375,0.9868163466453552,0.9990583403550223,1.03759765625,-1.8310546875,1.0356903076171875,2.345639481711416
1780415690.781974,-0.0224609337747097,-0.13525390625,0.9799804091453552,0.9895249946366254,1.220703125,-2.38037109375,1.0356903076171875,2.8686123956780083
1780415690.78997,-0.0224609337747097,-0.14892578125,0.9829100966453552,0.994382039235593,1.2836456298828125,-2.1991729736328125,1.4019012451171875,2.906791181377732
1780415690.797966,-0.0263671837747097,-0.154296875,0.9863280653953552,0.9986720215373609,1.220703125,-2.3193359375,1.0356903076171875,2.8181713439136296
1780415690.808619,-0.0312499962747097,-0.13037109375,0.9711913466453552,0.9804008446301743,1.2226104736328125,-2.7484893798828125,1.2798309326171875,3.2690881691457996
1780415690.819272,-0.0161132775247097,-0.1376953125,0.9658202528953552,0.9757194257059295,1.03759765625,-1.89208984375,0.7915496826171875,2.2985133832824998
1780415690.829925,-0.019531242549419403,-0.15380859375,0.9785155653953552,0.9907225972328826,0.7953643798828125,-1.7719268798828125,1.0356903076171875,2.2011323853257427
1780415690.837934,-0.024902336299419403,-0.154296875,0.9775390028953552,0.9899546222780014,0.67138671875,-0.79345703125,0.5474090576171875,1.174730123439121
1780415690.845942,-0.015136715024709702,-0.14697265625,0.9921874403953552,1.0031281068264444,0.1850128173828125,-0.4901885986328125,0.1201629638671875,0.5375441774504431
1780415690.85395,-0.0297851525247097,-0.162109375,0.9804686903953552,0.9942260596159174,0.06103515625,-0.54931640625,0.1201629638671875,0.5656084709047629
1780415690.861958,-0.02392578125,-0.16455078125,0.9819335341453552,0.9959130826018884,-0.4253387451171875,-0.4901885986328125,-0.1239776611328125,0.6607332069658879
1780415690.872604,-0.0239257775247097,-0.15625,0.9819335341453552,0.9945752715653801,-0.42724609375,-0.18310546875,-0.3681182861328125,0.5929400559046001
1780415690.88325,-0.0361328087747097,-0.1650390625,0.9770507216453552,0.9915500918705711,-0.5474090576171875,0.2422332763671875,-0.2460479736328125,0.6472041732480815
1780415690.893896,-0.0234375,-0.15966796875,0.9907225966453552,1.0037800755916189,-0.6103515625,0.42724609375,-0.1239776611328125,0.7552739337027247
1780415690.904584,-0.0322265587747097,-0.1650390625,0.9868163466453552,1.0010409308553894,-1.0967254638671875,0.3643035888671875,-0.2460479736328125,1.1815512910089954
1780415690.915271,-0.029785148799419403,-0.17333984375,0.9804686903953552,0.9961188229151484,-1.220703125,0.91552734375,-0.1239776611328125,1.5309072137130515
1780415690.925958,-0.0415039025247097,-0.1533203125,0.9824218153953552,0.995179539336789,-1.3408660888671875,0.6694793701171875,-0.1239776611328125,1.503826770524603
1780415690.936639,-0.0332031212747097,-0.1611328125,0.9765624403953552,0.9903233969353016,-1.28173828125,0.48828125,-0.3681182861328125,1.4201347377304119
1780415690.947322,-0.0410156212747097,-0.17529296875,0.9873046278953552,1.0035837455565553,-0.7305145263671875,0.6694793701171875,-0.1239776611328125,0.9986113161315292
1780415690.958005,-0.0292968712747097,-0.1630859375,0.9750975966453552,0.9890756556807415,-1.2187957763671875,0.2422332763671875,-0.2460479736328125,1.2667595312445417
1780415690.968648,-0.0253906212747097,-0.16015625,0.9824218153953552,0.9957144828852715,-0.8525848388671875,0.0591278076171875,-0.3070831298828125,0.9081283244995871
1780415690.97929,-0.0351562462747097,-0.1611328125,0.9746093153953552,0.9884650032103773,-0.48828125,-0.18310546875,-0.9174346923828125,1.0552879259118175
1780415690.989932,-0.010253902524709702,-0.15478515625,0.9726561903953552,0.9849485528832096,-0.3643035888671875,-0.3070831298828125,-1.1005401611328125,1.1992521835653975
1780415690.997922,-0.0327148400247097,-0.16650390625,0.9824218153953552,0.9969686228357724,-0.2422332763671875,-0.6122589111328125,-1.9550323486328125,2.0629322380150663
1780415691.005911,-0.0380859337747097,-0.16796875,0.9833983778953552,0.9983668709323592,0.3662109375,-0.67138671875,-2.1381378173828125,2.2707936724812887
1780415691.0139,-0.0268554650247097,-0.1689453125,0.9770507216453552,0.9919132256831368,0.3662109375,-0.732421875,-2.4433135986328125,2.5768844745131996
1780415691.029906,-0.0434570275247097,-0.17138671875,0.9829100966453552,0.9986862263456708,0.4291534423828125,-0.7953643798828125,-2.5653839111328125,2.719921282940827
1780415691.037924,-0.0483398362994194,-0.16796875,0.9736327528953552,0.9891971382189725,0.6122589111328125,-0.9784698486328125,-2.6264190673828125,2.8688571481440235
1780415691.045942,-0.0439453087747097,-0.17041015625,0.9755858778953552,0.9913317389579055,0.4901885986328125,-1.2836456298828125,-2.1991729736328125,2.5931434077782565
1780415691.05396,-0.0449218712747097,-0.171875,0.9848632216453552,1.0007569912288845,0.3070831298828125,-1.4667510986328125,-2.0771026611328125,2.5612524863597885
1780415691.064733,-0.0400390587747097,-0.17041015625,0.9863280653953552,1.0017413838747296,0.4291534423828125,-1.2226104736328125,-1.9550323486328125,2.3454425022895786
1780415691.075506,-0.0332031212747097,-0.16064453125,0.9711913466453552,0.9849475846367327,0.5512237548828125,-1.4667510986328125,-1.7719268798828125,2.3653607084203685
1780415691.086279,-0.0361328087747097,-0.1591796875,0.9858397841453552,0.999261643808221,0.54931640625,-1.708984375,-1.1005401611328125,2.1056031806671913
1780415691.096824,-0.0400390587747097,-0.15380859375,0.9770507216453552,0.9898930863515648,0.3070831298828125,-1.5888214111328125,-0.3070831298828125,1.647104603172279
1780415691.107368,-0.0302734337747097,-0.1591796875,0.9892577528953552,1.0024398013689786,0.2460479736328125,-1.4667510986328125,0.2422332763671875,1.5068428421202251
1780415691.117912,-0.0444335900247097,-0.16162109375,0.9824218153953552,0.9966184551934284,0.4291534423828125,-1.7108917236328125,0.7305145263671875,1.9091816677146651
1780415691.125932,-0.0468749962747097,-0.14501953125,0.9965819716453552,1.0081684164504794,0.54931640625,-1.64794921875,1.0967254638671875,2.054334900849627
1780415691.133953,-0.0395507737994194,-0.15380859375,0.9824218153953552,0.9951753466521318,0.67138671875,-1.89208984375,1.4629364013671875,2.4841390897816025
1780415691.141974,-0.0268554650247097,-0.1552734375,0.9931640028953552,1.0055872876294156,0.8544921875,-1.708984375,1.3408660888671875,2.334246422459862
1780415691.149995,-0.02734375,-0.154296875,0.9667968153953552,0.9794137473802523,1.03759765625,-1.8310546875,1.7070770263671875,2.7098860010749264
1780415691.16064,-0.0214843712747097,-0.1640625,0.9760741591453552,0.9899994173062082,0.54931640625,-1.64794921875,1.5239715576171875,2.3108384734075003
1780415691.171285,-0.0322265587747097,-0.15576171875,0.9829100966453552,0.9956970032122199,0.6122589111328125,-1.5277862548828125,1.5239715576171875,2.2430963250151663
1780415691.18193,-0.0375976525247097,-0.15673828125,0.9848632216453552,0.9979659501376993,0.6122589111328125,-1.5277862548828125,1.4629364013671875,2.2020841785262353
1780415691.190016,-0.0307617150247097,-0.1640625,0.9824218153953552,0.996501585739941,0.0,-1.89208984375,1.2187957763671875,2.250659263707502
1780415691.1981,-0.0341796837747097,-0.14599609375,0.9794921278953552,0.9909025879379713,0.0629425048828125,-1.9550323486328125,0.7915496826171875,2.1101336789817426
1780415691.206184,-0.0166015587747097,-0.1455078125,0.9736327528953552,0.9845856350581564,-0.3643035888671875,-1.7108917236328125,0.3032684326171875,1.775342033828652
1780415691.214268,-0.0166015587747097,-0.150390625,0.9614257216453552,0.973258634733303,-0.5474090576171875,-2.1343231201171875,0.1201629638671875,2.2066787249877247
1780415691.223808,-0.0268554650247097,-0.1435546875,0.9897460341453552,1.0004630809836885,-0.3643035888671875,-1.9550323486328125,-0.1239776611328125,1.9925458713721513
1780415691.233346,-0.0288085900247097,-0.13720703125,0.9697265028953552,0.9798087541460863,-0.3643035888671875,-1.8939971923828125,-0.3070831298828125,1.9530085812085194
1780415691.242884,-0.0239257775247097,-0.16259765625,0.9746093153953552,0.9883692418846096,-0.5474090576171875,-1.7108917236328125,-0.5512237548828125,1.8790036706466808
1780415691.252422,-0.0185546837747097,-0.14208984375,0.9770507216453552,0.9875028671627178,-0.9765625,-1.52587890625,-1.0395050048828125,2.0886721638690364
1780415691.26196,-0.0385742112994194,-0.1591796875,0.9765624403953552,0.9902021726298633,-1.220703125,-1.708984375,-1.2836456298828125,2.4613999708491403
1780415691.271566,-0.0292968712747097,-0.14697265625,0.9653319716453552,0.97689563610059,-1.28173828125,-1.40380859375,-1.4667510986328125,2.4010186119329893
1780415691.281172,-0.0385742112994194,-0.169921875,0.9721679091453552,0.9876597880611215,-1.46484375,-1.3427734375,-1.4667510986328125,2.4698515141016455
1780415691.290778,-0.0390624962747097,-0.16259765625,0.9794921278953552,0.9936642818589062,-1.4019012451171875,-1.4667510986328125,-1.2226104736328125,2.3688525189716505
1780415691.300384,-0.0390624962747097,-0.17236328125,0.9804686903953552,0.996269959490931,-1.155853271484375,-1.708984375,-1.2226104736328125,2.398207820317481
1780415691.30999,-0.0302734337747097,-0.17529296875,0.9682616591453552,0.9844667319196806,-1.0986328125,-2.01416015625,-1.3446807861328125,2.6593235245681264
1780415691.319607,-0.0351562462747097,-0.15966796875,0.9912108778953552,1.004603815618356,-1.2187957763671875,-2.4433135986328125,-1.4667510986328125,3.099452092079354
1780415691.329226,-0.0292968712747097,-0.16162109375,0.9824218153953552,0.9960583858269246,-1.155853271484375,-2.685546875,-1.5888214111328125,3.3275384715277836
1780415691.338845,-0.0322265587747097,-0.1650390625,0.9804686903953552,0.9947840449499186,-1.0356903076171875,-2.8057098388671875,-1.6498565673828125,3.4156534962060365
1780415691.348464,-0.0234374962747097,-0.15576171875,0.9843749403953552,0.9968977141803166,-1.0356903076171875,-3.2939910888671875,-1.6498565673828125,3.826886253831543
1780415691.358083,-0.0205078087747097,-0.1708984375,0.9863280653953552,1.0012341877638946,-0.48828125,-3.23486328125,-1.9550323486328125,3.811156059738542
1780415691.367647,-0.0258789025247097,-0.166015625,0.9912108778953552,1.005350640223651,-0.4253387451171875,-3.0536651611328125,-2.2602081298828125,3.8228686551858555
1780415691.377214,-0.0205078087747097,-0.16650390625,0.9697265028953552,0.9841308914137916,-0.30517578125,-3.0517578125,-2.2602081298828125,3.809842358156659
1780415691.386781,-0.013183590024709702,-0.16064453125,0.9702147841453552,0.9835126841280137,-0.2422332763671875,-2.9315948486328125,-2.2602081298828125,3.7096450109273778
1780415691.396348,-0.01904296875,-0.14990234375,0.9677733778953552,0.9794991874848813,-0.1220703125,-2.50244140625,-2.8705596923828125,3.810147910572663
1780415691.405915,-0.010742183774709702,-0.15185546875,0.9760741591453552,0.9878746084665018,-0.0591278076171875,-1.8291473388671875,-2.5043487548828125,3.1017799359402694
1780415691.413906,-0.01416015625,-0.1533203125,0.9687499403953552,0.9809098201497048,-0.244140625,-1.8310546875,-2.3212432861328125,2.966569787955067
1780415691.421897,-0.02392578125,-0.1552734375,0.9741210341453552,0.9867087070487954,0.06103515625,-1.52587890625,-2.1381378173828125,2.627482645605808
1780415691.429888,-0.0175781212747097,-0.16259765625,0.9721679091453552,0.9858282972899455,-0.30517578125,-1.40380859375,-2.0160675048828125,2.4755482240490307
1780415691.437879,-0.0288085900247097,-0.15625,0.9643554091453552,0.9773563078566164,-0.3643035888671875,-1.3408660888671875,-1.5888214111328125,2.1106853033101745
1780415691.448586,-0.0166015587747097,-0.15380859375,0.9902343153953552,1.0022458254598072,-0.42724609375,-0.8544921875,-0.9784698486328125,1.3675157651035281
1780415691.459293,-0.0346679650247097,-0.15087890625,0.9882811903953552,1.00033295628976,-0.1220703125,-0.54931640625,-0.9174346923828125,1.0762602334736746
1780415691.47,-0.0258789025247097,-0.1572265625,0.9838866591453552,0.9967060086081845,-0.30517578125,-0.8544921875,-0.6122589111328125,1.0946004431853753
1780415691.477983,-0.019531242549419403,-0.15380859375,0.9707030653953552,0.9830071180387332,-0.244140625,0.1220703125,0.7305145263671875,0.779844394224075
1780415691.485964,-0.0346679650247097,-0.14208984375,0.9799804091453552,0.9908344936489402,-0.1811981201171875,0.0591278076171875,0.8525848388671875,0.8736302214517341
1780415691.493945,-0.0180664025247097,-0.1513671875,0.9550780653953552,0.9671672716501419,-0.7305145263671875,0.2422332763671875,1.1577606201171875,1.3902295087168857
1780415691.501926,-0.0317382775247097,-0.1591796875,0.9775390028953552,0.9909227988872182,-0.732421875,0.30517578125,1.5239715576171875,1.7181569686341873
1780415691.512887,-0.0336914025247097,-0.14208984375,0.9785155653953552,0.989351982876657,-0.79345703125,0.1220703125,1.9512176513671875,2.1099112646366893
1780415691.523848,-0.0312499962747097,-0.14697265625,0.9716796278953552,0.9832287746090459,-1.0356903076171875,-0.5512237548828125,2.2563934326171875,2.543189604413573
1780415691.534809,-0.010742183774709702,-0.1455078125,0.9702147841453552,0.9811241742944687,-1.5239715576171875,-0.4901885986328125,2.1953582763671875,2.717052103340984
1780415691.543057,-0.0224609337747097,-0.15283203125,0.9726561903953552,0.984846276347958,-1.28173828125,-0.42724609375,2.2563934326171875,2.6299626554391056
1780415691.551306,-0.0253906212747097,-0.14599609375,0.9765624403953552,0.9877417390339979,-1.46484375,-0.30517578125,2.0122528076171875,2.507600612366105
1780415691.559555,-0.015624996274709702,-0.1513671875,0.9902343153953552,1.0018583559299952,-1.46484375,-0.1220703125,1.7681121826171875,2.2993236099834284
1780415691.567804,-0.019531242549419403,-0.16845703125,0.9804686903953552,0.9950266798727915,-1.644134521484375,-0.18310546875,1.5239715576171875,2.2492654902987703
1780415691.577886,-0.0219726525247097,-0.16748046875,0.9746093153953552,0.9891389298410483,-1.5869140625,0.06103515625,1.3408660888671875,2.0784473532742425
1780415691.587968,-0.0346679612994194,-0.1640625,0.9887694716453552,1.0028875507776247,-2.0751953125,0.1220703125,1.1577606201171875,2.3794424556416476
1780415691.59805,-0.0273437462747097,-0.1572265625,0.9765624403953552,0.989516079913224,-2.197265625,-0.06103515625,0.8525848388671875,2.357668853883278
1780415691.608802,-0.0268554650247097,-0.15771484375,0.9843749403953552,0.9972909360959517,-1.953125,-0.244140625,0.7915496826171875,2.121521343388221
1780415691.619555,-0.029296867549419403,-0.15380859375,0.9858397841453552,0.9981961079684298,-2.44140625,-0.67138671875,0.7915496826171875,2.6528806048716786
1780415691.630308,-0.0302734337747097,-0.1513671875,0.9721679091453552,0.984346966174135,-2.5634765625,-0.8544921875,1.0356903076171875,2.8938250462454596
1780415691.638257,-0.0253906212747097,-0.1708984375,0.9741210341453552,0.9893243900526629,-2.5615692138671875,-0.7953643798828125,1.0967254638671875,2.897766049444508
1780415691.646208,-0.0283203087747097,-0.16796875,0.9848632216453552,0.9994854207117407,-2.3784637451171875,-1.2836456298828125,0.9136199951171875,2.852987449224418
1780415691.654159,-0.0278320275247097,-0.17236328125,0.9765624403953552,0.9920473388252874,-2.3174285888671875,-1.1005401611328125,0.7305145263671875,2.6674548513515046
1780415691.66211,-0.0214843712747097,-0.17431640625,0.9829100966453552,0.9984788659678111,-2.0122528076171875,-1.2836456298828125,0.4253387451171875,2.424421686295179
1780415691.672721,-0.0346679612994194,-0.1787109375,0.9843749403953552,1.0010661766342652,-2.1953582763671875,-1.1577606201171875,0.3032684326171875,2.500395840128144
1780415691.683332,-0.02294921875,-0.16845703125,0.9780272841453552,0.9926942160361055,-1.8291473388671875,-1.2836456298828125,0.2422332763671875,2.2477106242979183
1780415691.693943,-0.0312499962747097,-0.16162109375,0.9814452528953552,0.9951546234846841,-1.7070770263671875,-1.2836456298828125,0.1201629638671875,2.139228182067829
1780415691.704634,-0.0327148400247097,-0.17138671875,0.9809569716453552,0.9963534756005823,-1.2187957763671875,-1.5888214111328125,0.0591278076171875,2.003325415053224
1780415691.715324,-0.0327148400247097,-0.15234375,0.9687499403953552,0.981200961035969,-1.3408660888671875,-1.8939971923828125,-0.1239776611328125,2.3239013949580407
1780415691.726014,-0.0346679650247097,-0.17578125,0.9809569716453552,0.9971847852179371,-1.220703125,-2.197265625,-0.2460479736328125,2.5255953657544232
1780415691.734001,-0.0429687462747097,-0.16552734375,0.9746093153953552,0.9894993341790352,-1.40380859375,-2.50244140625,-0.1239776611328125,2.8719787638596483
1780415691.741991,-0.0351562425494194,-0.17333984375,0.9829100966453552,0.9986966110430382,-1.46484375,-2.99072265625,0.1811981201171875,3.3351194847044265
1780415691.749981,-0.0356445275247097,-0.16943359375,0.9858397841453552,1.0009287462338468,-1.5239715576171875,-3.3588409423828125,0.4253387451171875,3.71284457427874
1780415691.757971,-0.0366210900247097,-0.17626953125,0.9858397841453552,1.0021437680719534,-0.8525848388671875,-3.7250518798828125,0.7915496826171875,3.902494499078254
1780415691.768671,-0.0395507737994194,-0.17333984375,0.9882811903953552,1.0041467404860047,-0.9136199951171875,-3.7250518798828125,0.9746551513671875,3.9573558934448894
1780415691.779371,-0.0258789025247097,-0.16259765625,0.9824218153953552,0.9961226524773854,-0.4253387451171875,-4.0912628173828125,1.2187957763671875,4.290082473972675
1780415691.790071,-0.0249023400247097,-0.162109375,0.9697265028953552,0.9834983815031179,0.06103515625,-4.638671875,0.9746551513671875,4.740353860029974
1780415691.798038,-0.013183590024709702,-0.14599609375,0.9868163466453552,0.9976448107631715,0.7343292236328125,-4.7016143798828125,1.2187957763671875,4.912217455517672
1780415691.806005,-0.01904296875,-0.15087890625,0.9829100966453552,0.9946051161628877,1.2836456298828125,-4.8847198486328125,0.7915496826171875,5.112219185715337
1780415691.813972,-0.012207027524709702,-0.16064453125,0.9672850966453552,0.9806100831287303,0.91552734375,-4.638671875,0.6694793701171875,4.775318806957547
1780415691.821939,-0.0058593712747097015,-0.16259765625,0.9785155653953552,0.9919501206062328,1.1005401611328125,-4.5185089111328125,0.3032684326171875,4.660481001836072
1780415691.832607,-0.0024414025247097015,-0.1533203125,0.9760741591453552,0.9880454659694045,0.797271728515625,-4.150390625,-0.1850128173828125,4.230320826104577
1780415691.843275,0.0034179724752902985,-0.15771484375,0.9711913466453552,0.9839198576478407,0.4901885986328125,-3.5419464111328125,-0.7343292236328125,3.6503299371765534
1780415691.853943,-0.0019531212747097015,-0.15771484375,0.9750975966453552,0.9877717902457777,0.06103515625,-2.8076171875,-1.1615753173828125,3.039028920526564
1780415691.864625,0.0,-0.16015625,0.9760741591453552,0.9891262753386822,-0.6694793701171875,-1.4667510986328125,-2.2602081298828125,2.7763469168570105
1780415691.875309,-0.00830078125,-0.1591796875,0.9799804091453552,0.9928588410195358,-0.8525848388671875,-0.9784698486328125,-3.0536651611328125,3.3180076956610565
1780415691.885993,-0.011718746274709702,-0.16357421875,0.9702147841453552,0.9839769211867431,-0.9765625,-0.06103515625,-3.0536651611328125,3.206597967164109
1780415691.893971,-0.015136715024709702,-0.16162109375,0.9667968153953552,0.9803298324264574,-1.5239715576171875,0.4253387451171875,-3.0536651611328125,3.4392256792540246
1780415691.901951,-0.0214843712747097,-0.15625,0.9829100966453552,0.9954837511463716,-2.0751953125,0.732421875,-2.9926300048828125,3.714661725396458
1780415691.909931,-0.0224609375,-0.16845703125,0.9868163466453552,1.0013434810780106,-2.1953582763671875,1.0356903076171875,-3.1757354736328125,3.9971925364430367
1780415691.917911,-0.0229492150247097,-0.17578125,0.9892577528953552,1.0050157292228716,-1.953125,1.03759765625,-3.3588409423828125,4.021581609032391
1780415691.925921,-0.0234374962747097,-0.1708984375,0.9750975966453552,0.9902378073751357,-1.5869140625,0.91552734375,-2.8705596923828125,3.4053780269519405
1780415691.933931,-0.02392578125,-0.16455078125,0.9877929091453552,1.001690687775549,-1.8291473388671875,0.7305145263671875,-2.6874542236328125,3.331942626252774
1780415691.941941,-0.02685546875,-0.17822265625,0.9692382216453552,0.9858535701111188,-1.8291473388671875,0.5474090576171875,-2.5043487548828125,3.1491585145446943
1780415691.949951,-0.0463867150247097,-0.17138671875,0.9926757216453552,1.0084295825880962,-1.5239715576171875,0.2422332763671875,-1.8329620361328125,2.3960208877449056
1780415691.960792,-0.0307617150247097,-0.17529296875,0.9770507216453552,0.9931273939793219,-1.0986328125,0.1220703125,-1.5888214111328125,1.9355228478035513
1780415691.971633,-0.009765621274709702,-0.16552734375,0.9775390028953552,0.9915024816254657,-0.6084442138671875,-0.0019073486328125,-1.5888214111328125,1.7013410815710437
1780415691.982474,-0.015136715024709702,-0.18603515625,0.9755858778953552,0.9932804259883269,-0.48828125,-0.18310546875,-1.1005401611328125,1.2178402350283706
1780415691.992965,-0.0268554650247097,-0.173828125,0.9814452528953552,0.9970818509397996,0.06103515625,-0.732421875,-0.6732940673828125,0.9967406856599508
1780415692.003457,-0.0249023400247097,-0.15771484375,0.9785155653953552,0.9914569129310586,0.244140625,-0.67138671875,-0.3681182861328125,0.8036640115587119
1780415692.013949,-0.0239257775247097,-0.166015625,0.9799804091453552,0.9942309756203537,0.6122589111328125,-0.9174346923828125,-0.3681182861328125,1.1627804872951912
1780415692.021948,-0.0297851525247097,-0.17041015625,0.9809569716453552,0.996094050220006,0.4901885986328125,-0.9784698486328125,-0.1850128173828125,1.1099179471965688
1780415692.029946,-0.009765621274709702,-0.16015625,0.9843749403953552,0.9973662391776166,0.6122589111328125,-0.7343292236328125,0.1811981201171875,0.9731048975710219
1780415692.037944,-0.0239257775247097,-0.162109375,0.9887694716453552,1.0022559355528344,0.67138671875,-0.8544921875,0.6084442138671875,1.2454402378279283
1780415692.045942,-0.014648433774709702,-0.158203125,0.9755858778953552,0.988438470781398,0.732421875,-1.03759765625,0.4863739013671875,1.3600037761584147
1780415692.056597,-0.013183590024709702,-0.16015625,0.9873046278953552,1.0002970857318279,0.7343292236328125,-0.6122589111328125,0.7305145263671875,1.203225604853962
1780415692.067252,-0.01416015625,-0.1630859375,0.9780272841453552,0.9916324427770693,0.6122589111328125,-0.8525848388671875,0.4863739013671875,1.1568584414952696
1780415692.077907,-0.013671875,-0.1640625,0.9794921278953552,0.9932312181366615,0.732421875,-0.67138671875,0.7915496826171875,1.2703357151335144
1780415692.085931,-0.0195312462747097,-0.1611328125,0.9716796278953552,0.9851429094867706,0.4291534423828125,-0.6122589111328125,0.9746551513671875,1.228408041107331
1780415692.093957,-0.0244140587747097,-0.15234375,0.9790038466453552,0.9910868762002247,0.1239776611328125,-0.6694793701171875,1.4629364013671875,1.6136158160843757
1780415692.101983,-0.0166015587747097,-0.1591796875,0.9833983778953552,0.9963363660499217,0.54931640625,-0.732421875,1.4019012451171875,1.674370752914375
1780415692.110009,-0.015136715024709702,-0.1650390625,0.9721679091453552,0.9861934170661807,0.4901885986328125,-0.4901885986328125,1.7070770263671875,1.842466200072566
1780415692.120695,-0.0224609337747097,-0.15576171875,0.9785155653953552,0.991089762985663,0.42724609375,-0.3662109375,1.8901824951171875,1.9721662050184054
1780415692.131381,-0.0185546875,-0.14404296875,0.9741210341453552,0.9848880354837054,0.5512237548828125,-0.0019073486328125,1.9512176513671875,2.0275851619433394
1780415692.142067,-0.0205078087747097,-0.1494140625,0.9814452528953552,0.9929652142569354,0.4291534423828125,0.1811981201171875,2.0732879638671875,2.1249772744572044
1780415692.152715,-0.0170898400247097,-0.146484375,0.9750975966453552,0.9861871311950682,0.5512237548828125,0.8525848388671875,1.8901824951171875,2.145585794197177
1780415692.163363,-0.011230465024709702,-0.1435546875,0.9804686903953552,0.990985834658335,0.6122589111328125,0.7953643798828125,1.8291473388671875,2.0864432554787635
1780415692.174011,-0.0175781212747097,-0.14697265625,0.9726561903953552,0.9838546725747327,0.492095947265625,0.9765625,1.2798309326171875,1.6833894242881777
1780415692.182007,-0.0170898400247097,-0.16748046875,0.9726561903953552,0.9871179436922396,0.0,0.9765625,1.0967254638671875,1.4684961898149234
1780415692.190005,-0.0175781212747097,-0.14892578125,0.9765624403953552,0.98800914907677,-0.244140625,1.0986328125,0.8525848388671875,1.4119134566053397
1780415692.198003,-0.0380859375,-0.16845703125,0.9873046278953552,1.0022967316500655,-0.6084442138671875,1.1577606201171875,0.7305145263671875,1.4980872765350057
1780415692.206001,-0.0195312462747097,-0.1611328125,0.9638671278953552,0.9774380251875024,-0.6084442138671875,0.3643035888671875,0.6084442138671875,0.9344120224175374
1780415692.216634,-0.0185546875,-0.158203125,0.9726561903953552,0.9856127890314704,-1.220703125,0.30517578125,0.3643035888671875,1.3099486561342113
1780415692.227267,-0.0385742112994194,-0.16015625,0.9814452528953552,0.9951747477816458,-1.5850067138671875,0.3643035888671875,0.4863739013671875,1.6975049218770213
1780415692.2379,-0.0234374962747097,-0.16650390625,0.9702147841453552,0.9846774062617432,-1.0986328125,0.06103515625,0.4253387451171875,1.1796746988462479
1780415692.24858,-0.0351562462747097,-0.1611328125,0.9765624403953552,0.9903908041309855,-2.1343231201171875,-0.9174346923828125,0.4863739013671875,2.373516624712254
1780415692.259261,-0.0327148400247097,-0.166015625,0.9858397841453552,1.000255731553558,-1.644134521484375,-1.03759765625,0.6694793701171875,2.056207637376307
1780415692.269942,-0.0336913987994194,-0.16357421875,0.9824218153953552,0.9965160604613654,-1.4629364013671875,-0.9784698486328125,0.6694793701171875,1.883026496399135
1780415692.278039,-0.0351562462747097,-0.16259765625,0.9790038466453552,0.9930370039512744,-1.46484375,-1.64794921875,0.9746551513671875,2.41069626945814
1780415692.286138,-0.02783203125,-0.173828125,0.9863280653953552,1.0019151119686043,-1.3408660888671875,-1.6460418701171875,0.9136199951171875,2.3112934045531315
1780415692.294237,-0.015624996274709702,-0.17138671875,0.9838866591453552,0.9988245621312507,-0.9765625,-1.708984375,0.9746551513671875,2.1964185790707074
1780415692.302336,-0.0180664025247097,-0.1865234375,0.9833983778953552,1.0010942799178393,-0.9765625,-1.5869140625,1.0967254638671875,2.1621233316490533
1780415692.313024,-0.0166015587747097,-0.173828125,0.9814452528953552,0.9968583716986047,-0.6694793701171875,-1.6460418701171875,1.1577606201171875,2.120864474379617
1780415692.323712,-0.0053710900247097015,-0.17431640625,0.9814452528953552,0.9968198646329217,-0.5474090576171875,-1.1577606201171875,1.2187957763671875,1.7679167045836655
1780415692.3344,-0.012207027524709702,-0.181640625,0.9858397841453552,1.0025080589078275,-0.3032684326171875,-0.9784698486328125,1.2187957763671875,1.592117499243099
1780415692.342472,-0.0195312462747097,-0.166015625,0.9814452528953552,0.9955789480277352,0.6122589111328125,0.5474090576171875,0.9746551513671875,1.2745471018010552
1780415692.350546,-0.020507805049419403,-0.16357421875,0.9912108778953552,1.0048264027013316,0.7953643798828125,1.5239715576171875,1.2187957763671875,2.107262904742316
1780415692.35862,-0.011230465024709702,-0.17529296875,0.9902343153953552,1.0056926705631137,1.4057159423828125,1.9550323486328125,1.2798309326171875,2.726931610978484
1780415692.366694,-0.013183590024709702,-0.16162109375,0.9853515028953552,0.9986054121869263,1.5888214111328125,2.0732879638671875,0.7915496826171875,2.7293639108118177
1780415692.377838,-0.0078124962747097015,-0.17578125,0.9897460341453552,1.0052647885289048,1.708984375,2.86865234375,0.7305145263671875,3.4181055186360156
1780415692.388982,-0.013671875,-0.16357421875,0.9760741591453552,0.9897798792443705,1.52587890625,3.35693359375,0.6084442138671875,3.7373137345925946
1780415692.400126,-0.02685546875,-0.15869140625,0.9731444716453552,0.9863642031791818,1.64794921875,3.47900390625,0.1201629638671875,3.85144699368521
1780415692.407767,-0.0283203125,-0.16357421875,0.9770507216453552,0.9910533173384164,1.52587890625,3.23486328125,-0.0629425048828125,3.577234776169875
1780415692.41541,-0.0170898400247097,-0.1435546875,0.9765624403953552,0.9872052526836679,1.5888214111328125,3.2939910888671875,-0.4901885986328125,3.689853063773692
1780415692.423053,-0.0224609375,-0.15869140625,0.9721679091453552,0.985290769114901,1.5277862548828125,3.7822723388671875,-0.1239776611328125,4.081064241889446
1780415692.430696,-0.0356445275247097,-0.1630859375,0.9848632216453552,0.9989109673551401,1.3427734375,3.60107421875,-0.7343292236328125,3.912801482580308
1780415692.441134,-0.0361328087747097,-0.14892578125,0.9741210341453552,0.9861015451540925,0.4291534423828125,3.3550262451171875,-0.5512237548828125,3.4269843026312885
1780415692.451572,-0.0371093712747097,-0.158203125,0.9697265028953552,0.9832470821791567,0.54931640625,3.5400390625,-0.7953643798828125,3.669636163843449
1780415692.46201,-0.0507812462747097,-0.16748046875,0.9775390028953552,0.9930815397375876,0.3662109375,2.9296875,-0.5512237548828125,3.003502443206595
1780415692.470141,-0.0356445275247097,-0.15966796875,0.9663085341453552,0.9800594756183708,0.4291534423828125,2.4433135986328125,-0.6122589111328125,2.5551545927075683
1780415692.478272,-0.02685546875,-0.15869140625,0.9868163466453552,0.9998553298482089,-0.1220703125,1.28173828125,-0.6122589111328125,1.425698129716487
1780415692.486403,-0.0488281175494194,-0.158203125,0.9677733778953552,0.9818338580361605,-0.5474090576171875,0.5474090576171875,-0.1850128173828125,0.7959542042847695
1780415692.494534,-0.0341796800494194,-0.14990234375,0.9682616591453552,0.9803925763493622,-0.8525848388671875,-0.4901885986328125,0.1201629638671875,0.990769856011544
1780415692.502413,-0.0419921837747097,-0.1455078125,0.9765624403953552,0.9882358357131338,-0.9765625,-1.3427734375,0.2422332763671875,1.6779129241535147
1780415692.510292,-0.0458984337747097,-0.16015625,0.9877929091453552,1.0017442398111795,-1.0356903076171875,-1.7719268798828125,0.7305145263671875,2.17853867401451
1780415692.518171,-0.0302734337747097,-0.15283203125,0.9833983778953552,0.9956638389615887,-1.28173828125,-2.13623046875,1.2187957763671875,2.773408873882112
1780415692.52605,-0.0454101525247097,-0.140625,0.9794921278953552,0.9905767517897279,-1.28173828125,-2.0751953125,1.4019012451171875,2.813292680775464
1780415692.534049,-0.0292968712747097,-0.1552734375,0.9726561903953552,0.9854076373633192,-0.9765625,-1.708984375,1.6460418701171875,2.565883034859399
1780415692.542048,-0.0302734337747097,-0.14892578125,0.9853515028953552,0.9970019826317146,-1.0356903076171875,-1.2836456298828125,2.2563934326171875,2.794943977822704
1780415692.550047,-0.019531242549419403,-0.16845703125,0.9794921278953552,0.994064419151022,-0.9765625,-0.732421875,2.0122528076171875,2.3535669697605845
1780415692.558046,-0.013671875,-0.15380859375,0.9892577528953552,1.001236687971898,-0.6103515625,-0.244140625,2.3784637451171875,2.4676351961865146
1780415692.568665,-0.017578125,-0.1640625,0.9843749403953552,0.9981079689407979,-0.5474090576171875,0.3643035888671875,2.2563934326171875,2.3502521362570494
1780415692.579284,-0.0161132775247097,-0.1650390625,0.9750975966453552,0.989096988594655,-0.48828125,0.67138671875,2.2563934326171875,2.404264966257552
1780415692.589903,-0.01318359375,-0.1640625,0.9692382216453552,0.9831139513549108,-0.6694793701171875,0.7305145263671875,1.8291473388671875,2.0802966345045353
1780415692.600607,-0.0307617150247097,-0.17578125,0.9750975966453552,0.9912924159633079,-0.850677490234375,1.0986328125,1.4629364013671875,2.0176295902712895
1780415692.611311,-0.0273437462747097,-0.16650390625,0.9804686903953552,0.9948819448067331,-1.0356903076171875,1.1577606201171875,0.6694793701171875,1.6915279169433843
1780415692.622015,-0.0253906212747097,-0.17724609375,0.9799804091453552,0.9962040271485794,-0.79345703125,1.3427734375,0.4253387451171875,1.6166408423003218
1780415692.63,-0.0327148400247097,-0.17138671875,0.9658202528953552,0.9814542419413051,-0.8525848388671875,1.4667510986328125,-0.3681182861328125,1.7360215336775375
1780415692.637985,-0.0307617150247097,-0.1630859375,0.9760741591453552,0.9900828603065642,-1.0356903076171875,1.4019012451171875,-0.6122589111328125,1.8473880178822322
1780415692.64597,-0.0385742112994194,-0.1689453125,0.9824218153953552,0.9975886485710431,-1.155853271484375,1.0986328125,-0.4291534423828125,1.6514125829155506
1780415692.653955,-0.0405273400247097,-0.1591796875,0.9755858778953552,0.989317160141745,-1.3408660888671875,0.4253387451171875,-0.3681182861328125,1.454079086211342
1780415692.66464,-0.0390624925494194,-0.14990234375,0.9638671278953552,0.9762358481551257,-1.1577606201171875,0.1811981201171875,-0.1239776611328125,1.1783941924025676
1780415692.675325,-0.0410156212747097,-0.15771484375,0.9809569716453552,0.9944007408219604,-1.2187957763671875,-0.3070831298828125,0.0591278076171875,1.2582763173415983
1780415692.68601,-0.0561523400247097,-0.1572265625,0.9760741591453552,0.9902494844215417,-1.0986328125,-0.732421875,0.3643035888671875,1.369727332187574
1780415692.696651,-0.0488281212747097,-0.15771484375,0.9633788466453552,0.9774236336052242,-1.220703125,-0.8544921875,0.6694793701171875,1.6335469521552808
1780415692.707291,-0.0263671837747097,-0.15966796875,0.9833983778953552,0.9966250339381287,-0.91552734375,-1.15966796875,1.2187957763671875,1.9153284990802955
1780415692.717931,-0.0317382775247097,-0.16259765625,0.9824218153953552,0.9962920954433665,-0.79345703125,-0.732421875,1.8291473388671875,2.1240988326119603
1780415692.728613,-0.0366210900247097,-0.173828125,0.9877929091453552,1.0036394535058182,-0.6084442138671875,-0.4901885986328125,2.1343231201171875,2.2728450023450404
1780415692.739296,-0.04248046875,-0.16943359375,0.9794921278953552,0.9949458083359267,-0.48828125,-0.1220703125,2.5005340576171875,2.550684283402963
1780415692.749979,-0.0375976525247097,-0.16650390625,0.9785155653953552,0.9932924272302036,-0.48828125,-0.6103515625,2.3784637451171875,2.5036048801247834
1780415692.758022,-0.0278320275247097,-0.166015625,0.9848632216453552,0.9991453221878912,-0.48828125,-0.8544921875,2.6836395263671875,2.8584080508353598
1780415692.766065,-0.0371093712747097,-0.1767578125,0.9804686903953552,0.9969650357769686,-0.4253387451171875,-0.6122589111328125,2.6836395263671875,2.7852639246289934
1780415692.774108,-0.0351562462747097,-0.17578125,0.9677733778953552,0.9842359069179891,-0.6103515625,-0.67138671875,2.7446746826171875,2.890766035043279
1780415692.782151,-0.0258789025247097,-0.171875,0.9853515028953552,1.0005639996916833,-0.5474090576171875,-0.9174346923828125,2.3784637451171875,2.6073804628373205
1780415692.792731,-0.0439453087747097,-0.17236328125,0.9775390028953552,0.9935908579834138,-0.42724609375,-0.732421875,2.1343231201171875,2.2965879492564434
1780415692.803311,-0.0361328087747097,-0.16064453125,0.9765624403953552,0.9903466288534604,-0.7305145263671875,-0.9174346923828125,2.0732879638671875,2.381986748312755
1780415692.813891,-0.0292968712747097,-0.15185546875,0.9853515028953552,0.9974146451270426,-0.6694793701171875,-0.9174346923828125,2.1953582763671875,2.471737648581249
1780415692.821992,-0.0366210900247097,-0.16015625,0.9858397841453552,0.9994354449650167,-0.1811981201171875,-0.6122589111328125,2.1343231201171875,2.227785652629603
1780415692.830093,-0.0332031212747097,-0.1552734375,0.9736327528953552,0.9864953244521929,0.18310546875,-0.67138671875,2.0122528076171875,2.129189775610268
1780415692.838194,-0.0424804650247097,-0.14990234375,0.9731444716453552,0.9855381602273837,0.1239776611328125,-0.4901885986328125,2.1953582763671875,2.2528322805534087
1780415692.846295,-0.0468749962747097,-0.15966796875,0.9794921278953552,0.9935270273774518,0.1239776611328125,-0.6122589111328125,1.8901824951171875,1.9907338595525361
1780415692.856877,-0.0380859375,-0.1650390625,0.9863280653953552,1.000765448730459,0.2460479736328125,-0.3070831298828125,2.0732879638671875,2.110299181420489
1780415692.867459,-0.0576171875,-0.16455078125,0.9809569716453552,0.9963299052648283,0.244140625,-0.54931640625,2.3174285888671875,2.3941237276819614
1780415692.878041,-0.0434570237994194,-0.1591796875,0.9702147841453552,0.9841460324587602,0.6122589111328125,-0.9174346923828125,2.1953582763671875,2.4568568030438795
1780415692.888691,-0.02294921875,-0.15869140625,0.9746093153953552,0.9877109631436926,0.6122589111328125,-0.4901885986328125,2.3784637451171875,2.504443176302472
1780415692.899343,-0.0341796837747097,-0.15185546875,0.9877929091453552,0.9999815825954322,0.797271728515625,-0.3662109375,2.3174285888671875,2.477948329633587
1780415692.909995,-0.0346679650247097,-0.15234375,0.9731444716453552,0.9856067413816397,0.3681182861328125,-0.4901885986328125,2.1953582763671875,2.279340671428663
1780415692.917982,-0.0278320275247097,-0.158203125,0.9770507216453552,0.9901671390142228,0.3070831298828125,-0.2460479736328125,1.8291473388671875,1.8709942921538674
1780415692.925971,-0.0341796837747097,-0.15283203125,0.9780272841453552,0.9904863699676435,0.4291534423828125,0.3070831298828125,1.0967254638671875,1.2170782509199398
1780415692.93396,-0.0371093712747097,-0.162109375,0.9780272841453552,0.9920654834394926,0.18310546875,0.42724609375,0.7305145263671875,0.8658627550277627
1780415692.941949,-0.0366210900247097,-0.16162109375,0.9697265028953552,0.9837845153270098,-0.1811981201171875,0.6694793701171875,0.1811981201171875,0.7168459698432513
1780415692.952602,-0.0244140587747097,-0.16650390625,0.9721679091453552,0.986625582799481,-0.48828125,0.67138671875,-0.2460479736328125,0.8658627550277627
1780415692.963255,-0.0258789025247097,-0.15869140625,0.9843749403953552,0.9974200235065692,-0.91552734375,0.9765625,-0.4291534423828125,1.4057159423828125
1780415692.973908,-0.0371093712747097,-0.17529296875,0.9790038466453552,0.9952654229279719,-1.0986328125,0.6103515625,-0.6122589111328125,1.397992868654697
1780415692.984574,-0.0327148400247097,-0.1611328125,0.9750975966453552,0.9888626633691608,-1.46484375,0.79345703125,-0.8563995361328125,1.8731688225684897
1780415692.995241,-0.0483398400247097,-0.16162109375,0.9785155653953552,0.9929505676515586,-1.46484375,0.79345703125,-0.8563995361328125,1.8731688225684897
