timestamp,accel_x,accel_y,accel_z,accel_rms,gyro_x,gyro_y,gyro_z,gyro_rms
1782416690.829177,-0.0214843712747097,-0.0288085974752903,0.9975585341453552,0.998205661446474,0.0362396240234375,-0.0019073486328125,-0.0133514404296875,0.03866793619673403
1782416690.839825,-0.01416015625,-0.03955078125,0.9990233778953552,0.9999062375562798,-0.08392333984375,-0.1220703125,0.1087188720703125,0.1837500511799063
1782416690.850473,-0.010253902524709702,-0.0292968712747097,0.9858397841453552,0.9863283069988581,-0.08392333984375,0.244140625,-0.1392364501953125,0.2933164857434916
1782416690.858492,-0.0185546875,-0.04248046875,0.9941405653953552,0.9952207445677762,0.1010894775390625,-0.0019073486328125,-0.4405975341796875,0.4520496737894505
1782416690.866512,0.0039062537252902985,-0.0380859412252903,0.9926757216453552,0.9934137537206285,0.28228759765625,0.1220703125,0.1659393310546875,0.3494614579252792
1782416690.874532,-0.0019531212747097015,-0.0429687537252903,1.0068359375,1.007754302159471,0.22125244140625,-0.06103515625,-0.1392364501953125,0.2684487328889443
1782416690.882552,-0.0073242150247097015,-0.0449218712747097,0.9853515028953552,0.9864021506985298,0.1010894775390625,-0.0019073486328125,0.0476837158203125,0.11178755387949069
1782416690.890569,-0.0185546837747097,-0.0488281212747097,0.9956054091453552,0.9969747200589829,0.03814697265625,0.1220703125,-0.1964569091796875,0.2344177251854482
1782416690.898586,-0.008300777524709702,-0.0380859412252903,0.9868163466453552,0.9875859171905079,-0.14495849609375,-0.06103515625,-0.0133514404296875,0.1578496653457686
1782416690.906603,-0.0063476525247097015,-0.0366210974752903,0.9916991591453552,0.9923953948515046,-0.0820159912109375,-0.0019073486328125,-0.1392364501953125,0.1616077035791036
1782416690.922603,-0.00927734375,-0.02294921875,0.9951171278953552,0.9954249514549008,0.28228759765625,0.1220703125,0.0476837158203125,0.31122529739533844
1782416690.930585,-0.020507805049419403,-0.03173828125,1.00390625,1.004617164572511,0.09918212890625,0.1220703125,0.0476837158203125,0.164353255649701
1782416690.938567,-0.014648430049419403,-0.017578125,0.9785155653953552,0.9787830600814564,-0.32806396484375,-0.3662109375,0.0476837158203125,0.49397383789838756
1782416690.946549,-0.0161132775247097,-0.0415039099752903,0.9902343153953552,0.9912346904958145,0.0362396240234375,-0.0019073486328125,0.1087188720703125,0.11461562490519421
1782416690.957226,-0.0234375,-0.03076171875,0.9882811903953552,0.9890375680609733,0.22125244140625,0.30517578125,-0.2574920654296875,0.4564943198431065
1782416690.967901,-0.013671875,-0.0341796875,0.9907225966453552,0.9914062914402594,-0.0247955322265625,0.0591278076171875,-0.2574920654296875,0.2653546302804232
1782416690.978577,-0.00927734375,-0.03662109375,0.9790038466453552,0.9797324662176425,-0.1468658447265625,-0.0019073486328125,0.2307891845703125,0.27356326880757154
1782416690.989213,-0.00830078125,-0.03515625,1.001953125,1.0026040741891529,-0.2079010009765625,-0.0629425048828125,-0.0133514404296875,0.21763006706226742
1782416690.99985,-0.01904296875,-0.0263671875,0.9873046278953552,0.987840215570848,-0.08392333984375,-0.18310546875,-0.2574920654296875,0.326914214154009
1782416691.010486,-0.015624992549419403,-0.04150390625,0.9941405653953552,0.9951292269804836,-0.2079010009765625,-0.0019073486328125,-0.2574920654296875,0.3309510960022798
1782416691.021172,-0.0234374962747097,-0.0385742150247097,0.9858397841453552,0.9868725177550342,-0.0247955322265625,-0.1239776611328125,0.2307891845703125,0.2631519078270016
1782416691.031857,-0.02880859375,-0.03271484375,0.9868163466453552,0.9877786685700017,0.16021728515625,0.1220703125,-0.3223419189453125,0.38009874028472285
1782416691.042543,-0.015136715024709702,-0.0424804724752903,0.9750975966453552,0.9761398637833674,0.16021728515625,-0.06103515625,-0.0743865966796875,0.18689096962370208
1782416691.050559,-0.014648433774709702,-0.0434570275247097,0.9995116591453552,1.0005631647331596,0.22125244140625,-0.06103515625,-0.1964569091796875,0.30211463104444974
1782416691.058574,-0.01416015625,-0.0400390625,0.9897460341453552,0.9906567764152032,0.1583099365234375,0.1811981201171875,-0.0743865966796875,0.2518494798518433
1782416691.066591,-0.0224609375,-0.03564453125,0.9877929091453552,0.9886909818943709,-0.08392333984375,0.06103515625,0.1087188720703125,0.1502937470862725
1782416691.074606,-0.010253902524709702,-0.0336914025247097,0.9868163466453552,0.9874445580018931,-0.08392333984375,-0.244140625,-0.0133514404296875,0.25850731654533043
1782416691.082593,-0.013183590024709702,-0.0380859412252903,0.9921874403953552,0.9930056711032633,0.16021728515625,0.1220703125,-0.0133514404296875,0.20186381701095985
1782416691.09058,-0.01416015625,-0.02734375,0.9858397841453552,0.986320571970821,-0.08392333984375,0.1220703125,-0.0133514404296875,0.1487365090551903
1782416691.098567,-0.01220703125,-0.03076171875,0.9995116591453552,1.0000594240943352,0.1010894775390625,-0.0019073486328125,-0.0743865966796875,0.12552324969309156
1782416691.106554,-0.015624996274709702,-0.0439453087747097,0.9877929091453552,0.9888934027637829,0.2193450927734375,-0.0019073486328125,-0.0743865966796875,0.23162312809428487
1782416691.117251,-0.0209960900247097,-0.0336914025247097,0.9907225966453552,0.991517629648673,-0.0247955322265625,-0.1239776611328125,-0.2574920654296875,0.28685787881389535
1782416691.127948,-0.013671875,-0.0341796875,0.9853515028953552,0.9860389218797342,0.03814697265625,-0.06103515625,-0.0133514404296875,0.07320343422849841
1782416691.138645,-0.0058593712747097015,-0.0405273400247097,0.9770507216453552,0.9779084365056488,-0.02288818359375,-0.06103515625,-0.0133514404296875,0.06653886239056551
1782416691.149271,-0.0019531212747097015,-0.0336914025247097,0.9790038466453552,0.9795853495398948,-0.2079010009765625,-0.0629425048828125,-0.0133514404296875,0.21763006706226742
1782416691.159899,-0.0053710900247097015,-0.0395507775247097,0.9853515028953552,0.9861595696787604,-0.08392333984375,-0.06103515625,-0.0743865966796875,0.12767843605941437
1782416691.170527,-0.0166015587747097,-0.0454101525247097,0.9970702528953552,0.9982418459045258,0.09918212890625,0.1220703125,0.1087188720703125,0.19120159265148556
1782416691.17857,-0.013183590024709702,-0.0332031287252903,0.9887694716453552,0.9894146364699294,0.1583099365234375,0.3643035888671875,-0.0133514404296875,0.39743855100520264
1782416691.186613,-0.0161132775247097,-0.0336914025247097,0.9975585341453552,0.9982573703023184,-0.02288818359375,0.1220703125,0.0476837158203125,0.13303671258904884
1782416691.194657,-0.01416015625,-0.03564453125,0.9843749403953552,0.9851218533315641,-0.0247955322265625,0.1811981201171875,0.2307891845703125,0.294467697493343
1782416691.202701,-0.00390625,-0.02685546875,0.9868163466453552,0.9871894331876383,-0.08392333984375,-0.06103515625,0.1087188720703125,0.1502937470862725
1782416691.213354,-0.012695308774709702,-0.0483398400247097,0.9755858778953552,0.9768652497388525,0.09918212890625,-0.18310546875,-0.1392364501953125,0.25050248789887286
1782416691.224007,-0.010742183774709702,-0.0341796837747097,0.9790038466453552,0.9796592147484711,0.16021728515625,0.30517578125,-0.0743865966796875,0.3526119704292148
1782416691.23466,-0.0258789025247097,-0.0366210974752903,0.9794921278953552,0.9805180523504649,0.1583099365234375,-0.0019073486328125,-0.0133514404296875,0.15888340046212945
1782416691.245278,-0.0234375,-0.02587890625,0.9980468153953552,0.9986573385880447,-0.02288818359375,-0.06103515625,-0.2574920654296875,0.2656149901754974
1782416691.255897,-0.01904296875,-0.0361328125,0.9892577528953552,0.9901005587623619,0.0362396240234375,0.1811981201171875,0.1087188720703125,0.21439650703218976
1782416691.266516,-0.00439453125,-0.03759765625,0.9882811903953552,0.989005868005676,-0.26702880859375,0.1220703125,0.2307891845703125,0.37345574507225754
1782416691.277188,-0.011230465024709702,-0.0327148474752903,0.9902343153953552,0.9908382229085183,-0.02288818359375,0.30517578125,0.1087188720703125,0.32477056448208175
1782416691.28786,-0.01318359375,-0.04150390625,1.00341796875,1.0043624850563415,-0.0247955322265625,-0.1239776611328125,0.0476837158203125,0.1351259250950509
1782416691.298532,-0.009765617549419403,-0.0205078125,0.9858397841453552,0.9861014236189993,0.16021728515625,0.1220703125,0.1659393310546875,0.2609724147253191
1782416691.306518,-0.0200195275247097,-0.0297851525247097,0.9853515028953552,0.9860048281075342,0.0362396240234375,-0.0019073486328125,0.0476837158203125,0.05992232541048053
1782416691.314504,-0.014648433774709702,-0.0244140587747097,0.9946288466453552,0.9950362633879112,0.09918212890625,0.244140625,-0.1392364501953125,0.29804115241482737
1782416691.32249,-0.010253902524709702,-0.015136715024709702,0.9838866591453552,0.9840565129620016,-0.08392333984375,0.1220703125,0.0476837158203125,0.15562141536051372
1782416691.330476,-0.0161132775247097,-0.0478515662252903,0.9863280653953552,0.9876195941197936,0.2193450927734375,-0.0019073486328125,-0.1392364501953125,0.259812811011287
1782416691.341168,-0.0205078087747097,-0.0200195275247097,0.9892577528953552,0.9896728011654258,0.1583099365234375,-0.0019073486328125,0.2918243408203125,0.33200469857529397
1782416691.351861,-0.0253906212747097,-0.0385742150247097,0.9980468153953552,0.9991146578017452,0.0362396240234375,-0.0019073486328125,0.0476837158203125,0.05992232541048053
1782416691.362552,-0.0263671837747097,-0.0429687537252903,1.0009765625,1.0022452897625562,-0.14495849609375,-0.18310546875,-0.0133514404296875,0.23392058318469208
1782416691.373218,-0.01904296875,-0.0263671875,0.9868163466453552,0.9873521991882934,-0.02288818359375,0.1220703125,0.0476837158203125,0.13303671258904884
1782416691.383884,-0.0068359375,-0.0361328125,0.9921874403953552,0.9928686857077076,0.16021728515625,-0.244140625,-0.1392364501953125,0.3235135426859616
1782416691.39455,-0.00927734375,-0.03369140625,0.9848632216453552,0.9854830010263121,0.1010894775390625,0.1811981201171875,-0.0133514404296875,0.20791849885152314
1782416691.402544,-0.01416015625,-0.0244140625,0.9960936903953552,0.996493450313757,0.1583099365234375,0.0591278076171875,-0.0743865966796875,0.18463883503005657
1782416691.410537,-0.011718746274709702,-0.0380859412252903,0.9882811903953552,0.9890842124018195,0.1010894775390625,-0.0019073486328125,0.1659393310546875,0.19431567625594412
1782416691.418528,-0.0249023400247097,-0.0332031287252903,0.9912108778953552,0.9920794215958394,0.03814697265625,-0.42724609375,-0.1964569091796875,0.4717941641350669
1782416691.42652,-0.0161132775247097,-0.0336914025247097,0.9853515028953552,0.9860589904132538,-0.14495849609375,0.244140625,0.1659393310546875,0.3288669517540939
1782416691.437198,-0.0161132775247097,-0.0366210974752903,0.9960936903953552,0.9968968765816858,0.16021728515625,0.244140625,-0.1964569091796875,0.35195104830454155
1782416691.447876,-0.01904296875,-0.02880859375,0.9946288466453552,0.9952281709797687,0.22125244140625,0.244140625,-0.1392364501953125,0.35769271262720526
1782416691.458554,-0.00341796875,-0.0419921875,0.9941405653953552,0.9950329090467348,0.09918212890625,0.06103515625,-0.0133514404296875,0.11722050142524301
1782416691.469203,-0.0087890625,-0.0390625,0.9794921278953552,0.9803101321188361,-0.08392333984375,-0.30517578125,-0.3223419189453125,0.4517518092287222
1782416691.479852,-0.0126953125,-0.0361328125,0.9887694716453552,0.9895108989578981,-0.08392333984375,-0.06103515625,0.2307891845703125,0.2530455788659846
1782416691.490501,-0.019531242549419403,-0.04150390625,0.9843749403953552,0.9854430815363676,0.22125244140625,0.244140625,0.1659393310546875,0.3689080497827255
1782416691.498512,-0.012207027524709702,-0.0424804724752903,0.9838866591453552,0.9848789570840273,0.03814697265625,0.30517578125,-0.1964569091796875,0.36494214082347426
1782416691.506522,-0.011718746274709702,-0.0341796837747097,0.9936522841453552,0.9943090272065681,0.22125244140625,-0.06103515625,-0.0743865966796875,0.24127017820749108
1782416691.514532,-0.01318359375,-0.03466796875,0.9902343153953552,0.9909286929885136,0.03814697265625,-0.18310546875,-0.0743865966796875,0.2012862885906052
1782416691.522542,-0.010253898799419403,-0.04052734375,0.9858397841453552,0.9867257410424539,-0.02288818359375,-0.06103515625,0.1087188720703125,0.1267633716454564
1782416691.53321,-0.00927734375,-0.02490234375,0.9980468153953552,0.9984005416425359,-0.14495849609375,-0.06103515625,0.1087188720703125,0.19120159265148556
1782416691.543878,-0.00927734375,-0.03369140625,0.9877929091453552,0.9884108514782718,0.09918212890625,-0.18310546875,-0.0743865966796875,0.22112908706481768
1782416691.554546,-0.0161132775247097,-0.0322265662252903,0.9838866591453552,0.9845461631266813,0.28228759765625,0.1220703125,-0.0743865966796875,0.31641873324752917
1782416691.565192,-0.0161132775247097,-0.0278320349752903,0.9970702528953552,0.9975887675251068,-0.0247955322265625,0.1811981201171875,0.1087188720703125,0.2127612988695129
1782416691.575839,-0.0073242150247097015,-0.0278320349752903,0.9750975966453552,0.975522213627215,0.09918212890625,-0.06103515625,0.1659393310546875,0.20272702479865648
1782416691.586486,-0.0214843712747097,-0.0493164025247097,0.9970702528953552,0.9985202927211125,-0.38909912109375,-0.18310546875,0.1659393310546875,0.46093557067443075
1782416691.594518,-0.0185546875,-0.03076171875,0.9916991591453552,0.9923496269048935,0.1583099365234375,0.0591278076171875,-0.1964569091796875,0.25913982866419033
1782416691.60255,-0.010742183774709702,-0.0424804724752903,0.9941405653953552,0.9951057475557912,-0.08392333984375,-0.18310546875,-0.1392364501953125,0.24486226479324763
1782416691.610582,-0.01318359375,-0.0458984375,0.9956054091453552,0.9967500210326542,-0.0820159912109375,-0.0019073486328125,-0.0743865966796875,0.1107412595138152
1782416691.618614,-0.0180664025247097,-0.0385742150247097,0.9853515028953552,0.9862717420787704,0.1583099365234375,-0.0019073486328125,0.1087188720703125,0.19205589583530852
1782416691.629244,-0.0073242150247097015,-0.0341796837747097,0.9936522841453552,0.99426694438463,0.22125244140625,0.244140625,0.0476837158203125,0.33291293810551886
1782416691.639874,-0.017578125,-0.0322265625,0.9897460341453552,0.9904265514996762,-0.08392333984375,0.18310546875,0.0476837158203125,0.20698907316841414
1782416691.650504,-0.004882805049419403,-0.02587890625,0.9926757216453552,0.9930249986369798,0.2803802490234375,-0.0629425048828125,-0.0743865966796875,0.296830269226294
1782416691.661179,-0.010742183774709702,-0.0273437537252903,0.9985350966453552,0.9989671739414603,0.22125244140625,-0.18310546875,-0.1392364501953125,0.3191661707909769
1782416691.671856,-0.0185546837747097,-0.0239257849752903,0.9965819716453552,0.9970417973611773,-0.2079010009765625,0.0591278076171875,-0.0133514404296875,0.21655757849177035
1782416691.682533,-0.0253906212747097,-0.0395507775247097,0.9951171278953552,0.9962264029236655,0.03814697265625,-0.1220703125,-0.0743865966796875,0.14795174376218362
1782416691.690544,-0.015136711299419403,-0.041015625,1.0009765625,1.0019308759577275,-0.2079010009765625,0.1811981201171875,0.1087188720703125,0.29643781487067455
1782416691.698556,-0.01708984375,-0.04150390625,1.00244140625,1.0034457683192877,-0.1468658447265625,-0.3070831298828125,-0.0743865966796875,0.34842931962086304
1782416691.706568,-0.0258789025247097,-0.0317382849752903,0.9887694716453552,0.989617150410648,-0.2079010009765625,-0.0019073486328125,-0.1964569091796875,0.28604506873970004
1782416691.714581,-0.0209960900247097,-0.0356445275247097,0.9926757216453552,0.993537345288496,0.09918212890625,-0.244140625,0.0476837158203125,0.2677974537298645
1782416691.725377,-0.011718746274709702,-0.0454101525247097,0.9980468153953552,0.9991480654474484,0.0362396240234375,-0.0019073486328125,-0.0743865966796875,0.0827666242742429
1782416691.736174,-0.015136711299419403,-0.037109375,0.9873046278953552,0.9881177328666045,0.09918212890625,-0.06103515625,-0.2574920654296875,0.282603164794884
1782416691.746971,-0.01806640625,-0.0400390625,0.9863280653953552,0.9873057146331187,0.03814697265625,0.06103515625,-0.1392364501953125,0.15673950007668883
1782416691.757498,-0.0170898400247097,-0.0327148474752903,0.9873046278953552,0.98799430774726,-0.0247955322265625,0.0591278076171875,-0.0133514404296875,0.06549180875163801
1782416691.768027,-0.00927734375,-0.02197265625,0.9868163466453552,0.9871045378966821,-0.08392333984375,-0.1220703125,-0.1392364501953125,0.20330046047013506
1782416691.778556,-0.020507805049419403,-0.03173828125,0.9863280653953552,0.9870516405696276,-0.26702880859375,-0.06103515625,0.1087188720703125,0.29470233806622653
1782416691.786565,-0.0024414025247097015,-0.0327148474752903,0.9990233778953552,0.9995618696574339,0.22125244140625,0.244140625,0.0476837158203125,0.33291293810551886
1782416691.794575,-0.00732421875,-0.02685546875,0.9882811903953552,0.9886731369220773,0.1010894775390625,0.1811981201171875,-0.0743865966796875,0.22042052302067933
1782416691.802585,-0.0234375,-0.04248046875,0.9975585341453552,0.9987376711017261,0.16021728515625,-0.06103515625,-0.0743865966796875,0.18689096962370208
1782416691.810595,-0.005859367549419403,-0.0458984375,0.9965819716453552,0.9976555642913861,-0.32806396484375,-0.244140625,-0.0743865966796875,0.41564886090302033
1782416691.821247,-0.01318359375,-0.04931640625,0.9926757216453552,0.9939874261849125,-0.08392333984375,0.1220703125,-0.2574920654296875,0.29706304368538283
1782416691.831899,-0.0126953125,-0.03515625,0.9819335341453552,0.9826446958859152,-0.26702880859375,-0.1220703125,-0.2574920654296875,0.390522354766141
1782416691.842551,-0.00341796875,-0.041015625,0.9858397841453552,0.986698557822133,0.16021728515625,-0.18310546875,0.1087188720703125,0.2664901204420857
1782416691.853238,-0.00927734375,-0.01953125,1.00244140625,1.002674579212067,0.16021728515625,-0.06103515625,0.0476837158203125,0.17795675181271814
1782416691.863925,-0.0180664025247097,-0.0390624962747097,0.9916991591453552,0.9926326086548846,0.03814697265625,0.1220703125,0.1087188720703125,0.16785751654580536
1782416691.87461,-0.0087890625,-0.04443359375,0.9858397841453552,0.9868797656639483,-0.02288818359375,-0.06103515625,-0.0133514404296875,0.06653886239056551
1782416691.885247,-0.0048828087747097015,-0.0395507775247097,0.9853515028953552,0.9861570311479174,-0.14495849609375,0.244140625,0.1659393310546875,0.3288669517540939
1782416691.895885,-0.013671875,-0.0322265625,0.9931640028953552,0.9937807646275446,-0.32806396484375,0.1220703125,0.0476837158203125,0.35327165606269806
1782416691.906524,-0.00927734375,-0.03662109375,0.9877929091453552,0.9885150504531258,-0.0247955322265625,-0.0019073486328125,0.0476837158203125,0.053779114455687275
1782416691.914534,-0.014648430049419403,-0.03662109375,0.9897460341453552,0.9905316214623426,-0.08392333984375,0.06103515625,-0.0133514404296875,0.10462637444993955
1782416691.922542,-0.015136715024709702,-0.0444335900247097,0.9877929091453552,0.9889076273454802,0.03814697265625,0.06103515625,-0.0133514404296875,0.07320343422849841
1782416691.93055,-0.010742180049419403,-0.03662109375,0.9970702528953552,0.9978003748989414,-0.2079010009765625,0.1811981201171875,0.1659393310546875,0.32185625134823237
1782416691.938559,-0.015624996274709702,-0.0273437537252903,0.9799804091453552,0.9804863199887451,-0.02288818359375,-0.18310546875,-0.0133514404296875,0.1850128173828125
1782416691.949218,-0.0073242150247097015,-0.0434570275247097,0.9926757216453552,0.9936534837211302,-0.14495849609375,0.06103515625,0.1659393310546875,0.22863533733677482
1782416691.959878,-0.0009765587747097015,-0.0395507775247097,0.9877929091453552,0.9885848719395283,0.3414154052734375,-0.3070831298828125,-0.1964569091796875,0.4994595526977994
1782416691.970538,-0.012207027524709702,-0.0371093787252903,0.9921874403953552,0.9929562097034554,-0.02288818359375,0.1220703125,0.1659393310546875,0.20727009367717775
1782416691.978533,-0.015136711299419403,-0.02734375,0.9877929091453552,0.9882872214345728,-0.1468658447265625,-0.0019073486328125,0.2307891845703125,0.27356326880757154
1782416691.98653,-0.01904296875,-0.041015625,0.9931640028953552,0.9941929655756367,-0.08392333984375,-0.1220703125,0.0476837158203125,0.15562141536051372
1782416691.994527,-0.01904296875,-0.04345703125,0.9892577528953552,0.9903948959316403,0.09918212890625,0.06103515625,-0.0133514404296875,0.11722050142524301
1782416692.002524,-0.012207027524709702,-0.0224609412252903,0.9926757216453552,0.993004830675985,-0.0247955322265625,0.0591278076171875,0.2918243408203125,0.29878480876246627
1782416692.013189,-0.030273430049419403,-0.0361328125,0.9956054091453552,0.9967207188704403,-0.02288818359375,-0.18310546875,-0.1392364501953125,0.23116719208696154
1782416692.023854,-0.014648430049419403,-0.0302734375,0.9916991591453552,0.9922692576970142,0.03814697265625,0.06103515625,0.0476837158203125,0.08633781660275479
1782416692.034519,-0.011230465024709702,-0.0385742150247097,0.9853515028953552,0.986170207250036,-0.08392333984375,0.06103515625,0.0476837158203125,0.1142022505182091
1782416692.045171,-0.021484375,-0.041015625,0.9912108778953552,0.9922917233965837,0.209808349609375,0.057220458984375,-0.1239776611328125,0.25032815453351376
1782416692.055824,-0.0170898400247097,-0.0400390587747097,0.9873046278953552,0.9882639410214361,0.0858306884765625,-0.0667572021484375,0.1201629638671875,0.16205730162012164
1782416692.066477,-0.0253906212747097,-0.0444335900247097,0.9863280653953552,0.9876548385735493,-0.034332275390625,0.240325927734375,-0.1850128173828125,0.30522942071630593
1782416692.0745,-0.008300777524709702,-0.0336914025247097,0.9936522841453552,0.9942579520923523,-0.0362396240234375,-0.0667572021484375,-0.1239776611328125,0.1453970248939432
1782416692.082525,-0.0078124962747097015,-0.0380859412252903,0.9868163466453552,0.9875819338280467,0.026702880859375,-0.186920166015625,0.0553131103515625,0.1967529732590156
1782416692.09055,-0.01220703125,-0.041015625,0.9863280653953552,0.9872559676662498,0.026702880859375,-0.003814697265625,0.1811981201171875,0.1831948538999419
1782416692.098575,-0.01416015625,-0.0439453125,0.9897460341453552,0.9908223416042887,0.026702880859375,-0.186920166015625,0.4253387451171875,0.4653657060929206
1782416692.109236,-0.0063476525247097015,-0.0419921912252903,0.9873046278953552,0.988217620304385,0.1468658447265625,-0.0667572021484375,-0.0629425048828125,0.17317003004809173
1782416692.119895,-0.008789058774709702,-0.0336914025247097,0.9956054091453552,0.9962140778355411,0.0858306884765625,-0.0667572021484375,-0.0629425048828125,0.12563912624644819
1782416692.130555,-0.01318359375,-0.02783203125,0.9975585341453552,0.9980337960980559,0.026702880859375,-0.003814697265625,-0.0019073486328125,0.027041333920970582
1782416692.141218,-0.024414055049419403,-0.0419921875,1.00390625,1.0050806677496358,0.148773193359375,0.240325927734375,-0.3681182861328125,0.4641132266905278
1782416692.151879,-0.0175781212747097,-0.0473632849752903,0.9926757216453552,0.9939604415947979,-0.034332275390625,-0.186920166015625,-0.0629425048828125,0.20019893235911473
1782416692.16254,-0.015624996274709702,-0.0297851525247097,0.9863280653953552,0.9869013873766969,0.148773193359375,0.118255615234375,-0.1239776611328125,0.22691036568823605
1782416692.170548,-0.0205078087747097,-0.0322265662252903,0.9907225966453552,0.9914587158803579,0.148773193359375,-0.125885009765625,-0.0629425048828125,0.20479808999832091
1782416692.178557,-0.0200195275247097,-0.0390624962747097,0.9873046278953552,0.9882798633793517,0.026702880859375,0.240325927734375,-0.0019073486328125,0.24181239291315304
1782416692.186566,-0.010742183774709702,-0.0292968712747097,0.9921874403953552,0.9926780032100153,-0.2193450927734375,-0.0667572021484375,-0.1239776611328125,0.26065159547264954
1782416692.20256,-0.00830078125,-0.0361328125,0.9829100966453552,0.9836090387933114,-0.156402587890625,-0.370025634765625,-0.0019073486328125,0.4017267452652306
1782416692.210544,-0.014648430049419403,-0.03466796875,0.9941405653953552,0.9948527068489889,-0.278472900390625,-0.003814697265625,-0.1239776611328125,0.30484777943616026
1782416692.218528,-0.010253902524709702,-0.0434570275247097,0.9916991591453552,0.992703821896478,-0.034332275390625,0.057220458984375,-0.2498626708984375,0.2586198762051771
1782416692.226512,-0.0219726525247097,-0.0297851525247097,0.9907225966453552,0.9914137462601611,0.2117156982421875,-0.0667572021484375,0.1201629638671875,0.25242662063699095
1782416692.237195,-0.013183590024709702,-0.0380859412252903,0.9941405653953552,0.9949571898979134,0.331878662109375,0.179290771484375,0.1811981201171875,0.41847507194213346
1782416692.247878,-0.0161132775247097,-0.0434570275247097,0.9990233778953552,1.0000979254729596,0.0286102294921875,-0.0667572021484375,-0.3070831298828125,0.31555525336921153
1782416692.258561,-0.0161132775247097,-0.0307617150247097,0.9912108778953552,0.9918189982461167,0.0858306884765625,0.1163482666015625,0.0553131103515625,0.15480105426744714
1782416692.269303,-0.02294921875,-0.03125,0.9980468153953552,0.998799616971315,0.3910064697265625,-0.0057220458984375,0.1811981201171875,0.43098904848185615
1782416692.280044,-0.020019523799419403,-0.037109375,0.9863280653953552,0.9872289195686025,-0.0972747802734375,0.2994537353515625,-0.1850128173828125,0.36519127192359774
1782416692.290785,-0.01318359375,-0.04638671875,0.9902343153953552,0.9914078546224376,-0.522613525390625,0.179290771484375,-0.3070831298828125,0.6321155956937814
1782416692.298726,-0.0219726525247097,-0.0371093787252903,0.9711913466453552,0.9721484121507206,-0.217437744140625,-0.125885009765625,-0.0629425048828125,0.25901344980826435
1782416692.306667,-0.005371086299419403,-0.0361328125,0.9907225966453552,0.9913958302367986,0.0858306884765625,0.4825592041015625,-0.0019073486328125,0.49013664474950375
1782416692.314608,-0.01416015625,-0.0322265625,0.9912108778953552,0.9918357050508273,-0.156402587890625,-0.064849853515625,0.0553131103515625,0.17812022113349968
1782416692.322549,-0.012207027524709702,-0.0253906212747097,0.9887694716453552,0.9891707452343805,-0.339508056640625,-0.186920166015625,0.0553131103515625,0.39148998603280616
1782416692.333225,-0.010253898799419403,-0.03564453125,0.9916991591453552,0.992392511710072,-0.2765655517578125,0.1163482666015625,-0.1239776611328125,0.32464732252130774
1782416692.343901,-0.0302734337747097,-0.0224609412252903,0.9931640028953552,0.9938791230931269,0.0858306884765625,0.2422332763671875,-0.1239776611328125,0.28533196057207727
1782416692.354577,-0.012207027524709702,-0.0341796837747097,0.9956054091453552,0.9962667278512408,0.1468658447265625,-0.0667572021484375,-0.0019073486328125,0.16133734336706182
1782416692.362564,-0.0200195275247097,-0.0380859412252903,0.9921874403953552,0.9931199511033979,0.148773193359375,-0.125885009765625,-0.2498626708984375,0.31687829375730103
1782416692.370551,-0.017578125,-0.02587890625,0.9853515028953552,0.9858480068070063,-0.0362396240234375,0.1163482666015625,-0.0019073486328125,0.12187644345547446
1782416692.378538,-0.0175781212747097,-0.0336914025247097,0.9873046278953552,0.9880356922779745,0.026702880859375,-0.370025634765625,-0.0629425048828125,0.3762894805210698
1782416692.386525,-0.00048827752470970154,-0.0190429724752903,0.9941405653953552,0.994323054635782,0.026702880859375,0.118255615234375,0.1811981201171875,0.2180142039286735
1782416692.397205,-0.0214843712747097,-0.0356445275247097,0.9902343153953552,0.9911085258124043,-0.0972747802734375,0.2422332763671875,-0.3070831298828125,0.4030377050791304
1782416692.407885,-0.0336914025247097,-0.0288085974752903,0.9912108778953552,0.9922016177928032,-0.0972747802734375,-0.0057220458984375,-0.0019073486328125,0.09746159584839796
1782416692.418565,-0.015624996274709702,-0.0292968712747097,0.9931640028953552,0.9937188655863372,-0.034332275390625,-0.003814697265625,0.0553131103515625,0.06521347426330093
1782416692.429253,-0.024414055049419403,-0.03173828125,0.9897460341453552,0.9905556908559553,0.148773193359375,0.118255615234375,0.1201629638671875,0.22484881917002264
1782416692.439941,-0.011230465024709702,-0.0522460974752903,0.9804686903953552,0.9819239435372027,0.2117156982421875,0.1163482666015625,0.2384185791015625,0.33941696316503284
1782416692.450629,-0.015624996274709702,-0.0278320349752903,0.9916991591453552,0.9922126712197618,-0.217437744140625,-0.003814697265625,0.1201629638671875,0.24846098763697144
1782416692.458618,-0.015136715024709702,-0.0180664099752903,0.9995116591453552,0.9997895138871158,0.148773193359375,-0.125885009765625,0.0553131103515625,0.20258341225974455
1782416692.466607,-0.0029296837747097015,-0.0332031287252903,0.9863280653953552,0.9868911203322848,-0.4024505615234375,-0.1888275146484375,0.2384185791015625,0.5044459372615108
1782416692.474596,-0.00732421875,-0.04638671875,0.9824218153953552,0.9835435909106393,0.2689361572265625,0.1163482666015625,0.1811981201171875,0.3445233439681284
1782416692.482585,-0.02734375,-0.03662109375,0.9956054091453552,0.9966538596177706,0.087738037109375,-0.125885009765625,-0.0629425048828125,0.1658516136804838
1782416692.49327,-0.0073242150247097015,-0.0346679650247097,0.9853515028953552,0.9859883854198375,-0.0362396240234375,-0.0667572021484375,-0.0019073486328125,0.07598336901490055
1782416692.503955,-0.011230465024709702,-0.0317382849752903,0.9980468153953552,0.9986144840721339,-0.339508056640625,-0.125885009765625,0.1201629638671875,0.3815126394930217
1782416692.51464,-0.008300777524709702,-0.0341796837747097,0.9902343153953552,0.9908587957307347,0.0286102294921875,-0.0667572021484375,0.1811981201171875,0.1952122639699814
1782416692.5253,-0.013671875,-0.0400390625,0.9946288466453552,0.9955282965696978,-0.217437744140625,-0.003814697265625,-0.3070831298828125,0.3762894805210698
1782416692.535961,-0.0180664025247097,-0.0234375037252903,0.9853515028953552,0.9857957677628734,0.0858306884765625,-0.0057220458984375,0.0553131103515625,0.10227017683757408
1782416692.546623,-0.0063476525247097015,-0.0346679650247097,0.9873046278953552,0.9879334940951818,0.2689361572265625,-0.0667572021484375,0.1811981201171875,0.33108297968406714
1782416692.554714,-0.009765617549419403,-0.03662109375,0.9897460341453552,0.9904714452724149,0.026702880859375,-0.125885009765625,-0.3070831298828125,0.33295664610952846
1782416692.562804,0.00146484375,-0.02685546875,0.9921874403953552,0.9925519023442959,-0.095367431640625,-0.125885009765625,-0.2498626708984375,0.2955898120874968
1782416692.570894,-0.013671875,-0.029296875,0.9809569716453552,0.9814895859205066,0.2117156982421875,-0.0667572021484375,-0.3070831298828125,0.3789196611149765
1782416692.578984,-0.011718746274709702,-0.0380859412252903,0.9912108778953552,0.9920115283560711,-0.2193450927734375,-0.1888275146484375,-0.2498626708984375,0.38236037231987663
1782416692.589514,-0.0161132775247097,-0.0341796837747097,0.9829100966453552,0.9836361860885909,0.026702880859375,-0.186920166015625,-0.2498626708984375,0.3131829283629612
1782416692.600044,-0.00927734375,-0.03271484375,0.9912108778953552,0.9917939980493546,-0.0972747802734375,-0.0057220458984375,0.1811981201171875,0.20573741375965646
1782416692.610574,-0.012207027524709702,-0.0283203162252903,0.9965819716453552,0.9970590143219372,-0.0972747802734375,0.1773834228515625,-0.0019073486328125,0.20231386398017528
1782416692.621242,-0.012207027524709702,-0.0380859412252903,0.9853515028953552,0.9861628337643538,0.209808349609375,0.057220458984375,-0.1850128173828125,0.28552314632638487
1782416692.631909,-0.019531242549419403,-0.03759765625,0.9941405653953552,0.9950429724165756,0.0858306884765625,-0.0057220458984375,-0.0019073486328125,0.08604235510742157
1782416692.642576,0.001953125,-0.03759765625,0.9921874403953552,0.9929014630521225,0.0858306884765625,-0.0667572021484375,-0.0629425048828125,0.12563912624644819
1782416692.653293,-0.014648433774709702,-0.0341796837747097,0.9956054091453552,0.9962996326981564,0.270843505859375,-0.003814697265625,-0.2498626708984375,0.36851337952634305
1782416692.664008,-0.014648433774709702,-0.0283203162252903,0.9926757216453552,0.9931876485676205,-0.0972747802734375,-0.0057220458984375,0.1201629638671875,0.15470702172770434
1782416692.674723,-0.011718746274709702,-0.0356445275247097,0.9863280653953552,0.9870414955528743,0.026702880859375,0.179290771484375,0.1201629638671875,0.21747956793915
1782416692.68267,-0.01904296875,-0.03271484375,1.00146484375,1.0021799882893354,0.026702880859375,0.240325927734375,0.0553131103515625,0.24805067136442535
1782416692.690616,-0.009765617549419403,-0.04736328125,0.9912108778953552,0.9923898690308003,0.026702880859375,-0.186920166015625,0.0553131103515625,0.1967529732590156
1782416692.698562,-0.01318359375,-0.03466796875,0.9931640028953552,0.9938563336058895,0.026702880859375,-0.003814697265625,0.1811981201171875,0.1831948538999419
1782416692.706508,0.00048828125,-0.02685546875,0.9873046278953552,0.9876699260805439,0.026702880859375,-0.308990478515625,0.0553131103515625,0.31503602942563413
1782416692.717209,0.0,-0.03125,0.9775390028953552,0.97803837587369,-0.156402587890625,-0.003814697265625,0.3643035888671875,0.39647626193206803
1782416692.727911,-0.01904296875,-0.041015625,0.9853515028953552,0.9863886153089406,-0.156402587890625,0.240325927734375,-0.4329681396484375,0.5193069718296699
1782416692.738611,-0.0205078087747097,-0.0400390587747097,0.9848632216453552,0.9858900860633364,-0.2765655517578125,0.1163482666015625,-0.1850128173828125,0.35249846262958007
1782416692.749269,-0.010253902524709702,-0.0327148474752903,0.9931640028953552,0.9937555737752835,-0.156402587890625,0.118255615234375,-0.0629425048828125,0.20593183084280123
1782416692.759927,-0.0029296837747097015,-0.0390624962747097,0.9965819716453552,0.9973515367566117,0.026702880859375,-0.003814697265625,-0.0019073486328125,0.027041333920970582
1782416692.770585,-0.01904296875,-0.04345703125,1.01025390625,1.0113674422865613,-0.156402587890625,0.057220458984375,-0.0629425048828125,0.1780385052346545
1782416692.778572,-0.020019523799419403,-0.0322265625,0.9995116591453552,1.0002314179384801,0.148773193359375,-0.125885009765625,0.0553131103515625,0.20258341225974455
1782416692.786557,-0.0161132775247097,-0.0253906212747097,0.9819335341453552,0.9823939061499168,-0.217437744140625,-0.125885009765625,-0.0629425048828125,0.25901344980826435
1782416692.794542,-0.012207027524709702,-0.0439453087747097,0.9863280653953552,0.9873820204312198,0.087738037109375,0.057220458984375,0.1811981201171875,0.2092962083177603
1782416692.802527,-0.0053710900247097015,-0.0424804724752903,0.9897460341453552,0.9906718181397087,-0.217437744140625,-0.003814697265625,-0.1239776611328125,0.25032815453351376
1782416692.813208,-0.0063476525247097015,-0.0307617150247097,0.9985350966453552,0.99902898608418,0.2689361572265625,-0.1888275146484375,0.1201629638671875,0.34988801756768295
1782416692.823889,-0.020507805049419403,-0.02587890625,0.9892577528953552,0.9898086630860577,-0.0362396240234375,0.1163482666015625,-0.0019073486328125,0.12187644345547446
1782416692.83457,-0.015624996274709702,-0.0253906212747097,0.9858397841453552,0.986290476564111,-0.034332275390625,0.179290771484375,0.0553131103515625,0.1907443997860074
1782416692.845218,-0.0205078087747097,-0.0336914025247097,0.9912108778953552,0.9919953050709982,0.026702880859375,-0.247955322265625,0.1811981201171875,0.3082655420575622
1782416692.855867,-0.0166015625,-0.0361328125,0.9877929091453552,0.9885929513072838,-0.0972747802734375,-0.0667572021484375,-0.2498626708984375,0.27631551028567647
1782416692.866517,-0.0258789025247097,-0.0258789025247097,0.9960936903953552,0.9967658076184218,-0.217437744140625,-0.125885009765625,0.1201629638671875,0.2785055585549459
1782416692.874535,-0.010742183774709702,-0.0385742150247097,0.9975585341453552,0.998361855052191,0.087738037109375,0.057220458984375,0.1201629638671875,0.15940916525575188
1782416692.882556,-0.0166015587747097,-0.0317382849752903,0.9809569716453552,0.9816106716547804,-0.339508056640625,-0.125885009765625,-0.0019073486328125,0.36209997816403194
1782416692.890577,-0.015624996274709702,-0.0351562462747097,0.9941405653953552,0.9948846998146615,-0.278472900390625,0.057220458984375,-0.1239776611328125,0.3101480253658114
1782416692.898598,-0.005859367549419403,-0.05126953125,0.9985350966453552,0.9998676093639711,0.026702880859375,-0.247955322265625,-0.0629425048828125,0.2572093400461243
1782416692.909295,-0.0063476525247097015,-0.0273437537252903,0.9931640028953552,0.9935606223112352,0.026702880859375,0.179290771484375,0.0553131103515625,0.189519826831961
1782416692.919992,-0.0126953125,-0.03564453125,0.9838866591453552,0.9846139657813682,0.0858306884765625,-0.0667572021484375,-0.0019073486328125,0.10875232917898889
1782416692.930689,-0.01171875,-0.04638671875,0.9956054091453552,0.9967543265506522,-0.034332275390625,-0.125885009765625,-0.0019073486328125,0.1304966620109354
1782416692.941296,-0.0166015587747097,-0.0400390587747097,0.9916991591453552,0.9926459390089295,0.026702880859375,0.057220458984375,-0.1850128173828125,0.1954916043427401
1782416692.951904,-0.0078125,-0.02587890625,0.9995116591453552,0.9998771473098318,0.026702880859375,0.057220458984375,-0.1239776611328125,0.13913189868802556
1782416692.962512,-0.01416015625,-0.03466796875,0.9848632216453552,0.9855749303994819,0.148773193359375,0.179290771484375,0.0553131103515625,0.23945392871818263
1782416692.970536,-0.02294921875,-0.03564453125,0.9877929091453552,0.9887021951058426,0.209808349609375,-0.125885009765625,-0.2498626708984375,0.34971121451563736
1782416692.978557,-0.013671875,-0.025390625,0.9980468153953552,0.9984633442068449,-0.034332275390625,-0.003814697265625,-0.1850128173828125,0.18820998816389106
1782416692.986579,-0.014648430049419403,-0.03759765625,0.9995116591453552,1.0003258054383615,-0.034332275390625,0.301361083984375,0.0553131103515625,0.30831274422329574
1782416692.994601,-0.0058593712747097015,-0.0439453087747097,0.9975585341453552,0.9985432146087966,-0.034332275390625,-0.003814697265625,0.1201629638671875,0.12502957623727712
1782416693.005267,0.0,-0.03662109375,0.9941405653953552,0.9948148412001315,0.026702880859375,0.057220458984375,-0.0019073486328125,0.06317327561065367
1782416693.015934,-0.010253898799419403,-0.03515625,0.9999999403953552,1.0006702679431247,0.026702880859375,0.118255615234375,-0.0019073486328125,0.12124797878504043
1782416693.026599,-0.012207027524709702,-0.0419921912252903,0.9912108778953552,0.9921750652495612,0.209808349609375,-0.003814697265625,0.1201629638671875,0.24181239291315304
1782416693.034594,-0.0219726525247097,-0.0327148474752903,0.9960936903953552,0.9968729601858709,0.148773193359375,0.057220458984375,-0.1850128173828125,0.24420767101926683
1782416693.042592,-0.0161132775247097,-0.0258789025247097,0.9907225966453552,0.9911915146994484,0.148773193359375,0.118255615234375,-0.0019073486328125,0.19005654836288494
1782416693.050591,-0.0195312462747097,-0.0385742150247097,0.9892577528953552,0.9902021719373189,0.026702880859375,-0.003814697265625,0.1201629638671875,0.12315329328428595
1782416693.058589,-0.0004882737994194031,-0.037109375,0.9941405653953552,0.9948330552855541,0.026702880859375,-0.003814697265625,0.0553131103515625,0.061539710254294125
1782416693.069876,-0.0214843712747097,-0.0400390587747097,0.9907225966453552,0.9917640686878858,-0.156402587890625,0.301361083984375,0.2384185791015625,0.4148779233701526
1782416693.081164,-0.00390625,-0.0224609375,0.9965819716453552,0.9968427050999495,0.148773193359375,-0.003814697265625,0.1201629638671875,0.19127768521947708
1782416693.092452,-0.024414055049419403,-0.0322265625,0.9863280653953552,0.9871563452670841,-0.156402587890625,-0.247955322265625,-0.4329681396484375,0.5228814600742347
1782416693.102469,-0.02294921875,-0.03564453125,0.9833983778953552,0.9843117234374908,0.209808349609375,0.057220458984375,0.1811981201171875,0.2830662170344511
1782416693.112487,0.0019531287252902985,-0.0288085974752903,1.00048828125,1.0009048660681443,-0.034332275390625,-0.247955322265625,-0.0019073486328125,0.25032815453351376
1782416693.122505,-0.0161132775247097,-0.0249023400247097,0.9970702528953552,0.9975113299908438,0.331878662109375,0.057220458984375,-0.0629425048828125,0.34260675155462733
1782416693.133193,-0.019531242549419403,-0.03076171875,0.9897460341453552,0.9904165612924881,-0.156402587890625,0.179290771484375,-0.1850128173828125,0.3013912620403468
1782416693.14388,-0.013671875,-0.03759765625,0.9877929091453552,0.988602718628344,-0.217437744140625,0.057220458984375,-0.1239776611328125,0.25675633188552316
1782416693.154568,-0.00732421875,-0.04052734375,0.9951171278953552,0.9959689794378284,0.209808349609375,-0.003814697265625,-0.0019073486328125,0.20985169396467873
1782416693.16257,-0.015136711299419403,-0.037109375,0.9931640028953552,0.9939723146994476,0.331878662109375,0.179290771484375,0.1201629638671875,0.395888576481209
1782416693.170569,-0.012207027524709702,-0.0288085974752903,0.9916991591453552,0.9921926068355311,0.148773193359375,-0.125885009765625,0.1201629638671875,0.22895335033885067
1782416693.17857,-0.0209960900247097,-0.0429687537252903,0.9892577528953552,0.9904130710247104,-0.0972747802734375,-0.2460479736328125,0.0553131103515625,0.2702989611205024
1782416693.186569,-0.015136715024709702,-0.0336914025247097,0.9819335341453552,0.9826279541235374,0.1468658447265625,-0.0667572021484375,-0.2498626708984375,0.29741797977666884
1782416693.197303,-0.01171875,-0.04638671875,1.0009765625,1.002119321963343,-0.0972747802734375,-0.0667572021484375,-0.0629425048828125,0.13371860692086113
1782416693.208037,-0.013183590024709702,-0.0429687537252903,0.9956054091453552,0.9966194115920753,0.0858306884765625,0.1163482666015625,-0.0019073486328125,0.14459413613406347
1782416693.218771,-0.014648430049419403,-0.02783203125,0.9965819716453552,0.9970781437154047,0.148773193359375,-0.186920166015625,-0.0019073486328125,0.23890636137294854
1782416693.226775,-0.013183590024709702,-0.0390624962747097,0.9951171278953552,0.9959707746173339,0.087738037109375,-0.125885009765625,-0.0019073486328125,0.15345565098198455
1782416693.234782,-0.00830078125,-0.02685546875,0.9916991591453552,0.9920974455267724,0.148773193359375,0.118255615234375,0.1201629638671875,0.22484881917002264
1782416693.242789,-0.0166015587747097,-0.0244140587747097,0.9926757216453552,0.9931146692923893,-0.034332275390625,0.301361083984375,0.0553131103515625,0.30831274422329574
1782416693.250796,-0.010253902524709702,-0.0239257849752903,0.9907225966453552,0.9910645030508283,-0.0362396240234375,-0.0667572021484375,-0.2498626708984375,0.2611535730112616
1782416693.26144,-0.010742183774709702,-0.0302734337747097,0.9941405653953552,0.9946594085763015,-0.034332275390625,-0.247955322265625,-0.0629425048828125,0.25811297118562354
1782416693.272084,-0.0087890625,-0.04052734375,0.9887694716453552,0.9896387124950673,-0.156402587890625,-0.003814697265625,0.4253387451171875,0.4531990396194335
1782416693.282728,-0.015624996274709702,-0.0332031287252903,0.9892577528953552,0.9899381242932815,-0.034332275390625,0.301361083984375,-0.1239776611328125,0.3276700604780634
1782416693.293342,-0.004882805049419403,-0.03271484375,0.9907225966453552,0.9912746169908986,0.026702880859375,0.118255615234375,-0.0629425048828125,0.13659865775904753
1782416693.303957,-0.011230465024709702,-0.0288085974752903,0.9931640028953552,0.9936452059363491,-0.156402587890625,-0.003814697265625,-0.0629425048828125,0.16863594022341713
1782416693.314572,-0.0087890625,-0.0263671875,0.9838866591453552,0.9842791444709663,0.209808349609375,0.179290771484375,-0.2498626708984375,0.3722849427706861
1782416693.325253,-0.015624996274709702,-0.0385742150247097,0.9853515028953552,0.9862300415377198,-0.034332275390625,-0.003814697265625,0.1201629638671875,0.12502957623727712
1782416693.335934,-0.0200195275247097,-0.0341796837747097,0.9951171278953552,0.9959051814786147,-0.0972747802734375,0.0591278076171875,-0.0019073486328125,0.11385129990328513
1782416693.346615,-0.009765621274709702,-0.0483398400247097,0.9999999403953552,1.0012152557183742,0.0858306884765625,-0.0057220458984375,-0.0629425048828125,0.10658990484350485
1782416693.354596,-0.0078124962747097015,-0.0332031287252903,0.9824218153953552,0.9830137874007139,-0.278472900390625,-0.003814697265625,-0.0629425048828125,0.28552314632638487
1782416693.362581,-0.02392578125,-0.025390625,0.9946288466453552,0.9952405083322237,0.026702880859375,-0.247955322265625,-0.0019073486328125,0.24939631846690724
1782416693.370564,-0.013671875,-0.0390625,0.9873046278953552,0.9881716588406345,-0.217437744140625,-0.003814697265625,0.2384185791015625,0.3227028716218687
1782416693.378548,-0.009765617549419403,-0.03564453125,0.9824218153953552,0.9831167393849314,-0.034332275390625,0.179290771484375,0.0553131103515625,0.1907443997860074
1782416693.389221,-0.012695308774709702,-0.0375976599752903,0.9916991591453552,0.9924928096213631,0.2117156982421875,0.1163482666015625,-0.1239776611328125,0.2715343744046557
1782416693.399894,-0.0048828087747097015,-0.0341796837747097,0.9995116591453552,1.0001078188735304,-0.0362396240234375,0.1163482666015625,-0.0629425048828125,0.13715680227925717
1782416693.410568,-0.0126953125,-0.03125,0.9926757216453552,0.9932486203381303,-0.339508056640625,0.240325927734375,-0.3070831298828125,0.5170322240672298
1782416693.421221,-0.004882805049419403,-0.02734375,0.9951171278953552,0.995504706508168,-0.156402587890625,-0.003814697265625,-0.0629425048828125,0.16863594022341713
1782416693.431875,-0.004882805049419403,-0.03515625,0.9912108778953552,0.9918461615378132,-0.034332275390625,0.057220458984375,0.1811981201171875,0.19309491136195941
1782416693.442529,-0.015136715024709702,-0.0292968712747097,0.9873046278953552,0.9878551791997712,-0.156402587890625,-0.003814697265625,-0.0019073486328125,0.15646072795727411
1782416693.450544,-0.0229492150247097,-0.0385742150247097,0.9882811903953552,0.9892999281432721,0.209808349609375,-0.125885009765625,-0.0019073486328125,0.24468391289234429
1782416693.458561,-0.0126953125,-0.0302734375,0.9980468153953552,0.9985865499286225,0.026702880859375,-0.186920166015625,0.1201629638671875,0.22381092510162634
1782416693.466578,-0.0185546875,-0.02587890625,0.9897460341453552,0.9902581513541697,-0.034332275390625,-0.125885009765625,0.2384185791015625,0.2717888144828577
1782416693.474595,-0.008789058774709702,-0.0385742150247097,0.9999999403953552,1.0007822432525628,0.331878662109375,-0.003814697265625,-0.1850128173828125,0.37998386922955424
1782416693.485288,-0.0283203125,-0.041015625,0.9770507216453552,0.9783212326541563,0.0858306884765625,-0.0667572021484375,-0.0629425048828125,0.12563912624644819
1782416693.495981,-0.0214843712747097,-0.0219726599752903,0.9897460341453552,0.9902229991784265,0.026702880859375,0.240325927734375,-0.1850128173828125,0.30446565977709855
1782416693.506675,-0.014648430049419403,-0.02978515625,1.00439453125,1.0049428373995493,-0.0972747802734375,-0.0667572021484375,0.1811981201171875,0.21622133486299544
1782416693.517283,-0.010253898799419403,-0.041015625,0.9848632216453552,0.9857702517749242,-0.034332275390625,0.057220458984375,0.0553131103515625,0.08667425359727297
1782416693.527893,-0.0068359337747097015,-0.0283203162252903,1.0009765625,1.001400443866483,0.0858306884765625,-0.0057220458984375,-0.1239776611328125,0.15089767842345034
1782416693.538503,-0.017578125,-0.03662109375,0.9921874403953552,0.9930186362119537,0.331878662109375,-0.247955322265625,0.2384185791015625,0.47798400293751114
1782416693.54652,-0.011230465024709702,-0.0380859412252903,0.9882811903953552,0.9890785477164834,-0.156402587890625,-0.064849853515625,-0.1239776611328125,0.20985169396467873
1782416693.554538,-0.0073242150247097015,-0.0385742150247097,0.9902343153953552,0.9910124184776943,0.0858306884765625,0.1163482666015625,-0.1239776611328125,0.1904580969281996
1782416693.562557,-0.0195312462747097,-0.0244140587747097,0.9907225966453552,0.9912158086666161,-0.0972747802734375,-0.0667572021484375,-0.0629425048828125,0.13371860692086113
1782416693.570574,-0.015136711299419403,-0.0322265625,0.9946288466453552,0.9952659011232113,0.026702880859375,-0.125885009765625,0.0553131103515625,0.14007005285443996
1782416693.581273,-0.010742183774709702,-0.0473632849752903,0.9941405653953552,0.9953261470696411,0.2117156982421875,0.1163482666015625,0.1201629638671875,0.2698139987263675
1782416693.591972,-0.009765617549419403,-0.037109375,0.9931640028953552,0.993905030496444,-0.400543212890625,0.179290771484375,-0.3681182861328125,0.5727923870981231
1782416693.602671,0.00146484375,-0.037109375,0.9990233778953552,0.9997134394723061,0.0858306884765625,-0.0667572021484375,-0.0019073486328125,0.10875232917898889
1782416693.613299,-0.00927734375,-0.041015625,0.9887694716453552,0.9896632854961486,0.087738037109375,0.179290771484375,0.4253387451171875,0.4698469878515049
1782416693.623927,-0.0166015587747097,-0.0356445275247097,0.9960936903953552,0.996869492030751,-0.0972747802734375,-0.2460479736328125,-0.2498626708984375,0.3639139218476804
1782416693.634555,-0.0205078087747097,-0.0341796837747097,0.9965819716453552,0.9973787882305413,0.209808349609375,0.179290771484375,-0.0019073486328125,0.2759861632112726
1782416693.642551,-0.0219726525247097,-0.0419921912252903,0.9951171278953552,0.9962450701577267,-0.2193450927734375,0.1163482666015625,0.1201629638671875,0.27584112592273685
1782416693.650548,-0.01904296875,-0.03076171875,0.9848632216453552,0.9855275152672986,-0.0362396240234375,-0.0667572021484375,0.1811981201171875,0.19647542625491404
1782416693.658543,-0.010253902524709702,-0.0341796837747097,1.00146484375,1.002100407427887,-0.0362396240234375,-0.0667572021484375,0.1201629638671875,0.14215826487895267
1782416693.666539,-0.0180664025247097,-0.0483398400247097,0.9887694716453552,0.9901152473786242,-0.0972747802734375,-0.0667572021484375,0.1811981201171875,0.21622133486299544
1782416693.677215,-0.012207027524709702,-0.0380859412252903,0.9985350966453552,0.9993357242051112,0.209808349609375,-0.186920166015625,-0.1239776611328125,0.30713051377074374
1782416693.687891,-0.0166015587747097,-0.0395507775247097,0.9931640028953552,0.9940898412134007,-0.339508056640625,0.057220458984375,-0.1239776611328125,0.3659376475716032
1782416693.698567,-0.00927734375,-0.02783203125,0.9941405653953552,0.994573353169666,-0.156402587890625,0.057220458984375,0.0553131103515625,0.17548643993776655
1782416693.70924,-0.0166015587747097,-0.0332031287252903,0.9882811903953552,0.9889781447535424,0.209808349609375,0.240325927734375,0.2384185791015625,0.3982706541637304
1782416693.719913,-0.01318359375,-0.04638671875,0.9809569716453552,0.9821415962274396,-0.2765655517578125,0.1163482666015625,-0.0629425048828125,0.30657329055417465
1782416693.730586,-0.0209960900247097,-0.0444335900247097,0.9902343153953552,0.9914530644994334,-0.156402587890625,0.057220458984375,0.0553131103515625,0.17548643993776655
1782416693.74124,-0.014648430049419403,-0.02490234375,1.00537109375,1.0057861300372097,-0.034332275390625,0.301361083984375,0.1811981201171875,0.3533128455175922
1782416693.751897,-0.016113273799419403,-0.021484375,0.9999999403953552,1.0003604834020532,-0.095367431640625,-0.125885009765625,0.0553131103515625,0.16733655571388134
1782416693.762554,-0.0087890625,-0.033203125,0.9926757216453552,0.9932697435608926,-0.2765655517578125,0.1163482666015625,-0.1850128173828125,0.35249846262958007
1782416693.770627,-0.0068359337747097015,-0.0405273400247097,0.9956054091453552,0.9964533737207882,-0.0972747802734375,0.0591278076171875,-0.0019073486328125,0.11385129990328513
1782416693.7787,-0.0205078087747097,-0.0292968712747097,0.9887694716453552,0.9894159615374425,0.026702880859375,0.057220458984375,-0.1239776611328125,0.13913189868802556
1782416693.786773,-0.024414055049419403,-0.03076171875,0.9965819716453552,0.997355481076308,0.209808349609375,-0.125885009765625,-0.0019073486328125,0.24468391289234429
1782416693.794847,-0.0078125,-0.04150390625,0.9926757216453552,0.9935737002026501,0.0286102294921875,-0.0667572021484375,-0.0629425048828125,0.09610841894030855
1782416693.805429,-0.015624996274709702,-0.0400390587747097,0.9960936903953552,0.9970205147245402,-0.0972747802734375,0.1163482666015625,0.1811981201171875,0.236288088469217
1782416693.81601,-0.0185546875,-0.03515625,1.00146484375,1.0022534966811028,0.209808349609375,-0.125885009765625,-0.0019073486328125,0.24468391289234429
1782416693.826592,-0.02392578125,-0.02880859375,0.9995116591453552,1.0002129447521544,0.148773193359375,0.301361083984375,0.0553131103515625,0.3406046185525787
1782416693.835184,-0.0053710900247097015,-0.0498046837747097,0.9956054091453552,0.9968648282758513,0.026702880859375,-0.186920166015625,-0.1239776611328125,0.22588194431928657
1782416693.843778,-0.01806640625,-0.02685546875,0.9951171278953552,0.9956433645976219,0.026702880859375,-0.370025634765625,0.1811981201171875,0.41287379786551776
1782416693.852372,-0.01904296875,-0.03466796875,0.9941405653953552,0.9949271161651294,-0.0362396240234375,-0.0667572021484375,0.0553131103515625,0.0939647517147339
1782416693.860966,-0.0126953125,-0.03076171875,1.00146484375,1.0020176084117178,-0.034332275390625,0.179290771484375,-0.1239776611328125,0.2206679549298506
1782416693.870834,-0.0087890625,-0.0400390625,1.00390625,1.0047428192998298,-0.0362396240234375,0.1163482666015625,-0.1239776611328125,0.1738409904208753
1782416693.880702,-0.01904296875,-0.0400390625,1.00146484375,1.0024458062418657,-0.034332275390625,0.179290771484375,-0.2498626708984375,0.3094434361583082
1782416693.89057,-0.0087890625,-0.033203125,0.9897460341453552,0.99034181333308,-0.2193450927734375,-0.0667572021484375,-0.1239776611328125,0.26065159547264954
1782416693.901232,-0.011718746274709702,-0.0346679650247097,1.0068359375,1.0075007701509262,-0.278472900390625,-0.003814697265625,0.0553131103515625,0.2839388109152383
1782416693.911892,-0.01806640625,-0.0263671875,0.9965819716453552,0.9970944036649658,0.0858306884765625,-0.2460479736328125,-0.0019073486328125,0.26059576050270084
1782416693.922552,-0.02294921875,-0.02978515625,0.9912108778953552,0.9919238008194747,0.209808349609375,0.179290771484375,-0.0629425048828125,0.2830662170344511
1782416693.930554,-0.008300777524709702,-0.0288085974752903,0.9829100966453552,0.983367223514893,-0.0972747802734375,-0.0057220458984375,-0.0629425048828125,0.1160038085902021
1782416693.938559,0.00146484375,-0.03759765625,0.9873046278953552,0.988021334681742,-0.278472900390625,0.057220458984375,-0.1239776611328125,0.3101480253658114
1782416693.946562,-0.0268554650247097,-0.0424804724752903,0.9907225966453552,0.9919965070740584,0.331878662109375,0.057220458984375,-0.1850128173828125,0.38424909874431346
1782416693.954566,-0.0073242150247097015,-0.0336914025247097,0.9965819716453552,0.997178209217567,-0.0972747802734375,-0.0057220458984375,-0.1239776611328125,0.1576882530389371
1782416693.965263,0.0034179724752902985,-0.0332031287252903,0.9921874403953552,0.9927487331501746,-0.0362396240234375,-0.0667572021484375,0.1201629638671875,0.14215826487895267
1782416693.97596,-0.0302734337747097,-0.0429687537252903,0.9868163466453552,0.9882152076322759,-0.156402587890625,0.118255615234375,0.0553131103515625,0.20372947800971108
1782416693.986657,-0.0126953125,-0.04150390625,0.9926757216453552,0.9936240906588407,0.209808349609375,-0.186920166015625,-0.1239776611328125,0.30713051377074374
1782416693.99729,-0.01416015625,-0.0341796875,0.9892577528953552,0.989949323312153,-0.0972747802734375,0.0591278076171875,-0.0629425048828125,0.1300778206758691
1782416694.007925,-0.01904296875,-0.03955078125,1.00048828125,1.0014507975307014,0.270843505859375,-0.003814697265625,-0.1850128173828125,0.3280251502207591
1782416694.018559,-0.0161132775247097,-0.0468750037252903,0.9853515028953552,0.9865974295248136,0.0858306884765625,0.1163482666015625,0.1811981201171875,0.23181152896167975
1782416694.029234,-0.00927734375,-0.03564453125,0.9887694716453552,0.9894552388930602,-0.034332275390625,0.057220458984375,0.4253387451171875,0.4305414430200002
1782416694.039912,-0.019531242549419403,-0.03173828125,0.9873046278953552,0.9880077004739458,0.209808349609375,-0.003814697265625,0.0553131103515625,0.217010680976311
1782416694.050588,-0.0224609375,-0.0302734375,0.9980468153953552,0.9987584394898776,-0.339508056640625,0.179290771484375,0.0553131103515625,0.38790519645928995
1782416694.058585,-0.020019523799419403,-0.037109375,1.00634765625,1.007230605316337,0.148773193359375,-0.247955322265625,-0.0019073486328125,0.2891694017025367
1782416694.066584,-0.0166015587747097,-0.0405273400247097,0.9838866591453552,0.9848609216977984,0.026702880859375,-0.186920166015625,0.0553131103515625,0.1967529732590156
1782416694.074583,-0.013671875,-0.046875,0.9882811903953552,0.9894866836295858,-0.0972747802734375,-0.0667572021484375,-0.0629425048828125,0.13371860692086113
1782416694.082582,-0.015624996274709702,-0.0434570275247097,0.9999999403953552,1.0010656994126719,0.026702880859375,0.057220458984375,-0.1850128173828125,0.1954916043427401
1782416694.093271,-0.0205078087747097,-0.0419921912252903,1.0009765625,1.0020668605532057,-0.0972747802734375,0.2422332763671875,0.0553131103515625,0.2668311886447908
1782416694.10396,-0.029296867549419403,-0.0419921875,0.9873046278953552,0.9886314169208003,-0.2193450927734375,-0.0667572021484375,-0.3070831298828125,0.3832347093115387
1782416694.114649,-0.0073242150247097015,-0.0292968712747097,0.9902343153953552,0.9906946806048385,0.0858306884765625,0.2994537353515625,0.0553131103515625,0.3163842392995082
1782416694.125285,-0.0126953125,-0.03076171875,0.9921874403953552,0.9927453707664485,0.148773193359375,-0.186920166015625,-0.0629425048828125,0.24705135184122687
1782416694.135922,-0.0205078087747097,-0.0375976599752903,0.9946288466453552,0.9955504491664032,-0.156402587890625,-0.003814697265625,0.3032684326171875,0.3412448734211236
1782416694.146559,-0.0126953125,-0.02197265625,0.9951171278953552,0.9954406395224449,-0.034332275390625,-0.003814697265625,0.1811981201171875,0.18446142085197326
1782416694.154555,-0.015624996274709702,-0.0444335900247097,0.9936522841453552,0.994767986124579,-0.217437744140625,-0.125885009765625,-0.1239776611328125,0.28017256953638037
1782416694.162549,-0.012695308774709702,-0.0283203162252903,0.9912108778953552,0.9916966348808826,0.148773193359375,0.240325927734375,-0.1239776611328125,0.30864295725594726
1782416694.170543,-0.011718746274709702,-0.0253906212747097,0.9916991591453552,0.9920933599780675,-0.034332275390625,-0.003814697265625,-0.1239776611328125,0.12870010687131758
1782416694.178537,-0.01318359375,-0.03662109375,0.9868163466453552,0.9875836236279423,0.2117156982421875,0.1163482666015625,-0.0629425048828125,0.24964417666808922
1782416694.18921,-0.010253902524709702,-0.0429687537252903,0.9882811903953552,0.9892679958448829,0.0858306884765625,-0.0057220458984375,0.1811981201171875,0.20058017755408247
1782416694.199883,0.0043945349752902985,-0.0390624962747097,0.9858397841453552,0.98662316542671,-0.034332275390625,0.057220458984375,0.1811981201171875,0.19309491136195941
1782416694.210557,-0.011718746274709702,-0.0322265662252903,0.9868163466453552,0.9874119619446636,0.209808349609375,-0.003814697265625,0.1201629638671875,0.24181239291315304
1782416694.21856,-0.0019531212747097015,-0.0405273400247097,0.9975585341453552,0.9983833477269249,0.148773193359375,-0.186920166015625,0.1201629638671875,0.2674168083928192
1782416694.226565,-0.015624996274709702,-0.0385742150247097,0.9941405653953552,0.9950113438237544,-0.0972747802734375,-0.0667572021484375,0.0553131103515625,0.1303013702640806
1782416694.23457,-0.012695308774709702,-0.0278320349752903,0.9868163466453552,0.987290380304719,0.0286102294921875,-0.0667572021484375,-0.3070831298828125,0.31555525336921153
1782416694.242575,-0.0039062462747097015,-0.0239257849752903,0.9858397841453552,0.9861378108309219,-0.0972747802734375,0.2422332763671875,-0.0629425048828125,0.2685164836239121
1782416694.253238,-0.0209960900247097,-0.0307617150247097,0.9995116591453552,1.000205316760058,0.270843505859375,-0.003814697265625,-0.0019073486328125,0.27087708385951137
1782416694.263901,-0.0058593712747097015,-0.0322265662252903,0.9882811903953552,0.988823844317919,0.1468658447265625,-0.0667572021484375,-0.0629425048828125,0.17317003004809173
1782416694.274564,-0.0063476525247097015,-0.0297851525247097,1.0068359375,1.0072964077395483,-0.156402587890625,-0.125885009765625,-0.0019073486328125,0.20077958850785424
1782416694.285229,-0.01220703125,-0.0361328125,0.9946288466453552,0.9953598014437635,0.3337860107421875,0.0591278076171875,-0.1239776611328125,0.3609427365396918
1782416694.295894,-0.0185546875,-0.02978515625,0.9931640028953552,0.9937837635060178,0.0934600830078125,-0.0019073486328125,0.1201629638671875,0.1522417911743727
1782416694.306559,0.00048828125,-0.04345703125,0.9926757216453552,0.9936266101145688,-0.0324249267578125,-0.3070831298828125,-0.2498626708984375,0.39721880474415444
1782416694.31722,-0.015624996274709702,-0.0488281212747097,0.9843749403953552,0.9857090591113392,-0.0934600830078125,-0.0019073486328125,-0.0019073486328125,0.09349900038739123
1782416694.32788,-0.01708984375,-0.04052734375,0.9970702528953552,0.9980398877598218,0.091552734375,0.18310546875,-0.0019073486328125,0.2047270227314988
1782416694.33854,-0.015136711299419403,-0.0419921875,0.9975585341453552,0.9985567048927301,-0.213623046875,0.06103515625,0.0553131103515625,0.22895335033885067
1782416694.346545,-0.01806640625,-0.03076171875,0.9912108778953552,0.9918526517751137,0.091552734375,-0.1220703125,0.1201629638671875,0.19422204367870805
1782416694.354551,-0.015136711299419403,-0.0361328125,0.9868163466453552,0.9875936422307547,0.091552734375,0.244140625,-0.0019073486328125,0.26074927790070107
1782416694.362557,-0.01904296875,-0.0234375,0.9946288466453552,0.9950871789165676,0.274658203125,-0.18310546875,0.0553131103515625,0.33470028593769546
1782416694.370563,-0.0302734337747097,-0.0380859412252903,0.9916991591453552,0.9928918581402169,-0.0324249267578125,0.1239776611328125,0.1811981201171875,0.22193376279695412
1782416694.381222,-0.0307617150247097,-0.0380859412252903,1.01513671875,1.0163165745892342,-0.0324249267578125,-0.1239776611328125,-0.0019073486328125,0.12816190664163468
1782416694.391881,-0.0078125,-0.0498046875,0.9833983778953552,0.9846897540344566,-0.1544952392578125,0.0591278076171875,0.1201629638671875,0.20446030047980188
1782416694.40254,-0.0029296875,-0.025390625,0.9863280653953552,0.9866591708859156,0.1506805419921875,0.0591278076171875,0.1201629638671875,0.20159330657048494
1782416694.410779,-0.0126953125,-0.05029296875,1.00048828125,1.0018319991813698,-0.0324249267578125,0.0591278076171875,-0.0019073486328125,0.06746192620783766
1782416694.419018,-0.01318359375,-0.0302734375,0.9965819716453552,0.9971288353922853,-0.0324249267578125,-0.0629425048828125,-0.0019073486328125,0.07082918025065285
1782416694.427257,-0.0058593712747097015,-0.0244140587747097,0.9951171278953552,0.9954338133338101,0.030517578125,-0.18310546875,0.0553131103515625,0.19369686481080906
1782416694.44328,-0.015624992549419403,-0.04150390625,0.9829100966453552,0.9839100429986268,0.0286102294921875,-0.1239776611328125,-0.1850128173828125,0.22454119507895215
1782416694.451064,-0.0205078087747097,-0.0351562462747097,0.9887694716453552,0.9896067905641629,-0.0324249267578125,0.0591278076171875,0.0553131103515625,0.08721819584025327
1782416694.458848,-0.01806640625,-0.03466796875,0.9931640028953552,0.9939330962087771,0.0286102294921875,-0.1239776611328125,-0.0019073486328125,0.12725031894013158
1782416694.466632,-0.00390625,-0.025390625,0.9916991591453552,0.9920318366244895,0.2117156982421875,-0.3070831298828125,-0.0019073486328125,0.3729976186513908
1782416694.477298,-0.0219726525247097,-0.0297851525247097,1.001953125,1.0026365330802371,0.274658203125,-0.18310546875,0.2384185791015625,0.40719548142239864
1782416694.487964,-0.012695308774709702,-0.0395507775247097,0.9848632216453552,0.9857388093290039,-0.152587890625,-0.18310546875,0.1811981201171875,0.29940513653834816
1782416694.49863,-0.0014648400247097015,-0.0400390587747097,0.9946288466453552,0.9954354899052636,0.0934600830078125,-0.0019073486328125,0.3032684326171875,0.3173486526152583
1782416694.506618,-0.012695308774709702,-0.0327148474752903,0.9829100966453552,0.9835363186977887,-0.396728515625,0.1220703125,0.2384185791015625,0.478683710987403
1782416694.514607,-0.0073242150247097015,-0.0449218712747097,0.9975585341453552,0.9985963387128853,-0.213623046875,-0.06103515625,0.0553131103515625,0.22895335033885067
1782416694.522596,-0.01708984375,-0.03564453125,0.9931640028953552,0.9939503669774244,0.091552734375,0.1220703125,-0.0019073486328125,0.15259981108833018
1782416694.530585,-0.005371086299419403,-0.04150390625,0.9931640028953552,0.9940453508010435,-0.213623046875,-0.1220703125,0.2384185791015625,0.34260675155462733
1782416694.541243,-0.01708984375,-0.04150390625,0.9794921278953552,0.9805199975535324,0.1506805419921875,-0.1811981201171875,-0.0629425048828125,0.2439244624673486
1782416694.551901,-0.00927734375,-0.04638671875,1.005859375,1.0069711411251256,0.1506805419921875,0.3070831298828125,-0.0019073486328125,0.34206477803552177
1782416694.562559,-0.017578125,-0.03515625,0.9887694716453552,0.9895504132940439,0.152587890625,0.1220703125,-0.0629425048828125,0.20529487202596536
1782416694.573305,-0.00732421875,-0.02197265625,1.0009765625,1.001244485866112,-0.2765655517578125,-0.3070831298828125,0.0553131103515625,0.4169509482594945
1782416694.584053,-0.0234375,-0.03173828125,0.9921874403953552,0.9929715765223296,-0.0324249267578125,0.1811981201171875,-0.0019073486328125,0.18408631830763336
1782416694.594799,-0.01416015625,-0.03466796875,0.9921874403953552,0.9928938991456046,0.213623046875,-0.18310546875,-0.1239776611328125,0.30746199651709505
1782416694.602761,-0.0014648400247097015,-0.0424804724752903,0.9868163466453552,0.9877313593809339,-0.0934600830078125,-0.0019073486328125,0.3032684326171875,0.3173486526152583
1782416694.610721,-0.02392578125,-0.04150390625,0.9790038466453552,0.9801752644240895,0.1506805419921875,-0.1239776611328125,-0.2498626708984375,0.3170275074871623
1782416694.618682,-0.012695308774709702,-0.0385742150247097,0.9873046278953552,0.9881394482527471,0.0286102294921875,-0.0019073486328125,-0.0629425048828125,0.06916604753291605
1782416694.626643,-0.009765617549419403,-0.03515625,0.9990233778953552,0.9996894711767398,-0.0324249267578125,-0.2460479736328125,-0.0019073486328125,0.24818263271806468
1782416694.637273,-0.0166015587747097,-0.0493164025247097,0.9960936903953552,0.9974519333567744,0.1506805419921875,-0.1811981201171875,-0.0629425048828125,0.2439244624673486
1782416694.647903,-0.011230465024709702,-0.0375976599752903,0.9863280653953552,0.9871082817841379,-0.091552734375,-0.1220703125,-0.0019073486328125,0.15259981108833018
1782416694.658533,-0.017578125,-0.02587890625,0.9912108778953552,0.9917044482734222,-0.091552734375,-0.06103515625,0.0553131103515625,0.12315329328428595
1782416694.669259,-0.01806640625,-0.041015625,0.9956054091453552,0.9966136700088057,-0.0324249267578125,0.1239776611328125,0.1201629638671875,0.17567291829009674
1782416694.679987,-0.0063476525247097015,-0.0307617150247097,0.9833983778953552,0.9838998655610497,-0.152587890625,-0.18310546875,-0.0019073486328125,0.23835753613081187
1782416694.690715,-0.0161132775247097,-0.0253906212747097,0.9902343153953552,0.9906908300513394,0.274658203125,0.06103515625,0.1201629638671875,0.305943714966761
1782416694.698679,-0.0229492150247097,-0.0332031287252903,0.9882811903953552,0.9891050629314658,0.0286102294921875,-0.1239776611328125,-0.0629425048828125,0.14195338887283035
1782416694.706645,-0.01904296875,-0.01708984375,0.9916991591453552,0.9920291929514058,0.213623046875,-0.1220703125,-0.0019073486328125,0.2460479736328125
1782416694.714612,-0.01904296875,-0.02978515625,0.9853515028953552,0.9859854838940508,-0.2117156982421875,-0.0019073486328125,-0.1239776611328125,0.2453520640242233
1782416694.722577,-0.0200195275247097,-0.0390624962747097,0.9882811903953552,0.9892554631574114,-0.091552734375,0.06103515625,-0.0629425048828125,0.1267633716454564
1782416694.733218,-0.015624996274709702,-0.0190429724752903,0.9902343153953552,0.9905406476746864,-0.0324249267578125,0.1811981201171875,0.0553131103515625,0.19220737443193053
1782416694.74386,-0.008300777524709702,-0.0341796837747097,0.9843749403953552,0.9850031355121733,-0.091552734375,-0.18310546875,-0.0019073486328125,0.2047270227314988
1782416694.7545,-0.0068359337747097015,-0.0336914025247097,0.9882811903953552,0.988878936919942,-0.2765655517578125,0.1811981201171875,0.1201629638671875,0.3517959650684655
1782416694.765216,-0.010253902524709702,-0.0346679650247097,0.9926757216453552,0.9933338304216098,0.1506805419921875,-0.0019073486328125,0.1811981201171875,0.23567142900205187
1782416694.775934,-0.01416015625,-0.025390625,0.9956054091453552,0.996029780971636,-0.1544952392578125,0.0591278076171875,-0.1239776611328125,0.20672526949288603
1782416694.78665,-0.01806640625,-0.03662109375,0.9946288466453552,0.9954667458641228,0.030517578125,0.1220703125,-0.0019073486328125,0.1258416534668479
1782416694.797303,-0.0214843712747097,-0.0341796837747097,0.9882811903953552,0.989105424250251,0.152587890625,0.1220703125,-0.3681182861328125,0.41676767886268945
1782416694.807958,-0.0161132775247097,-0.0356445275247097,0.9941405653953552,0.9949098621581981,-0.091552734375,-0.06103515625,0.1201629638671875,0.1629304494419267
1782416694.818613,-0.0078124962747097015,-0.0332031287252903,0.9946288466453552,0.9952135577021949,-0.152587890625,-0.3662109375,0.1201629638671875,0.41452702323897156
1782416694.826605,-0.0039062462747097015,-0.0336914025247097,0.9921874403953552,0.992766984867208,0.1506805419921875,-0.1811981201171875,0.0553131103515625,0.2420680165693647
1782416694.834596,-0.01806640625,-0.02734375,0.9897460341453552,0.9902884871618528,0.091552734375,0.06103515625,-0.0629425048828125,0.1267633716454564
1782416694.842587,-0.0087890625,-0.03515625,0.9877929091453552,0.9884574046925519,0.213623046875,0.1220703125,-0.3681182861328125,0.4427719954280818
1782416694.850579,0.00146484375,-0.03076171875,0.9926757216453552,0.9931533202138494,-0.0324249267578125,-0.0019073486328125,-0.0019073486328125,0.032536930292571986
1782416694.861244,-0.0068359337747097015,-0.0449218712747097,0.9902343153953552,0.9912763004813046,0.1506805419921875,-0.0019073486328125,0.3032684326171875,0.3386443649847906
1782416694.87191,-0.011230465024709702,-0.0229492224752903,0.9916991591453552,0.9920282316579988,0.1506805419921875,-0.1239776611328125,-0.0629425048828125,0.20502888849121906
1782416694.882576,-0.0078124962747097015,-0.0390624962747097,0.9912108778953552,0.9920110474038759,-0.213623046875,-0.18310546875,-0.0629425048828125,0.28831263892385733
1782416694.890615,-0.011230465024709702,-0.0400390587747097,0.9707030653953552,0.9715933772624097,-0.0324249267578125,-0.0629425048828125,0.1811981201171875,0.19454021057399698
1782416694.898657,-0.01416015625,-0.029296875,1.00634765625,1.006873587969045,0.213623046875,0.06103515625,0.1201629638671875,0.2525851031632059
1782416694.906699,-0.0234375,-0.03955078125,1.00048828125,1.0015439988449406,0.0286102294921875,-0.0019073486328125,-0.2498626708984375,0.2515025596667032
1782416694.914741,-0.01416015625,-0.03564453125,0.9931640028953552,0.9939043109274563,0.030517578125,0.06103515625,0.1811981201171875,0.19362172297312122
1782416694.925386,-0.01806640625,-0.02734375,0.9804686903953552,0.9810162733331367,0.335693359375,-0.06103515625,-0.0629425048828125,0.34695400379280494
1782416694.936031,-0.010742183774709702,-0.0332031287252903,0.9902343153953552,0.990849050893175,0.091552734375,0.244140625,-0.1850128173828125,0.3197128251147518
1782416694.946676,-0.013671875,-0.02685546875,0.9936522841453552,0.9941091480089496,0.396728515625,0.1220703125,-0.0019073486328125,0.4150883210627235
1782416694.957301,-0.015136715024709702,-0.0239257849752903,0.9916991591453552,0.9921032131678779,-0.0934600830078125,-0.0019073486328125,0.0553131103515625,0.10861843891070441
1782416694.967926,-0.0161132775247097,-0.0415039099752903,0.9941405653953552,0.9951370136922965,0.030517578125,0.06103515625,0.1811981201171875,0.19362172297312122
1782416694.978551,-0.010253898799419403,-0.041015625,0.9951171278953552,0.9960148202539107,-0.0934600830078125,-0.0019073486328125,0.1811981201171875,0.20389012685423735
1782416694.986551,-0.011230465024709702,-0.0375976599752903,0.9960936903953552,0.9968662635608282,0.3337860107421875,0.1811981201171875,0.0553131103515625,0.38380385599671946
1782416694.994554,-0.019531242549419403,-0.05078125,0.9912108778953552,0.9927029813822297,-0.1544952392578125,-0.1239776611328125,0.1811981201171875,0.268462284403776
1782416695.002558,-0.00830078125,-0.03515625,0.9887694716453552,0.98942909444854,-0.152587890625,-0.06103515625,0.3032684326171875,0.34493491688423555
1782416695.01056,-0.011230465024709702,-0.0351562462747097,0.9916991591453552,0.9923856645711907,0.1506805419921875,0.0591278076171875,-0.0629425048828125,0.173673493341953
1782416695.021235,-0.010253902524709702,-0.0332031287252903,0.9951171278953552,0.9957237008853587,0.1506805419921875,0.0591278076171875,-0.0019073486328125,0.16187761224913594
1782416695.031908,-0.02880859375,-0.0380859375,0.9936522841453552,0.9947991432929505,0.213623046875,-0.1220703125,-0.0629425048828125,0.253964025544818
1782416695.042582,-0.0053710900247097015,-0.0346679650247097,0.9877929091453552,0.988415675596483,0.1506805419921875,-0.1811981201171875,0.0553131103515625,0.2420680165693647
1782416695.050572,-0.01416015625,-0.0361328125,0.9936522841453552,0.9944098510933338,-0.0324249267578125,-0.0629425048828125,0.2384185791015625,0.248709777968178
1782416695.058562,-0.0126953125,-0.03076171875,0.9995116591453552,1.0000655033883667,-0.0324249267578125,0.0591278076171875,-0.1239776611328125,0.1411309107489466
1782416695.066552,-0.019531242549419403,-0.04736328125,0.9916991591453552,0.9930216372747853,-0.1544952392578125,0.0591278076171875,-0.1239776611328125,0.20672526949288603
1782416695.074542,-0.009765617549419403,-0.0361328125,0.9912108778953552,0.9919173110110351,0.0934600830078125,-0.0019073486328125,0.2384185791015625,0.25608952332229895
1782416695.082549,-0.01416015625,-0.04296875,0.9877929091453552,0.988828425390083,0.030517578125,-0.06103515625,0.3643035888671875,0.37063960626812426
1782416695.090556,-0.0258789025247097,-0.0341796837747097,0.9775390028953552,0.9784786510499184,-0.0934600830078125,-0.0019073486328125,-0.1850128173828125,0.20728764480923656
1782416695.098563,-0.005371086299419403,-0.04052734375,0.9882811903953552,0.9891263950824115,-0.091552734375,-0.1220703125,-0.3070831298828125,0.34290394139468744
1782416695.10657,-0.0234375,-0.0390625,0.9838866591453552,0.9849406851971891,-0.274658203125,-0.18310546875,-0.1239776611328125,0.3526119704292148
1782416695.117228,-0.0361328087747097,-0.0424804724752903,0.9902343153953552,0.9918034935400164,0.152587890625,-0.06103515625,-0.0629425048828125,0.17598327643492648
1782416695.127886,-0.01318359375,-0.03466796875,0.9931640028953552,0.9938563336058895,0.091552734375,0.06103515625,-0.3070831298828125,0.32620122950201386
1782416695.138544,-0.00830078125,-0.03955078125,0.9926757216453552,0.9934979897367545,0.0286102294921875,-0.3070831298828125,-0.0019073486328125,0.3084189226831373
1782416695.149369,-0.012207027524709702,-0.0288085974752903,0.9985350966453552,0.9990251678721769,-0.0324249267578125,-0.1811981201171875,-0.1239776611328125,0.22193376279695412
1782416695.160193,-0.01171875,-0.0361328125,0.9902343153953552,0.9909626171694018,-0.0934600830078125,-0.0019073486328125,0.1811981201171875,0.20389012685423735
1782416695.171017,-0.0053710900247097015,-0.0424804724752903,1.00048828125,1.0014041342376996,-0.213623046875,0.1220703125,0.1201629638671875,0.2738158235664132
1782416695.181558,-0.0175781212747097,-0.0292968712747097,0.9853515028953552,0.9859436501505401,0.0286102294921875,-0.0019073486328125,-0.1239776611328125,0.12725031894013158
1782416695.1921,-0.015624996274709702,-0.0332031287252903,0.9965819716453552,0.9972573461621009,0.152587890625,-0.3662109375,0.2384185791015625,0.462857358125399
1782416695.202642,-0.00927734375,-0.1728515625,1.01611328125,1.0307521196186737,2.0427703857421875,-0.0019073486328125,1.1577606201171875,2.348046877798275
1782416695.21061,-0.0771484300494194,-0.19189453125,1.05029296875,1.0704628492331885,13.153076171875,0.244140625,1.3408660888671875,13.223499510197566
1782416695.21858,-0.31201171875,-0.4331054389476776,1.2578125,1.3663908368543898,30.118942260742188,-15.016555786132812,-2.8095245361328125,33.771897469687616
1782416695.226548,-0.2822265625,0.0327148400247097,1.17138671875,1.2053501309587602,49.163818359375,-47.54638671875,-15.626907348632812,70.15654038623411
1782416695.234517,-0.36962890625,0.13916015625,1.05859375,1.1298724728756597,35.430908203125,-72.20458984375,-32.28950500488281,86.66870360206612
1782416695.245276,-0.7177734375,-0.076171875,0.9155272841453552,1.165843501562775,12.298583984375,-75.25634765625,-31.007766723632812,82.31800913388467
1782416695.256035,-0.705078125,-0.10107421875,0.7856444716453552,1.060466121984266,11.322021484375,-60.1806640625,-39.00337219238281,72.60277914703865
1782416695.266794,0.1708984375,0.14697265625,0.28515625,0.36348497154515835,-8.636474609375,-16.9677734375,-37.41645812988281,41.98196479549264
1782416695.277382,0.923828125,0.1669921875,0.4497070014476776,1.040952055753824,-55.999755859375,78.43017578125,44.79408264160156,106.27217401130933
1782416695.28797,0.32861328125,-0.21728515625,0.4541015326976776,0.601171963533612,-99.21455383300781,106.80961608886719,93.07670593261719,172.95980737905813
1782416695.298558,1.9047850370407104,-0.78125,3.999877691268921,4.498619693299821,-111.17744445800781,153.9897918701172,113.52348327636719,221.27101349163436
1782416695.306566,0.3271484375,-1.02685546875,1.095703125,1.5368876315447526,-113.616943359375,106.50634765625,116.57524108886719,194.53071414131222
1782416695.314574,-0.1030273362994194,0.93701171875,1.3466796875,1.6438223060370243,-50.689697265625,137.02392578125,119.26078796386719,188.59516746499287
1782416695.322582,-0.0830078050494194,-1.38916015625,0.8823241591453552,1.6477718765724838,-117.76924133300781,160.3984832763672,100.21781921386719,222.80233151718733
1782416695.33059,-0.3525390326976776,0.109375,1.2373046875,1.2911891998889578,-85.479736328125,181.45751953125,126.95121765136719,237.38203044949412
1782416695.34127,-0.04736328125,-0.71044921875,1.02001953125,1.2439538644840176,-116.973876953125,216.6748046875,127.67982482910156,277.36798038742893
1782416695.35195,-0.31201171875,-0.2324218600988388,1.0400390625,1.1104289645065155,-120.330810546875,231.26220703125,133.60023498535156,292.9346943534921
1782416695.36263,-0.43603515625,-0.65478515625,1.3662109375,1.576515963787214,-118.865966796875,255.0048828125,139.5244598388672,314.0440784573088
1782416695.370614,-0.6279296875,-0.70947265625,1.7041014432907104,1.9497714921076676,-88.59443664550781,252.8057098388672,106.74858093261719,288.3660185645943
1782416695.378598,-0.50439453125,-0.80908203125,1.8476561307907104,2.079149045666287,-62.408447265625,244.0185546875,75.43373107910156,262.9260677574533
1782416695.386582,-0.3544921875,-0.79833984375,1.9819334745407104,2.1658881583826814,-30.609130859375,231.75048828125,35.27259826660156,236.40931432378295
1782416695.394566,-0.4155273139476776,-0.888671875,2.05419921875,2.276430337252976,4.7283172607421875,214.4756317138672,-4.5795440673828125,214.57661989845428
1782416695.405242,-0.5205078125,-0.88427734375,2.0703125,2.3106424758493773,42.87910461425781,179.3804168701172,-45.04585266113281,189.85541975668215
1782416695.415918,-0.642578125,-0.796875,2.01171875,2.2571948833574558,79.559326171875,129.0283203125,-85.39009094238281,173.98121006228317
1782416695.426594,-0.826171875,-0.5673828125,1.8349608182907104,2.09082864616485,107.93876647949219,72.87788391113281,-119.75288391113281,176.9257371823335
1782416695.437293,-1.0478515625,-0.4912109375,1.7099608182907104,2.0647632024623928,124.786376953125,10.43701171875,-139.4062042236328,187.38906281516526
1782416695.447992,-1.0771484375,-0.59423828125,1.4873046875,1.9301407007705729,134.4318389892578,-55.84907531738281,-145.7538604736328,205.9981222992279
1782416695.458691,-1.00439453125,-0.4858398139476776,1.42724609375,1.8115960121799382,139.8639678955078,-115.48042297363281,-146.06285095214844,232.877680411658
1782416695.466838,-0.86376953125,-0.42431640625,1.291015625,1.6102371128883164,134.8552703857422,-172.3041534423828,-132.0209503173828,255.54685786957486
1782416695.474986,-0.720703125,-0.375,1.22705078125,1.4716288982454107,131.500244140625,-177.3681640625,-129.5795440673828,256.0129646573718
1782416695.483135,-0.6572265625,-0.3134765625,1.13720703125,1.3503533395436993,122.955322265625,-179.8095703125,-132.45201110839844,254.93730228444187
1782416695.491282,-0.4521484076976776,-0.23486328125,1.06689453125,1.1823125154857403,107.93876647949219,-178.8349151611328,-137.39585876464844,250.02065153798623
1782416695.501716,-0.25927734375,-0.138671875,0.9946288466453552,1.0371794311868805,89.569091796875,-168.51806640625,-137.2699737548828,235.08297812747847
1782416695.51215,-0.2822265625,-0.0590820275247097,0.9423827528953552,0.985508889615728,68.572998046875,-154.9072265625,-130.01060485839844,213.5445205994971
1782416695.522584,-0.3955077826976776,-0.0546874962747097,0.9238280653953552,1.0064171216922706,49.77226257324219,-144.9604034423828,-123.23188781738281,196.66442195494886
1782416695.530574,-0.44677734375,0.021484375,0.8828124403953552,0.9896612441508705,36.773681640625,-136.474609375,-111.26899719238281,179.8844417999049
1782416695.538564,-0.4453125,0.0380859375,0.83154296875,0.9440431505863847,26.947021484375,-127.50244140625,-101.62544250488281,165.25962935861506
1782416695.546554,-0.34228515625,0.0532226487994194,0.76904296875,0.843456499363261,18.218994140625,-120.9716796875,-93.99604797363281,154.2768163677638
1782416695.554544,-0.2143554538488388,0.0302734337747097,0.68603515625,0.7193809679149257,9.063720703125,-112.12158203125,-85.51216125488281,141.30014123367204
1782416695.565221,-0.1596679538488388,-0.06396484375,0.642578125,0.665200724180869,-0.274658203125,-98.81591796875,-76.84516906738281,125.17923585854773
1782416695.575899,-0.1206054538488388,-0.1064453125,0.578125,0.6000873233757792,-10.286331176757812,-82.39936828613281,-70.00923156738281,108.61287680421286
1782416695.586577,-0.1225585862994194,-0.12939453125,0.533203125,0.5622002528484713,-20.111083984375,-63.96484375,-69.64302062988281,96.67526704096959
1782416695.59459,-0.0600585900247097,-0.0869140625,0.4736327826976776,0.4852721930442291,-30.364990234375,-42.96875,-71.59614562988281,88.85017826403939
1782416695.602603,0.0229492224752903,-0.0346679650247097,0.4575195014476776,0.45940464605411463,-38.970947265625,-21.484375,-77.39830017089844,89.27939274695615
1782416695.610616,0.1025390625,-3.725290298461914e-09,0.4716796576976776,0.4826965494222817,-47.027587890625,1.28173828125,-85.57319641113281,97.6524900852528
1782416695.618629,0.13232421875,-0.04541015625,0.55517578125,0.5725311600646685,-52.21748352050781,22.947311401367188,-91.49742126464844,107.81939892174488
1782416695.629262,0.08154296875,-0.0947265625,0.66650390625,0.6781222857583569,-53.49922180175781,43.08891296386719,-94.91157531738281,117.16240131982885
1782416695.639895,0.0771484375,-0.13330078125,0.7578125,0.7733050916984846,-49.16572570800781,59.93843078613281,-98.21128845214844,125.12130613500723
1782416695.650528,0.0927734375,-0.11328125,0.8359375,0.8486642776819223,-40.557861328125,73.974609375,-101.62544250488281,132.07919409206167
1782416695.66121,-0.0268554650247097,-0.22998046875,0.8872069716453552,0.9169233569629935,-21.087646484375,95.458984375,-105.83686828613281,144.07827463144017
1782416695.671894,-0.06494140625,-0.1484375,0.8823241591453552,0.8970769194798937,-15.899658203125,96.61865234375,-108.58345031738281,146.21329896601802
1782416695.682578,-0.0566406212747097,-0.0449218712747097,0.8476561903953552,0.850733302282668,-12.603759765625,97.412109375,-112.36763000488281,149.24630007484538
1782416695.690571,-0.1845702975988388,-0.0732421875,0.8559569716453552,0.8786881984491407,-11.812210083007812,96.18949890136719,-111.08589172363281,147.41785287398505
1782416695.698566,-0.2397460788488388,-0.068359375,0.8212890625,0.8582930214419275,-11.505126953125,94.17724609375,-110.66246032714844,145.76660026792138
1782416695.706561,-0.25244140625,-0.0175781287252903,0.80126953125,0.8402788322387724,-13.702392578125,89.111328125,-106.87446594238281,139.8239458499009
1782416695.714556,-0.28173828125,-0.013183597475290298,0.83056640625,0.8771492584247761,-16.693115234375,82.21435546875,-103.57856750488281,133.29058476776848
1782416695.725228,-0.23486328125,0.0830078050494194,0.7998046278953552,0.8376983343551941,-17.181396484375,74.52392578125,-100.22163391113281,126.06899619977816
1782416695.7359,-0.2744140625,0.0585937425494194,0.8808593153953552,0.9244725187275582,-15.960693359375,66.95556640625,-94.17915344238281,116.65120894537543
1782416695.746572,-0.333984375,0.0546874962747097,0.8886718153953552,0.9509331629883424,-11.140823364257812,61.15531921386719,-86.79389953613281,106.75800677266272
1782416695.757239,-0.33251953125,-0.0087890625,0.8222655653953552,0.8869989550824127,-5.5255889892578125,37.83988952636719,-72.75581359863281,82.19366025092741
1782416695.767904,-0.267578125,0.0351562462747097,0.78125,0.8265504081002221,-9.918212890625,30.94482421875,-66.16401672363281,73.71316165976235
1782416695.778569,-0.2324218600988388,0.0058593712747097015,0.7358397841453552,0.7716958216905299,-19.685745239257812,28.867721557617188,-59.99946594238281,69.43205187033027
1782416695.786558,-0.2509765625,-0.01025390625,0.6875,0.7319498804683967,-33.29277038574219,29.356002807617188,-58.11119079589844,73.12382618897819
1782416695.794549,-0.2485351413488388,0.011718746274709702,0.6689453125,0.7137190459944732,-47.21260070800781,29.298782348632812,-58.77876281738281,80.88504973768936
1782416695.802538,-0.3017578125,0.0073242150247097015,0.68798828125,0.7512917520296908,-56.121826171875,31.6162109375,-61.83433532714844,89.29014050980592
1782416695.810528,-0.2744140625,0.0205078125,0.7099609375,0.7614250986454071,-60.45722961425781,27.833938598632812,-65.13023376464844,93.12224278216942
1782416695.821211,-0.234375,-0.00244140625,0.73828125,0.7745946069984221,-59.844970703125,27.28271484375,-68.30024719238281,94.8192533942546
1782416695.831894,-0.224609375,-0.02734375,0.7602538466453552,0.7932105416224702,-54.595947265625,30.3955078125,-70.00923156738281,93.8397402898478
1782416695.842577,-0.27490234375,-0.04296875,0.75732421875,0.806819424890789,-46.905517578125,32.40966796875,-69.40269470214844,89.81786119161397
1782416695.853236,-0.30517578125,-0.08349609375,0.72900390625,0.7947015480422921,-32.196044921875,39.24560546875,-67.87300109863281,84.75580885906986
1782416695.863895,-0.4248046576976776,-0.11083984375,0.75634765625,0.8745320150109049,-25.972366333007812,49.80278015136719,-66.28990173339844,86.88631535267791
1782416695.874554,-0.3706054389476776,0.0166015587747097,0.6806640625,0.7751951812997516,-15.596389770507812,67.68608093261719,-64.02778625488281,94.4680387146434
1782416695.882563,-0.28955078125,0.18505859375,0.294921875,0.4528413081828208,-0.6427764892578125,84.89799499511719,-57.25669860839844,102.40318477146627
1782416695.890573,-0.69970703125,-0.74951171875,1.50439453125,1.8205934888873943,14.678955078125,111.63330078125,-62.74604797363281,128.89737042241038
1782416695.898583,-0.294921875,-0.2294921875,0.8339843153953552,0.9138793217939172,44.219970703125,113.6474609375,-56.46324157714844,134.3847046204487
1782416695.906593,-0.29052734375,-0.4765624701976776,1.21728515625,1.3391419182050608,50.50468444824219,124.50981140136719,-60.42671203613281,147.3255029311567
1782416695.917359,0.22119140625,-1.13720703125,2.11669921875,2.4130024974666213,45.99189758300781,82.57865905761719,-89.96772766113281,130.49399064917827
1782416695.928125,-0.2070312350988388,-0.2822265625,1.08935546875,1.1442067567457594,34.942626953125,54.13818359375,-92.34809875488281,112.60595652476572
1782416695.938891,-0.83984375,-0.25830078125,0.9418944716453552,1.2881079200612446,24.564743041992188,43.94340515136719,-67.81196594238281,84.45656979766106
1782416695.949436,-0.4199218451976776,-0.224609375,0.7558593153953552,0.8933683630407158,3.326416015625,28.4423828125,-26.128768920898438,38.76527761906923
1782416695.959982,-0.4980468451976776,-0.28271484375,0.8076171875,0.9900625558182455,-7.293701171875,22.64404296875,-11.842727661132812,26.574441804315803
1782416695.970528,-0.4829101264476776,-0.12744140625,0.7197265625,0.8760421376970151,-14.925003051757812,4.5146942138671875,-7.7533721923828125,17.414159764206854
1782416695.978531,-0.36376953125,-0.1206054612994194,0.78662109375,0.8750123966513484,-15.838623046875,-16.90673828125,-4.0340423583984375,23.515383838692426
1782416695.986535,-0.0673828050494194,-0.1059570237994194,0.4838866889476776,0.4999136535938034,-17.242431640625,-15.56396484375,3.4160614013671875,23.477817744352283
1782416695.994539,-0.0068359375,-0.21240234375,0.587890625,0.6251214863007731,-25.482177734375,-1.5869140625,2.9277801513671875,25.698863300597107
1782416696.002543,-0.09423828125,-0.09326171875,0.5693359375,0.5845699372753974,-32.257080078125,-14.83154296875,-4.1522979736328125,35.74542572780861
1782416696.013224,-0.3203125,-0.1708984375,0.7197265625,0.8061096069172342,-35.369873046875,-19.8974609375,-4.3392181396484375,40.81379283005743
1782416696.023905,-0.2382812350988388,-0.30419921875,0.9785155653953552,1.0520493445696024,-36.956787109375,-24.10888671875,-0.9212493896484375,44.134920785055385
1782416696.034586,-0.3359375,-0.31298828125,0.9638671278953552,1.0676401586411595,-31.097412109375,-24.658203125,7.0781707763671875,40.31347817781891
1782416696.04527,-0.4057616889476776,-0.3671875,0.8427733778953552,1.0048562956279217,-17.549514770507812,-37.83988952636719,22.516250610351562,47.400677733510335
1782416696.055956,-0.2958984375,-0.33740234375,0.71435546875,0.8436231164542416,-14.190673828125,-54.3212890625,22.642135620117188,60.53795482627154
1782416696.066643,0.25244140625,0.18359375,0.3422851264476776,0.4632412291839347,-23.834228515625,-76.416015625,16.778945922851562,81.78637367689836
1782416696.074633,-0.4931640326976776,-0.2578125,0.75732421875,0.9397967975090061,-46.48017883300781,-68.78852844238281,19.285202026367188,85.23020407587144
1782416696.082624,-0.234375,-0.09912109375,0.7138671875,0.7578673981907101,-50.63056945800781,-73.36616516113281,7.2574615478515625,89.43556061327796
1782416696.090615,-0.27587890625,-0.10107421875,0.6611328125,0.7234789315341389,-69.91767883300781,-72.20649719238281,4.7588348388671875,100.62259467541489
1782416696.098606,-0.33544921875,-0.1416015625,0.7529296875,0.8363493858318272,-88.531494140625,-67.7490234375,5.6133270263671875,111.62107808031325
1782416696.109642,-0.3984375,-0.0751953125,0.8291015028953552,0.9229388270798663,-107.147216796875,-62.80517578125,7.5054168701171875,124.42406300480822
1782416696.120678,-0.34326171875,-0.298828125,0.9843749403953552,1.084491069178801,-118.499755859375,-49.8046875,8.970260620117188,128.8532677556024
1782416696.131714,-0.07958984375,0.0859375,0.9902343153953552,0.997137802172251,-119.23408508300781,-34.85298156738281,10.370254516601562,124.65568397974225
1782416696.142001,-0.3222655951976776,-0.4375,0.7568359375,0.9316984491452249,-110.687255859375,-29.6630859375,14.768600463867188,115.54081026492585
1782416696.152288,-0.2304687350988388,-0.29833984375,0.8476561903953552,0.9277087459663188,-107.574462890625,-34.11865234375,12.506484985351562,113.54628866963886
1782416696.162575,-0.25537109375,-0.3349609375,0.783203125,0.8892808106462862,-104.034423828125,-39.85595703125,14.825820922851562,112.38978431407034
1782416696.170592,-0.1708984375,-0.3173828125,0.6826171875,0.7719484116705997,-108.978271484375,-47.54638671875,8.665084838867188,119.21411930218599
1782416696.17861,-0.2182617038488388,-0.390625,0.6435546875,0.7838295081171803,-115.93818664550781,-47.97554016113281,2.8057098388671875,125.50373533923597
1782416696.186628,-0.0947265625,-0.34619140625,0.5859375,0.687127619376975,-123.01826477050781,-40.77339172363281,-4.0912628173828125,129.66380131415426
1782416696.194646,-0.0361328087747097,-0.44189453125,0.5244140625,0.6867215342235605,-131.2541961669922,-33.87641906738281,-8.363723754882812,135.81320869238087
1782416696.205291,-0.13232421875,-0.35302734375,0.4140624701976776,0.5599872619347526,-146.7609405517578,-32.89985656738281,-14.043807983398438,151.0576140962961
1782416696.215936,-0.14794921875,-0.39599609375,0.4501952826976776,0.6175578273791338,-161.956787109375,-34.1796875,-18.861770629882812,166.5953730440416
1782416696.226581,-0.2026367038488388,-0.4111328125,0.5283203125,0.6994384718193444,-169.219970703125,-31.982421875,-19.472122192382812,173.31311934308968
1782416696.237236,-0.21044921875,-0.8330078125,0.69775390625,1.1068204023443253,-156.829833984375,-34.97314453125,-16.359329223632812,161.5126785073467
1782416696.24789,-0.1630859375,-0.88671875,0.8129882216453552,1.214008654477345,-137.054443359375,-33.50830078125,-15.325546264648438,141.9211014405706
1782416696.258542,-0.103515625,-0.84130859375,0.8613280653953552,1.2084707984781629,-113.55781555175781,-30.946731567382812,-16.302108764648438,118.82271002533616
1782416696.269202,-0.06689453125,-0.7451171875,0.7734375,1.076048357568245,-93.475341796875,-27.4658203125,-18.678665161132812,99.20132731815065
1782416696.279863,-0.0625,-0.62060546875,0.66748046875,0.9135576467881635,-84.808349609375,-26.611328125,-24.663925170898438,92.24385157222171
1782416696.290524,-0.0258789025247097,-0.560546875,0.578125,0.8056742718326986,-82.30400085449219,-23.256301879882812,-27.589797973632812,89.86657379699287
1782416696.298549,-0.0068359337747097015,-0.4570312201976776,0.580078125,0.7385221034806378,-86.82441711425781,-20.570755004882812,-28.383255004882812,93.63356520700118
1782416696.306576,-0.0024414025247097015,-0.44140625,0.61279296875,0.755222259030273,-90.301513671875,-22.15576171875,-31.251907348632812,98.09140054916836
1782416696.314603,-0.0434570237994194,-0.64599609375,0.70263671875,0.9554568669456139,-86.700439453125,-18.12744140625,-33.51402282714844,94.70353773413456
1782416696.32263,-0.14501953125,-0.6962890625,0.70068359375,0.9984020340281332,-78.216552734375,-18.5546875,-31.923294067382812,86.49394345261707
1782416696.333279,-0.1791992038488388,-0.79443359375,0.6171875,1.0218402515534646,-64.910888671875,-26.4892578125,-28.322219848632812,75.612514736543
1782416696.343928,-0.1079101487994194,-0.77197265625,0.6171875,0.9942367888827306,-59.66377258300781,-34.11674499511719,-25.823593139648438,73.4205421564076
1782416696.354577,-0.32470703125,-0.23876953125,0.4853515326976776,0.6308816493515389,-41.595458984375,-36.7431640625,-30.458450317382812,63.308447376168466
1782416696.362576,-0.2416992038488388,0.662109375,0.4404296576976776,0.8311351352119261,-7.171630859375,-39.24560546875,-30.458450317382812,50.193296699144966
1782416696.370576,-0.4326171875,-0.337890625,0.6865234375,0.8790006459725256,-30.426025390625,-30.1513671875,-31.984329223632812,53.45881854504587
1782416696.378576,-0.4282226264476776,-1.177734375,0.76708984375,1.4693058579624554,-38.970947265625,-12.51220703125,5.0640106201171875,41.242384256170816
1782416696.386576,-0.0922851487994194,-0.8515625,0.8901366591453552,1.235321218165395,-23.286819458007812,4.3964385986328125,12.266159057617188,26.68451406430636
1782416696.397231,0.06298828125,-0.9238280653953552,0.8886718153953552,1.2834186431032666,-27.864456176757812,6.0443878173828125,2.7446746826171875,28.64429753418265
1782416696.407886,0.12646484375,-0.86328125,0.8784179091453552,1.2380896156634107,-26.031494140625,4.33349609375,-11.781692504882812,28.90027947732603
1782416696.418541,0.01611328125,-0.8623046875,0.76708984375,1.1542338759114261,-26.031494140625,5.18798828125,-17.278671264648438,31.671854859978893
1782416696.426527,-0.0625,-0.5869140625,0.50390625,0.7760772355566915,-30.731201171875,11.53564453125,-20.936965942382812,38.933717560619705
1782416696.434513,-0.15771484375,-0.56103515625,0.2280273288488388,0.6258041875774605,-33.416748046875,8.6669921875,-22.829055786132812,41.38794017214283
1782416696.442499,-0.1259765475988388,-0.51513671875,-0.13525390625,0.5472929276953274,-56.243896484375,2.50244140625,-24.782180786132812,61.512556354401134
1782416696.450485,-0.0854492112994194,-0.66064453125,0.1108398288488388,0.6753060284356012,-84.808349609375,-0.06103515625,-24.293899536132812,88.21934846408689
1782416696.46118,-0.0825195237994194,-0.98779296875,0.4023437201976776,1.0697779629916333,-95.67451477050781,3.3550262451171875,-21.974563598632812,98.22296280925302
1782416696.471875,-0.0034179650247097015,-1.046875,0.583984375,1.1987479711574285,-87.188720703125,10.55908203125,-18.068313598632812,89.6651057406879
1782416696.48257,0.02197265625,-1.0244140625,0.66748046875,1.2228806749773888,-66.68281555175781,14.894485473632812,-11.598587036132812,69.30346895119148
1782416696.490571,-0.11328125,-1.0625,0.591796875,1.221459140889014,-48.98262023925781,16.542434692382812,-4.7054290771484375,51.91425906102459
1782416696.498572,-0.1230468675494194,-0.92236328125,0.6640625,1.1431857058755768,-40.25459289550781,12.144088745117188,-2.8095245361328125,42.14029625846836
1782416696.506573,0.36376953125,-0.9248046875,1.2744140625,1.6160826663836139,-18.342971801757812,6.1016082763671875,1.3980865478515625,19.38166360438645
1782416696.514574,0.2060546875,-1.021484375,1.55615234375,1.8728318076027226,35.614013671875,-2.0751953125,-4.0340423583984375,35.901781336792666
1782416696.525245,-0.15771484375,-1.1201171875,1.01708984375,1.5211864566618376,81.939697265625,13.73291015625,-21.303176879882812,85.77022883563667
1782416696.535916,-0.1997070163488388,-0.9921874403953552,0.6123046875,1.1828929958333994,97.259521484375,12.0849609375,-14.101028442382812,99.0166642710377
1782416696.546587,-0.2202148288488388,-0.7861328125,0.56005859375,0.9900328268129855,100.91972351074219,-2.0771026611328125,-12.086868286132812,101.66217258113195
1782416696.554588,-0.15185546875,-0.83984375,0.71435546875,1.11296960584572,94.696044921875,-17.578125,-15.565872192382812,97.56345514315792
1782416696.562588,-0.12255859375,-0.7958984375,0.61962890625,1.0160782022942378,88.77372741699219,-23.073196411132812,-11.110305786132812,92.3936467880477
1782416696.570588,-0.2646484375,-0.54443359375,0.521484375,0.7989947977577025,82.061767578125,-23.8037109375,-8.913040161132812,85.90804757038907
1782416696.578588,-0.1977538913488388,-0.81103515625,0.5390625,0.9937167630282385,71.56181335449219,-27.708053588867188,-3.0574798583984375,76.79959340615824
1782416696.58657,-0.0927734300494194,-0.8017578125,0.5751953125,0.9910964366548254,68.267822265625,-36.7431640625,-5.0106048583984375,77.68952196571789
1782416696.594552,-0.009765617549419403,-0.8232421875,0.60546875,1.0219664739082537,75.04081726074219,-34.05952453613281,-4.1522979736328125,82.5131325623344
1782416696.602534,-0.0258789025247097,-0.85400390625,0.55029296875,1.016274933736846,86.33232116699219,-28.139114379882812,-9.218215942382812,91.26913465857565
1782416696.610517,-0.0395507775247097,-0.6484375,0.50244140625,0.8212690315137523,87.738037109375,-29.4189453125,-14.101028442382812,93.60703233325378
1782416696.621273,0.0185546912252903,-0.4907226264476776,0.58984375,0.7675080599500147,87.12577819824219,-20.631790161132812,-15.077590942382812,90.7959566309433
1782416696.63203,-0.0078125,-0.6298828125,0.673828125,0.9224195003793967,82.54814147949219,-5.0678253173828125,-9.771347045898438,83.27879524979424
1782416696.642787,-0.0595703050494194,-0.60693359375,0.712890625,0.9381524671815672,81.44950866699219,2.3174285888671875,-7.0819854736328125,81.78965371981765
1782416696.650788,0.01953125,-0.7041015625,0.705078125,0.9966321499906671,77.117919921875,9.8876953125,-3.9081573486328125,77.84737494309768
1782416696.658789,-0.06201171875,-0.73876953125,0.77294921875,1.071016511699007,65.277099609375,17.27294921875,-3.0574798583984375,67.59291894281748
1782416696.66679,-0.1455078125,-0.65478515625,0.7919921875,1.037866922781966,68.63212585449219,13.303756713867188,-2.3212432861328125,69.94817233067664
1782416696.674791,-0.1166992038488388,-0.5048828125,0.7792968153953552,0.9358572994972072,65.51933288574219,4.2705535888671875,0.1201629638671875,65.6584727882546
1782416696.685362,-0.010742183774709702,-0.56787109375,0.9257811903953552,1.0861232831124246,60.27030944824219,0.1811981201171875,2.0084381103515625,60.304036824981445
1782416696.695933,-0.0087890625,-0.517578125,0.9179686903953552,1.0538647349846697,59.906005859375,2.44140625,3.2329559326171875,60.04283476455168
1782416696.706504,-0.0576171875,-0.42333984375,0.77783203125,0.8874452278536324,55.389404296875,3.90625,14.036178588867188,57.273547181956076
1782416696.717197,0.008789069950580597,-0.478515625,0.9047850966453552,1.0235675464918188,43.365478515625,9.21630859375,11.529922485351562,45.8087784545995
1782416696.727892,0.0322265662252903,-0.4868163764476776,0.8749999403953552,1.0018251502334103,32.989501953125,14.95361328125,10.007858276367188,37.577586625011804
1782416696.738587,0.0351562537252903,-0.54443359375,0.8417968153953552,1.003127997111684,24.139404296875,18.310546875,4.0874481201171875,30.572768909672035
1782416696.749232,0.04541015625,-0.63623046875,0.9057616591453552,1.1078156321492494,17.669677734375,25.5126953125,1.3980865478515625,31.065572251938487
1782416696.759876,-0.0629882737994194,-0.6572265625,0.8862304091453552,1.105132849564133,19.256591796875,28.6865234375,-2.5043487548828125,34.64108423891771
1782416696.77052,-0.015136715024709702,-0.435546875,0.82080078125,0.929324552007863,19.804000854492188,29.233932495117188,-7.8754425048828125,36.1779470620088
1782416696.778545,0.0039062537252902985,-0.4829101264476776,0.9477538466453552,1.0636986428847908,27.313232421875,32.2265625,-12.453079223632812,44.041380292264286
1782416696.786571,-0.0498046837747097,-0.58056640625,0.8701171278953552,1.04720660561744,39.764404296875,36.31591796875,-3.2367706298828125,53.94933207286984
1782416696.794597,-0.1728515625,-0.5654296875,0.716796875,0.9291857479399933,50.26054382324219,11.411666870117188,-7.5702667236328125,52.09277631715861
1782416696.802623,-0.19677734375,-0.5771484375,0.8686522841453552,1.0613097722498084,49.95536804199219,-21.120071411132812,-17.766952514648438,57.07241728085482
1782416696.813307,0.111328125,-0.69140625,0.9306640028953552,1.1647197260458346,51.54609680175781,-27.833938598632812,-22.222518920898438,62.65435803356649
1782416696.823991,0.19873046875,-0.69091796875,0.9433593153953552,1.186081041368765,56.48612976074219,-9.767532348632812,-25.575637817382812,62.77101873711255
1782416696.834676,0.1650390625,-0.6865234375,0.9746093153953552,1.2035014084092708,64.910888671875,14.16015625,-31.984329223632812,73.73554644188036
1782416696.845316,0.05322265625,-0.6669921875,0.8378905653953552,1.0722741388762898,71.746826171875,29.60205078125,-37.72163391113281,86.29490217341043
1782416696.85596,-0.06494140625,-0.60546875,0.732421875,0.9524975571888915,72.72148132324219,30.149459838867188,-40.71617126464844,88.62962471360414
1782416696.866604,-0.0961913987994194,-0.556640625,0.7001953125,0.8996527364768876,69.55146789550781,21.787643432617188,-41.07856750488281,83.66335399097943
1782416696.87459,-0.0434570275247097,-0.5849609375,0.73046875,0.9368310447293711,60.08720397949219,12.144088745117188,-39.73960876464844,73.05605709514924
1782416696.882577,-0.0551757775247097,-0.5869140625,0.71826171875,0.9291998599910647,56.54716491699219,14.097213745117188,-37.90473937988281,69.52037516427735
1782416696.890564,-0.1083984375,-0.5556640625,0.69873046875,0.8992980815981095,52.642822265625,14.2822265625,-36.50093078613281,65.63205527733244
1782416696.898551,-0.1059570163488388,-0.529296875,0.7021484375,0.8856604877050828,47.81913757324219,11.167526245117188,-36.25679016113281,61.04046521343412
1782416696.909206,-0.12353515625,-0.56005859375,0.671875,0.8833700124454867,41.90254211425781,9.031295776367188,-29.542922973632812,52.05930883966266
1782416696.919861,-0.1010742038488388,-0.56005859375,0.63818359375,0.8550788983763833,36.346435546875,6.34765625,-28.322219848632812,46.51348464677306
1782416696.930516,-0.08544921875,-0.55322265625,0.70751953125,0.9021866566700656,29.937744140625,8.1787109375,-24.049758911132812,39.262587032852544
1782416696.941212,0.044921875,0.1416015625,0.4902343451976776,0.512248660874143,25.421142578125,8.4228515625,-19.903182983398438,33.36638445040022
1782416696.951908,-0.0068359337747097015,-0.712890625,0.7260741591453552,1.017567421737792,19.010543823242188,26.243209838867188,-11.541366577148438,34.39927298025855
1782416696.962604,0.0024414099752902985,-0.4960937201976776,0.78271484375,0.9266916781372465,19.010543823242188,25.571823120117188,-19.533157348632812,37.37463244164977
1782416696.970602,-0.0947265625,-0.73583984375,0.73486328125,1.0442497016626853,18.096923828125,24.5361328125,-15.687942504882812,34.287490509952846
1782416696.978601,-0.1591796875,-0.43408203125,0.7109375,0.8480551348072681,12.296676635742188,16.599655151367188,-17.156600952148438,26.853412514233263
1782416696.986598,-0.10986328125,-0.5439453125,0.8105468153953552,0.9823098205277657,8.453369140625,1.3427734375,-13.189315795898438,15.723248439685186
1782416696.994596,-0.1210937350988388,-0.55908203125,0.9077147841453552,1.072931749787871,3.265380859375,-11.65771484375,-14.589309692382812,18.95819044200202
1782416697.005277,-0.4780273139476776,-0.15185546875,1.08544921875,1.1957299873944365,8.880615234375,-19.8974609375,-5.9871673583984375,22.596912436831353
1782416697.015958,-0.0253906212747097,-0.4306640625,0.7749022841453552,0.8868989617489742,8.636474609375,-28.74755859375,-6.7768096923828125,30.772324715338655
1782416697.026639,0.0341796875,-0.54052734375,0.8081054091453552,0.9728167415649313,3.509521484375,-18.12744140625,-6.9637298583984375,19.73358574935297
1782416697.037285,-0.0166015587747097,-0.28857421875,0.8813475966453552,0.9275366718321528,-11.566162109375,-1.8310546875,0.1201629638671875,11.710820054413057
1782416697.047935,0.0073242224752902985,-0.6884765625,0.9853515028953552,1.2020695510679984,-6.195068359375,-5.615234375,-7.5092315673828125,11.238251100419914
1782416697.058583,0.21484375,-0.5068359375,0.9555663466453552,1.10279079942513,8.329391479492188,15.501022338867188,-13.612747192382812,22.247861517287966
1782416697.069236,-0.1171874925494194,-0.38916015625,0.7744140028953552,0.8745830912514555,1.922607421875,52.3681640625,-11.781692504882812,53.71153791184141
1782416697.079887,-0.0986328050494194,-0.42431640625,0.787109375,0.8996188143084394,-3.082275390625,38.63525390625,-7.5092315673828125,39.478751559752205
1782416697.090539,-0.14599609375,-0.5615234375,0.9033202528953552,1.0735971821605177,-3.9386749267578125,25.144577026367188,6.2808990478515625,26.214740259306136
1782416697.09855,-0.17138671875,-0.2470703125,0.8383788466453552,0.8906717898222304,-3.570556640625,13.24462890625,7.5664520263671875,15.665894990567901
1782416697.106561,-0.16455078125,-0.50830078125,0.77685546875,0.9428420138899878,-8.148193359375,-9.94873046875,-3.9691925048828125,13.458260738387235
1782416697.114572,-0.0322265587747097,-0.47021484375,0.9189452528953552,1.03276373299618,-9.918212890625,-21.05712890625,-5.0106048583984375,23.809237404108416
1782416697.122583,0.0009765625,-0.50439453125,0.8798827528953552,1.0142033601166645,-9.370803833007812,-7.7533721923828125,-2.1381378173828125,12.349023368528036
1782416697.133245,-0.0776367112994194,-0.56689453125,0.8476561903953552,1.0227012690019082,-8.333206176757812,5.2471160888671875,5.5522918701171875,11.304976667175074
1782416697.143907,-0.0976562425494194,-0.47216796875,0.8613280653953552,0.9870994725254781,-6.561279296875,4.69970703125,3.7212371826171875,8.887363971418853
1782416697.154569,-0.033203125,-0.44873046875,0.8085936903953552,0.9253568161750039,-5.157470703125,2.13623046875,-3.9691925048828125,6.849633114994293
1782416697.165236,0.0830078125,-0.48486328125,0.8515624403953552,0.983433418352582,-7.659912109375,15.625,-19.044876098632812,25.797716645773615
1782416697.175905,-0.0307617150247097,-0.537109375,0.8964843153953552,1.0455223056319893,-8.516311645507812,28.013229370117188,-20.574569702148438,35.78521345772263
1782416697.186574,0.009765625,-0.60791015625,0.9750975966453552,1.1491150719084178,-8.636474609375,31.494140625,-26.369094848632812,41.973786468721734
1782416697.194572,-0.0610351525247097,-0.6435546875,1.05078125,1.2337054595804056,-3.753662109375,37.65869140625,-22.710800170898438,44.13669065601776
1782416697.202571,0.0908203125,-0.6123046875,0.9814452528953552,1.1603448383682748,3.631591796875,45.47119140625,-25.697708129882812,52.356374110623804
1782416697.21057,-0.0395507775247097,-0.51025390625,0.8745116591453552,1.0132590758672506,7.781982421875,55.11474609375,-23.744583129882812,60.51445873016479
1782416697.21857,-0.2294921875,-0.92041015625,1.197265625,1.5275033540579626,5.279541015625,51.26953125,-19.716262817382812,55.183053625316035
1782416697.229242,-0.1533203125,-0.4965820014476776,0.9155272841453552,1.0527540122941583,15.714645385742188,24.473190307617188,-28.264999389648438,40.55610082255569
1782416697.239915,-0.0283203125,-0.45263671875,0.8647460341453552,0.9764567286014184,17.000198364257812,19.834518432617188,-33.02574157714844,42.10836582673966
1782416697.250588,0.08935546875,-0.43017578125,1.0634765625,1.150659811393618,21.757125854492188,29.417037963867188,-25.697708129882812,44.711372727131305
1782416697.258606,-0.07080078125,-0.8447265625,0.9941405653953552,1.3064804551860978,29.449462890625,9.6435546875,-42.78755187988281,52.83032848119313
1782416697.266626,0.09716796875,-0.556640625,0.9628905653953552,1.1164446428187913,34.08622741699219,18.064498901367188,-33.38813781738281,51.019258785217126
1782416697.274646,-0.0322265587747097,-0.201171875,0.7309569716453552,0.7588193255172302,39.215087890625,25.7568359375,-29.241561889648438,55.28387339475116
1782416697.282666,-0.08056640625,-0.37548828125,0.69384765625,0.7930365472383586,36.71073913574219,-4.2133331298828125,-31.740188598632812,48.712114676255446
1782416697.29332,-0.31787109375,-0.3935546875,0.63525390625,0.8120805684788472,24.993896484375,-31.73828125,-37.84370422363281,55.354848997549965
1782416697.303974,-0.5859375,-0.44775390625,0.7080078125,1.0222922170443336,21.207809448242188,-28.505325317382812,-28.139114379882812,45.3225607300261
1782416697.314628,-0.51123046875,-0.5625,0.4936523139476776,0.906341794934031,12.542724609375,-40.0390625,-11.724472045898438,43.565005580862504
1782416697.3253,-0.28125,-0.5078125,0.4931640326976776,0.761699324407529,5.0373077392578125,-47.48725891113281,-12.212753295898438,49.290623562899135
1782416697.335972,0.099609375,-0.4423828125,0.4848632514476776,0.6638651617517782,-13.887405395507812,-33.08296203613281,-11.907577514648438,37.80387292289965
1782416697.346644,0.19140625,-0.318359375,0.55908203125,0.6712389752212539,-35.430908203125,-6.8359375,-5.8612823486328125,36.557269159123074
1782416697.354645,0.2685546875,-0.27880859375,0.69677734375,0.7970912864223149,-51.361083984375,11.16943359375,-20.143508911132812,56.28923650315485
1782416697.362644,-0.6083984375,-0.6318359375,1.26171875,1.536652047397363,-45.74394226074219,0.8525848388671875,-21.425247192382812,50.52005910246235
1782416697.370645,-0.2919921875,-0.74755859375,1.10791015625,1.3680527047494961,-36.773681640625,18.85986328125,-0.7381439208984375,41.334525046762565
1782416697.378644,-0.1210937350988388,-0.9531249403953552,1.0068359375,1.3917002010940938,-18.709182739257812,16.176223754882812,16.843795776367188,29.923522351069277
1782416697.389285,0.35205078125,-0.5322265625,0.55224609375,0.8439079419412022,-27.496337890625,8.60595703125,9.763717651367188,30.421066322447682
1782416697.399926,-0.3222655951976776,-0.130859375,1.7666014432907104,1.8005165784602832,-15.596389770507812,2.8667449951171875,6.0405731201171875,16.969211070645343
1782416697.410568,-0.4257812201976776,0.8564452528953552,1.08642578125,1.4474491690020361,-14.862060546875,32.89794921875,5.2471160888671875,36.47859829747411
1782416697.421241,-0.6416015625,-0.61328125,0.8076171875,1.2000049908852104,-2.655029296875,34.0576171875,-11.541366577148438,36.05792023294853
1782416697.431914,-0.4086913764476776,-1.1220703125,0.54541015625,1.312837638825607,1.495361328125,-19.8974609375,13.177871704101562,23.91236834591569
1782416697.442587,-0.0737304612994194,-0.55615234375,0.642578125,0.853023010891593,-3.1452178955078125,-51.39350891113281,26.182174682617188,57.764101524389616
1782416697.453269,0.0302734375,-0.39453125,1.01904296875,1.0931696850916799,-15.472412109375,19.10400390625,30.088424682617188,38.85449525619753
1782416697.463951,-0.2480468600988388,-0.4306640625,0.8461913466453552,0.9813452881995086,-7.9021453857421875,32.77397155761719,12.689590454101562,36.022254499819034
1782416697.474633,-0.1708984225988388,-0.59423828125,0.7456054091453552,0.968634519257154,-6.8683624267578125,15.439987182617188,3.8394927978515625,17.329434831218112
1782416697.482634,0.0332031287252903,-0.57177734375,0.9374999403953552,1.0986072623209118,-9.490966796875,7.99560546875,3.1108856201171875,12.793973850713488
1782416697.490631,0.01171875,-0.48828125,0.77880859375,0.9192925181366253,-15.106201171875,17.51708984375,1.5201568603515625,23.18095397776461
1782416697.498629,-0.0385742112994194,-0.43115234375,0.74365234375,0.860464480186927,-17.669677734375,32.04345703125,-0.4901885986328125,36.595640923646386
1782416697.506627,-0.0576171875,-0.04736328125,0.5361328125,0.5412960496302711,-21.150588989257812,35.21919250488281,-4.5223236083984375,41.33025944882981
1782416697.514632,-0.1264648288488388,-0.31884765625,0.51513671875,0.6188885358741111,-32.684326171875,27.7099609375,-5.1937103271484375,43.16343057994368
1782416697.522637,-0.1840820163488388,-0.3447265625,0.63916015625,0.7491650665732119,-38.116455078125,17.63916015625,-6.8988800048828125,42.56287894471344
1782416697.530643,0.255859375,-0.8544921875,0.5126953125,1.028823309287556,-49.77607727050781,25.083541870117188,2.4394989013671875,55.7924107390894
1782416697.538647,-0.0390624925494194,-1.05029296875,0.6796875,1.2516454354912623,-73.455810546875,52.30712890625,-16.176223754882812,91.61583952833419
1782416697.549301,-0.5419921875,-0.65380859375,0.66748046875,1.08016266586802,-48.248291015625,31.494140625,-10.988235473632812,58.65594427216834
1782416697.559955,-0.54150390625,-0.591796875,0.4433593451976776,0.9165247027319492,-59.051513671875,-39.97802734375,-1.5926361083984375,71.32923963572749
1782416697.570609,-0.3950195014476776,-0.6728515625,0.515625,0.9352212424382068,-71.746826171875,-36.92626953125,8.417129516601562,81.12955390319249
1782416697.581269,-0.31494140625,-0.4248046875,-0.0556640662252903,0.5317382816399753,-51.849365234375,-85.44921875,-0.4329681396484375,99.950553383175
1782416697.591929,0.10205078125,-0.79541015625,0.6611328125,1.0393210641488726,-90.42549133300781,-88.07563781738281,6.8340301513671875,126.41515505612632
1782416697.602589,0.04443359375,-0.57275390625,0.7836913466453552,0.9716962015902831,-97.19657897949219,-57.31391906738281,16.050338745117188,113.97224950843157
1782416697.613259,0.014160163700580597,-0.921875,0.9458007216453552,1.3208304323136646,-102.996826171875,-17.39501953125,16.538619995117188,105.75660195616581
1782416697.623929,-0.0556640587747097,-0.9833983778953552,0.8974608778953552,1.3325189996541107,-98.541259765625,13.671875,21.299362182617188,101.73968189255514
1782416697.634599,-0.15576171875,-0.85693359375,0.83056640625,1.203510470380829,-96.649169921875,32.53173828125,27.582168579101562,105.64162089684724
1782416697.642622,-0.2031249850988388,-0.6103515625,0.7001953125,0.9508218892434942,-91.40205383300781,11.655807495117188,34.05570983886719,98.2343354733181
1782416697.650641,-0.4829101264476776,-0.54296875,0.3847655951976776,0.8222297835459973,-72.235107421875,-10.3759765625,44.61097717285156,85.53192923225836
1782416697.658661,-0.0874023362994194,-0.60205078125,0.5224609375,0.8019162941402993,-82.91816711425781,-63.90190124511719,35.39848327636719,110.50759267396943
1782416697.666681,-0.0434570237994194,-0.45458984375,0.7294921875,0.860638885120634,-90.60859680175781,-81.60209655761719,36.55815124511719,127.30011154528914
1782416697.677303,0.22314453125,-0.9970702528953552,1.1103515625,1.5089145646396886,-99.761962890625,-60.1806640625,31.671524047851562,120.73627045054671
1782416697.687925,-0.0063476525247097015,-0.78662109375,1.06494140625,1.323976297586459,-86.578369140625,-34.423828125,25.140762329101562,96.50322210329685
1782416697.698547,-0.06982421875,-0.71142578125,1.28515625,1.4705878588732069,-77.239990234375,-18.310546875,18.613815307617188,81.53383554435545
1782416697.70656,-0.2026367038488388,-0.6201171875,0.9980468153953552,1.1923524670584795,-56.121826171875,-22.705078125,8.726119995117188,61.16637242552227
1782416697.714573,-0.1611327975988388,-0.75146484375,1.18359375,1.4112254798200403,-58.868408203125,-23.0712890625,19.529342651367188,66.17529061341322
1782416697.722586,0.07177734375,-0.9267578125,0.9999999403953552,1.3652955397628401,-37.506103515625,-7.87353515625,21.665573120117188,44.023827814089806
1782416697.730599,-0.1298828125,-1.11865234375,0.8525390028953552,1.4124713670082254,-27.618408203125,8.60595703125,36.12709045410156,46.28180671470162
1782416697.741233,-0.12890625,-0.857421875,0.8237304091453552,1.19596023343937,-19.927978515625,15.625,41.44096374511719,48.565609528176715
1782416697.751867,-0.0961913987994194,-0.673828125,0.61767578125,0.9191411741331156,-17.608642578125,13.36669921875,34.29603576660156,40.803811228275016
1782416697.762501,-0.12890625,-0.7431640625,0.4516601264476776,0.8791510193950176,-20.601272583007812,3.2939910888671875,35.21537780761719,40.93147497300999
1782416697.770566,-0.1669921875,-0.77685546875,0.6201171875,1.007936573523219,-25.299072265625,-5.859375,37.96195983886719,45.99440974400809
1782416697.778632,-0.0991210862994194,-0.72900390625,0.7856444716453552,1.076340522745402,-22.920608520507812,-3.4198760986328125,41.00990295410156,47.104797927442625
1782416697.786698,-0.0986328050494194,-0.7734375,0.8598632216453552,1.160731991708894,-15.167236328125,-0.18310546875,42.96302795410156,45.5620495196473
1782416697.794764,-0.08984375,-0.74658203125,0.7568359375,1.066891402669898,-7.843017578125,-1.40380859375,42.11235046386719,42.85946412276102
1782416697.805359,-0.13232421875,-0.828125,0.8046874403953552,1.1622489368559672,-2.044677734375,-4.638671875,41.44096374511719,41.74986778332935
1782416697.815954,-0.0791015625,-0.75048828125,0.77294921875,1.0802500693125439,4.6062469482421875,-2.7484893798828125,43.14613342285156,43.47827657764309
1782416697.826549,-0.0703125,-0.7578125,0.6376953125,0.992914369115974,7.354736328125,3.0517578125,42.65785217285156,43.39467391516214
1782416697.837217,-0.35986328125,-1.2666015625,1.01171875,1.6605288098738367,5.2776336669921875,-27.345657348632812,48.33793640136719,55.78704588427697
