timestamp,accel_x,accel_y,accel_z,accel_rms,gyro_x,gyro_y,gyro_z,gyro_rms
1781112071.588338,-0.0458984337747097,-0.1796875,0.9692382216453552,0.9868216628030985,1.758575439453125,0.78582763671875,2.4852752685546875,3.144313249561548
1781112071.596328,-0.0488281212747097,-0.17626953125,0.9677733778953552,0.9849063123146782,1.941680908203125,0.66375732421875,2.8553009033203125,3.5161686226966333
1781112071.604318,-0.0483398362994194,-0.169921875,0.9658202528953552,0.9818446640277769,1.5163421630859375,0.6008148193359375,3.7670135498046875,4.104955917802033
1781112071.620342,-0.05126953125,-0.17822265625,0.9721679091453552,0.9896980972031078,1.3332366943359375,0.3566741943359375,3.9501190185546875,4.184277336025477
1781112071.628374,-0.0424804650247097,-0.1748046875,0.9692382216453552,0.9857910523934263,1.3942718505859375,1.0890960693359375,4.1980743408203125,4.555650602563066
1781112071.636405,-0.0483398362994194,-0.19482421875,0.9624022841453552,0.9831131026047815,1.2722015380859375,1.8215179443359375,4.0149688720703125,4.5887252498640185
1781112071.644438,-0.0449218712747097,-0.17724609375,0.9609374403953552,0.9781793887738752,0.5397796630859375,2.1305084228515625,3.0384063720703125,3.7499788674551353
1781112071.652569,-0.0419921837747097,-0.1796875,0.9687499403953552,0.9861680324216676,0.2346038818359375,2.7370452880859375,2.7332305908203125,3.875178105971631
1781112071.660702,-0.0356445275247097,-0.177734375,0.9599608778953552,0.976926265123792,0.0514984130859375,2.9811859130859375,2.4280548095703125,3.845201125196175
1781112071.668833,-0.0517578087747097,-0.17529296875,0.9492186903953552,0.966655376987177,-0.5588531494140625,3.0422210693359375,1.5735626220703125,3.470378250695205
1781112071.676965,-0.0390624925494194,-0.16845703125,0.9565429091453552,0.9720483458851191,-0.682830810546875,2.86102294921875,0.9021759033203125,3.0766266579356487
1781112071.687448,-0.0444335862994194,-0.1689453125,0.9667968153953552,0.9824525151200699,-0.988006591796875,2.43377685546875,0.4749298095703125,2.6692667779126027
1781112071.697932,-0.0429687462747097,-0.16796875,0.9653319716453552,0.9807780735791822,-1.2302398681640625,2.1305084228515625,0.1087188720703125,2.462595392305854
1781112071.708415,-0.0522460900247097,-0.181640625,0.9604491591453552,0.9788695305689521,-0.988006591796875,1.57928466796875,-0.0743865966796875,1.864357919950144
1781112071.719118,-0.0502929650247097,-0.181640625,0.9770507216453552,0.9950632199257878,-1.0471343994140625,1.0280609130859375,-0.3795623779296875,1.51573984911362
1781112071.729822,-0.0585937425494194,-0.18994140625,0.9594725966453552,0.9798462268068167,-1.354217529296875,0.96893310546875,-0.3795623779296875,1.7078653571836064
1781112071.740526,-0.0551757775247097,-0.1953125,0.9770507216453552,0.9979075366733211,-1.2302398681640625,0.2346038818359375,-0.2574920654296875,1.278605208167113
1781112071.748534,-0.0395507737994194,-0.18896484375,0.9824218153953552,1.0012115656774547,-0.865936279296875,-0.37384033203125,0.1087188720703125,0.9494324761666791
1781112071.756542,-0.0556640587747097,-0.1865234375,0.9838866591453552,1.0029568476361779,-0.55694580078125,-0.49591064453125,0.1659393310546875,0.763971108065053
1781112071.76455,-0.0556640587747097,-0.17919921875,0.9853515028953552,1.0030595354703629,-0.133514404296875,-0.67901611328125,0.5970001220703125,0.9139464557632972
1781112071.772558,-0.0512695275247097,-0.16796875,0.9931640028953552,1.0085716643235099,0.293731689453125,-0.86212158203125,0.9632110595703125,1.3256347433858304
1781112071.783478,-0.06591796875,-0.18115234375,0.9760741591453552,0.9949281956008466,0.5397796630859375,-0.6198883056640625,1.2073516845703125,1.4605894996250663
1781112071.794396,-0.0585937462747097,-0.181640625,0.9809569716453552,0.9993513516138965,1.0280609130859375,0.1773834228515625,1.6307830810546875,1.9359306746812623
1781112071.805315,-0.0581054612994194,-0.16552734375,0.9838866591453552,0.9994040745394014,1.2722015380859375,0.3566741943359375,2.1228790283203125,2.5004656772880547
1781112071.81582,-0.0566406212747097,-0.19140625,0.9799804091453552,1.0001030521032048,1.5163421630859375,0.6656646728515625,3.0994415283203125,3.5141059744565575
1781112071.826324,-0.0561523400247097,-0.1826171875,0.9765624403953552,0.9950760385275049,1.453399658203125,0.60272216796875,3.4046173095703125,3.750608431021786
1781112071.836829,-0.0703125,-0.18212890625,0.9692382216453552,0.988704969364634,1.57928466796875,0.96893310546875,3.7670135498046875,4.198018879157953
1781112071.844802,-0.0502929650247097,-0.16552734375,0.9545897841453552,0.9701393404323851,1.3942718505859375,0.4177093505859375,4.2552947998046875,4.497333535346036
1781112071.852777,-0.0727538987994194,-0.17578125,0.9663085341453552,0.9848575332525125,1.148223876953125,0.29754638671875,4.7435760498046875,4.8896283768948425
1781112071.860752,-0.0585937425494194,-0.177734375,0.9697265028953552,0.9876194738563246,0.8449554443359375,0.0514984130859375,4.9915313720703125,5.062804284961591
1781112071.868727,-0.0415039025247097,-0.18115234375,0.9570311903953552,0.974908941881471,0.7228851318359375,0.4825592041015625,5.5408477783203125,5.608602357255303
1781112071.879447,-0.0468749962747097,-0.169921875,0.9560546278953552,0.972168277819944,0.5397796630859375,0.1773834228515625,5.1097869873046875,5.141279025593925
1781112071.890167,-0.0507812462747097,-0.17529296875,0.9565429091453552,0.973797051188111,-0.194549560546875,0.23651123046875,5.1097869873046875,5.118955962818506
1781112071.900887,-0.0351562462747097,-0.18115234375,0.9619140028953552,0.9794542777814652,-0.499725341796875,0.17547607421875,4.7435760498046875,4.773052588243489
1781112071.911455,-0.0405273400247097,-0.18408203125,0.9667968153953552,0.9849998689224303,-0.865936279296875,-0.00762939453125,3.8928985595703125,3.988052537588747
1781112071.922025,-0.0419921837747097,-0.17626953125,0.9755858778953552,0.9922711808241307,-0.804901123046875,0.17547607421875,3.7670135498046875,3.856040554106953
1781112071.932595,-0.0532226487994194,-0.1884765625,0.9672850966453552,0.9869126218410913,-0.804901123046875,-0.00762939453125,3.4618377685546875,3.5541869339322507
1781112071.940543,-0.0341796837747097,-0.18212890625,0.9833983778953552,1.0007055305742925,-0.499725341796875,-0.06866455078125,2.9163360595703125,2.959637857934327
1781112071.948492,-0.0463867150247097,-0.1826171875,0.9702147841453552,0.9883407771995507,-0.5588531494140625,-0.4367828369140625,2.9163360595703125,3.0013517124093956
1781112071.956439,-0.0512695275247097,-0.1884765625,0.9741210341453552,0.993510829447188,-0.2536773681640625,-0.7991790771484375,2.4280548095703125,2.5687525304606513
1781112071.964387,-0.0537109300494194,-0.17919921875,0.9653319716453552,0.9832919401114263,-0.499725341796875,-0.55694580078125,2.2449493408203125,2.366370973683422
1781112071.975043,-0.0419921837747097,-0.17529296875,0.9697265028953552,0.9863368891048397,-0.621795654296875,-1.16729736328125,1.9969940185546875,2.395244889394201
1781112071.985699,-0.0498046837747097,-0.1826171875,0.9687499403953552,0.9870693950844152,-0.1316070556640625,-0.7991790771484375,1.8787384033203125,2.0458899292393395
1781112071.996355,-0.04248046875,-0.19384765625,0.9614257216453552,0.9816928859374148,-0.1316070556640625,-0.4367828369140625,1.4514923095703125,1.5214892666282664
1781112072.007046,-0.07177734375,-0.18310546875,0.9619140028953552,0.9818137036770919,-0.804901123046875,-0.55694580078125,1.7566680908203125,2.010954306839484
1781112072.017737,-0.0571289025247097,-0.17138671875,0.9628905653953552,0.9796914615300861,-0.9860992431640625,-0.4367828369140625,1.5735626220703125,1.9076871571534548
1781112072.028429,-0.0541992112994194,-0.18359375,0.9628905653953552,0.9817344144278168,-1.2302398681640625,-0.3757476806640625,1.9969940185546875,2.3754287113883152
1781112072.039077,-0.0429687462747097,-0.18115234375,0.9726561903953552,0.9903143690348757,-1.2912750244140625,-0.2536773681640625,2.2449493408203125,2.6022184648187667
1781112072.049727,-0.0610351525247097,-0.181640625,0.9721679091453552,0.9908728728076861,-1.476287841796875,-0.37384033203125,1.9397735595703125,2.466151627150811
1781112072.060377,-0.0400390550494194,-0.173828125,0.9731444716453552,0.9893581281134671,-1.5964508056640625,-0.3108978271484375,2.3670196533203125,2.8719496292650515
1781112072.071069,-0.0556640587747097,-0.18115234375,0.9760741591453552,0.9943014750249065,-1.964569091796875,-0.06866455078125,2.0618438720703125,2.848762308401929
1781112072.08176,-0.0610351525247097,-0.1826171875,0.9541015028953552,0.9733365321620782,-1.964569091796875,-0.31280517578125,1.9397735595703125,2.778506839445823
1781112072.092452,-0.0449218675494194,-0.1884765625,0.9550780653953552,0.9745334780269369,-2.3899078369140625,-0.0705718994140625,1.8787384033203125,3.0407725745344254
1781112072.100437,-0.0410156212747097,-0.1787109375,0.9707030653953552,0.9878685750334498,-2.3899078369140625,-0.3108978271484375,1.7566680908203125,2.9823144886438713
1781112072.108421,-0.0444335862994194,-0.17822265625,0.9721679091453552,0.9893675264350883,-2.0847320556640625,-0.0705718994140625,1.3256072998046875,2.4715021444853513
1781112072.116405,-0.0512695275247097,-0.1904296875,0.9790038466453552,0.9986693957863918,-2.2068023681640625,-0.1316070556640625,1.3256072998046875,2.577698939467244
1781112072.124389,-0.0405273400247097,-0.18896484375,0.9721679091453552,0.9911915158207277,-1.7795562744140625,-0.6198883056640625,1.2683868408203125,2.2715385145913007
1781112072.135043,-0.0595703050494194,-0.193359375,0.9663085341453552,0.9872632132851992,-1.2912750244140625,-0.2536773681640625,0.9021759033203125,1.5955139473931292
1781112072.145698,-0.0532226525247097,-0.1865234375,0.9726561903953552,0.9918083021395757,-0.804901123046875,0.29754638671875,0.6542205810546875,1.0790756409107924
1781112072.156352,-0.0537109300494194,-0.18505859375,0.9809569716453552,0.9997040198714454,-0.6198883056640625,0.2346038818359375,0.7190704345703125,0.9779380260244975
1781112072.164341,-0.0507812425494194,-0.18310546875,0.9716796278953552,0.9900846663532751,-0.133514404296875,0.48065185546875,0.4138946533203125,0.6481983387570839
1781112072.17233,-0.0551757775247097,-0.17919921875,0.9687499403953552,0.9867285206388183,0.3566741943359375,0.4177093505859375,0.1659393310546875,0.5737886754398286
1781112072.18032,-0.0351562462747097,-0.18701171875,0.9609374403953552,0.9795969114669227,0.4787445068359375,0.5397796630859375,-0.0743865966796875,0.7253218273789502
1781112072.188308,-0.0439453050494194,-0.1845703125,0.9697265028953552,0.9881127873425632,0.7228851318359375,0.2346038818359375,-0.1392364501953125,0.7726504282435511
1781112072.198988,-0.0444335900247097,-0.18115234375,0.9726561903953552,0.9903790084018379,0.843048095703125,-0.19073486328125,-0.3795623779296875,0.9440219692778455
1781112072.209668,-0.0405273362994194,-0.18310546875,0.9731444716453552,0.9910500695563272,1.09100341796875,-0.37384033203125,-0.5626678466796875,1.2832147745252493
1781112072.220348,-0.0498046837747097,-0.181640625,0.9707030653953552,0.9888064847806313,0.782012939453125,-0.49591064453125,-0.5016326904296875,1.05314147242393
1781112072.228369,-0.0366210900247097,-0.1884765625,0.9707030653953552,0.9895094542319207,0.782012939453125,-0.06866455078125,-0.9899139404296875,1.263403604341518
1781112072.23639,-0.0522460900247097,-0.185546875,0.9711913466453552,0.9901363181622792,0.476837158203125,0.23651123046875,-1.1730194091796875,1.2881326685917633
1781112072.244411,-0.0322265587747097,-0.1904296875,0.9794921278953552,0.9983520649454172,0.4177093505859375,0.1773834228515625,-1.2340545654296875,1.3148523303882138
1781112072.252432,-0.0449218675494194,-0.18310546875,0.9721679091453552,0.9902807836378208,0.537872314453125,0.78582763671875,-1.3561248779296875,1.6570776643917289
1781112072.263052,-0.0463867150247097,-0.18603515625,0.9711913466453552,0.9899360779820907,0.476837158203125,0.72479248046875,-1.5392303466796875,1.7668978112293157
1781112072.273672,-0.0546874962747097,-0.177734375,0.9833983778953552,1.000825958872297,0.4177093505859375,0.6008148193359375,-1.6613006591796875,1.815317996630746
1781112072.284292,-0.0532226487994194,-0.1904296875,0.9541015028953552,0.9743745655823275,-0.0095367431640625,0.5397796630859375,-1.4171600341796875,1.5165076975167382
1781112072.292316,-0.0512695275247097,-0.17333984375,0.9672850966453552,0.9840303471316805,0.2346038818359375,0.3566741943359375,-1.5392303466796875,1.5973370096561814
1781112072.30034,-0.0454101525247097,-0.18896484375,0.9707030653953552,0.9899667849446862,-0.6198883056640625,-0.3108978271484375,-1.2340545654296875,1.415559833028098
1781112072.308365,-0.0498046800494194,-0.18798828125,0.9658202528953552,0.9852049842266339,-0.316619873046875,-0.00762939453125,-1.2340545654296875,1.2740474960247705
1781112072.316388,-0.0439453087747097,-0.185546875,0.9726561903953552,0.9911704685370604,-0.5588531494140625,0.4177093505859375,-1.6040802001953125,1.7492487624221935
1781112072.32437,-0.0380859337747097,-0.18115234375,0.9750975966453552,0.992512988822392,-0.682830810546875,0.66375732421875,-1.5392303466796875,1.8099894368271348
1781112072.332352,-0.0434570275247097,-0.18603515625,0.9824218153953552,1.0008247678624618,-0.499725341796875,0.90789794921875,-1.6613006591796875,1.9580408534094684
1781112072.340334,-0.0395507775247097,-0.1875,0.9702147841453552,0.9889576539857646,-0.0705718994140625,1.0280609130859375,-1.9054412841796875,2.1662400886001385
1781112072.348316,-0.0502929650247097,-0.18603515625,0.9711913466453552,0.990126806773131,-0.0095367431640625,1.3332366943359375,-1.9054412841796875,2.3255789644839697
1781112072.35902,-0.0502929650247097,-0.1962890625,0.9775390028953552,0.9983192277872599,0.0514984130859375,0.9059906005859375,-1.7223358154296875,1.9467695590419232
1781112072.369725,-0.0541992150247097,-0.17529296875,0.9653319716453552,0.9826143675334653,0.0514984130859375,0.8449554443359375,-1.8444061279296875,2.0293929521430525
1781112072.380429,-0.0434570275247097,-0.19140625,0.9638671278953552,0.9836486700126152,0.2346038818359375,0.5397796630859375,-2.0923614501953125,2.1735633196014996
1781112072.391095,-0.0458984337747097,-0.18603515625,0.9711913466453552,0.989913318115658,0.171661376953125,0.29754638671875,-1.3561248779296875,1.3989553835368147
1781112072.401762,-0.0595703050494194,-0.17822265625,0.9916991591453552,1.0093459063641617,-0.0705718994140625,0.4177093505859375,-1.4820098876953125,1.5413678346781818
1781112072.412429,-0.0546874925494194,-0.1787109375,0.9736327528953552,0.9914076147246699,-0.0095367431640625,0.5397796630859375,-1.5392303466796875,1.6311600455783044
1781112072.420452,-0.0551757775247097,-0.17578125,0.9707030653953552,0.9880323149801113,-0.0705718994140625,0.6656646728515625,-1.3561248779296875,1.5123374405896641
1781112072.428475,-0.0527343712747097,-0.18212890625,0.9780272841453552,0.9962375323878837,-0.1926422119140625,0.3566741943359375,-1.0509490966796875,1.1264197736759525
1781112072.436498,-0.0615234375,-0.17822265625,0.9721679091453552,0.9902822285261277,0.4177093505859375,0.2346038818359375,-0.5016326904296875,0.6936536881233624
1781112072.444521,-0.0493164025247097,-0.17529296875,0.9707030653953552,0.9876356482119846,0.354766845703125,0.29754638671875,-0.3223419189453125,0.5641787657904853
1781112072.45248,-0.0615234337747097,-0.1650390625,0.9736327528953552,0.9894360831124454,0.5397796630859375,0.1773834228515625,-0.4405975341796875,0.7189945413623982
1781112072.460438,-0.0615234337747097,-0.19677734375,0.9770507216453552,0.9985662564819854,0.171661376953125,0.17547607421875,0.1659393310546875,0.29630278863275034
1781112072.468395,-0.0522460900247097,-0.181640625,0.9624022841453552,0.9807859741561651,-0.011444091796875,0.29754638671875,-0.0743865966796875,0.306917228666013
1781112072.476354,-0.0493163987994194,-0.17822265625,0.9672850966453552,0.9848024576449651,-0.06866455078125,0.48065185546875,0.2918243408203125,0.5664825439453125
1781112072.486999,-0.0624999962747097,-0.17529296875,0.9638671278953552,0.981668841649142,-0.1316070556640625,0.5397796630859375,0.6542205810546875,0.8583047654867499
1781112072.497645,-0.0527343712747097,-0.18115234375,0.9726561903953552,0.9907861274131076,-0.011444091796875,0.72479248046875,0.4138946533203125,0.8347238411763739
1781112072.508291,-0.0610351525247097,-0.18505859375,0.9692382216453552,0.9886327443811948,-0.194549560546875,0.66375732421875,0.4749298095703125,0.8390361380664783
1781112072.518979,-0.06591796875,-0.18212890625,0.9824218153953552,1.0013334811443453,-0.4367828369140625,-0.0057220458984375,1.0204315185546875,1.1099966092253553
1781112072.529669,-0.0385742112994194,-0.1728515625,0.9799804091453552,0.9958550269716779,-0.316619873046875,-0.06866455078125,0.6542205810546875,0.730046254163216
1781112072.540359,-0.0634765625,-0.18603515625,0.9643554091453552,0.9841847938754611,-0.3147125244140625,-0.4367828369140625,1.0852813720703125,1.2114697174129399
1781112072.551042,-0.0483398400247097,-0.18115234375,0.9628905653953552,0.9809745933035776,-0.316619873046875,-0.86212158203125,1.3904571533203125,1.6663951696497177
1781112072.561725,-0.0454101525247097,-0.1796875,0.9750975966453552,0.9925547856879817,-0.377655029296875,-1.10626220703125,1.0852813720703125,1.5950783831591775
1781112072.572408,-0.0405273400247097,-0.1943359375,0.9765624403953552,0.9965355597691504,-0.377655029296875,-0.86212158203125,1.0204315185546875,1.3882209577070628
1781112072.580392,-0.0419921837747097,-0.18505859375,0.9750975966453552,0.9933908342653682,-0.55694580078125,-0.98419189453125,0.7801055908203125,1.373822056562635
1781112072.588377,-0.0419921837747097,-0.17529296875,0.9667968153953552,0.9834566846841594,-0.133514404296875,-0.98419189453125,0.4749298095703125,1.1009169384809436
1781112072.596363,-0.0473632775247097,-0.17626953125,0.9682616591453552,0.9853146037057877,0.1125335693359375,-0.4367828369140625,0.5359649658203125,0.700500888962285
1781112072.604347,-0.0458984300494194,-0.18310546875,0.9809569716453552,0.9989548832588911,0.11444091796875,-0.49591064453125,-0.2574920654296875,0.5703737851831695
1781112072.615045,-0.0424804650247097,-0.1904296875,0.9814452528953552,1.0006512080744674,0.4177093505859375,-0.0705718994140625,-0.3223419189453125,0.5323211504939294
1781112072.625743,-0.0454101487994194,-0.197265625,0.9707030653953552,0.9915847162943594,0.3566741943359375,0.0514984130859375,-0.1964569091796875,0.4104435218394803
1781112072.636441,-0.0434570275247097,-0.181640625,0.9692382216453552,0.9870686704530363,0.4177093505859375,-0.0705718994140625,-0.3795623779296875,0.5687961790426103
1781112072.644419,-0.0439453087747097,-0.18115234375,0.9599608778953552,0.9778917367986314,0.354766845703125,-0.00762939453125,-0.4405975341796875,0.5657242345845538
1781112072.652398,-0.0463867150247097,-0.17724609375,0.9663085341453552,0.9835243201073182,0.2346038818359375,-0.0057220458984375,-0.2574920654296875,0.3483875527928643
1781112072.660377,-0.0566406212747097,-0.18505859375,0.9633788466453552,0.982625892831472,0.11444091796875,-0.00762939453125,-0.9288787841796875,0.935933078305056
1781112072.668356,-0.0502929650247097,-0.17138671875,0.9760741591453552,0.992281993107897,0.11444091796875,0.29754638671875,-0.6847381591796875,0.7553124668583865
1781112072.677985,-0.0434570275247097,-0.1865234375,0.9653319716453552,0.9841470019559114,0.41961669921875,-0.00762939453125,-0.3223419189453125,0.5291887136301178
1781112072.687614,-0.0551757775247097,-0.18212890625,0.9770507216453552,0.9954111801587257,-0.011444091796875,0.11444091796875,-0.5626678466796875,0.5743020082062589
1781112072.697243,-0.06396484375,-0.18212890625,0.9697265028953552,0.9887527143555352,0.293731689453125,0.05340576171875,-0.5016326904296875,0.5837515198108469
1781112072.706872,-0.0561523400247097,-0.17041015625,0.9638671278953552,0.9804246768011509,0.293731689453125,-0.00762939453125,-0.1392364501953125,0.32515119884892363
1781112072.716501,-0.0532226487994194,-0.177734375,0.9584960341453552,0.9762872558188194,0.171661376953125,-0.06866455078125,-0.4405975341796875,0.47781652963941573
1781112072.726092,-0.0439453087747097,-0.19189453125,0.9667968153953552,0.9866360947915712,0.0514984130859375,0.1773834228515625,-0.1964569091796875,0.2696521507745526
1781112072.735682,-0.0507812462747097,-0.18603515625,0.9687499403953552,0.9877571874454667,0.1125335693359375,-0.1316070556640625,-0.3795623779296875,0.41719518222013163
1781112072.745271,-0.0483398400247097,-0.1767578125,0.9736327528953552,0.9907274105040133,-0.0705718994140625,-0.0705718994140625,-0.0743865966796875,0.12447550658424172
1781112072.754861,-0.0468749962747097,-0.18408203125,0.9716796278953552,0.9900731077914074,-0.1316070556640625,0.0514984130859375,-0.2574920654296875,0.29372549669747766
1781112072.764451,-0.06591796875,-0.1904296875,0.9765624403953552,0.9971373247835051,-0.2536773681640625,0.1773834228515625,-0.1392364501953125,0.33941696316503284
1781112072.774036,-0.0551757775247097,-0.18115234375,0.9838866591453552,1.0019448568238587,-0.194549560546875,-0.00762939453125,-0.6275177001953125,0.6570283123491024
1781112072.783619,-0.05712890625,-0.1884765625,0.9736327528953552,0.9933518329633895,0.4177093505859375,-0.0705718994140625,-0.4405975341796875,0.6112181948200291
1781112072.793202,-0.0463867150247097,-0.1884765625,0.9658202528953552,0.9851314139978726,0.3566741943359375,-0.0705718994140625,-0.4405975341796875,0.5712469352366975
1781112072.802786,-0.0488281212747097,-0.18701171875,0.9716796278953552,0.9907163406565488,0.293731689453125,-0.37384033203125,-0.5016326904296875,0.6911369295226156
1781112072.812368,-0.0439453050494194,-0.18359375,0.9692382216453552,0.9874515609249902,0.049591064453125,-0.19073486328125,-0.8106231689453125,0.834235568514944
1781112072.821988,-0.0454101487994194,-0.18359375,0.9746093153953552,0.992790040395476,0.4177093505859375,0.0514984130859375,-0.6275177001953125,0.7555869587120397
1781112072.831608,-0.0498046837747097,-0.1875,0.9653319716453552,0.9846332169933166,0.1125335693359375,0.2346038818359375,-0.5626678466796875,0.6199176487946871
1781112072.841228,-0.0615234337747097,-0.1787109375,0.9755858778953552,0.993725584472097,0.1735687255859375,0.2346038818359375,-0.6275177001953125,0.6920574744430055
1781112072.850848,-0.0512695275247097,-0.17626953125,0.9643554091453552,0.9816724847155528,0.1735687255859375,-0.2536773681640625,-0.4405975341796875,0.537219225964031
1781112072.860468,-0.0581054650247097,-0.1767578125,0.9677733778953552,0.9854972756474312,0.2346038818359375,-0.4367828369140625,-0.2574920654296875,0.5586773592642121
1781112072.870049,-0.0371093712747097,-0.18701171875,0.9609374403953552,0.9796689505847422,0.1125335693359375,-0.2536773681640625,-0.3223419189453125,0.42534729816407435
1781112072.87963,-0.0561523400247097,-0.1943359375,0.9697265028953552,0.9906003393457474,-0.011444091796875,-0.37384033203125,-0.1964569091796875,0.4224723402244537
1781112072.889211,-0.0507812425494194,-0.18310546875,0.9809569716453552,0.9991911366203398,0.2346038818359375,-0.4940032958984375,0.1087188720703125,0.5575823086103527
1781112072.898793,-0.0527343712747097,-0.18017578125,0.9726561903953552,0.9906080409411142,0.11444091796875,-0.37384033203125,0.2307891845703125,0.4540010630751818
1781112072.908374,-0.0424804650247097,-0.18212890625,0.9741210341453552,0.9919109423556901,0.476837158203125,0.11444091796875,0.3490447998046875,0.6019158341657549
1781112072.916375,-0.0493163987994194,-0.2021484375,0.9833983778953552,1.0051708648888757,0.5397796630859375,0.3566741943359375,-0.1964569091796875,0.6761463471400214
1781112072.924378,-0.0449218712747097,-0.18017578125,0.9755858778953552,0.9931007460558674,0.354766845703125,0.60272216796875,-0.7457733154296875,1.0224046970637817
1781112072.932381,-0.0463867150247097,-0.1884765625,0.9584960341453552,0.9779518338931493,0.3566741943359375,1.0280609130859375,-0.3795623779296875,1.1524726984444884
1781112072.940385,-0.0556640587747097,-0.1962890625,0.9609374403953552,0.9823587164829252,0.3566741943359375,0.8449554443359375,-0.5016326904296875,1.0453714841748163
1781112072.951038,-0.0390624925494194,-0.18505859375,0.9589843153953552,0.9774576607808643,0.11444091796875,0.78582763671875,-0.5016326904296875,0.939285448862183
1781112072.961692,-0.0507812462747097,-0.17626953125,0.9614257216453552,0.9787691764975026,-0.3147125244140625,0.2346038818359375,-0.6275177001953125,0.7401766130147429
1781112072.972346,-0.0546874962747097,-0.1748046875,0.9599608778953552,0.9772779993995517,-0.7419586181640625,0.3566741943359375,-0.6847381591796875,1.070787289152193
1781112072.982993,-0.0507812462747097,-0.1875,0.9672850966453552,0.9865979136230864,-0.682830810546875,0.23651123046875,-0.4405975341796875,0.8463578823967822
1781112072.993641,-0.0439453050494194,-0.197265625,0.9653319716453552,0.986260985806108,-1.2302398681640625,0.2346038818359375,-0.3795623779296875,1.3086621845734137
1781112073.00429,-0.0449218675494194,-0.18408203125,0.9736327528953552,0.9918996450870629,-1.171112060546875,0.17547607421875,-0.3223419189453125,1.227273247362183
1781112073.012355,-0.0468749962747097,-0.18701171875,0.9760741591453552,0.994932868276496,-0.988006591796875,0.11444091796875,-0.5016326904296875,1.1139520210706266
1781112073.02042,-0.0478515587747097,-0.1904296875,0.9672850966453552,0.9870125104327357,-0.499725341796875,0.23651123046875,-0.3795623779296875,0.6706195479640336
1781112073.028485,-0.0551757775247097,-0.19091796875,0.9775390028953552,0.997535232159109,-0.55694580078125,-0.19073486328125,-0.5016326904296875,0.7734363381601046
1781112073.03655,-0.0556640587747097,-0.189453125,0.9770507216453552,0.9968044375298745,-0.4367828369140625,-0.2536773681640625,-0.3223419189453125,0.5991959332728221
1781112073.044544,-0.0605468712747097,-0.1787109375,0.9619140028953552,0.9802459241279459,-0.316619873046875,-0.55694580078125,-0.3223419189453125,0.7171757676646873
1781112073.052536,-0.0478515587747097,-0.1865234375,0.9545897841453552,0.9738184740538977,-0.4367828369140625,-0.4940032958984375,-0.5626678466796875,0.8668411669206603
1781112073.060529,-0.05224609375,-0.19384765625,0.9746093153953552,0.995072804271705,-0.2536773681640625,-0.3757476806640625,-0.2574920654296875,0.5213834389413554
1781112073.068522,-0.0585937462747097,-0.19091796875,0.9619140028953552,0.982426306070993,-0.0705718994140625,-0.6198883056640625,-0.4405975341796875,0.7637853701212086
1781112073.079171,-0.0454101525247097,-0.1845703125,0.9692382216453552,0.987699859525613,-0.499725341796875,-0.19073486328125,-0.1392364501953125,0.5527133021448936
1781112073.08982,-0.0458984337747097,-0.1884765625,0.9697265028953552,0.9889386084345394,-0.6198883056640625,-0.2536773681640625,-0.5016326904296875,0.8368088639142359
1781112073.10047,-0.0454101487994194,-0.1923828125,0.9785155653953552,0.9982814933075677,-0.55694580078125,-0.00762939453125,-0.0743865966796875,0.5619432341743851
1781112073.111122,-0.0488281175494194,-0.1796875,0.9619140028953552,0.9797705505299877,-0.316619873046875,0.29754638671875,-0.4405975341796875,0.618795752557194
1781112073.121775,-0.0458984337747097,-0.17578125,0.9887694716453552,1.0053212333042454,-0.1316070556640625,0.2346038818359375,-0.3795623779296875,0.4652171506003332
1781112073.132429,-0.0605468712747097,-0.17578125,0.9658202528953552,0.9835515911102817,0.0514984130859375,0.1773834228515625,-0.2574920654296875,0.3168897742309659
1781112073.143063,-0.0483398362994194,-0.17919921875,0.9672850966453552,0.9849312452990204,0.60272216796875,0.17547607421875,-0.1964569091796875,0.6577698545453495
1781112073.153701,-0.056640625,-0.17822265625,0.9648436903953552,0.9827994823446563,0.659942626953125,-0.19073486328125,-0.0133514404296875,0.6870824695058492
1781112073.16434,-0.0483398362994194,-0.17822265625,0.9604491591453552,0.9780402048368361,0.3566741943359375,-0.4367828369140625,0.3490447998046875,0.6631952953682505
1781112073.172367,-0.0444335900247097,-0.17724609375,0.9770507216453552,0.9939912647200815,0.41961669921875,-0.00762939453125,-0.4405975341796875,0.6084920451816714
1781112073.180394,-0.0488281175494194,-0.17919921875,0.9677733778953552,0.9854348563081257,0.476837158203125,0.11444091796875,-0.5626678466796875,0.7463682099580062
1781112073.188421,-0.0356445237994194,-0.19287109375,0.9838866591453552,1.0032461058610778,0.5397796630859375,0.0514984130859375,-0.7457733154296875,0.9220585714793428
1781112073.196449,-0.0551757775247097,-0.18505859375,0.9790038466453552,0.997867516904216,1.148223876953125,0.17547607421875,-1.0509490966796875,1.5664303138155686
1781112073.204444,-0.0434570275247097,-0.1865234375,0.9746093153953552,0.9932486212593012,1.636505126953125,0.17547607421875,-1.3561248779296875,2.13260769193654
1781112073.21244,-0.0507812462747097,-0.19677734375,0.9780272841453552,0.9989181280361558,1.3942718505859375,0.1773834228515625,-1.0509490966796875,1.7549794516890282
1781112073.220437,-0.0522460900247097,-0.1767578125,0.9746093153953552,0.9918852231271813,1.636505126953125,0.11444091796875,-1.3561248779296875,2.1284549416863876
1781112073.228432,-0.0361328087747097,-0.1787109375,0.9682616591453552,0.9852785492554857,1.8825531005859375,-0.1316070556640625,-1.4171600341796875,2.3600146516711424
1781112073.239078,-0.0566406212747097,-0.1953125,0.9731444716453552,0.9941656277142922,2.1877288818359375,-0.4940032958984375,-1.0509490966796875,2.476830821955648
1781112073.249724,-0.0683593675494194,-0.19384765625,0.9531249403953552,0.9750369577452047,2.0046234130859375,-0.5588531494140625,-0.8678436279296875,2.2547692639027375
1781112073.26037,-0.0732421875,-0.18212890625,0.9682616591453552,0.9879605240557552,1.636505126953125,-0.49591064453125,-0.4405975341796875,1.7658433070429789
1781112073.271031,-0.0624999962747097,-0.17578125,0.9692382216453552,0.9870299021226013,1.8825531005859375,-0.4367828369140625,-0.2574920654296875,1.9496378091603759
1781112073.281693,-0.0585937425494194,-0.18505859375,0.9677733778953552,0.9870487428438685,1.758575439453125,-0.31280517578125,0.1087188720703125,1.7894844082549397
1781112073.292354,-0.0400390587747097,-0.16650390625,0.9516600966453552,0.9669455085841809,1.57928466796875,-0.37384033203125,0.2918243408203125,1.6489566708163104
1781112073.300339,-0.0380859375,-0.1650390625,0.9638671278953552,0.9786359236321616,0.9059906005859375,-0.3108978271484375,0.5970001220703125,1.1286653946266163
1781112073.308324,-0.0366210900247097,-0.1650390625,0.9541015028953552,0.9689626794735968,0.60272216796875,-0.49591064453125,0.4749298095703125,0.9136518500713733
1781112073.316311,-0.0346679612994194,-0.17333984375,0.9604491591453552,0.976581361830622,0.11444091796875,-0.49591064453125,-0.1964569091796875,0.5455450560946968
1781112073.324296,-0.0351562462747097,-0.17236328125,0.9692382216453552,0.9850724809239396,-0.194549560546875,-0.25177001953125,-0.3223419189453125,0.452926028125007
1781112073.334985,-0.0444335900247097,-0.16552734375,0.9584960341453552,0.9736982555821843,-0.682830810546875,-0.00762939453125,-0.6275177001953125,0.9274128463372878
1781112073.345672,-0.0576171875,-0.18359375,0.9760741591453552,0.9948603768799845,-1.0471343994140625,-0.0705718994140625,-0.2574920654296875,1.080635464521873
1781112073.35636,-0.0410156212747097,-0.18603515625,0.9736327528953552,0.9920948029599289,-0.9250640869140625,-0.3108978271484375,-0.0743865966796875,0.9787412270816809
1781112073.367039,-0.0468749962747097,-0.18212890625,0.9711913466453552,0.9892324476918425,-1.171112060546875,-0.31280517578125,-0.0743865966796875,1.2144479824675376
1781112073.377717,-0.0375976525247097,-0.18115234375,0.9702147841453552,0.9876975663105104,-0.7419586181640625,-0.0057220458984375,-0.2574920654296875,0.7853900283530696
1781112073.388396,-0.0532226525247097,-0.17724609375,0.9711913466453552,0.9886665061031542,-0.5588531494140625,-0.3108978271484375,-0.0133514404296875,0.6396503439357972
1781112073.399031,-0.0561523400247097,-0.17626953125,0.9750975966453552,0.992491489092422,-0.8029937744140625,0.2346038818359375,0.2918243408203125,0.8860019351081818
1781112073.409666,-0.0405273362994194,-0.18310546875,0.9614257216453552,0.9795455558140088,-0.5588531494140625,0.4177093505859375,0.2918243408203125,0.7562799680489706
1781112073.420301,-0.0502929650247097,-0.1806640625,0.9687499403953552,0.9867346820832765,-0.55694580078125,0.48065185546875,0.2307891845703125,0.771024304991775
1781112073.428319,-0.0556640587747097,-0.18603515625,0.9643554091453552,0.9837118083809616,-0.988006591796875,0.17547607421875,0.3490447998046875,1.0624411279350943
1781112073.436333,-0.0522460900247097,-0.1826171875,0.9672850966453552,0.9857581596342454,-1.171112060546875,0.41961669921875,0.2307891845703125,1.2652451463397187
1781112073.444348,-0.0522460900247097,-0.17431640625,0.9775390028953552,0.994333126066124,-1.2302398681640625,0.1773834228515625,0.3490447998046875,1.2910411628579317
1781112073.452363,-0.0517578087747097,-0.1826171875,0.9682616591453552,0.9866907055964831,-0.8029937744140625,0.0514984130859375,0.5359649658203125,0.9668037716542488
1781112073.463003,-0.0527343712747097,-0.18701171875,0.9697265028953552,0.9890014091401607,-0.9250640869140625,0.2346038818359375,0.9632110595703125,1.3559343979519078
1781112073.473644,-0.0527343712747097,-0.19580078125,0.9619140028953552,0.9830551402734308,-0.804901123046875,-0.00762939453125,0.6542205810546875,1.0372697788996683
1781112073.484283,-0.0356445237994194,-0.1982421875,0.9663085341453552,0.9870778490797054,-0.4367828369140625,0.0514984130859375,0.7801055908203125,0.895542330659012
1781112073.492317,-0.0454101525247097,-0.18212890625,0.9819335341453552,0.9997132018350694,0.0514984130859375,-0.2536773681640625,0.5359649658203125,0.5951997465185817
1781112073.500354,-0.0366210900247097,-0.1796875,0.9648436903953552,0.9821161075894113,-0.011444091796875,-0.19073486328125,0.4138946533203125,0.4558722840391968
1781112073.508389,-0.0449218712747097,-0.17626953125,0.9760741591453552,0.9928794923439745,-0.377655029296875,0.05340576171875,0.2307891845703125,0.44580168713522517
1781112073.516425,-0.0458984337747097,-0.17919921875,0.9667968153953552,0.9843348558707968,-0.0705718994140625,0.0514984130859375,0.1659393310546875,0.18753224023659396
1781112073.527066,-0.0449218712747097,-0.19140625,0.9628905653953552,0.9827576344070144,-0.194549560546875,0.11444091796875,-0.2574920654296875,0.34241556473641616
1781112073.537708,-0.0385742150247097,-0.18603515625,0.9760741591453552,0.9943931886216069,-0.4367828369140625,-0.0057220458984375,0.0476837158203125,0.43941520818741886
1781112073.548348,-0.0341796800494194,-0.18408203125,0.9760741591453552,0.9938688087009868,-0.499725341796875,-0.25177001953125,-0.3795623779296875,0.6761517275792531
1781112073.559002,-0.0454101525247097,-0.18896484375,0.9741210341453552,0.993318470225031,-0.6198883056640625,-0.3108978271484375,-0.2574920654296875,0.7397439652906459
1781112073.569657,-0.04638671875,-0.18310546875,0.9658202528953552,0.9841179305679766,-0.25177001953125,-0.19073486328125,-0.5626678466796875,0.6452619905843203
1781112073.580312,-0.0498046800494194,-0.18359375,0.9653319716453552,0.9838968374146735,0.0514984130859375,-0.1316070556640625,-0.4405975341796875,0.4627079973116462
1781112073.58832,-0.0595703050494194,-0.18408203125,0.9741210341453552,0.9931498399724098,0.41961669921875,-0.19073486328125,0.0476837158203125,0.46339151814484947
1781112073.596328,-0.0576171837747097,-0.18505859375,0.9643554091453552,0.9836400653362802,0.659942626953125,-0.19073486328125,0.4749298095703125,0.835142133387606
1781112073.604337,-0.0444335900247097,-0.1904296875,0.9472655653953552,0.9672382649521335,0.60272216796875,0.11444091796875,0.4749298095703125,0.7758408725279776
1781112073.612344,-0.0551757775247097,-0.171875,0.9633788466453552,0.9801449812217533,0.2346038818359375,0.1125335693359375,0.5970001220703125,0.651238766776015
1781112073.622993,-0.0419921837747097,-0.177734375,0.9575194716453552,0.9747801752881569,0.2346038818359375,0.1773834228515625,0.3490447998046875,0.45643853074178686
1781112073.633642,-0.0375976525247097,-0.18701171875,0.9584960341453552,0.9772930030945539,-0.011444091796875,0.23651123046875,0.6542205810546875,0.695753618783568
1781112073.644291,-0.0458984337747097,-0.1796875,0.9711913466453552,0.9887400546544273,-0.0705718994140625,0.1773834228515625,0.1659393310546875,0.25294492143611413
1781112073.652374,-0.0366210900247097,-0.17578125,0.9711913466453552,0.9876501323267156,-0.0705718994140625,0.1773834228515625,-0.1392364501953125,0.236288088469217
1781112073.660455,-0.0483398362994194,-0.17822265625,0.9721679091453552,0.9895506548662943,-0.316619873046875,0.17547607421875,-0.3795623779296875,0.5245070022135857
1781112073.668535,-0.0297851525247097,-0.18603515625,0.9750975966453552,0.9931321954581022,-0.2536773681640625,0.2346038818359375,-0.7457733154296875,0.8219300618046064
1781112073.676616,-0.0434570275247097,-0.1865234375,0.9736327528953552,0.9922904027998495,-0.377655029296875,0.11444091796875,-0.9899139404296875,1.065668641893804
1781112073.687247,-0.0507812462747097,-0.19189453125,0.9716796278953552,0.9917477226410585,-0.133514404296875,-0.00762939453125,-1.0509490966796875,1.0594235732829027
1781112073.697879,-0.0424804650247097,-0.19140625,0.9594725966453552,0.9793000593082585,-0.194549560546875,-0.37384033203125,-0.9899139404296875,1.0758883468182228
1781112073.708509,-0.0483398400247097,-0.181640625,0.9775390028953552,0.9954459096131997,-0.011444091796875,-0.06866455078125,-1.3561248779296875,1.3579103329420745
1781112073.719156,-0.0566406212747097,-0.189453125,0.9731444716453552,0.9930311219919385,-0.0095367431640625,-0.1316070556640625,-1.1157989501953125,1.1235740580076163
1781112073.729804,-0.0590820275247097,-0.17138671875,0.9780272841453552,0.9946866149059519,-0.011444091796875,0.17547607421875,-1.0509490966796875,1.0655593947181596
1781112073.740451,-0.0463867150247097,-0.1748046875,0.9624022841453552,0.9792479576853624,0.2346038818359375,-0.2536773681640625,-0.4405975341796875,0.5599262233690763
1781112073.748429,-0.0566406212747097,-0.1826171875,0.9604491591453552,0.9792955552088527,-0.011444091796875,-0.19073486328125,-0.0133514404296875,0.19154377115823926
1781112073.756409,-0.0498046837747097,-0.18701171875,0.9809569716453552,0.99986522576563,-0.133514404296875,-0.37384033203125,0.4749298095703125,0.6189838560305737
1781112073.764389,-0.05712890625,-0.17822265625,0.9619140028953552,0.9799518233547465,-0.0705718994140625,-0.6198883056640625,0.7801055908203125,0.9989027166421561
1781112073.772369,-0.0507812462747097,-0.171875,0.9711913466453552,0.9875891769339269,-0.316619873046875,-0.80108642578125,0.9632110595703125,1.2921931553981245
1781112073.783043,-0.0317382775247097,-0.1826171875,0.9653319716453552,0.9829660069968618,-0.06866455078125,-0.67901611328125,0.9021759033203125,1.131237845530898
1781112073.793718,-0.0405273400247097,-0.18505859375,0.9633788466453552,0.9818288804949368,-0.2536773681640625,-0.3757476806640625,0.5359649658203125,0.7019949937355938
1781112073.804391,-0.0244140587747097,-0.17578125,0.9736327528953552,0.9896746089639793,-0.377655029296875,-0.19073486328125,-0.0743865966796875,0.4295770885297855
1781112073.812828,-0.033203125,-0.1845703125,0.9653319716453552,0.9833791045404728,-0.316619873046875,-0.06866455078125,-1.1730194091796875,1.2169377547165152
1781112073.821265,-0.0463867150247097,-0.1845703125,0.9746093153953552,0.9930162361424582,-0.3147125244140625,-0.4367828369140625,-1.2989044189453125,1.406049753458756
1781112073.829702,-0.0375976525247097,-0.19970703125,0.9687499403953552,0.9898347987528331,0.171661376953125,-0.06866455078125,-1.7871856689453125,1.796723424502207
1781112073.838139,-0.0405273400247097,-0.1845703125,0.9780272841453552,0.9961154722614068,0.1125335693359375,0.0514984130859375,-1.9054412841796875,1.9094560424985416
1781112073.848305,-0.0439453087747097,-0.17578125,0.9677733778953552,0.9845890254201766,0.293731689453125,-0.00762939453125,-1.6613006591796875,1.687085176640695
1781112073.858471,-0.0527343712747097,-0.18212890625,0.9643554091453552,0.9828190105779729,-0.0095367431640625,0.0514984130859375,-1.5392303466796875,1.540121130353135
1781112073.868637,-0.0488281212747097,-0.18212890625,0.9785155653953552,0.9965178551536499,-0.011444091796875,0.29754638671875,-1.3561248779296875,1.3884305902803529
1781112073.879331,-0.0561523400247097,-0.18115234375,0.9609374403953552,0.979474359689903,0.293731689453125,0.60272216796875,-0.8678436279296875,1.0966790230911225
1781112073.890023,-0.0454101487994194,-0.17822265625,0.9633788466453552,0.980777344242069,0.1125335693359375,0.3566741943359375,-0.9288787841796875,1.0013471330322021
1781112073.900716,-0.0478515587747097,-0.181640625,0.9707030653953552,0.9887100330711222,0.293731689453125,0.48065185546875,-0.0743865966796875,0.5681882410963164
1781112073.908643,-0.0507812462747097,-0.1865234375,0.9868163466453552,1.0055725879898054,0.0514984130859375,0.4825592041015625,0.7801055908203125,0.9187383767115708
1781112073.916569,-0.0419921837747097,-0.177734375,0.9663085341453552,0.9834149860140198,-0.2536773681640625,0.1125335693359375,1.0204315185546875,1.0574953878887403
1781112073.924495,-0.0498046837747097,-0.1904296875,0.9682616591453552,0.9880660974743353,-0.194549560546875,-0.00762939453125,0.8373260498046875,0.8596642675204185
1781112073.932421,-0.0429687462747097,-0.18505859375,0.9667968153953552,0.98528629267627,0.0514984130859375,-0.1316070556640625,0.7801055908203125,0.7928034034235993
1781112073.94307,-0.0385742112994194,-0.1875,0.9721679091453552,0.9908353361429052,-0.0705718994140625,-0.0705718994140625,0.2307891845703125,0.251444693100584
1781112073.953719,-0.02783203125,-0.19873046875,0.9780272841453552,0.9984016174395127,-0.011444091796875,-0.00762939453125,0.1087188720703125,0.1095854371812685
1781112073.964368,-0.0273437462747097,-0.17626953125,0.9604491591453552,0.9768731828699415,0.1125335693359375,-0.4367828369140625,-0.6275177001953125,0.7728010836616347
1781112073.975054,-0.0214843712747097,-0.16943359375,0.9736327528953552,0.9884988914564838,-0.06866455078125,-0.37384033203125,-1.2340545654296875,1.291263754949035
1781112073.985741,-0.046875,-0.18310546875,0.9721679091453552,0.9903713050584658,-0.316619873046875,-0.31280517578125,-1.5392303466796875,1.6022875154426652
1781112073.996428,-0.0454101525247097,-0.19140625,0.9731444716453552,0.9928285839888462,-0.194549560546875,-0.49591064453125,-1.8444061279296875,1.9197944847334478
1781112074.004433,-0.0478515625,-0.17333984375,0.9750975966453552,0.9915401133834746,-0.2536773681640625,-0.3108978271484375,-1.5392303466796875,1.590672727553954
1781112074.012439,-0.0546874962747097,-0.185546875,0.9682616591453552,0.9873950605719972,-0.194549560546875,0.05340576171875,-1.5392303466796875,1.5523954931116661
1781112074.020443,-0.0595703087747097,-0.19091796875,0.9741210341453552,0.9944395816959201,-0.1316070556640625,0.0514984130859375,-1.1157989501953125,1.1247132082926274
1781112074.028449,-0.0561523400247097,-0.17333984375,0.9887694716453552,1.005417751374701,-0.0705718994140625,-0.0705718994140625,-0.9288787841796875,0.9342251236575431
1781112074.039076,-0.0556640587747097,-0.18408203125,0.9794921278953552,0.998193122735962,-0.06866455078125,0.11444091796875,-0.9288787841796875,0.9384174657041798
1781112074.049705,-0.0571289025247097,-0.18603515625,0.9765624403953552,0.9957645258069657,0.0514984130859375,0.0514984130859375,-0.6275177001953125,0.6317298767346323
1781112074.060333,-0.0478515625,-0.1884765625,0.9741210341453552,0.9933403121840592,0.0514984130859375,0.1125335693359375,-0.3795623779296875,0.39922861810934224
1781112074.068352,-0.0546874962747097,-0.17138671875,0.9550780653953552,0.9718735723395417,-0.011444091796875,0.17547607421875,0.4138946533203125,0.44970168323836773
1781112074.07637,-0.0556640550494194,-0.18798828125,0.9799804091453552,0.9993996614070727,-0.0095367431640625,0.3566741943359375,0.4749298095703125,0.5940250452580772
1781112074.084388,-0.0468749962747097,-0.17919921875,0.9716796278953552,0.9891768924430152,0.3566741943359375,0.2346038818359375,0.8373260498046875,0.9398778516164761
1781112074.092407,-0.0410156212747097,-0.17626953125,0.9731444716453552,0.9898299811228001,0.293731689453125,0.11444091796875,0.5359649658203125,0.6217985796713321
1781112074.103051,-0.0498046837747097,-0.17578125,0.9692382216453552,0.9863073986722963,-0.0705718994140625,0.3566741943359375,0.4138946533203125,0.550913475910002
1781112074.113697,-0.0454101525247097,-0.19384765625,0.9707030653953552,0.9909104081368179,-0.011444091796875,0.17547607421875,0.2307891845703125,0.2901490437256503
1781112074.124341,-0.0454101525247097,-0.18017578125,0.9677733778953552,0.9854494939185626,-0.2536773681640625,0.3566741943359375,-0.0133514404296875,0.4378891971553796
1781112074.132355,-0.0341796800494194,-0.19287109375,0.9589843153953552,0.9787841572619063,-0.377655029296875,-0.25177001953125,0.2918243408203125,0.5396044011896117
1781112074.14037,-0.0395507775247097,-0.19189453125,0.9687499403953552,0.9883644176833111,-0.2536773681640625,-0.0057220458984375,-0.3795623779296875,0.45656603867080175
1781112074.148386,-0.0361328087747097,-0.201171875,0.9692382216453552,0.9905546090242658,-0.4367828369140625,-0.1316070556640625,-0.7457733154296875,0.8742296618911122
1781112074.1564,-0.0405273362994194,-0.18310546875,0.9682616591453552,0.9862559091050352,-0.377655029296875,-0.12969970703125,-0.7457733154296875,0.8459451360249102
1781112074.167074,-0.05615234375,-0.18310546875,0.9628905653953552,0.9817529930293883,-0.3147125244140625,-0.1316070556640625,-0.6847381591796875,0.7650037495074273
1781112074.177748,-0.0424804650247097,-0.18994140625,0.9697265028953552,0.9890661343583645,-0.377655029296875,-0.43487548828125,-0.3795623779296875,0.6897880907936278
1781112074.188422,-0.0424804650247097,-0.1865234375,0.9731444716453552,0.9917689979725367,-0.4367828369140625,0.0514984130859375,-0.4405975341796875,0.6225411796004239
1781112074.199144,-0.04296875,-0.1884765625,0.9907225966453552,1.0094062569610385,0.2346038818359375,0.1125335693359375,-0.2574920654296875,0.36606686460156873
1781112074.209867,-0.0473632775247097,-0.19189453125,0.9765624403953552,0.9963638849197975,0.1735687255859375,-0.1316070556640625,0.1659393310546875,0.27382910946969696
1781112074.22059,-0.0400390550494194,-0.18798828125,0.9736327528953552,0.9924230233762049,0.476837158203125,0.17547607421875,0.0476837158203125,0.5103325041782941
1781112074.231185,-0.0473632775247097,-0.1845703125,0.9672850966453552,0.9858752144700893,0.171661376953125,-0.19073486328125,0.6542205810546875,0.7027460317098154
1781112074.241781,-0.0517578087747097,-0.18017578125,0.9653319716453552,0.9833656483724231,0.476837158203125,0.41961669921875,0.5970001220703125,0.8717000604900971
1781112074.252375,-0.0473632775247097,-0.1796875,0.9624022841453552,0.9801780625184027,0.171661376953125,0.41961669921875,0.5970001220703125,0.7496365441683388
1781112074.260402,-0.052734375,-0.18408203125,0.9780272841453552,0.996596446445855,-0.06866455078125,0.11444091796875,0.4138946533203125,0.434879671043224
1781112074.26843,-0.0400390587747097,-0.185546875,0.9584960341453552,0.9771107493637577,-0.06866455078125,-0.00762939453125,0.5359649658203125,0.5403993641573546
1781112074.276459,-0.046875,-0.17822265625,0.9731444716453552,0.9904396718224302,0.1735687255859375,-0.1316070556640625,0.2918243408203125,0.36415376628191015
1781112074.284486,-0.0449218675494194,-0.18310546875,0.9775390028953552,0.9955541617872581,0.171661376953125,-0.49591064453125,0.1659393310546875,0.5503915490700414
1781112074.295117,-0.0424804650247097,-0.18505859375,0.9765624403953552,0.9948494725436481,0.537872314453125,-0.19073486328125,0.1659393310546875,0.5943250594724706
1781112074.305748,-0.03759765625,-0.1787109375,0.9721679091453552,0.989172192547725,0.6618499755859375,-0.4367828369140625,-0.1964569091796875,0.816957743075025
1781112074.316379,-0.0424804650247097,-0.1826171875,0.9667968153953552,0.9848094787001831,0.7228851318359375,-0.4940032958984375,-0.3223419189453125,0.9330093691369483
1781112074.324383,-0.0419921837747097,-0.1943359375,0.9746093153953552,0.9946824205532014,0.7228851318359375,0.1773834228515625,-0.7457733154296875,1.0536629587012087
1781112074.332386,-0.0400390587747097,-0.17919921875,0.9541015028953552,0.9716095738800388,0.4177093505859375,0.2346038818359375,-0.6847381591796875,0.8356951774278725
1781112074.340388,-0.0439453087747097,-0.16650390625,0.9531249403953552,0.9685566028702003,0.293731689453125,0.66375732421875,-0.7457733154296875,1.0406872387273758
1781112074.348392,-0.0522460900247097,-0.18212890625,0.9682616591453552,0.9866261870564795,-0.2536773681640625,0.7228851318359375,-0.6847381591796875,1.0275122712575715
1781112074.359029,-0.0522460900247097,-0.1875,0.9624022841453552,0.9818880081002451,-0.4367828369140625,0.6008148193359375,-0.5016326904296875,0.8963219565893153
1781112074.369666,-0.0458984337747097,-0.181640625,0.9589843153953552,0.977113555349459,-0.7419586181640625,0.6656646728515625,-0.2574920654296875,1.0295213506818348
1781112074.380302,-0.0444335900247097,-0.1708984375,0.9770507216453552,0.9928790120302347,-0.7419586181640625,0.4825592041015625,-0.0743865966796875,0.8882000575864905
1781112074.388314,-0.0600585900247097,-0.19189453125,0.9648436903953552,0.9855728751620255,-0.6809234619140625,0.3566741943359375,0.1087188720703125,0.7763330696514626
1781112074.396326,-0.0419921837747097,-0.1796875,0.9765624403953552,0.9938436200657278,-0.682830810546875,0.11444091796875,0.4749298095703125,0.8395909501394865
1781112074.404338,-0.0585937425494194,-0.18994140625,0.9702147841453552,0.990367452942792,-0.804901123046875,-0.00762939453125,0.4138946533203125,0.9051148046464469
1781112074.41235,-0.0478515587747097,-0.17578125,0.9672850966453552,0.9842912565500854,-0.621795654296875,-0.00762939453125,0.4138946533203125,0.7469918523053207
1781112074.420427,-0.0385742150247097,-0.1865234375,0.9658202528953552,0.9844225331149409,-0.7419586181640625,0.2346038818359375,0.1659393310546875,0.7956616328762453
1781112074.428503,-0.0527343712747097,-0.1904296875,0.9682616591453552,0.9882181036421073,-0.682830810546875,0.48065185546875,0.6542205810546875,1.060796253138739
1781112074.436578,-0.0517578087747097,-0.18896484375,0.9697265028953552,0.9893210163340698,-0.5588531494140625,-0.3108978271484375,0.1087188720703125,0.6486864378726267
1781112074.444654,-0.0498046837747097,-0.1845703125,0.9819335341453552,1.0003700176741774,-0.25177001953125,-0.19073486328125,0.2918243408203125,0.43003415759785063
1781112074.455202,-0.037109375,-0.1923828125,0.9716796278953552,0.9912363752027852,-0.5588531494140625,-0.2536773681640625,-0.3223419189453125,0.6932339882305312
1781112074.46575,-0.0346679650247097,-0.1953125,0.9711913466453552,0.9912423882451875,-0.377655029296875,-0.61798095703125,-0.0743865966796875,0.728050238769324
1781112074.476299,-0.0434570275247097,-0.18701171875,0.9833983778953552,1.0019652019098908,-0.194549560546875,-0.43487548828125,-0.4405975341796875,0.6489163343159569
1781112074.487134,-0.0297851525247097,-0.18603515625,0.9663085341453552,0.9845041482055966,-0.377655029296875,-0.49591064453125,-0.6275177001953125,0.8844937266996513
1781112074.497968,-0.0517578087747097,-0.18701171875,0.9697265028953552,0.9889498188162248,0.11444091796875,-0.00762939453125,-0.6275177001953125,0.6379133134093203
1781112074.508803,-0.052734375,-0.1845703125,0.9702147841453552,0.989021658982859,0.1735687255859375,0.0514984130859375,-0.4405975341796875,0.47634480807196505
1781112074.519303,-0.0546874925494194,-0.18408203125,0.9589843153953552,0.9780224093776005,-0.377655029296875,-0.00762939453125,-0.5016326904296875,0.6279465621546659
1781112074.529804,-0.0541992150247097,-0.16748046875,0.9692382216453552,0.9850939004076034,0.23651123046875,0.29754638671875,-0.3223419189453125,0.49837308022863
1781112074.540305,-0.0361328087747097,-0.18115234375,0.9653319716453552,0.9828466650484077,-0.011444091796875,0.17547607421875,-0.3223419189453125,0.3671881432857357
1781112074.550987,-0.0449218712747097,-0.1806640625,0.9721679091453552,0.9898322694122864,0.11444091796875,0.11444091796875,-0.1392364501953125,0.2134952844304812
1781112074.561666,-0.0488281212747097,-0.1708984375,0.9765624403953552,0.99260498757466,0.1125335693359375,0.0514984130859375,0.2918243408203125,0.3169816030514484
1781112074.572344,-0.0488281212747097,-0.17236328125,0.9663085341453552,0.9827743735530702,-0.133514404296875,0.11444091796875,0.2307891845703125,0.2901490437256503
1781112074.580349,-0.0449218675494194,-0.18310546875,0.9702147841453552,0.9883634525034315,0.0514984130859375,0.4177093505859375,0.4138946533203125,0.590289735777641
1781112074.588357,-0.04150390625,-0.18798828125,0.9663085341453552,0.9852991176711177,-0.2536773681640625,0.4177093505859375,0.7801055908203125,0.9205422540626149
1781112074.596365,-0.0449218712747097,-0.1875,0.9707030653953552,0.989665936408221,-0.4978179931640625,0.3566741943359375,0.9021759033203125,1.0903946972334864
1781112074.604373,-0.0317382775247097,-0.18701171875,0.9594725966453552,0.978043130400416,-0.682830810546875,0.23651123046875,0.6542205810546875,0.9747820508428935
1781112074.613981,-0.0405273400247097,-0.1904296875,0.9707030653953552,0.990035540947276,-0.865936279296875,0.29754638671875,0.1087188720703125,0.9220625169673369
1781112074.623594,-0.0380859375,-0.18310546875,0.9741210341453552,0.9919122645102375,-0.4367828369140625,0.1773834228515625,-0.3223419189453125,0.5710940710903758
1781112074.633205,-0.0366210900247097,-0.185546875,0.9760741591453552,0.9942280981787709,-0.804901123046875,-0.06866455078125,-0.6275177001953125,1.0229169577607586
1781112074.642817,-0.0517578087747097,-0.1865234375,0.9687499403953552,0.9878999496517753,-0.377655029296875,-0.12969970703125,-0.8678436279296875,0.9552998993485645
1781112074.652429,-0.0415039025247097,-0.19189453125,0.9604491591453552,0.9803104979298435,-0.377655029296875,0.23651123046875,-1.4171600341796875,1.4855650257619957
1781112074.663115,-0.0532226525247097,-0.18115234375,0.9755858778953552,0.993688395593274,-0.011444091796875,0.17547607421875,-1.1157989501953125,1.1295707667593213
1781112074.6738,-0.0488281175494194,-0.18798828125,0.9716796278953552,0.9909011445233096,-0.316619873046875,-0.00762939453125,-1.2340545654296875,1.2740474960247705
1781112074.684484,-0.04296875,-0.19775390625,0.9804686903953552,1.001135242491882,-0.194549560546875,0.11444091796875,-0.6275177001953125,0.6668768396585133
1781112074.69244,-0.0522460900247097,-0.185546875,0.9648436903953552,0.9839108921243142,-0.0705718994140625,0.1773834228515625,-0.6275177001953125,0.655914427153313
1781112074.700397,-0.0507812462747097,-0.18505859375,0.9687499403953552,0.9875737264173974,-0.0095367431640625,0.0514984130859375,-0.4405975341796875,0.4436994739074727
1781112074.708353,-0.0400390587747097,-0.1796875,0.9653319716453552,0.9827291281754721,-0.194549560546875,0.11444091796875,-0.3223419189453125,0.39351056901163245
1781112074.716309,-0.0351562462747097,-0.19189453125,0.9697265028953552,0.9891556819800615,-0.0705718994140625,0.2346038818359375,-0.2574920654296875,0.35541741392149817
1781112074.726993,-0.0458984337747097,-0.17724609375,0.9697265028953552,0.9868598352300394,-0.1316070556640625,0.3566741943359375,-0.2574920654296875,0.4591721482897239
1781112074.737678,-0.0600585900247097,-0.17724609375,0.9687499403953552,0.986660863215621,-0.06866455078125,0.29754638671875,-0.0743865966796875,0.3142961001173277
1781112074.748363,-0.0488281212747097,-0.18212890625,0.9697265028953552,0.9878889686278992,-0.316619873046875,0.48065185546875,0.0476837158203125,0.5775362213127447
1781112074.756366,-0.0493163987994194,-0.18798828125,0.9760741591453552,0.9952348794275574,-0.194549560546875,0.23651123046875,0.9021759033203125,0.9527373479499196
1781112074.764368,-0.04150390625,-0.18310546875,0.9741210341453552,0.9920493818780305,-0.0705718994140625,0.2346038818359375,0.8373260498046875,0.8724301049602318
1781112074.77237,-0.0488281175494194,-0.18798828125,0.9736327528953552,0.9928164565826539,0.1125335693359375,0.2346038818359375,0.7190704345703125,0.7646993366501078
1781112074.791033,-0.0327148400247097,-0.1826171875,0.9755858778953552,0.9930695358720373,-0.011444091796875,0.17547607421875,0.3490447998046875,0.3908389593310446
1781112074.801696,-0.0385742150247097,-0.1865234375,0.9692382216453552,0.9877761351135386,0.1735687255859375,-0.1316070556640625,0.0476837158203125,0.22298039455638793
1781112074.812357,-0.0371093712747097,-0.1875,0.9697265028953552,0.9883839566960098,0.0514984130859375,0.1773834228515625,-0.3795623779296875,0.42211913483345553
1781112074.823031,-0.0346679650247097,-0.17578125,0.9619140028953552,0.9784576968968471,0.5397796630859375,-0.0057220458984375,-0.7457733154296875,0.920637097067797
1781112074.833709,-0.0507812462747097,-0.181640625,0.9648436903953552,0.9831049783819281,0.41961669921875,0.48065185546875,-1.4820098876953125,1.6135233768543498
1781112074.844386,-0.0410156212747097,-0.19140625,0.9741210341453552,0.9935946974959303,0.1735687255859375,0.3566741943359375,-1.2989044189453125,1.3581219654222432
1781112074.85236,-0.0600585900247097,-0.19091796875,0.9580077528953552,0.9786907374829855,0.354766845703125,0.11444091796875,-0.8678436279296875,0.9445151142537831
1781112074.860335,-0.0541992150247097,-0.185546875,0.9667968153953552,0.9859316811981248,0.5397796630859375,-0.0057220458984375,-0.5016326904296875,0.736905816640199
1781112074.86831,-0.0502929650247097,-0.18994140625,0.9736327528953552,0.9932612232689808,0.41961669921875,-0.00762939453125,-0.1964569091796875,0.46339151814484947
1781112074.876286,-0.0502929650247097,-0.17919921875,0.9653319716453552,0.9831111624899271,0.293731689453125,-0.25177001953125,0.2918243408203125,0.4845904394630201
1781112074.887089,-0.0502929650247097,-0.1953125,0.9746093153953552,0.9952585958647279,0.1735687255859375,0.0514984130859375,0.8373260498046875,0.8566756111466104
1781112074.897893,-0.0498046800494194,-0.18896484375,0.9697265028953552,0.9892207583476715,0.0514984130859375,-0.0705718994140625,1.0852813720703125,1.0887920536540017
1781112074.908697,-0.0498046837747097,-0.19189453125,0.9780272841453552,0.9979185268258604,-0.194549560546875,0.17547607421875,0.9632110595703125,0.9982068570245201
1781112074.916607,-0.0356445275247097,-0.1806640625,0.9809569716453552,0.9980914868092453,-0.865936279296875,-0.06866455078125,1.0852813720703125,1.3901065127893353
1781112074.924517,-0.0263671837747097,-0.1826171875,0.9790038466453552,0.996239327319004,-0.4367828369140625,-0.2536773681640625,0.4138946533203125,0.653023918236142
1781112074.932427,-0.0283203125,-0.18408203125,0.9726561903953552,0.9903273696327034,-0.621795654296875,-0.00762939453125,-0.2574920654296875,0.6730454718090293
1781112074.940337,-0.0307617150247097,-0.171875,0.9711913466453552,0.9867623475462974,-0.499725341796875,0.23651123046875,-0.6847381591796875,0.880073477619132
1781112074.951001,-0.05224609375,-0.17919921875,0.9697265028953552,0.9875279766823821,-0.377655029296875,0.48065185546875,-0.9288787841796875,1.111964623096396
1781112074.961666,-0.0454101525247097,-0.18017578125,0.9726561903953552,0.9902451508670824,-0.4367828369140625,0.6008148193359375,-1.0509490966796875,1.2869544271528122
1781112074.972329,-0.06982421875,-0.19189453125,0.9624022841453552,0.9838277741433722,-0.1926422119140625,0.8449554443359375,-0.8106231689453125,1.1866636620184443
1781112074.980347,-0.0590820275247097,-0.18017578125,0.9604491591453552,0.9789875307829504,-0.1316070556640625,0.6656646728515625,-0.6847381591796875,0.9640001143256822
1781112074.988365,-0.0571289025247097,-0.1630859375,0.9575194716453552,0.972987293387705,0.1735687255859375,0.3566741943359375,-0.0743865966796875,0.4035789255799949
1781112074.996383,-0.0537109337747097,-0.17578125,0.9599608778953552,0.9773989970058977,-0.377655029296875,0.11444091796875,0.4749298095703125,0.6174774237794018
1781112075.004401,-0.0571289025247097,-0.1748046875,0.9824218153953552,0.9994863749148138,-0.194549560546875,-0.19073486328125,0.5970001220703125,0.6562304971059082
1781112075.015117,-0.0512695275247097,-0.18505859375,0.9755858778953552,0.9943053116232385,-0.194549560546875,-0.67901611328125,0.7190704345703125,1.0079557051168944
1781112075.025833,-0.0380859337747097,-0.1865234375,0.9692382216453552,0.9877571874638821,-0.011444091796875,-0.19073486328125,0.7190704345703125,0.7440248955385232
1781112075.036549,-0.029785148799419403,-0.18359375,0.9809569716453552,0.9984339739550594,0.0514984130859375,-0.0705718994140625,0.5970001220703125,0.6033586207963274
1781112075.047616,-0.0444335862994194,-0.18359375,0.9604491591453552,0.978848096454966,-0.2536773681640625,0.4825592041015625,0.1659393310546875,0.569869681745446
1781112075.058683,-0.0336913987994194,-0.18359375,0.9765624403953552,0.9942414069948282,-0.8029937744140625,0.5397796630859375,-0.1392364501953125,0.9775212915798317
1781112075.069751,-0.0390624962747097,-0.17529296875,0.9692382216453552,0.9857363916416249,-0.6198883056640625,0.5397796630859375,-0.4405975341796875,0.9326037654360244
1781112075.077422,-0.0375976525247097,-0.18994140625,0.9575194716453552,0.9769006397088685,-0.682830810546875,0.66375732421875,-0.7457733154296875,1.209549312468543
1781112075.085095,-0.0449218675494194,-0.193359375,0.9658202528953552,0.9860094233765548,-0.682830810546875,0.48065185546875,-0.9899139404296875,1.2950728672374714
1781112075.092768,-0.0581054650247097,-0.18115234375,0.9570311903953552,0.9757566889862486,-0.804901123046875,0.41961669921875,-0.6847381591796875,1.1370181787386455
1781112075.100441,-0.0576171875,-0.19384765625,0.9716796278953552,0.9925008581335758,-0.682830810546875,0.29754638671875,-0.8678436279296875,1.1436539383133555
1781112075.111094,-0.06591796875,-0.18994140625,0.9648436903953552,0.9855690048434365,-0.438690185546875,0.29754638671875,-0.7457733154296875,0.9149649005024858
1781112075.121745,-0.0493164025247097,-0.1953125,0.9628905653953552,0.9837364083643626,-0.4367828369140625,0.2346038818359375,-0.3223419189453125,0.591373435913834
1781112075.132397,-0.0419921837747097,-0.177734375,0.9663085341453552,0.9834149860140198,-0.5588531494140625,0.1773834228515625,-0.5626678466796875,0.8126357283553985
1781112075.143059,-0.0624999962747097,-0.1875,0.9658202528953552,0.9858353110115232,-0.5588531494140625,0.3566741943359375,0.5970001220703125,0.8921560789834785
1781112075.15372,-0.06640625,-0.18896484375,0.9736327528953552,0.9940212471185474,-0.4978179931640625,0.3566741943359375,0.8373260498046875,1.0373784983816692
1781112075.164382,-0.0502929650247097,-0.1748046875,0.9736327528953552,0.9904780656902692,-0.499725341796875,0.11444091796875,1.0852813720703125,1.2002740509993348
1781112075.175054,-0.0434570237994194,-0.1806640625,0.9736327528953552,0.991205707160272,0.0514984130859375,-0.0057220458984375,1.0852813720703125,1.0865175953119461
1781112075.185728,-0.052734375,-0.189453125,0.9672850966453552,0.9870733807935054,-0.011444091796875,-0.00762939453125,0.9021759033203125,0.9022807409170334
1781112075.1964,-0.0366210900247097,-0.18603515625,0.9794921278953552,0.9976748028313288,-0.0705718994140625,-0.0705718994140625,0.6542205810546875,0.6617895093225262
1781112075.2044,-0.0400390587747097,-0.1865234375,0.9604491591453552,0.9792122886623722,0.11444091796875,-0.00762939453125,0.7190704345703125,0.7281601618047926
1781112075.212404,-0.0483398362994194,-0.19775390625,0.9702147841453552,0.9913425616732122,0.3566741943359375,0.0514984130859375,0.1087188720703125,0.37641514395651104
1781112075.220407,-0.0209960900247097,-0.2041015625,0.9663085341453552,0.9878514396271396,0.0514984130859375,0.1773834228515625,0.1087188720703125,0.2143286224402776
1781112075.228409,-0.0424804650247097,-0.18115234375,0.9589843153953552,0.9768683016298215,0.6008148193359375,0.2346038818359375,-0.4405975341796875,0.7811169026665513
1781112075.239069,-0.0341796837747097,-0.181640625,0.9604491591453552,0.978071651126005,0.293731689453125,0.17547607421875,-0.9288787841796875,0.9898918899108861
1781112075.249727,-0.0488281212747097,-0.185546875,0.9711913466453552,0.9899618477740958,-0.011444091796875,0.17547607421875,-0.9288787841796875,0.9453774989703394
1781112075.260386,-0.0419921837747097,-0.19384765625,0.9687499403953552,0.9888461479663009,0.0514984130859375,0.6008148193359375,-1.1157989501953125,1.2683208706557685
1781112075.271073,-0.0571289025247097,-0.18505859375,0.9716796278953552,0.9907934668190245,0.11444091796875,0.41961669921875,-0.9899139404296875,1.0812513618145412
1781112075.281756,-0.0615234337747097,-0.18408203125,0.9697265028953552,0.9889594620358372,0.2346038818359375,0.2346038818359375,-0.3795623779296875,0.5041285168333764
1781112075.29244,-0.0537109300494194,-0.18359375,0.9711913466453552,0.9898505750084983,0.171661376953125,0.66375732421875,0.1087188720703125,0.6941622338731189
1781112075.300415,-0.0561523400247097,-0.20068359375,0.9521483778953552,0.9746863719265915,-0.133514404296875,0.48065185546875,1.0204315185546875,1.1358401236002043
1781112075.30839,-0.0502929650247097,-0.1865234375,0.9814452528953552,1.000277541234742,-0.011444091796875,0.60272216796875,0.9021759033203125,1.0850466992391743
1781112075.316366,-0.04248046875,-0.2021484375,0.9765624403953552,0.9981697155292996,0.293731689453125,0.96893310546875,0.5359649658203125,1.1455863620212452
1781112075.324342,-0.0366210900247097,-0.1943359375,0.9731444716453552,0.9930346033913015,-0.316619873046875,0.78582763671875,0.8373260498046875,1.19117090810711
1781112075.335006,-0.0541992150247097,-0.1865234375,0.9809569716453552,1.0000025639295818,0.11444091796875,0.78582763671875,0.4749298095703125,0.9253000174835182
1781112075.345668,-0.0502929612994194,-0.18798828125,0.9765624403953552,0.9957626101810239,-0.011444091796875,0.41961669921875,0.2918243408203125,0.5112441563436243
1781112075.356332,-0.0502929650247097,-0.19482421875,0.9692382216453552,0.9899033229769336,-0.1316070556640625,0.3566741943359375,0.4749298095703125,0.6083545200162871
1781112075.367008,-0.0361328087747097,-0.18896484375,0.9697265028953552,0.9886267154295736,0.11444091796875,-0.00762939453125,0.1087188720703125,0.158033934680766
1781112075.377685,-0.0400390587747097,-0.18212890625,0.9560546278953552,0.9740711043037423,-0.0095367431640625,0.0514984130859375,0.1659393310546875,0.17400832627039525
1781112075.388361,-0.0551757737994194,-0.18310546875,0.9604491591453552,0.9793031022127632,-0.0705718994140625,0.0514984130859375,-0.3795623779296875,0.3894869423702383
1781112075.396363,-0.0444335862994194,-0.1796875,0.9711913466453552,0.9886731376175325,0.1735687255859375,-0.2536773681640625,-0.5016326904296875,0.5883142576275867
1781112075.404365,-0.0517578087747097,-0.1953125,0.9658202528953552,0.9867292457043407,-0.0705718994140625,-0.0705718994140625,-0.7457733154296875,0.7524218391173965
1781112075.412368,-0.0371093712747097,-0.1904296875,0.9750975966453552,0.9942111920016289,0.3566741943359375,-0.1316070556640625,-0.7457733154296875,0.8370870540229026
1781112075.420372,-0.0585937425494194,-0.1728515625,0.9726561903953552,0.9896317264715417,0.41961669921875,0.11444091796875,-0.5016326904296875,0.6639354291469132
1781112075.431076,-0.0502929650247097,-0.1865234375,0.9750975966453552,0.9940501486601875,0.5397796630859375,0.1773834228515625,-0.3795623779296875,0.6832968330991614
1781112075.441782,-0.0307617150247097,-0.1845703125,0.9580077528953552,0.9761103103518665,0.476837158203125,0.23651123046875,-0.5016326904296875,0.7314004332024975
1781112075.452487,-0.0551757775247097,-0.1845703125,0.9746093153953552,0.99346559293073,0.1735687255859375,0.3566741943359375,-0.1964569091796875,0.4426487327115628
1781112075.463098,-0.0478515587747097,-0.17236328125,0.9653319716453552,0.9817661065045712,0.2346038818359375,0.0514984130859375,0.1087188720703125,0.2636491249124513
1781112075.473712,-0.0444335862994194,-0.193359375,0.9770507216453552,0.996990623907531,0.293731689453125,0.23651123046875,-0.0133514404296875,0.3773514654647266
1781112075.484326,-0.0405273400247097,-0.18994140625,0.9687499403953552,0.9880266444351136,-0.0705718994140625,0.0514984130859375,0.2307891845703125,0.2467714068767048
1781112075.492376,-0.0566406212747097,-0.19677734375,0.9653319716453552,0.9868106700235865,-0.0705718994140625,0.6656646728515625,0.4749298095703125,0.8207607286462844
1781112075.500427,-0.0507812462747097,-0.2001953125,0.9604491591453552,0.9824049498161159,-0.011444091796875,0.41961669921875,0.4138946533203125,0.5895065101824032
1781112075.508476,-0.0468749962747097,-0.18212890625,0.9760741591453552,0.9940266434652985,-0.133514404296875,0.29754638671875,0.5359649658203125,0.6273901441614317
1781112075.516526,-0.0454101525247097,-0.1865234375,0.9741210341453552,0.9928569201317731,-0.316619873046875,0.60272216796875,0.3490447998046875,0.7650845888134616
1781112075.527164,-0.0380859375,-0.19482421875,0.9838866591453552,1.0037130929160036,0.0514984130859375,0.2346038818359375,0.1087188720703125,0.2636491249124513
1781112075.537801,-0.0444335900247097,-0.18115234375,0.9682616591453552,0.98606346455972,-0.0705718994140625,0.2346038818359375,-0.5626678466796875,0.6136892373559727
1781112075.548438,-0.0483398362994194,-0.17919921875,0.9760741591453552,0.9935642223456806,0.354766845703125,0.11444091796875,-0.5626678466796875,0.674945437945047
1781112075.559072,-0.0541992150247097,-0.185546875,0.9550780653953552,0.9744430761880833,0.0514984130859375,-0.0705718994140625,-0.8678436279296875,0.872229925005695
1781112075.569709,-0.0468749962747097,-0.1865234375,0.9780272841453552,0.9967575565529011,0.0514984130859375,-0.0705718994140625,-0.4405975341796875,0.4491755410332349
1781112075.580345,-0.0507812462747097,-0.18505859375,0.9721679091453552,0.990926769073271,0.2956390380859375,-0.1316070556640625,-0.2574920654296875,0.4135517158714113
1781112075.591024,-0.046875,-0.173828125,0.9663085341453552,0.9829372644417144,0.11444091796875,-0.00762939453125,-0.1964569091796875,0.2274868095755875
1781112075.601703,-0.0498046837747097,-0.1865234375,0.9653319716453552,0.9844477206756203,0.0514984130859375,-0.3108978271484375,0.0476837158203125,0.31872132377740575
1781112075.612382,-0.05224609375,-0.197265625,0.9794921278953552,1.0005239675928534,-0.011444091796875,-0.25177001953125,0.5970001220703125,0.6480187155659852
1781112075.620373,-0.0571289025247097,-0.185546875,0.9824218153953552,1.0014209792543038,-0.2536773681640625,-0.3108978271484375,0.6542205810546875,0.7674726279938575
1781112075.628365,-0.0415039025247097,-0.181640625,0.9682616591453552,0.9860256239804761,-0.377655029296875,-0.12969970703125,0.6542205810546875,0.7664528060048763
1781112075.636357,-0.0410156212747097,-0.2041015625,0.9648436903953552,0.9870476563465514,-0.377655029296875,-0.06866455078125,0.8373260498046875,0.9211151151559377
1781112075.644349,-0.05224609375,-0.18798828125,0.9604491591453552,0.9800672607033064,-0.499725341796875,-0.06866455078125,0.8373260498046875,0.9775250132091334
1781112075.655002,-0.0415039025247097,-0.18408203125,0.9658202528953552,0.9840820743498758,-0.4978179931640625,0.0514984130859375,0.8373260498046875,0.9754946204617361
1781112075.665655,-0.0463867150247097,-0.18359375,0.9790038466453552,0.9971493990953654,-0.194549560546875,0.17547607421875,0.4749298095703125,0.5424017958586602
1781112075.676308,-0.0400390587747097,-0.18994140625,0.9746093153953552,0.9937525756903451,-0.1316070556640625,-0.2536773681640625,0.2307891845703125,0.36733672826691144
1781112075.684319,-0.0361328087747097,-0.1845703125,0.9721679091453552,0.9901930234546944,-0.133514404296875,-0.00762939453125,-0.1964569091796875,0.23765441502336715
1781112075.692333,-0.0458984337747097,-0.2021484225988388,0.9755858778953552,0.997365758451242,0.2346038818359375,0.1773834228515625,-0.6847381591796875,0.7452316463434802
1781112075.700345,-0.0375976525247097,-0.19091796875,0.9604491591453552,0.9799621633359191,0.2346038818359375,0.0514984130859375,-0.9899139404296875,1.0186366758466392
1781112075.708358,-0.0346679650247097,-0.1875,0.9667968153953552,0.9854208238400257,-0.2536773681640625,-0.0057220458984375,-1.1157989501953125,1.144286784938492
1781112075.719049,-0.04736328125,-0.18896484375,0.9550780653953552,0.9747436091524596,-0.4367828369140625,0.2346038818359375,-0.9899139404296875,1.107134968037871
1781112075.729738,-0.0468749962747097,-0.1796875,0.9628905653953552,0.9806340315629429,-0.316619873046875,0.29754638671875,-0.8678436279296875,0.9705331312200347
1781112075.740428,-0.0512695275247097,-0.18505859375,0.9716796278953552,0.9904728905125019,0.0514984130859375,-0.1316070556640625,-0.6847381591796875,0.6991701154137815
1781112075.751091,-0.0439453050494194,-0.1923828125,0.9726561903953552,0.9924728717177624,-0.011444091796875,-0.31280517578125,-0.5626678466796875,0.6438735519647862
1781112075.761754,-0.0527343712747097,-0.18603515625,0.9667968153953552,0.9859442557940593,0.0514984130859375,-0.3757476806640625,-0.1392364501953125,0.40401137996074304
1781112075.772418,-0.0600585862994194,-0.1689453125,0.9624022841453552,0.9789625676869389,0.171661376953125,-0.06866455078125,-0.0133514404296875,0.18536642045683793
1781112075.783071,-0.0400390587747097,-0.185546875,0.9711913466453552,0.9895672795968189,-0.0705718994140625,0.5397796630859375,0.1659393310546875,0.5691031007286412
1781112075.793724,-0.0405273400247097,-0.1972656100988388,0.9667968153953552,0.9875486157530403,-0.194549560546875,0.66375732421875,0.7190704345703125,0.9977402501834609
1781112075.804378,-0.0576171837747097,-0.18212890625,0.9707030653953552,0.9893205342687926,-0.4367828369140625,0.6008148193359375,0.6542205810546875,0.9898294107733436
1781112075.812625,-0.0405273362994194,-0.193359375,0.9663085341453552,0.9862973669487626,-0.2536773681640625,0.6008148193359375,0.7190704345703125,0.9707692538010557
1781112075.820873,-0.0478515587747097,-0.1953125,0.9765624403953552,0.9970511242280163,-0.55694580078125,0.60272216796875,0.5970001220703125,1.0148259863251363
1781112075.829122,-0.0473632775247097,-0.185546875,0.9614257216453552,0.9803113490730587,-0.8029937744140625,0.5397796630859375,1.0204315185546875,1.4062153357465335
1781112075.837369,-0.0410156212747097,-0.19140625,0.9658202528953552,0.9854579618788722,-0.5588531494140625,0.1773834228515625,0.4749298095703125,0.7545462512868552
1781112075.847833,-0.0283203125,-0.19287109375,0.9750975966453552,0.9943925894172617,-0.5588531494140625,0.6656646728515625,-0.0743865966796875,0.8723300207250583
1781112075.858298,-0.0449218712747097,-0.2041015625,0.9643554091453552,0.9867404813230622,-0.4367828369140625,0.5397796630859375,-0.2574920654296875,0.7405697097931505
1781112075.868763,-0.0493163987994194,-0.19873046875,0.9667968153953552,0.9882418674892998,-0.4367828369140625,0.5397796630859375,-0.8678436279296875,1.1114377597697618
1781112075.879383,-0.052734375,-0.18310546875,0.9804686903953552,0.9988129854173807,-0.4367828369140625,0.5397796630859375,-0.7457733154296875,1.0189794744305956
1781112075.890006,-0.0483398362994194,-0.18798828125,0.9570311903953552,0.9765167858518021,-0.5588531494140625,0.4177093505859375,-0.7457733154296875,1.0212618577935486
1781112075.900627,-0.0419921837747097,-0.19189453125,0.9760741591453552,0.9956443234273665,-0.621795654296875,0.29754638671875,-0.8106231689453125,1.0640834600644835
1781112075.911191,-0.0483398362994194,-0.1875,0.9731444716453552,0.992221322320465,-0.5588531494140625,0.1773834228515625,-1.0509490966796875,1.2034432787316582
1781112075.921755,-0.0468749962747097,-0.18017578125,0.9765624403953552,0.9941502790905073,-0.316619873046875,-0.00762939453125,-0.3795623779296875,0.4943419367287906
1781112075.932319,-0.0703125,-0.17919921875,0.9765624403953552,0.9953544130850036,-0.1316070556640625,0.0514984130859375,-0.3223419189453125,0.3519613847573053
1781112075.943007,-0.0576171875,-0.19775390625,0.9853515028953552,1.0066498557048917,-0.0095367431640625,0.3566741943359375,-0.2574920654296875,0.44001090229062945
1781112075.953696,-0.0454101525247097,-0.17626953125,0.9716796278953552,0.988581978829408,-0.06866455078125,0.11444091796875,-0.0743865966796875,0.15279041201956203
1781112075.964384,-0.0400390550494194,-0.18798828125,0.9692382216453552,0.988112063540786,0.0514984130859375,0.4825592041015625,-0.2574920654296875,0.549379318661296
1781112075.97505,-0.0488281175494194,-0.2021484375,0.9609374403953552,0.983183065456626,0.0514984130859375,0.3566741943359375,0.1087188720703125,0.37641514395651104
1781112075.985718,-0.0415039025247097,-0.189453125,0.9682616591453552,0.9874946587541434,-0.0095367431640625,-0.1316070556640625,0.2307891845703125,0.26584772762875125
1781112075.996385,-0.0375976525247097,-0.18017578125,0.9658202528953552,0.9832017374513048,-0.194549560546875,-0.25177001953125,0.0476837158203125,0.3217318930385679
1781112076.004392,-0.0473632775247097,-0.18017578125,0.9692382216453552,0.9869798997472954,-0.3147125244140625,-0.4367828369140625,-0.3223419189453125,0.6274771169971977
1781112076.012401,-0.0493164025247097,-0.1826171875,0.9707030653953552,0.9889618728223696,-0.499725341796875,-0.49591064453125,-0.3223419189453125,0.7743107240008689
1781112076.02041,-0.030273430049419403,-0.1787109375,0.9589843153953552,0.975963624795199,-0.682830810546875,-0.06866455078125,-0.4405975341796875,0.8155359731436217
1781112076.028419,-0.0366210900247097,-0.1923827975988388,0.9697265028953552,0.9893036619078134,-0.4367828369140625,-0.0057220458984375,-0.3223419189453125,0.5428777957711172
1781112076.039074,-0.0356445275247097,-0.1972656100988388,0.9721679091453552,0.992620117085171,-0.133514404296875,0.11444091796875,-0.6847381591796875,0.7069576836678887
1781112076.04973,-0.0541992150247097,-0.2099609375,0.9707030653953552,0.9946283684638765,0.1735687255859375,0.5397796630859375,-0.5016326904296875,0.7570492343899579
1781112076.060385,-0.0537109337747097,-0.20068359375,0.9799804091453552,1.0017586393518472,0.2346038818359375,0.3566741943359375,-1.1157989501953125,1.194681028364744
1781112076.071028,-0.0488281175494194,-0.19287109375,0.9741210341453552,0.994230975695365,0.293731689453125,0.66375732421875,-0.7457733154296875,1.0406872387273758
1781112076.081672,-0.0576171837747097,-0.19482421875,0.9687499403953552,0.9898245617753082,0.11444091796875,0.41961669921875,-0.4405975341796875,0.6191131440164955
1781112076.092316,-0.0537109337747097,-0.19091796875,0.9628905653953552,0.9831036446509412,0.171661376953125,0.29754638671875,0.2307891845703125,0.4138419122097913
1781112076.100328,-0.0546874962747097,-0.18603515625,0.9682616591453552,0.9874869326632502,0.3566741943359375,0.1773834228515625,-0.1964569091796875,0.44415839153635533
1781112076.108341,-0.0346679612994194,-0.18798828125,0.9726561903953552,0.9912625919212288,-0.1316070556640625,0.0514984130859375,0.2918243408203125,0.32424365768067603
1781112076.116353,-0.0546874925494194,-0.18359375,0.9780272841453552,0.9966116372053583,-0.316619873046875,-0.06866455078125,0.1087188720703125,0.34173492312968407
1781112076.124365,-0.0478515625,-0.193359375,0.9663085341453552,0.9866254624203793,-0.4367828369140625,-0.4367828369140625,-0.1964569091796875,0.6481927262858085
1781112076.135019,-0.0502929650247097,-0.18994140625,0.9677733778953552,0.987518319375489,-0.377655029296875,-0.25177001953125,0.2307891845703125,0.5091906436715224
1781112076.145673,-0.0380859337747097,-0.18505859375,0.9707030653953552,0.9889194419365808,-0.6198883056640625,-0.0705718994140625,0.0476837158203125,0.6257121073148602
1781112076.156326,-0.0483398362994194,-0.1943359375,0.9663085341453552,0.9868411115978112,-0.438690185546875,-0.19073486328125,0.1087188720703125,0.4905595377834476
1781112076.167011,-0.0390624962747097,-0.1904296875,0.9755858778953552,0.9947648715376968,-0.2536773681640625,0.1125335693359375,-0.3795623779296875,0.4701952893062312
1781112076.177695,-0.0400390587747097,-0.1875,0.9731444716453552,0.9918515710132652,-0.1316070556640625,-0.1316070556640625,-0.6275177001953125,0.6545374689500528
1781112076.188377,-0.0429687462747097,-0.18994140625,0.9614257216453552,0.980950288855628,0.1735687255859375,-0.1316070556640625,-0.8106231689453125,0.8393786044646544
1781112076.196421,-0.0419921875,-0.18798828125,0.9638671278953552,0.9829256217718639,0.2346038818359375,-0.1316070556640625,-0.6847381591796875,0.735680463999039
1781112076.204464,-0.0444335862994194,-0.193359375,0.9716796278953552,0.9917275284868695,-0.194549560546875,-0.19073486328125,-0.5626678466796875,0.6251595198563769
1781112076.212507,-0.0424804650247097,-0.1796875,0.9609374403953552,0.9785156881310296,-0.316619873046875,-0.00762939453125,-0.7457733154296875,0.8102371194138916
1781112076.22055,-0.0439453050494194,-0.1943359375,0.9702147841453552,0.9904616972978353,-0.377655029296875,0.17547607421875,-0.9288787841796875,1.017954306182543
1781112076.231138,-0.0336913987994194,-0.1982421875,0.9750975966453552,0.995615587584583,-0.194549560546875,-0.37384033203125,-0.4405975341796875,0.609698542303849
1781112076.241726,-0.0478515587747097,-0.18994140625,0.9677733778953552,0.9873969923229374,0.0514984130859375,-0.0057220458984375,-0.5016326904296875,0.5043016800163969
1781112076.252314,-0.0449218712747097,-0.18603515625,0.9858397841453552,1.0042445588020599,0.2346038818359375,-0.0705718994140625,-0.1964569091796875,0.314029762162498
1781112076.262995,-0.0488281175494194,-0.1943359375,0.9741210341453552,0.9945161792710263,0.0514984130859375,-0.0705718994140625,-0.4405975341796875,0.4491755410332349
1781112076.273677,-0.0493163987994194,-0.1845703125,0.9682616591453552,0.9869290491305882,-0.011444091796875,-0.00762939453125,-0.3795623779296875,0.37981149750581233
1781112076.284359,-0.0463867150247097,-0.1884765625,0.9604491591453552,0.9798661792538917,-0.1316070556640625,0.3566741943359375,0.0476837158203125,0.38315875921109527
1781112076.292378,-0.0507812462747097,-0.18701171875,0.9785155653953552,0.997519337979988,-0.133514404296875,0.11444091796875,-0.3223419189453125,0.3671881432857357
1781112076.300398,-0.0590820275247097,-0.17236328125,0.9560546278953552,0.9732626768862676,-0.2536773681640625,0.1125335693359375,0.1087188720703125,0.29805335846182396
1781112076.308418,-0.0454101525247097,-0.18701171875,0.9697265028953552,0.9886379293350027,-0.4367828369140625,0.1125335693359375,0.0476837158203125,0.4535601256775281
1781112076.316438,-0.0356445275247097,-0.18115234375,0.9594725966453552,0.9770743921022382,-0.133514404296875,-0.19073486328125,0.5359649658203125,0.5843494920100772
1781112076.327097,-0.0507812462747097,-0.1953125,0.9648436903953552,0.985722605262348,-0.3147125244140625,-0.2536773681640625,0.2918243408203125,0.49855553957099613
1781112076.337756,-0.0561523400247097,-0.1904296875,0.9707030653953552,0.9907981592330183,-0.4367828369140625,-0.3757476806640625,0.5359649658203125,0.7869078794458012
1781112076.348415,-0.0361328087747097,-0.18505859375,0.9633788466453552,0.9816573053537635,-0.621795654296875,-0.00762939453125,0.0476837158203125,0.62366800472513
1781112076.359069,-0.0449218675494194,-0.18310546875,0.9799804091453552,0.997951496406004,-0.621795654296875,-0.37384033203125,-0.5016326904296875,0.8820554323076532
1781112076.369723,-0.0478515587747097,-0.19677734375,0.9726561903953552,0.9935145491661814,-0.6198883056640625,0.1773834228515625,-0.6275177001953125,0.8997248769818541
1781112076.380377,-0.0502929650247097,-0.19091796875,0.9628905653953552,0.9829228321948725,-0.5588531494140625,-0.0705718994140625,-0.6847381591796875,0.8866586616244788
1781112076.388366,-0.0488281175494194,-0.19921875,0.9809569716453552,1.0021720788540303,-0.377655029296875,0.11444091796875,-0.6275177001953125,0.7412816663840863
1781112076.396357,-0.0498046837747097,-0.19482421875,0.9565429091453552,0.9774514411333721,-0.4367828369140625,-0.0057220458984375,-0.8678436279296875,0.9715783812797206
1781112076.404348,-0.0385742112994194,-0.18798828125,0.9667968153953552,0.9856589906876018,-0.316619873046875,-0.00762939453125,-0.8678436279296875,0.9238284008447102
1781112076.412339,-0.0390624925494194,-0.203125,0.9702147841453552,0.9920193401962442,-0.4367828369140625,-0.0057220458984375,-0.4405975341796875,0.6204338607435778
1781112076.423014,-0.0571289025247097,-0.2060546875,0.9624022841453552,0.9858703780277596,-0.4367828369140625,-0.4940032958984375,-0.8678436279296875,1.0899408541381397
1781112076.433689,-0.0419921875,-0.18798828125,0.9692382216453552,0.9881931329434621,-0.55694580078125,0.11444091796875,-0.3223419189453125,0.6535974766037155
1781112076.444365,-0.0576171875,-0.193359375,0.9536132216453552,0.9747234298469665,-0.06866455078125,0.11444091796875,-0.1964569091796875,0.2375012871627373
1781112076.455033,-0.0410156212747097,-0.18408203125,0.9741210341453552,0.9922097885941726,-0.3147125244140625,-0.1316070556640625,0.0476837158203125,0.3444388579676629
1781112076.465701,-0.0449218712747097,-0.19091796875,0.9536132216453552,0.9735737372214192,-0.316619873046875,-0.06866455078125,-0.1392364501953125,0.35263260428553944
1781112076.476369,-0.0478515625,-0.189453125,0.9663085341453552,0.9858673550575159,-0.55694580078125,0.11444091796875,-0.0133514404296875,0.5687386127870566
1781112076.48436,-0.0488281175494194,-0.19287109375,0.9687499403953552,0.9889691051209565,-0.377655029296875,-0.19073486328125,-0.1964569091796875,0.4664744648837454
1781112076.492352,-0.0375976525247097,-0.1806640625,0.9741210341453552,0.9914458513296573,-0.0705718994140625,-0.1316070556640625,0.0476837158203125,0.15676270870938827
1781112076.500344,-0.0380859375,-0.17919921875,0.9633788466453552,0.9806435136172569,0.0514984130859375,-0.3108978271484375,0.0476837158203125,0.31872132377740575
1781112076.508336,-0.0302734337747097,-0.1796875,0.9809569716453552,0.9977377704930228,0.0514984130859375,-0.1316070556640625,0.4749298095703125,0.4955106736180632
1781112076.519013,-0.0595703087747097,-0.18701171875,0.9829100966453552,1.0023144530159809,0.4787445068359375,-0.1316070556640625,-0.0133514404296875,0.49668398493176336
1781112076.52969,-0.0361328087747097,-0.21142578125,0.9667968153953552,0.9903042578448924,-0.011444091796875,0.41961669921875,0.0476837158203125,0.4224723402244537
1781112076.540367,-0.0498046837747097,-0.2001953125,0.9677733778953552,0.9895170441361065,0.354766845703125,0.48065185546875,-0.3795623779296875,0.7077805590119977
1781112076.548348,-0.0400390550494194,-0.19287109375,0.9809569716453552,1.0005393370343807,0.0514984130859375,0.7228851318359375,-0.7457733154296875,1.0399003983011155
1781112076.556327,-0.0410156212747097,-0.20361328125,0.9667968153953552,0.9888562745659971,0.1125335693359375,0.5397796630859375,-0.9899139404296875,1.1331176012955078
1781112076.564306,-0.0590820275247097,-0.19091796875,0.9809569716453552,1.0011078548226873,-0.2536773681640625,0.6656646728515625,-0.9899139404296875,1.2195865173321054
1781112076.572285,-0.0585937462747097,-0.20166015625,0.9750975966453552,0.9974544444258231,-0.194549560546875,0.41961669921875,-0.6275177001953125,0.7795551101946772
1781112076.582961,-0.0493164025247097,-0.1962890625,0.9638671278953552,0.9848864624170388,-0.316619873046875,0.17547607421875,-0.7457733154296875,0.8289860280115894
1781112076.593637,-0.0522460900247097,-0.19091796875,0.9653319716453552,0.9854162268783709,-0.499725341796875,-0.00762939453125,-0.1964569091796875,0.5370092569587167
1781112076.604313,-0.0517578087747097,-0.20068359375,0.9677733778953552,0.9897161646313354,-0.499725341796875,0.11444091796875,0.4749298095703125,0.6988422318077429
1781112076.61501,-0.0493164025247097,-0.1962890625,0.9604491591453552,0.9815416908711152,-0.377655029296875,0.23651123046875,0.2918243408203125,0.532655920070617
1781112076.625703,-0.0493164025247097,-0.18994140625,0.9697265028953552,0.9893833108476523,-0.316619873046875,-0.06866455078125,0.4749298095703125,0.5749098090663468
1781112076.636397,-0.0537109300494194,-0.20703125,0.9707030653953552,0.9939875470302811,-0.4367828369140625,-0.0057220458984375,0.2307891845703125,0.4940401159284437
1781112076.644401,-0.0488281175494194,-0.18408203125,0.9614257216453552,0.9801070337130725,-0.499725341796875,-0.00762939453125,0.1659393310546875,0.5266113239247654
1781112076.652406,-0.0444335862994194,-0.1943359375,0.9726561903953552,0.9928750499986578,-0.499725341796875,0.17547607421875,0.3490447998046875,0.6343102885244115
1781112076.660409,-0.0346679612994194,-0.1943359375,0.9682616591453552,0.9881796216860464,-0.6198883056640625,0.0514984130859375,0.3490447998046875,0.7132642359743873
1781112076.668413,-0.0463867150247097,-0.18994140625,0.9770507216453552,0.9964223892540355,-0.4978179931640625,-0.1316070556640625,-0.0743865966796875,0.5202658331891925
1781112076.679063,-0.0512695275247097,-0.2070312350988388,0.9731444716453552,0.9962432732285198,-0.194549560546875,-0.06866455078125,-0.0133514404296875,0.20674286687699903
1781112076.689713,-0.0385742112994194,-0.18798828125,0.9731444716453552,0.9918859442287802,0.11444091796875,-0.31280517578125,-0.3223419189453125,0.4635171133954121
1781112076.700364,-0.0434570237994194,-0.19482421875,0.9624022841453552,0.9828851131527266,0.1125335693359375,0.2346038818359375,-0.5626678466796875,0.6199176487946871
1781112076.708569,-0.0488281212747097,-0.1962890625,0.9697265028953552,0.9905973308574993,0.171661376953125,0.29754638671875,-0.5016326904296875,0.6079776613450147
1781112076.716778,-0.0400390587747097,-0.18212890625,0.9702147841453552,0.9879730725549174,0.171661376953125,0.11444091796875,-0.9899139404296875,1.0111844349573444
1781112076.724985,-0.0488281175494194,-0.173828125,0.9667968153953552,0.9835123203920915,0.0514984130859375,0.1773834228515625,-0.3223419189453125,0.37151215049073766
1781112076.733193,-0.0498046837747097,-0.177734375,0.9711913466453552,0.9885760701035393,-0.133514404296875,0.11444091796875,-0.1392364501953125,0.22429803593271008
1781112076.743589,-0.0483398400247097,-0.19677734375,0.9638671278953552,0.9849354818383594,-0.011444091796875,-0.19073486328125,-0.3795623779296875,0.42494511886549696
1781112076.753986,-0.0454101525247097,-0.1865234375,0.9702147841453552,0.9890246721206464,-0.011444091796875,-0.19073486328125,-0.1392364501953125,0.23642661519161537
1781112076.764381,-0.0390624925494194,-0.19384765625,0.9653319716453552,0.9853773935089543,-0.1316070556640625,-0.4367828369140625,0.0476837158203125,0.4586648018735387
1781112076.772379,-0.0468749962747097,-0.1875,0.9560546278953552,0.975394262232396,-0.2536773681640625,-0.2536773681640625,-0.1392364501953125,0.3848261988226404
1781112076.780377,-0.0478515625,-0.18359375,0.9497069716453552,0.968472905694602,-0.3147125244140625,0.2346038818359375,-0.1964569091796875,0.4389513316530642
1781112076.788375,-0.04150390625,-0.20263671875,0.9536132216453552,0.9757880868900833,-0.194549560546875,-0.06866455078125,-0.0743865966796875,0.21931191898426208
1781112076.796374,-0.04248046875,-0.19775390625,0.9653319716453552,0.9862945874043223,-0.1316070556640625,-0.0705718994140625,-0.5016326904296875,0.5233891154726079
1781112076.804389,-0.0410156212747097,-0.1923827975988388,0.9677733778953552,0.9875620147431209,-0.438690185546875,0.29754638671875,-0.5626678466796875,0.773031717869126
1781112076.812406,-0.0493163987994194,-0.1923828125,0.9589843153953552,0.9793335340476459,-0.4978179931640625,0.5397796630859375,-0.0743865966796875,0.7380502725185116
1781112076.820421,-0.0517578087747097,-0.2060546875,0.9672850966453552,0.9903422959775555,-0.194549560546875,0.29754638671875,-0.0133514404296875,0.35575503470775166
1781112076.828438,-0.0498046837747097,-0.19970703125,0.9594725966453552,0.981300702419991,-0.2536773681640625,0.3566741943359375,0.3490447998046875,0.5598222577698477
1781112076.839092,-0.0415039025247097,-0.20556640625,0.9702147841453552,0.9926212010014388,-0.3147125244140625,0.0514984130859375,0.7190704345703125,0.7866119433663462
1781112076.849747,-0.04296875,-0.20458984375,0.9760741591453552,0.9982104396336096,-0.316619873046875,-0.19073486328125,0.8373260498046875,0.9152829320820193
1781112076.860402,-0.0268554650247097,-0.181640625,0.9716796278953552,0.9888760447694848,-0.377655029296875,-0.06866455078125,0.5970001220703125,0.7097515674087536
1781112076.871055,-0.0439453087747097,-0.20166015625,0.9702147841453552,0.9919247633547099,-0.194549560546875,-0.00762939453125,0.3490447998046875,0.3996748821737363
1781112076.881706,-0.0341796800494194,-0.19970703125,0.9604491591453552,0.9815873553392938,-0.194549560546875,0.23651123046875,-0.0133514404296875,0.3065376887241956
1781112076.892357,-0.0463867150247097,-0.1982421875,0.9746093153953552,0.9956480351464426,0.2956390380859375,0.3566741943359375,0.2307891845703125,0.5175737333561261
1781112076.900352,-0.0439453050494194,-0.1943359375,0.9726561903953552,0.9928533180456698,-0.011444091796875,0.23651123046875,-0.3795623779296875,0.4473657654699747
1781112076.908348,-0.0468749962747097,-0.18603515625,0.9702147841453552,0.9890010475277234,0.1735687255859375,0.5397796630859375,-0.2574920654296875,0.6227281517178592
1781112076.916345,-0.0410156212747097,-0.19677734375,0.9716796278953552,0.9922524393866271,0.293731689453125,0.11444091796875,-0.0133514404296875,0.3155206650222212
1781112076.924343,-0.0424804650247097,-0.1806640625,0.9653319716453552,0.9830106351756467,0.3566741943359375,0.0514984130859375,-0.0743865966796875,0.3679700167420526
1781112076.935009,-0.0463867150247097,-0.185546875,0.9672850966453552,0.9860120832653438,0.171661376953125,-0.06866455078125,-0.0743865966796875,0.19928827019425963
1781112076.945674,-0.0346679612994194,-0.173828125,0.9721679091453552,0.9881945801074429,0.3566741943359375,-0.3108978271484375,-0.2574920654296875,0.5386799639768091
1781112076.956341,-0.0449218712747097,-0.1962890625,0.9711913466453552,0.9918467635551215,0.1735687255859375,0.3566741943359375,-0.3795623779296875,0.5490083625468336
1781112076.964339,-0.0439453087747097,-0.19677734375,0.9638671278953552,0.9847295839030384,0.1125335693359375,-0.2536773681640625,-0.5016326904296875,0.573281228939042
1781112076.972336,-0.0415039025247097,-0.1875,0.9736327528953552,0.9923908309911819,-0.316619873046875,-0.00762939453125,-0.6275177001953125,0.7029116699326785
1781112076.980334,-0.0478515587747097,-0.177734375,0.9672850966453552,0.9846419338653134,-0.1316070556640625,-0.0705718994140625,-0.5626678466796875,0.5821476752290853
1781112076.988333,-0.0551757775247097,-0.205078125,0.9614257216453552,0.9846018596469661,0.1125335693359375,0.0514984130859375,-0.4405975341796875,0.457648421720295
1781112076.999,-0.06689453125,-0.18408203125,0.9721679091453552,0.9917013240448632,0.1125335693359375,0.2346038818359375,-0.3223419189453125,0.41425487119564836
1781112077.009668,-0.0390624925494194,-0.19873046875,0.9726561903953552,0.9935188685919224,0.9059906005859375,0.2346038818359375,0.3490447998046875,0.9988444433410303
1781112077.020336,-0.0478515625,-0.1943359375,0.9692382216453552,0.9896862931939323,0.9059906005859375,-0.0705718994140625,0.2918243408203125,0.9544426683841132
1781112077.031064,-0.0439453087747097,-0.20166015625,0.9677733778953552,0.9895369218705611,1.819610595703125,0.11444091796875,1.0204315185546875,2.089344377492719
1781112077.041794,-0.0322265587747097,-0.1962890625,0.9746093153953552,0.9947015958582713,1.941680908203125,-0.06866455078125,1.0204315185546875,2.194566028597529
1781112077.052522,-0.0600585900247097,-0.20556640625,0.9628905653953552,0.9864191920992226,1.819610595703125,0.41961669921875,0.9021759033203125,2.073880964469789
1781112077.060475,-0.0283203087747097,-0.1904296875,0.9609374403953552,0.9800338107045182,1.8215179443359375,0.2346038818359375,0.8373260498046875,2.0184354130345197
1781112077.06843,-0.0498046837747097,-0.1875,0.9570311903953552,0.9764965211998706,1.5163421630859375,0.2346038818359375,0.9021759033203125,1.779958959486553
1781112077.076385,-0.0390624925494194,-0.197265625,0.9565429091453552,0.9774527825767715,1.331329345703125,0.48065185546875,0.8373260498046875,1.644560411349302
1781112077.092362,-0.0463867150247097,-0.189453125,0.9516600966453552,0.9714428204738023,0.4177093505859375,0.1773834228515625,0.5970001220703125,0.7499034111280132
1781112077.100383,-0.0478515587747097,-0.20068359375,0.9682616591453552,0.9899971298183144,-0.194549560546875,0.11444091796875,0.4138946533203125,0.47143932723273524
1781112077.108402,-0.0463867150247097,-0.2001953125,0.9550780653953552,0.9769360273206689,-0.316619873046875,-0.00762939453125,0.0476837158203125,0.32028126455283806
1781112077.116422,-0.033203125,-0.19873046875,0.9643554091453552,0.9851789694605066,-0.7419586181640625,0.2346038818359375,-0.5016326904296875,0.9258385002516056
1781112077.127079,-0.0385742112994194,-0.19287109375,0.9682616591453552,0.9880373824671866,-0.9250640869140625,-0.0705718994140625,-0.5016326904296875,1.054684461814425
1781112077.137737,-0.0424804650247097,-0.18505859375,0.9804686903953552,0.9986841972690997,-0.7419586181640625,-0.0057220458984375,-0.8106231689453125,1.0989291400759784
1781112077.148393,-0.0537109300494194,-0.205078125,0.9760741591453552,0.9988306490649961,-0.9250640869140625,0.1125335693359375,-0.8678436279296875,1.2734048577195691
1781112077.156402,-0.0395507775247097,-0.18701171875,0.9726561903953552,0.9912606678704868,-0.682830810546875,-0.00762939453125,-0.7457733154296875,1.0111844349573444
1781112077.164411,-0.0454101525247097,-0.1875,0.9721679091453552,0.9911250049940064,-0.499725341796875,-0.06866455078125,-0.7457733154296875,0.9003433099518109
1781112077.17242,-0.0541992112994194,-0.197265625,0.9697265028953552,0.9910705180408582,-0.4367828369140625,0.4825592041015625,-0.4405975341796875,0.7859827092316032
1781112077.180429,-0.0371093712747097,-0.19140625,0.9624022841453552,0.9819529594148916,-0.377655029296875,0.05340576171875,0.2307891845703125,0.44580168713522517
1781112077.191053,-0.0493164025247097,-0.1875,0.9692382216453552,0.9884387122407893,-0.4367828369140625,-0.0057220458984375,0.5359649658203125,0.6914263757036819
1781112077.201677,-0.0502929650247097,-0.19140625,0.9648436903953552,0.9849310035559685,-0.4367828369140625,-0.0057220458984375,0.3490447998046875,0.5591460101821837
1781112077.212301,-0.0317382775247097,-0.19677734375,0.9794921278953552,0.9995666410412625,-0.4367828369140625,-0.0057220458984375,0.5359649658203125,0.6914263757036819
1781112077.222989,-0.0419921837747097,-0.17578125,0.9750975966453552,0.9917044490841409,-0.194549560546875,-0.19073486328125,0.7190704345703125,0.768954881285656
1781112077.233675,-0.0385742112994194,-0.193359375,0.9804686903953552,1.0000973305250573,0.0514984130859375,-0.5588531494140625,0.5970001220703125,0.8193766380074272
1781112077.244363,-0.0463867150247097,-0.19189453125,0.9702147841453552,0.9900969476918202,0.354766845703125,-0.19073486328125,0.1087188720703125,0.4172039022172528
1781112077.255164,-0.0463867150247097,-0.19384765625,0.9643554091453552,0.9847385421076537,0.41961669921875,-0.00762939453125,-0.1964569091796875,0.46339151814484947
1781112077.265967,-0.0415039025247097,-0.19189453125,0.9648436903953552,0.9846163882163276,0.476837158203125,0.23651123046875,-0.1392364501953125,0.5501799947690447
1781112077.27677,-0.0498046837747097,-0.1875,0.9702147841453552,0.989420782023562,0.3566741943359375,0.5397796630859375,-0.3223419189453125,0.7228297713125164
1781112077.284676,-0.0444335900247097,-0.1806640625,0.9809569716453552,0.9984440032476103,-0.25177001953125,0.29754638671875,-0.0743865966796875,0.39680645250516833
1781112077.292583,-0.0498046837747097,-0.18994140625,0.9775390028953552,0.9970660692831602,-0.682830810546875,0.29754638671875,-0.1964569091796875,0.7703162241871335
1781112077.300488,-0.0541992150247097,-0.19677734375,0.9746093153953552,0.9957520753571159,-0.55694580078125,-0.00762939453125,0.2307891845703125,0.6029183032413356
1781112077.308394,-0.04296875,-0.1845703125,0.9584960341453552,0.977050234739895,-0.682830810546875,0.05340576171875,-0.0133514404296875,0.685046240905247
1781112077.319106,-0.0429687462747097,-0.1806640625,0.9716796278953552,0.9892659480151332,-0.621795654296875,-0.00762939453125,-0.0133514404296875,0.621985775018159
1781112077.329818,-0.0400390550494194,-0.19384765625,0.9658202528953552,0.9858949237447754,-0.6198883056640625,0.0514984130859375,0.1087188720703125,0.6314533959000245
1781112077.34053,-0.0395507775247097,-0.201171875,0.9619140028953552,0.9835206842054671,-0.621795654296875,-0.00762939453125,-0.0133514404296875,0.621985775018159
1781112077.348536,-0.0419921875,-0.193359375,0.9643554091453552,0.9844452990691414,-0.682830810546875,-0.00762939453125,0.1659393310546875,0.7027460317098154
1781112077.356542,-0.0507812462747097,-0.19091796875,0.9707030653953552,0.9906022647524979,-0.4978179931640625,-0.1316070556640625,0.2307891845703125,0.5642754815983838
1781112077.364548,-0.0434570237994194,-0.18310546875,0.9687499403953552,0.9868599559307616,-0.7419586181640625,-0.0705718994140625,-0.0133514404296875,0.7454268877739662
1781112077.372555,-0.0458984337747097,-0.19677734375,0.9819335341453552,1.0025075833705521,-0.6198883056640625,-0.0705718994140625,0.1087188720703125,0.6332943214889991
1781112077.383147,-0.0439453087747097,-0.201171875,0.9736327528953552,0.9951693579310549,-0.6198883056640625,-0.4367828369140625,0.1659393310546875,0.7762580883395908
1781112077.393741,-0.0483398400247097,-0.181640625,0.9741210341453552,0.9920896360452626,-0.6198883056640625,-0.1316070556640625,0.0476837158203125,0.6354963928725781
1781112077.404333,-0.0468749962747097,-0.189453125,0.9570311903953552,0.9767284429346625,-0.499725341796875,-0.00762939453125,0.0476837158203125,0.5020531462398671
1781112077.415113,-0.0473632775247097,-0.19921875,0.9770507216453552,0.9982782693603796,-0.4367828369140625,0.1773834228515625,0.0476837158203125,0.4738331584847826
1781112077.425892,-0.0429687462747097,-0.20166015625,0.9677733778953552,0.9894940337051966,-0.194549560546875,0.05340576171875,-0.0743865966796875,0.2150234235131805
1781112077.436671,-0.0410156212747097,-0.201171875,0.9809569716453552,1.002212045776338,0.171661376953125,0.11444091796875,-0.3795623779296875,0.43200920219668004
1781112077.444625,-0.0336913987994194,-0.18505859375,0.9741210341453552,0.9921157103071221,-0.194549560546875,0.41961669921875,-0.2574920654296875,0.5293674239424518
1781112077.452581,-0.0468749962747097,-0.19140625,0.9750975966453552,0.9948110075780044,0.1125335693359375,0.2346038818359375,-0.5016326904296875,0.5651001165348521
1781112077.460537,-0.04248046875,-0.18896484375,0.9633788466453552,0.9826551300239654,-0.011444091796875,0.41961669921875,-0.6275177001953125,0.7549752350631829
1781112077.468493,-0.0444335862994194,-0.18408203125,0.9682616591453552,0.9866058880786542,0.0514984130859375,0.0514984130859375,-0.5016326904296875,0.5068920291427618
1781112077.47916,-0.0546874962747097,-0.18212890625,0.9804686903953552,0.9987394623154733,0.23651123046875,-0.19073486328125,-0.3795623779296875,0.48619435306099373
1781112077.489827,-0.0473632775247097,-0.19677734375,0.9726561903953552,0.9934911513373402,-0.011444091796875,-0.31280517578125,0.1659393310546875,0.35427941913618294
1781112077.500494,-0.0468749962747097,-0.17578125,0.9589843153953552,0.9760877164997082,0.1735687255859375,-0.1316070556640625,0.1659393310546875,0.27382910946969696
1781112077.508465,-0.0351562462747097,-0.19140625,0.9746093153953552,0.9938488978947421,-0.3147125244140625,-0.2536773681640625,0.5359649658203125,0.6713081443930842
1781112077.516439,-0.0371093712747097,-0.18896484375,0.9677733778953552,0.9867472465494151,-0.1316070556640625,0.1773834228515625,0.0476837158203125,0.22596245829237252
1781112077.524413,-0.0424804650247097,-0.18701171875,0.9658202528953552,0.9846759536829325,-0.194549560546875,0.17547607421875,0.2918243408203125,0.39217703913846913
1781112077.532387,-0.0390624962747097,-0.19091796875,0.9658202528953552,0.9852838729572739,-0.133514404296875,0.11444091796875,-0.0133514404296875,0.1763549852480135
1781112077.54305,-0.0493164025247097,-0.19140625,0.9848632216453552,1.004501879264897,-0.377655029296875,0.35858154296875,-0.0133514404296875,0.5209436678496251
1781112077.553711,-0.0371093712747097,-0.2001953125,0.9697265028953552,0.9908707075098306,-0.377655029296875,0.41961669921875,0.4138946533203125,0.7000073424354948
1781112077.564373,-0.0312499962747097,-0.18994140625,0.9824218153953552,1.001102853577045,-0.316619873046875,-0.19073486328125,0.5359649658203125,0.6510655701739304
1781112077.572414,-0.0576171875,-0.189453125,0.9760741591453552,0.9959583279530264,-0.3147125244140625,0.0514984130859375,0.1087188720703125,0.3369211372379043
1781112077.580458,-0.0366210900247097,-0.19091796875,0.9755858778953552,0.9947655905664785,0.1125335693359375,-0.2536773681640625,0.1087188720703125,0.29805335846182396
1781112077.588503,-0.0405273400247097,-0.181640625,0.9667968153953552,0.9845465271882633,-0.1316070556640625,-0.5588531494140625,-0.0743865966796875,0.5789392243372068
1781112077.596546,-0.0454101525247097,-0.2001953125,0.9687499403953552,0.9902609212300031,-0.1316070556640625,-0.3108978271484375,-0.4405975341796875,0.5550712234942505
1781112077.607135,-0.0488281175494194,-0.1943359375,0.9755858778953552,0.9959510263141832,0.171661376953125,-0.00762939453125,-1.0509490966796875,1.0649036763060815
1781112077.617722,-0.0473632775247097,-0.1962890625,0.9731444716453552,0.9938726471781629,-0.1926422119140625,-0.1316070556640625,-1.0509490966796875,1.0765339951546153
1781112077.62831,-0.0458984337747097,-0.2060546875,0.9604491591453552,0.9833757103806835,-0.3147125244140625,0.2346038818359375,-0.7457733154296875,0.8427697149296186
1781112077.636336,-0.0551757775247097,-0.18896484375,0.9667968153953552,0.9866347656846067,-0.5588531494140625,-0.1316070556640625,-0.7457733154296875,0.9411775059560064
1781112077.644362,-0.0605468712747097,-0.1806640625,0.9638671278953552,0.9825198559507087,-0.499725341796875,0.23651123046875,-0.3795623779296875,0.6706195479640336
1781112077.652388,-0.0532226487994194,-0.189453125,0.9692382216453552,0.9890135829278295,-0.4367828369140625,0.1125335693359375,-0.1964569091796875,0.4919739505447608
1781112077.660414,-0.04736328125,-0.19384765625,0.9570311903953552,0.977613877578431,-0.194549560546875,-0.19073486328125,0.5359649658203125,0.6012385251850284
1781112077.671082,-0.0380859375,-0.2021484375,0.9624022841453552,0.984140582410431,-0.194549560546875,-0.00762939453125,0.3490447998046875,0.3996748821737363
1781112077.681748,-0.0400390550494194,-0.18310546875,0.9746093153953552,0.9924686676519369,0.4177093505859375,-0.1316070556640625,0.5359649658203125,0.6921415774639305
1781112077.692415,-0.0429687462747097,-0.1904296875,0.9711913466453552,0.9906171868267715,0.1125335693359375,-0.2536773681640625,0.3490447998046875,0.4459240783102275
1781112077.703049,-0.0546874925494194,-0.19873046875,0.9687499403953552,0.9904347369044271,0.354766845703125,0.48065185546875,-0.3795623779296875,0.7077805590119977
1781112077.713686,-0.0498046800494194,-0.1884765625,0.9692382216453552,0.9886489018174713,0.2346038818359375,0.2346038818359375,-0.2574920654296875,0.4199763404100611
1781112077.724322,-0.0478515587747097,-0.19677734375,0.9697265028953552,0.9906465490315557,0.6008148193359375,0.4177093505859375,-0.1964569091796875,0.757664085109646
1781112077.732328,-0.0434570237994194,-0.1875,0.9653319716453552,0.9843325547792332,0.4177093505859375,0.6656646728515625,-0.4405975341796875,0.900953242612914
1781112077.740337,-0.0478515625,-0.1943359375,0.9716796278953552,0.992077379998431,0.354766845703125,0.48065185546875,-0.2574920654296875,0.6505289269009823
1781112077.748346,-0.0468749962747097,-0.1875,0.9570311903953552,0.9763514811098023,0.659942626953125,0.48065185546875,0.2307891845703125,0.8484186023125456
1781112077.764344,-0.0517578087747097,-0.20068359375,0.9692382216453552,0.991148579108009,0.4787445068359375,0.0514984130859375,0.2918243408203125,0.5630362646146025
1781112077.772331,-0.0629882737994194,-0.19091796875,0.9672850966453552,0.9879563004607393,0.5397796630859375,-0.1316070556640625,0.7190704345703125,0.9087050080498456
1781112077.780318,-0.0512695275247097,-0.19189453125,0.9624022841453552,0.9826852151652945,0.049591064453125,-0.19073486328125,0.6542205810546875,0.6832595629920185
1781112077.788306,-0.0581054612994194,-0.20751953125,0.9624022841453552,0.9862346358809525,0.293731689453125,0.05340576171875,1.2073516845703125,1.2437156310863502
1781112077.798986,-0.0390624925494194,-0.19384765625,0.9672850966453552,0.987290864107435,0.0514984130859375,0.1773834228515625,1.1425018310546875,1.1573363379831378
1781112077.809667,-0.0371093712747097,-0.2001953125,0.9707030653953552,0.9918264514275248,0.11444091796875,0.11444091796875,0.9632110595703125,0.9767133626042107
1781112077.820349,-0.0454101487994194,-0.20849609375,0.9726561903953552,0.9957875111877029,0.0514984130859375,-0.3108978271484375,0.9632110595703125,1.0134520663329636
1781112077.828352,-0.0512695275247097,-0.2070312350988388,0.9628905653953552,0.9862295562831934,0.1735687255859375,-0.1316070556640625,0.5359649658203125,0.5785369168764072
1781112077.836358,-0.0385742112994194,-0.1953125,0.9580077528953552,0.9784752408933147,-0.011444091796875,-0.00762939453125,0.5359649658203125,0.5361414174308281
1781112077.844365,-0.0375976525247097,-0.20068359375,0.9643554091453552,0.9857326429735851,0.0514984130859375,0.1773834228515625,-0.0133514404296875,0.18518970331650078
1781112077.852371,-0.0351562462747097,-0.18701171875,0.9653319716453552,0.9839081055071485,-0.1316070556640625,-0.1316070556640625,-0.0743865966796875,0.20043502679600136
1781112077.863008,-0.0498046837747097,-0.2001953125,0.9667968153953552,0.9885619616045683,-0.0705718994140625,0.2346038818359375,-0.0743865966796875,0.25603269346898955
1781112077.873646,-0.0415039025247097,-0.18994140625,0.9711913466453552,0.9904609752695088,0.2346038818359375,-0.0057220458984375,-0.3795623779296875,0.4462502906681331
1781112077.884284,-0.0449218675494194,-0.18408203125,0.9687499403953552,0.9871071955108309,-0.011444091796875,0.23651123046875,0.1087188720703125,0.260553876423166
1781112077.894978,-0.04248046875,-0.1923828125,0.9628905653953552,0.9828397517896886,-0.133514404296875,0.48065185546875,0.0476837158203125,0.5011247739582766
1781112077.905673,-0.0473632775247097,-0.1875,0.9550780653953552,0.9744606924125863,-0.2536773681640625,0.4825592041015625,-0.3223419189453125,0.6333402760689748
1781112077.916366,-0.0595703050494194,-0.193359375,0.9667968153953552,0.9877411358259167,-0.4367828369140625,0.1773834228515625,0.3490447998046875,0.5865802567389454
1781112077.927023,-0.0551757775247097,-0.18701171875,0.9726561903953552,0.9920069627223848,-0.133514404296875,0.11444091796875,0.5359649658203125,0.5640755839841397
1781112077.937682,-0.0454101525247097,-0.1962890625,0.9667968153953552,0.9875664839736344,0.11444091796875,-0.00762939453125,0.4749298095703125,0.48858290533433213
1781112077.948342,-0.0429687462747097,-0.19580078125,0.9790038466453552,0.9993161616029899,0.7228851318359375,-0.3108978271484375,0.7190704345703125,1.0659656010529694
1781112077.956341,-0.0458984337747097,-0.19970703125,0.9750975966453552,0.9963959491774381,1.0280609130859375,-0.2536773681640625,-0.0133514404296875,1.0589805045869751
1781112077.964339,-0.0415039025247097,-0.19189453125,0.9804686903953552,0.9999324666666348,0.782012939453125,-0.31280517578125,-0.5626678466796875,1.0129098781011132
1781112077.972336,-0.0405273400247097,-0.1953125,0.9726561903953552,0.9928995430858722,0.782012939453125,0.23651123046875,-0.8106231689453125,1.150909084871998
1781112077.980334,-0.0356445275247097,-0.1953125,0.9672850966453552,0.9874502332730111,0.782012939453125,0.66375732421875,-0.9899139404296875,1.4254990818598174
1781112077.991001,-0.0449218712747097,-0.19140625,0.9653319716453552,0.9851498071555377,0.537872314453125,0.78582763671875,-0.9288787841796875,1.3302809842229841
1781112078.001668,-0.04296875,-0.1923828125,0.9697265028953552,0.989558967641458,0.2346038818359375,0.4825592041015625,-0.6275177001953125,0.8256396495409108
1781112078.012335,-0.0410156212747097,-0.19091796875,0.9614257216453552,0.9810562523227037,-0.133514404296875,0.60272216796875,-0.4405975341796875,0.7584367442581619
1781112078.023037,-0.0571289025247097,-0.18505859375,0.9667968153953552,0.9860053128066836,-0.133514404296875,0.29754638671875,-0.0743865966796875,0.33450458019243895
1781112078.033741,-0.0517578087747097,-0.19970703125,0.9755858778953552,0.9971607564724451,-0.2536773681640625,0.1125335693359375,0.5970001220703125,0.6583503300660671
1781112078.044446,-0.0571289025247097,-0.1865234375,0.9736327528953552,0.9929831024499269,-0.194549560546875,-0.00762939453125,0.7190704345703125,0.7449631058267474
1781112078.052483,-0.0390624925494194,-0.2021484375,0.9809569716453552,1.0023305090275818,-0.2536773681640625,-0.0705718994140625,0.7190704345703125,0.7657642522204153
1781112078.060524,-0.0478515625,-0.197265625,0.9619140028953552,0.9830981882836004,-0.3147125244140625,-0.1316070556640625,0.6542205810546875,0.7378136341917032
1781112078.068563,-0.0405273400247097,-0.18408203125,0.9550780653953552,0.9735002673435375,-0.0705718994140625,-0.1316070556640625,0.4749298095703125,0.49785453106903177
1781112078.076603,-0.0429687462747097,-0.2001953125,0.9775390028953552,0.998752711378066,-0.377655029296875,0.17547607421875,0.4138946533203125,0.5871319764955656
1781112078.087164,-0.03271484375,-0.203125,0.9770507216453552,0.9984779112700973,-0.194549560546875,-0.06866455078125,0.0476837158203125,0.21175006209539907
1781112078.097725,-0.0351562462747097,-0.20068359375,0.9663085341453552,0.9875535679722331,-0.011444091796875,-0.00762939453125,-0.1392364501953125,0.13991413066935202
1781112078.108286,-0.0375976525247097,-0.19677734375,0.9819335341453552,1.0021618491879751,-0.0705718994140625,0.2346038818359375,-0.4405975341796875,0.5041285168333764
1781112078.118972,-0.0463867150247097,-0.1982421875,0.9667968153953552,0.9880019101672675,0.293731689453125,0.11444091796875,-0.7457733154296875,0.8096621932025142
1781112078.129659,-0.0600585862994194,-0.20361328125,0.9711913466453552,0.9941217399737795,0.3566741943359375,-0.0705718994140625,-0.6847381591796875,0.7752826713714719
1781112078.140346,-0.0458984337747097,-0.1826171875,0.9672850966453552,0.9854421147817846,0.293731689453125,0.29754638671875,-0.8106231689453125,0.9120976261723915
1781112078.148348,-0.0439453050494194,-0.1845703125,0.9731444716453552,0.9914673735358878,0.2346038818359375,0.4825592041015625,-0.7457733154296875,0.9187383767115708
1781112078.15635,-0.046875,-0.18798828125,0.9731444716453552,0.9922434289055517,0.5397796630859375,0.5397796630859375,-0.3223419189453125,0.8286304858449771
1781112078.164352,-0.0537109300494194,-0.18994140625,0.9648436903953552,0.984827877707942,0.2346038818359375,-0.1316070556640625,-0.4405975341796875,0.5162224187288605
1781112078.172354,-0.0556640587747097,-0.19091796875,0.9716796278953552,0.9918212830433496,0.293731689453125,-0.19073486328125,0.1087188720703125,0.36671226677620855
1781112078.18307,-0.0395507775247097,-0.1875,0.9819335341453552,1.0004568853688782,0.2346038818359375,-0.3108978271484375,0.2918243408203125,0.48668047648669877
1781112078.193786,-0.0532226487994194,-0.1923828125,0.9794921278953552,0.9996242421528239,0.2346038818359375,-0.4940032958984375,0.4138946533203125,0.6858476665981676
1781112078.204503,-0.0454101525247097,-0.18408203125,0.9570311903953552,0.9756315777848695,0.23651123046875,-0.19073486328125,0.4749298095703125,0.5638046418993485
1781112078.212464,-0.0395507775247097,-0.1748046875,0.9545897841453552,0.971268551312899,0.293731689453125,0.11444091796875,0.9021759033203125,0.955665417197012
1781112078.220427,-0.0468749962747097,-0.18603515625,0.9653319716453552,0.9842114407572312,0.2346038818359375,0.3566741943359375,0.4138946533203125,0.5946126859770335
1781112078.228388,-0.0488281212747097,-0.19580078125,0.9638671278953552,0.9847649321551663,-0.2536773681640625,0.8449554443359375,0.7190704345703125,1.1381406766760975
1781112078.236351,-0.0488281212747097,-0.1962890625,0.9702147841453552,0.9910753295580336,-0.0705718994140625,0.4177093505859375,0.2307891845703125,0.4824159432154621
1781112078.247066,-0.0478515625,-0.1923828125,0.9721679091453552,0.9921750662817289,-0.194549560546875,0.60272216796875,0.1659393310546875,0.6547208602609279
1781112078.257782,-0.0351562462747097,-0.1953125,0.9672850966453552,0.9874327280886492,-0.133514404296875,0.48065185546875,-0.0743865966796875,0.50436660088262
1781112078.268498,-0.0439453087747097,-0.18603515625,0.9819335341453552,1.0003668002305224,-0.2536773681640625,0.2346038818359375,0.1659393310546875,0.38331064436304535
1781112078.276482,-0.0366210900247097,-0.19140625,0.9721679091453552,0.9915078922256303,0.0514984130859375,-0.0057220458984375,-0.3795623779296875,0.3830827940527643
1781112078.284467,-0.0532226525247097,-0.20654296875,0.9653319716453552,0.9886144163234413,-0.011444091796875,-0.31280517578125,-0.2574920654296875,0.4053149503680323
1781112078.29245,-0.03271484375,-0.1943359375,0.9614257216453552,0.9814153737571482,-0.011444091796875,-0.19073486328125,-0.1392364501953125,0.23642661519161537
1781112078.300434,-0.0444335900247097,-0.18994140625,0.9707030653953552,0.9901093489603311,0.11444091796875,-0.31280517578125,-0.5626678466796875,0.6538645940775698
1781112078.311177,-0.0522460900247097,-0.19189453125,0.9643554091453552,0.9846494402549736,0.049591064453125,-0.19073486328125,-0.3223419189453125,0.37781394158217285
1781112078.32192,-0.0410156212747097,-0.1923827975988388,0.9755858778953552,0.9952191854809458,-0.06866455078125,-0.37384033203125,-0.3223419189453125,0.49837308022863
1781112078.332663,-0.0390624925494194,-0.193359375,0.9614257216453552,0.9814546064214361,-0.194549560546875,-0.31280517578125,-0.1392364501953125,0.3938062957438754
1781112078.340571,-0.0507812462747097,-0.1796875,0.9594725966453552,0.9774732714211899,0.11444091796875,-0.06866455078125,-0.2574920654296875,0.29002363351762817
1781112078.34848,-0.0410156212747097,-0.2021484225988388,0.9653319716453552,0.9871231338736105,-0.4978179931640625,-0.1316070556640625,-0.0133514404296875,0.5150936151613663
1781112078.356389,-0.0502929650247097,-0.1953125,0.9658202528953552,0.986653493324822,-0.0705718994140625,-0.3108978271484375,-0.0743865966796875,0.32737015392077934
1781112078.364299,-0.0449218712747097,-0.18701171875,0.9672850966453552,0.9862209770943148,-0.316619873046875,-0.06866455078125,-0.0133514404296875,0.32425487737851777
1781112078.374999,-0.0444335862994194,-0.1787109375,0.9687499403953552,0.9860975559190689,-0.0095367431640625,0.0514984130859375,0.6542205810546875,0.6563136481104748
1781112078.385698,-0.0517578087747097,-0.19482421875,0.9692382216453552,0.9899788266821458,-0.0705718994140625,0.0514984130859375,0.2918243408203125,0.30462095369900005
1781112078.396398,-0.0517578125,-0.193359375,0.9550780653953552,0.9758282789786891,-0.011444091796875,0.11444091796875,0.4138946533203125,0.4295770885297855
1781112078.407054,-0.04296875,-0.18359375,0.9726561903953552,0.9907638685529617,-0.133514404296875,0.29754638671875,0.3490447998046875,0.4776946939990308
1781112078.417709,-0.0434570275247097,-0.1962890625,0.9624022841453552,0.9831765181423981,-0.06866455078125,0.11444091796875,0.2307891845703125,0.26659930974057455
1781112078.428365,-0.0366210900247097,-0.18896484375,0.9643554091453552,0.9833769224239327,0.1735687255859375,0.5397796630859375,0.0476837158203125,0.569000811894963
