timestamp,accel_x,accel_y,accel_z,accel_rms,gyro_x,gyro_y,gyro_z,gyro_rms
1785514104.200598,-0.0322265587747097,-0.18603515625,0.9765624403953552,0.9946465856988368,0.0782012939453125,0.3261566162109375,0.1659393310546875,0.37420508048898415
1785514104.208586,-0.0512695275247097,-0.18701171875,0.9711913466453552,0.9903608328287496,-0.041961669921875,0.57220458984375,0.4100799560546875,0.7052265201612181
1785514104.216575,-0.0390624962747097,-0.1767578125,0.9760741591453552,0.9927184732069355,0.019073486328125,0.32806396484375,0.4100799560546875,0.5255048365786226
1785514104.224565,-0.0410156212747097,-0.1845703125,0.9677733778953552,0.9860698719704827,-0.0438690185546875,0.4482269287109375,-0.2040863037109375,0.49445231294128295
1785514104.235243,-0.0385742112994194,-0.1884765625,0.9804686903953552,0.9991647698126529,-0.041961669921875,0.51116943359375,-0.0782012939453125,0.5188163586066931
1785514104.24592,-0.0341796800494194,-0.18359375,0.9848632216453552,1.0024123307885888,-0.4100799560546875,0.5741119384765625,-0.0171661376953125,0.70573703639706
1785514104.256598,-0.0390624962747097,-0.1630859375,0.9716796278953552,0.986044725604433,0.0171661376953125,0.2651214599609375,0.1010894775390625,0.28425894407091934
1785514104.267267,-0.0512695275247097,-0.17138671875,0.9677733778953552,0.9841683203494637,0.019073486328125,0.02288818359375,-0.0782012939453125,0.0836845816363537
1785514104.277938,-0.0439453087747097,-0.1728515625,0.9794921278953552,0.9955971481633357,0.1392364501953125,0.1430511474609375,0.4711151123046875,0.5116638241020572
1785514104.28861,-0.0546874962747097,-0.17138671875,0.9755858778953552,0.9920342407203185,-0.2269744873046875,-0.0400543212890625,0.0438690185546875,0.2346193882229359
1785514104.296608,-0.0454101487994194,-0.17333984375,0.9687499403953552,0.9851828409291669,-0.2269744873046875,0.0858306884765625,-0.0171661376953125,0.24326734522940166
1785514104.304606,-0.0488281212747097,-0.1826171875,0.9653319716453552,0.9836661212415201,-0.0438690185546875,-0.1621246337890625,0.1659393310546875,0.23610325974256754
1785514104.312604,-0.0429687462747097,-0.18017578125,0.9770507216453552,0.9944534870838242,-0.0438690185546875,-0.0400543212890625,0.4100799560546875,0.4143602415781386
1785514104.320602,-0.0439453050494194,-0.17333984375,0.9643554091453552,0.9807952112521076,-0.591278076171875,-0.28228759765625,0.7152557373046875,0.9699932066253467
1785514104.331259,-0.0556640587747097,-0.17236328125,0.9804686903953552,0.9970588954560928,-0.164031982421875,-0.40435791015625,0.4100799560546875,0.5988133107413317
1785514104.341916,-0.0395507775247097,-0.1865234375,0.9711913466453552,0.9897312203514872,0.019073486328125,-0.40435791015625,0.4711151123046875,0.6211429516854372
1785514104.352573,-0.0424804650247097,-0.1767578125,0.9853515028953552,1.0019807874638296,0.507354736328125,-0.28228759765625,0.8983612060546875,1.0696485276992396
1785514104.360631,-0.03271484375,-0.18310546875,0.9755858778953552,0.9931594428069418,0.568389892578125,-0.09918212890625,-0.0171661376953125,0.5772337836290621
1785514104.368689,-0.0322265625,-0.17822265625,0.9794921278953552,0.9960957258920163,0.385284423828125,0.32806396484375,0.1659393310546875,0.532546630694861
1785514104.376748,-0.0444335900247097,-0.17138671875,0.9731444716453552,0.9891197672578853,0.202178955078125,0.38909912109375,0.0438690185546875,0.44068009564917127
1785514104.384805,-0.0498046837747097,-0.1875,0.9794921278953552,0.9985196969188288,0.202178955078125,0.45013427734375,-0.5702972412109375,0.7541459678663467
1785514104.395394,-0.0375976525247097,-0.18017578125,0.9814452528953552,0.9985547957199167,-0.2269744873046875,0.6313323974609375,-0.3871917724609375,0.7746066631732801
1785514104.405983,-0.0385742112994194,-0.17822265625,0.9619140028953552,0.9790453686854064,-0.102996826171875,0.38909912109375,-0.8106231689453125,0.9050504926623425
1785514104.416572,-0.0463867150247097,-0.1689453125,0.9643554091453552,0.9801406027169836,-0.530242919921875,0.20599365234375,-0.7495880126953125,0.9409958170521809
1785514104.427554,-0.0537109337747097,-0.1767578125,0.9750975966453552,0.9924432032465557,-0.4711151123046875,0.2651214599609375,-0.8106231689453125,0.9743452979332419
1785514104.43854,-0.0395507775247097,-0.1767578125,0.9790038466453552,0.995618461072813,-0.4100799560546875,0.1430511474609375,-0.5054473876953125,0.6664129822232764
1785514104.449524,-0.0400390587747097,-0.17529296875,0.9770507216453552,0.9934580332296189,-0.652313232421875,0.08392333984375,-0.3223419189453125,0.7324342925290644
1785514104.457331,-0.0463867150247097,-0.19140625,0.9790038466453552,0.9986173499475404,-0.8983612060546875,-0.2231597900390625,-0.1392364501953125,0.936076886530857
1785514104.465138,-0.0434570275247097,-0.171875,0.9746093153953552,0.9906022645450021,-0.652313232421875,-0.58746337890625,0.1010894775390625,0.8836542633958963
1785514104.472945,-0.0498046800494194,-0.18359375,0.9721679091453552,0.9906046712821109,-0.8373260498046875,-0.5283355712890625,0.0438690185546875,0.9910488788953921
1785514104.480752,-0.0351562462747097,-0.1796875,0.9721679091453552,0.9892593203404402,-0.728607177734375,-0.415802001953125,0.2231597900390625,0.8680783467893645
1785514104.491414,-0.0400390587747097,-0.1875,0.9707030653953552,0.9894563241475108,-0.6046295166015625,-0.2346038818359375,0.1621246337890625,0.6685059690081812
1785514104.502074,-0.0278320275247097,-0.18603515625,0.9848632216453552,1.002666079244115,-0.1773834228515625,-0.5397796630859375,0.0400543212890625,0.5695887218314912
1785514104.512736,-0.0361328087747097,-0.17138671875,0.9672850966453552,0.9830154858526164,0.003814697265625,-0.476837158203125,-0.2651214599609375,0.5455984016566392
1785514104.521628,-0.0537109337747097,-0.1826171875,0.9750975966453552,0.9935035100898785,0.1888275146484375,-0.4749298095703125,0.1621246337890625,0.5361889137123564
1785514104.530524,-0.0400390587747097,-0.1748046875,0.9526366591453552,0.969369077981736,0.3108978271484375,-0.1125335693359375,-0.2040863037109375,0.38855177584911255
1785514104.53942,-0.0439453050494194,-0.19775390625,0.9750975966453552,0.9959182297039091,0.37384033203125,-0.171661376953125,0.1010894775390625,0.423607488909012
1785514104.548316,-0.0439453087747097,-0.18212890625,0.9643554091453552,0.9823866264373876,0.431060791015625,-0.354766845703125,0.4673004150390625,0.7280402449431221
1785514104.557763,-0.0444335900247097,-0.1806640625,0.9804686903953552,0.9979642780415894,0.4940032958984375,-0.1125335693359375,0.2841949462890625,0.5809215334984997
1785514104.56721,-0.0400390587747097,-0.171875,0.9726561903953552,0.9885363961771818,0.431060791015625,0.011444091796875,0.2841949462890625,0.5164408390941936
1785514104.576657,-0.0468749962747097,-0.181640625,0.9682616591453552,0.9862663040462554,0.431060791015625,0.316619873046875,0.3452301025390625,0.6365888573155889
1785514104.584664,-0.0341796837747097,-0.17138671875,0.9707030653953552,0.9863093324686582,0.247955322265625,0.682830810546875,0.3452301025390625,0.8043155981149961
1785514104.592671,-0.0434570237994194,-0.17529296875,0.9746093153953552,0.9912010166793085,-0.179290771484375,0.621795654296875,0.1621246337890625,0.6671277338884802
1785514104.600678,-0.0424804650247097,-0.17529296875,0.9775390028953552,0.994039595279559,0.0057220458984375,0.7419586181640625,-0.0820159912109375,0.7464998028743889
1785514104.608685,-0.0434570275247097,-0.18115234375,0.9731444716453552,0.9908152439185214,0.247955322265625,0.560760498046875,0.2231597900390625,0.652483310054677
1785514104.619388,-0.0371093712747097,-0.1708984375,0.9726561903953552,0.9882527237962723,-0.240325927734375,-0.232696533203125,0.2841949462890625,0.4389430436883403
1785514104.630091,-0.0454101525247097,-0.16259765625,0.9785155653953552,0.9929716972257076,-0.057220458984375,-0.354766845703125,0.4673004150390625,0.589494167598126
1785514104.640794,-0.0444335900247097,-0.1865234375,0.9721679091453552,0.990896452830139,-0.2384185791015625,-0.1125335693359375,0.5283355712890625,0.5904622756600411
1785514104.648748,-0.0380859375,-0.18310546875,0.9765624403953552,0.9943099875352469,0.1888275146484375,0.6847381591796875,0.1621246337890625,0.7285647354946096
1785514104.656704,-0.04736328125,-0.1689453125,0.9628905653953552,0.9787461570570155,0.0667572021484375,0.3795623779296875,0.2841949462890625,0.4788432836268766
1785514104.66466,-0.0556640587747097,-0.18408203125,0.9755858778953552,0.994360340529152,0.308990478515625,0.499725341796875,0.4062652587890625,0.7143192518379037
1785514104.672616,-0.0468749962747097,-0.18115234375,0.9790038466453552,0.9967256235636136,0.125885009765625,0.316619873046875,0.4062652587890625,0.5302326283725424
1785514104.683269,-0.0410156212747097,-0.18994140625,0.9726561903953552,0.9918770507029505,-0.1773834228515625,-0.1125335693359375,0.4673004150390625,0.5123459386251662
1785514104.693922,-0.0444335900247097,-0.18603515625,0.9736327528953552,0.9922419870142735,-0.2994537353515625,-0.0514984130859375,0.2841949462890625,0.4160425382849891
1785514104.704576,-0.0483398362994194,-0.17919921875,0.9750975966453552,0.9926048673856143,-0.179290771484375,-0.354766845703125,0.1621246337890625,0.4292890546366689
1785514104.71525,-0.0517578087747097,-0.1865234375,0.9731444716453552,0.9922096684672517,-0.1773834228515625,-0.2346038818359375,0.2231597900390625,0.3691939218964814
1785514104.725926,-0.0458984337747097,-0.17724609375,0.9741210341453552,0.991178406310903,-0.1773834228515625,-0.2346038818359375,0.2841949462890625,0.40898731957270984
1785514104.736602,-0.0444335862994194,-0.1796875,0.9775390028953552,0.9949092639177319,0.003814697265625,-0.171661376953125,0.2841949462890625,0.3320375697852795
1785514104.744592,-0.0415039025247097,-0.17529296875,0.9702147841453552,0.9867962941723014,0.125885009765625,-0.171661376953125,0.0400543212890625,0.21660797001740684
1785514104.752585,-0.0444335900247097,-0.17626953125,0.9687499403953552,0.9856580231427039,-0.057220458984375,-0.354766845703125,0.5893707275390625,0.6902836737287441
1785514104.760578,-0.0502929650247097,-0.18603515625,0.9829100966453552,1.0016240411348563,-0.0553131103515625,-0.1125335693359375,0.5893707275390625,0.602562195033985
1785514104.768571,-0.0390624962747097,-0.16796875,0.9775390028953552,0.9926338105129301,0.06866455078125,-0.354766845703125,0.7114410400390625,0.7979490515039157
1785514104.77926,-0.0380859337747097,-0.16748046875,0.9726561903953552,0.9877045663955476,-0.11444091796875,-0.171661376953125,0.5893707275390625,0.6244375121042112
1785514104.789949,-0.0332031212747097,-0.18115234375,0.9750975966453552,0.9923376148731081,-0.2994537353515625,0.1316070556640625,0.4062652587890625,0.5215787737394144
1785514104.800638,-0.0385742150247097,-0.17578125,0.9863280653953552,1.0026116249589765,-0.362396240234375,-0.049591064453125,0.3452301025390625,0.5029653390729191
1785514104.811296,-0.0273437462747097,-0.17578125,0.9775390028953552,0.9935940974530513,-0.4215240478515625,-0.0514984130859375,0.1621246337890625,0.4545536341827814
1785514104.821954,-0.0327148400247097,-0.17236328125,0.9819335341453552,0.9974832464559474,-0.4215240478515625,-0.1125335693359375,0.2841949462890625,0.520685216460863
1785514104.832612,-0.0385742112994194,-0.1748046875,0.9916991591453552,1.007726089172524,-0.11444091796875,-0.171661376953125,0.2231597900390625,0.3039155210469704
1785514104.840613,-0.0537109337747097,-0.17578125,0.9633788466453552,0.980756195199525,-0.2994537353515625,0.0133514404296875,-0.1430511474609375,0.33213616389583656
1785514104.848616,-0.0483398362994194,-0.177734375,0.9799804091453552,0.997139834796902,-0.240325927734375,0.011444091796875,-0.2651214599609375,0.35801802651579195
1785514104.85662,-0.0439453087747097,-0.171875,0.9648436903953552,0.9810176107919942,-0.5435943603515625,0.0705718994140625,-0.1430511474609375,0.5665146532816462
1785514104.87529,-0.0390624962747097,-0.1728515625,0.9775390028953552,0.9934717124586631,-0.179290771484375,0.011444091796875,-0.1430511474609375,0.229651428835983
1785514104.88596,-0.0468749962747097,-0.177734375,0.9716796278953552,0.988912570756005,-0.4825592041015625,-0.0514984130859375,0.2231597900390625,0.5341495707232028
1785514104.896631,-0.0493164025247097,-0.1806640625,0.9765624403953552,0.9943569836974621,-0.1163482666015625,-0.0514984130859375,-0.0820159912109375,0.1513790887337835
1785514104.904625,-0.0527343712747097,-0.18505859375,0.9633788466453552,0.9824084686107919,-0.240325927734375,-0.293731689453125,-0.2651214599609375,0.4629516664428308
1785514104.91262,-0.0317382775247097,-0.18994140625,0.9804686903953552,0.9992016357642965,-0.2994537353515625,-0.4177093505859375,0.4062652587890625,0.6551374677744154
1785514104.920613,-0.0312499962747097,-0.18115234375,0.9814452528953552,0.998512653071615,-0.4215240478515625,-0.2346038818359375,0.1621246337890625,0.5089262237013283
1785514104.928607,-0.0424804650247097,-0.19677734375,0.9609374403953552,0.9817976763445706,-0.1163482666015625,-0.1125335693359375,0.0400543212890625,0.16674852929666864
1785514104.939283,-0.0375976525247097,-0.177734375,0.9780272841453552,0.9947564827960403,-0.2994537353515625,-0.2918243408203125,0.0400543212890625,0.4200456334318225
1785514104.94996,-0.0434570237994194,-0.18017578125,0.9687499403953552,0.986320572675312,-0.1773834228515625,-0.4177093505859375,-0.2651214599609375,0.5255809821533508
1785514104.960635,-0.0302734337747097,-0.17626953125,0.9692382216453552,0.9856014198132312,0.1888275146484375,-0.0514984130859375,-0.2040863037109375,0.28277046557423346
1785514104.971283,-0.0400390550494194,-0.18408203125,0.9824218153953552,1.000320920266632,-0.057220458984375,-0.171661376953125,-0.2040863037109375,0.2727508544921875
1785514104.981932,-0.0317382775247097,-0.171875,0.9682616591453552,0.9839100438841711,0.0057220458984375,0.0705718994140625,-0.6313323974609375,0.6352902729303728
1785514104.992581,-0.0434570237994194,-0.18505859375,0.9721679091453552,0.9905784368793228,-0.057220458984375,-0.293731689453125,-0.3871917724609375,0.48935667460126875
1785514105.00058,-0.0410156212747097,-0.1875,0.9746093153953552,0.99332867110738,0.06866455078125,-0.293731689453125,-0.0820159912109375,0.3126015814695929
1785514105.008581,-0.0537109300494194,-0.1845703125,0.9702147841453552,0.9890742093682048,-0.240325927734375,-0.171661376953125,0.2231597900390625,0.3701681668770417
1785514105.016582,-0.0415039025247097,-0.17724609375,0.9829100966453552,0.9996254347313277,-0.2994537353515625,0.0133514404296875,-0.0209808349609375,0.30048460195692095
1785514105.024583,-0.0468749962747097,-0.1767578125,0.9780272841453552,0.9949763605675658,-0.6046295166015625,-0.0514984130859375,0.3452301025390625,0.6981495273903296
1785514105.032583,-0.04150390625,-0.17822265625,0.9672850966453552,0.984442150472555,-0.240325927734375,0.194549560546875,0.5283355712890625,0.6121638334136624
1785514105.040583,-0.033203125,-0.19384765625,0.9799804091453552,0.9995203668020385,-0.11444091796875,-0.171661376953125,0.4062652587890625,0.45564878200420655
1785514105.048584,-0.0297851525247097,-0.16259765625,0.9785155653953552,0.9923798994588238,-0.057220458984375,0.194549560546875,0.4062652587890625,0.45406516375329725
1785514105.056583,-0.0336913987994194,-0.18505859375,0.9853515028953552,1.0031447441580523,0.308990478515625,0.133514404296875,-0.0209808349609375,0.3372557003279891
1785514105.067278,-0.0380859337747097,-0.1708984375,0.9736327528953552,0.9892510054591912,-0.1163482666015625,0.4367828369140625,-0.0209808349609375,0.4525001228724064
1785514105.077974,-0.0410156212747097,-0.1787109375,0.9765624403953552,0.9936267309013033,0.1888275146484375,0.5016326904296875,-0.2651214599609375,0.5979804134985122
1785514105.088668,-0.02880859375,-0.1728515625,0.9721679091453552,0.9878350273727874,0.1277923583984375,0.2536773681640625,-0.2040863037109375,0.3497632246907514
1785514105.099324,-0.0429687462747097,-0.17041015625,0.9682616591453552,0.9840815896461461,0.125885009765625,0.194549560546875,-0.5092620849609375,0.5595037429467606
1785514105.109979,-0.0380859337747097,-0.1669921875,0.9687499403953552,0.9837750637485843,0.06866455078125,0.194549560546875,-0.1430511474609375,0.2510537449090611
1785514105.120634,-0.0410156212747097,-0.1865234375,0.9760741591453552,0.994582343537567,0.2498626708984375,-0.1125335693359375,-0.3871917724609375,0.4743549590732973
1785514105.131285,-0.0346679612994194,-0.16845703125,0.9804686903953552,0.9954388438090028,0.1277923583984375,-0.2346038818359375,0.4062652587890625,0.48623176442563804
1785514105.141938,-0.0439453087747097,-0.18701171875,0.9824218153953552,1.0010280697751883,0.6160736083984375,-0.1125335693359375,0.1621246337890625,0.6469118116666253
1785514105.152591,-0.0463867150247097,-0.16796875,0.9648436903953552,0.9804532498814383,0.431060791015625,0.194549560546875,0.3452301025390625,0.5855311782980733
1785514105.160598,-0.0336913987994194,-0.1826171875,0.9707030653953552,0.9883059185755243,0.431060791015625,0.194549560546875,0.2231597900390625,0.5229371175870737
1785514105.168604,-0.0356445275247097,-0.17529296875,0.9692382216453552,0.9856068625643284,0.308990478515625,0.194549560546875,-0.0820159912109375,0.37423424500786895
1785514105.176611,-0.0283203125,-0.17431640625,0.9755858778953552,0.9914414025734772,-0.057220458984375,0.377655029296875,-0.2651214599609375,0.46495902035709025
1785514105.184618,-0.0537109300494194,-0.17822265625,0.9687499403953552,0.9864707933961266,-0.1773834228515625,0.2536773681640625,-0.3261566162109375,0.44966123261779006
1785514105.195289,-0.0434570275247097,-0.17138671875,0.9760741591453552,0.991959013647483,-0.240325927734375,0.255584716796875,-0.2651214599609375,0.4397379759963265
1785514105.205961,-0.0556640587747097,-0.189453125,0.9750975966453552,0.994890092922373,-0.4215240478515625,-0.1125335693359375,-0.5092620849609375,0.6705924234014382
1785514105.216631,-0.0434570237994194,-0.18408203125,0.9765624403953552,0.9947104639730905,-0.362396240234375,-0.537872314453125,-0.3261566162109375,0.7259585386847799
1785514105.22729,-0.0512695275247097,-0.1826171875,0.9594725966453552,0.9780415458130588,-0.179290771484375,-0.171661376953125,-0.2040863037109375,0.3213472085444314
1785514105.237949,-0.0356445275247097,-0.177734375,0.9643554091453552,0.9812448193733335,-0.240325927734375,-0.415802001953125,0.1621246337890625,0.5068848520629239
1785514105.248609,-0.0537109337747097,-0.17236328125,0.9775390028953552,0.994070655090403,-0.2994537353515625,-0.5397796630859375,0.2231597900390625,0.6563801613298884
1785514105.256654,-0.0458984337747097,-0.173828125,0.9819335341453552,0.9982566547452486,-0.1163482666015625,0.0705718994140625,0.2841949462890625,0.3150937632266623
1785514105.264701,-0.04248046875,-0.18798828125,0.9741210341453552,0.9930035112107938,-0.2994537353515625,-0.1125335693359375,0.5283355712890625,0.6176364786286752
1785514105.272748,-0.0302734337747097,-0.181640625,0.9755858778953552,0.9928129746290352,-0.1773834228515625,-0.1125335693359375,0.5283355712890625,0.568565879049528
1785514105.280795,-0.046875,-0.1884765625,0.9721679091453552,0.9913783958755951,-0.057220458984375,0.499725341796875,0.6504058837890625,0.8222088614383924
1785514105.291401,-0.0341796837747097,-0.17578125,0.9799804091453552,0.9962072580257582,0.003814697265625,0.316619873046875,0.5283355712890625,0.6159554949935813
1785514105.302007,-0.0400390587747097,-0.17138671875,0.9687499403953552,0.9846080339949804,0.3719329833984375,0.2536773681640625,0.7114410400390625,0.841923217823437
1785514105.312613,-0.0307617150247097,-0.1767578125,0.9770507216453552,0.9933869941059003,0.3108978271484375,0.3795623779296875,0.4673004150390625,0.6775652998500873
1785514105.320716,-0.0434570237994194,-0.18017578125,0.9790038466453552,0.9963936756187051,0.308990478515625,0.194549560546875,0.4062652587890625,0.5462381420417665
1785514105.32882,-0.0366210900247097,-0.1728515625,0.9770507216453552,0.9928982221562282,0.308990478515625,0.194549560546875,0.3452301025390625,0.5025022099667112
1785514105.336924,-0.0424804650247097,-0.17236328125,0.9819335341453552,0.9978512695342777,0.247955322265625,0.072479248046875,0.1010894775390625,0.27740613855214347
1785514105.345028,-0.0356445275247097,-0.177734375,0.9819335341453552,0.9985256661089328,0.06866455078125,0.316619873046875,0.2231597900390625,0.3933996141743006
1785514105.355652,-0.0375976525247097,-0.17578125,0.9633788466453552,0.9800058333962437,-0.11444091796875,0.011444091796875,0.2841949462890625,0.3065851569121189
1785514105.366276,-0.0424804650247097,-0.18017578125,0.9726561903953552,0.9901151280392442,-0.179290771484375,0.194549560546875,-0.0820159912109375,0.27698616402765885
1785514105.3769,-0.0444335862994194,-0.18408203125,0.9653319716453552,0.983730833765651,0.0057220458984375,0.0705718994140625,0.4062652587890625,0.41238888842343496
1785514105.387497,-0.0488281212747097,-0.1767578125,0.9614257216453552,0.9787578494951114,-0.179290771484375,0.011444091796875,0.2231597900390625,0.28648985997203485
1785514105.398093,-0.0512695275247097,-0.166015625,0.9653319716453552,0.980844313679524,-0.1163482666015625,-0.3566741943359375,0.4062652587890625,0.5529962572615861
1785514105.408689,-0.04248046875,-0.1689453125,0.9750975966453552,0.9905364363941844,-0.4825592041015625,-0.2918243408203125,0.1621246337890625,0.5867786876153402
1785514105.416772,-0.0410156212747097,-0.18603515625,0.9824218153953552,1.0007217315089234,-0.2994537353515625,-0.0514984130859375,-0.0820159912109375,0.31472408389045486
1785514105.424856,-0.0390624925494194,-0.17822265625,0.9775390028953552,0.9944202812224942,0.0057220458984375,0.1316070556640625,-0.2040863037109375,0.24290816839336732
1785514105.43294,-0.0415039025247097,-0.1767578125,0.9819335341453552,0.9985786717548865,0.0057220458984375,0.4367828369140625,-0.3871917724609375,0.5837203586422207
1785514105.441025,-0.04296875,-0.17919921875,0.9741210341453552,0.9913982361501301,0.3108978271484375,0.2536773681640625,-0.5702972412109375,0.6973152869234055
1785514105.448921,-0.0449218712747097,-0.17431640625,0.9770507216453552,0.993494990764647,0.4329681396484375,0.0705718994140625,-0.4482269287109375,0.6271755595996844
1785514105.456818,-0.0458984337747097,-0.17236328125,0.9716796278953552,0.9879155157264684,0.0057220458984375,0.1964569091796875,-0.6923675537109375,0.7197227858039287
1785514105.464715,-0.0488281212747097,-0.1728515625,0.9653319716453552,0.9819000272770227,0.1888275146484375,-0.1125335693359375,-0.3871917724609375,0.4452382543955927
1785514105.472612,-0.0312499962747097,-0.1748046875,0.9750975966453552,0.9911349877906086,0.0057220458984375,-0.1125335693359375,-0.3871917724609375,0.40325428044621237
1785514105.483245,-0.0512695275247097,-0.18115234375,0.9902343153953552,1.0079725866734834,0.1888275146484375,-0.1125335693359375,-0.3261566162109375,0.39331637750538806
1785514105.493879,-0.0419921837747097,-0.17626953125,0.9702147841453552,0.9869908907986344,-0.057220458984375,-0.232696533203125,-0.2651214599609375,0.35736710260312793
1785514105.504512,-0.0498046837747097,-0.1796875,0.9775390028953552,0.9951636078373215,0.0057220458984375,-0.2346038818359375,-0.2651214599609375,0.35406371137631903
1785514105.515227,-0.0483398362994194,-0.1728515625,0.9755858778953552,0.9919587731256763,-0.179290771484375,-0.171661376953125,-0.6313323974609375,0.6783755635049662
1785514105.525943,-0.0322265587747097,-0.18017578125,0.9663085341453552,0.9834907454580611,0.0057220458984375,-0.1125335693359375,-0.1430511474609375,0.18209935976450045
1785514105.536659,-0.0449218712747097,-0.18212890625,0.9765624403953552,0.9944159657817118,-0.057220458984375,-0.171661376953125,-0.1430511474609375,0.23066304440398835
1785514105.544644,-0.03759765625,-0.16455078125,0.9619140028953552,0.9766110240682541,-0.179290771484375,-0.171661376953125,-0.1430511474609375,0.28648985997203485
1785514105.552629,-0.04248046875,-0.19384765625,0.9755858778953552,0.9955648191894332,-0.3604888916015625,-0.1125335693359375,-0.0820159912109375,0.3864487909282702
1785514105.560612,-0.0346679650247097,-0.1826171875,0.9848632216453552,1.0022507023290295,-0.484466552734375,0.011444091796875,-0.5702972412109375,0.7483834253163217
1785514105.568596,-0.0336914025247097,-0.17138671875,0.9702147841453552,0.9858119726104932,-0.1163482666015625,-0.1125335693359375,-0.3871917724609375,0.4196643802255761
1785514105.579243,-0.0483398362994194,-0.177734375,0.9746093153953552,0.9918616665067252,-0.240325927734375,-0.171661376953125,-0.3871917724609375,0.48697191760949965
1785514105.58989,-0.0458984337747097,-0.177734375,0.9790038466453552,0.9960646093632753,-0.2384185791015625,-0.1125335693359375,-0.5092620849609375,0.5734588862918207
1785514105.600537,-0.0424804650247097,-0.1767578125,0.9804686903953552,0.9971794056407722,-0.057220458984375,0.133514404296875,-0.3871917724609375,0.4135429188640211
1785514105.608573,-0.0322265587747097,-0.189453125,0.9736327528953552,0.9924171376862218,-0.179290771484375,0.133514404296875,-0.2651214599609375,0.3467861955528662
1785514105.616607,-0.0351562462747097,-0.166015625,0.9741210341453552,0.9887916557903819,-0.3604888916015625,0.7419586181640625,-0.7534027099609375,1.1171707458631974
1785514105.624641,-0.0571289025247097,-0.1845703125,0.9677733778953552,0.9868714317088176,-0.2994537353515625,0.5016326904296875,-0.2651214599609375,0.6415584807759533
1785514105.632675,-0.0444335862994194,-0.17822265625,0.9829100966453552,0.9999249556239783,-0.1773834228515625,0.5588531494140625,-0.2040863037109375,0.6208324578136566
1785514105.643345,-0.0395507775247097,-0.1796875,0.9760741591453552,0.9932636235211533,-0.362396240234375,0.316619873046875,-0.3871917724609375,0.6176541488613774
1785514105.654016,-0.0361328087747097,-0.1826171875,0.9750975966453552,0.9927083861960206,-0.057220458984375,0.438690185546875,-0.5092620849609375,0.6745896019064445
1785514105.664685,-0.0458984337747097,-0.1669921875,0.9716796278953552,0.9869925816214945,-0.1773834228515625,0.3795623779296875,-0.7534027099609375,0.8620603927908181
1785514105.672694,-0.0439453087747097,-0.1826171875,0.9819335341453552,0.9997368117724296,0.06866455078125,0.194549560546875,-0.7534027099609375,0.7811401893510905
1785514105.680703,-0.0532226487994194,-0.18017578125,0.9653319716453552,0.9834438356993159,0.1277923583984375,0.2536773681640625,-0.6313323974609375,0.6922887331651839
1785514105.688712,-0.0390624925494194,-0.1748046875,0.9687499403953552,0.9851695306454369,0.0057220458984375,0.1964569091796875,-0.5702972412109375,0.6032138943248124
1785514105.696721,-0.0610351525247097,-0.177734375,0.9697265028953552,0.9877673249900558,0.1277923583984375,0.0705718994140625,-0.6313323974609375,0.6479906449445998
1785514105.704717,-0.0434570237994194,-0.17333984375,0.9638671278953552,0.9802933512913462,0.0057220458984375,-0.2918243408203125,-0.4482269287109375,0.5348846299213631
1785514105.712713,-0.0454101525247097,-0.18408203125,0.9760741591453552,0.994318379762114,0.1277923583984375,-0.2346038818359375,-0.0209808349609375,0.26797399812889183
1785514105.720709,-0.0517578087747097,-0.185546875,0.9707030653953552,0.9896317268354751,-0.057220458984375,-0.293731689453125,-0.0209808349609375,0.2999878026704214
1785514105.728706,-0.0385742112994194,-0.1787109375,0.9765624403953552,0.9935289472131312,-0.057220458984375,-0.171661376953125,-0.2040863037109375,0.2727508544921875
1785514105.739342,-0.04736328125,-0.1884765625,0.9765624403953552,0.9957112508220015,0.1888275146484375,0.0705718994140625,-0.0209808349609375,0.20267318202187612
1785514105.749979,-0.0478515587747097,-0.18212890625,0.9804686903953552,0.9983884830137885,0.0667572021484375,-0.2346038818359375,-0.2040863037109375,0.31803572876890873
1785514105.760617,-0.0434570275247097,-0.18212890625,0.9770507216453552,0.994830419921312,0.06866455078125,-0.171661376953125,-0.0209808349609375,0.1860716106962366
1785514105.771278,-0.0444335862994194,-0.17919921875,0.9594725966453552,0.9770743918993163,0.125885009765625,-0.049591064453125,-0.0820159912109375,0.1582179894057502
1785514105.781941,-0.0429687462747097,-0.181640625,0.9809569716453552,0.9985570639810413,0.1277923583984375,0.0705718994140625,-0.2651214599609375,0.3026560232074727
1785514105.792604,-0.0395507775247097,-0.17626953125,0.9809569716453552,0.9974526514424281,-0.1163482666015625,-0.0514984130859375,0.0400543212890625,0.1333917326729268
1785514105.803263,-0.033203125,-0.189453125,0.9711913466453552,0.9900543247119573,-0.179290771484375,-0.171661376953125,-0.1430511474609375,0.28648985997203485
1785514105.813922,-0.0380859375,-0.19384765625,0.9687499403953552,0.9886879687165594,0.0667572021484375,0.2536773681640625,-0.0820159912109375,0.2748369588895301
1785514105.824581,-0.0512695275247097,-0.1708984375,0.9731444716453552,0.9893659601413756,0.0667572021484375,0.0705718994140625,-0.2651214599609375,0.28235846995869435
1785514105.832577,-0.0419921837747097,-0.17236328125,0.9804686903953552,0.9963891293400478,0.125885009765625,0.194549560546875,-0.0209808349609375,0.23267308101353662
1785514105.840572,-0.0439453087747097,-0.1708984375,0.9721679091453552,0.9880525844687101,0.247955322265625,-0.049591064453125,-0.2651214599609375,0.36637481360658913
1785514105.848568,-0.0434570237994194,-0.1875,0.9790038466453552,0.9977441027958549,-0.1773834228515625,0.0705718994140625,-0.3261566162109375,0.3779198459827342
1785514105.856565,-0.0351562462747097,-0.1806640625,0.9765624403953552,0.993755334638292,0.0667572021484375,-0.0514984130859375,-0.0820159912109375,0.11762326897076864
1785514105.867249,-0.0483398362994194,-0.173828125,0.9697265028953552,0.9863683121593706,0.247955322265625,-0.293731689453125,0.1010894775390625,0.3974660107455198
1785514105.877934,-0.0483398362994194,-0.1884765625,0.9648436903953552,0.9842680027721104,-0.11444091796875,-0.171661376953125,0.1621246337890625,0.26239045128245553
1785514105.888619,-0.0473632775247097,-0.1826171875,0.9672850966453552,0.9855114283561135,-0.179290771484375,-0.354766845703125,0.2841949462890625,0.48864246954787954
1785514105.899321,-0.0390624962747097,-0.17626953125,0.9843749403953552,1.000795108671433,0.125885009765625,-0.171661376953125,0.2841949462890625,0.3550794721148739
1785514105.910025,-0.0371093712747097,-0.17626953125,0.9716796278953552,0.9882354741408319,0.247955322265625,-0.476837158203125,0.5283355712890625,0.7536537621298138
1785514105.920729,-0.0351562462747097,-0.16748046875,0.9736327528953552,0.9885577406380649,0.6160736083984375,-0.1125335693359375,0.4673004150390625,0.7813962970786575
1785514105.931355,-0.0434570275247097,-0.17578125,0.9697265028953552,0.9864872282551362,0.614166259765625,0.499725341796875,0.5893707275390625,0.9870579853019905
1785514105.941983,-0.0488281175494194,-0.18994140625,0.9667968153953552,0.9864877115961699,0.308990478515625,0.499725341796875,0.4673004150390625,0.7507131349210553
1785514105.952611,-0.0385742112994194,-0.1904296875,0.9770507216453552,0.9961824874622266,0.37384033203125,0.316619873046875,0.0400543212890625,0.49153747213755933
1785514105.960628,-0.03662109375,-0.18798828125,0.9775390028953552,0.9961240889449571,-0.179290771484375,0.621795654296875,0.1010894775390625,0.6549764109577244
1785514105.968645,-0.0507812462747097,-0.1787109375,0.9794921278953552,0.9969559482566481,-0.240325927734375,0.438690185546875,0.2231597900390625,0.54772796379847
1785514105.976663,-0.0390624962747097,-0.16650390625,0.9716796278953552,0.9866157958793161,-0.545501708984375,0.194549560546875,-0.0820159912109375,0.5849344141253517
1785514105.984681,-0.0405273400247097,-0.181640625,0.9687499403953552,0.9864645097295054,-0.4825592041015625,-0.0514984130859375,-0.0820159912109375,0.4921809574006454
1785514105.995338,-0.0498046837747097,-0.17138671875,0.9628905653953552,0.9792916597302243,-0.2994537353515625,-0.0514984130859375,-0.0820159912109375,0.31472408389045486
1785514106.005996,-0.0356445275247097,-0.17236328125,0.9609374403953552,0.9769239465891412,-0.4215240478515625,-0.4177093505859375,0.1010894775390625,0.6019823144854113
1785514106.016652,-0.0424804650247097,-0.185546875,0.9780272841453552,0.9963782420665962,-0.240325927734375,-0.049591064453125,0.0400543212890625,0.2486366301833048
1785514106.02733,-0.0458984337747097,-0.1875,0.9760741591453552,0.9949792361523349,-0.545501708984375,-0.354766845703125,-0.0209808349609375,0.6510543946174365
1785514106.038009,-0.0400390587747097,-0.18505859375,0.9833983778953552,1.0014600236632054,-0.4215240478515625,-0.5397796630859375,0.1621246337890625,0.7037961384375252
1785514106.048688,-0.0419921837747097,-0.1826171875,0.9677733778953552,0.9857472757413865,-0.240325927734375,-0.354766845703125,0.0400543212890625,0.4303724143174843
1785514106.056752,-0.0415039025247097,-0.1923827975988388,0.9677733778953552,0.9875824146367342,-0.0553131103515625,-0.4177093505859375,-0.0209808349609375,0.4218777514628472
1785514106.064816,-0.03759765625,-0.18798828125,0.9794921278953552,0.9980771544584082,-0.240325927734375,-0.232696533203125,-0.0820159912109375,0.3444282957604582
1785514106.07288,-0.0512695275247097,-0.18359375,0.9770507216453552,0.9954714170479124,0.06866455078125,-0.659942626953125,0.0400543212890625,0.664713050915739
1785514106.080944,-0.0541992150247097,-0.1904296875,0.9736327528953552,0.9935601432732848,0.308990478515625,-0.659942626953125,0.0400543212890625,0.7297970507867471
1785514106.091511,-0.0454101525247097,-0.1845703125,0.9824218153953552,1.0006402478280445,0.3719329833984375,-0.3566741943359375,-0.0209808349609375,0.515742979089886
1785514106.102078,-0.0527343712747097,-0.18212890625,0.9614257216453552,0.9799445242700489,0.3108978271484375,-0.0514984130859375,0.3452301025390625,0.4674327429428978
1785514106.112645,-0.0463867150247097,-0.18017578125,0.9799804091453552,0.9974851586808343,0.3108978271484375,-0.1125335693359375,0.1621246337890625,0.36824673798194546
1785514106.120633,-0.0356445275247097,-0.17236328125,0.9692382216453552,0.985090028050217,0.247955322265625,0.377655029296875,0.3452301025390625,0.5685850742784276
1785514106.128622,-0.0361328087747097,-0.16943359375,0.9648436903953552,0.9802737727067464,0.1888275146484375,0.2536773681640625,0.1010894775390625,0.33200469857529397
1785514106.136611,-0.0390624925494194,-0.1689453125,0.9794921278953552,0.9947226877622058,-0.0553131103515625,0.5588531494140625,-0.1430511474609375,0.5795170520154446
1785514106.1446,-0.0512695275247097,-0.18359375,0.9711913466453552,0.9897211027812269,0.0667572021484375,0.5588531494140625,-0.0820159912109375,0.5687705947594481
1785514106.155959,-0.0502929650247097,-0.17236328125,0.9760741591453552,0.9924511308903605,0.1888275146484375,0.1964569091796875,-0.1430511474609375,0.3077576615498512
1785514106.167319,-0.0463867150247097,-0.166015625,0.9628905653953552,0.9781979124912867,0.1888275146484375,0.2536773681640625,-0.2040863037109375,0.3763764827527674
1785514106.178678,-0.0527343712747097,-0.17529296875,0.9672850966453552,0.9844536540635834,-0.0553131103515625,-0.1125335693359375,-0.0209808349609375,0.12713591089817416
1785514106.188658,-0.0385742150247097,-0.17578125,0.9687499403953552,0.9853240405736274,0.247955322265625,-0.171661376953125,0.0400543212890625,0.30422659126253293
1785514106.198639,-0.0483398362994194,-0.1845703125,0.9702147841453552,0.9887970810050061,0.247955322265625,0.133514404296875,-0.3871917724609375,0.47877490186521027
1785514106.20862,-0.0498046837747097,-0.1826171875,0.9819335341453552,1.0000115045215712,0.125885009765625,0.499725341796875,-0.1430511474609375,0.5348234135745984
1785514106.216901,-0.0429687462747097,-0.16650390625,0.9804686903953552,0.9954339339195304,0.003814697265625,0.499725341796875,-0.3871917724609375,0.6321846548364444
1785514106.225186,-0.0444335862994194,-0.1787109375,0.9794921278953552,0.9966527837629953,0.0057220458984375,0.2536773681640625,0.1010894775390625,0.2731373855718579
1785514106.233469,-0.0488281212747097,-0.17138671875,0.9697265028953552,0.9859650517177395,-0.1163482666015625,0.0705718994140625,0.2841949462890625,0.3150937632266623
1785514106.241753,-0.0385742150247097,-0.17724609375,0.9780272841453552,0.9947067489200753,-0.1163482666015625,-0.4177093505859375,0.1010894775390625,0.4452382543955927
1785514106.252035,-0.0537109300494194,-0.189453125,0.9707030653953552,0.9904755381870763,-0.1163482666015625,-0.3566741943359375,-0.2040863037109375,0.42708853813790343
1785514106.262317,-0.0458984337747097,-0.16748046875,0.9702147841453552,0.985633350191596,0.247955322265625,-0.415802001953125,0.1621246337890625,0.510546318710961
1785514106.272599,-0.0346679650247097,-0.1826171875,0.9599608778953552,0.977791282462155,0.125885009765625,-0.843048095703125,-0.0820159912109375,0.8563315655554625
1785514106.283267,-0.0415039025247097,-0.18359375,0.9614257216453552,0.979677833374388,-0.0553131103515625,-0.6008148193359375,-0.2651214599609375,0.65903518558743
1785514106.293934,-0.0380859375,-0.169921875,0.9790038466453552,0.9943704108556186,-0.2994537353515625,-0.6618499755859375,-0.5092620849609375,0.8871672902997895
1785514106.304601,-0.0419921837747097,-0.16455078125,0.9736327528953552,0.9883324545003782,-0.179290771484375,-0.476837158203125,-0.2651214599609375,0.5742893388480352
1785514106.312599,-0.0395507775247097,-0.1748046875,0.9711913466453552,0.9875897805129417,-0.057220458984375,-0.476837158203125,0.0400543212890625,0.48192551812862333
1785514106.320596,-0.0473632775247097,-0.17236328125,0.9755858778953552,0.9918266914789097,-0.057220458984375,-0.293731689453125,-0.0820159912109375,0.3102887512135788
1785514106.328591,-0.0346679650247097,-0.17626953125,0.9746093153953552,0.9910278165124591,-0.057220458984375,-0.293731689453125,-0.0209808349609375,0.2999878026704214
1785514106.336587,-0.02880859375,-0.1884765625,0.9829100966453552,1.0012320449191838,0.125885009765625,0.011444091796875,-0.3871917724609375,0.40730267809356374
1785514106.344623,-0.0410156212747097,-0.185546875,0.9760741591453552,0.994399662189267,0.06866455078125,0.316619873046875,-0.1430511474609375,0.3541561736467416
1785514106.352659,-0.0312499962747097,-0.16845703125,0.9838866591453552,0.9986927914473706,-0.240325927734375,0.133514404296875,-0.2651214599609375,0.38193197853538846
1785514106.360695,-0.0292968712747097,-0.18505859375,0.9809569716453552,0.9986899268576012,-0.240325927734375,0.133514404296875,-0.0820159912109375,0.2868959227846398
1785514106.368731,-0.0405273362994194,-0.1884765625,0.9692382216453552,0.9882249793936567,-0.41961669921875,0.682830810546875,-0.0820159912109375,0.805644284352377
1785514106.379335,-0.0512695275247097,-0.1708984375,0.9702147841453552,0.9864844488215547,-0.2994537353515625,0.6847381591796875,-0.2651214599609375,0.7929869322912009
1785514106.38994,-0.0541992112994194,-0.1748046875,0.9663085341453552,0.9834868664296422,-0.179290771484375,0.621795654296875,-0.0820159912109375,0.6523048668040534
1785514106.400543,-0.0371093712747097,-0.19091796875,0.9692382216453552,0.9885593085527449,-0.179290771484375,0.682830810546875,-0.0209808349609375,0.7062883915280095
1785514106.411226,-0.0478515587747097,-0.18115234375,0.9726561903953552,0.9905382415826727,0.06866455078125,0.316619873046875,-0.1430511474609375,0.3541561736467416
1785514106.421911,-0.0449218712747097,-0.17431640625,0.9790038466453552,0.9954158506640021,0.125885009765625,0.194549560546875,-0.1430511474609375,0.27232370073602585
1785514106.432596,-0.0527343712747097,-0.1748046875,0.9687499403953552,0.9858062891368242,-0.057220458984375,0.133514404296875,-0.1430511474609375,0.20387228323394727
1785514106.440602,-0.0405273400247097,-0.19140625,0.9736327528953552,0.993095944679631,0.0057220458984375,-0.1125335693359375,0.2841949462890625,0.3057177023546285
1785514106.448608,-0.0444335900247097,-0.1806640625,0.9741210341453552,0.9917286103394941,-0.2384185791015625,-0.1125335693359375,-0.0209808349609375,0.26447574278930075
1785514106.456614,-0.0449218675494194,-0.17919921875,0.9711913466453552,0.9886065779588746,-0.179290771484375,-0.293731689453125,0.1010894775390625,0.35866776910892073
1785514106.46462,-0.0537109337747097,-0.1865234375,0.9648436903953552,0.9841743768456359,-0.179290771484375,-0.293731689453125,0.0400543212890625,0.3464503352320169
1785514106.475275,-0.0366210900247097,-0.1748046875,0.9750975966453552,0.9913188720034126,-0.0553131103515625,-0.4177093505859375,0.0400543212890625,0.42325523079770344
1785514106.485929,-0.0415039025247097,-0.19189453125,0.9770507216453552,0.9965812549492125,0.0057220458984375,-0.3566741943359375,0.1010894775390625,0.37076718460993086
1785514106.496583,-0.0400390587747097,-0.18994140625,0.9677733778953552,0.9870492262287521,-0.1163482666015625,-0.3566741943359375,-0.0209808349609375,0.37575736251208236
1785514106.504592,-0.0463867150247097,-0.1708984375,0.9672850966453552,0.9833607992303431,0.125885009765625,-0.476837158203125,0.2841949462890625,0.5691989798156412
1785514106.512605,-0.0434570237994194,-0.18896484375,0.9653319716453552,0.9846126347816557,0.247955322265625,-0.293731689453125,0.4062652587890625,0.5592956353555613
1785514106.520618,-0.0463867150247097,-0.18212890625,0.9755858778953552,0.993524267932825,0.2498626708984375,-0.1125335693359375,0.0400543212890625,0.27694675876405306
1785514106.528631,-0.0380859337747097,-0.17236328125,0.9663085341453552,0.9822992528944036,0.06866455078125,-0.171661376953125,-0.0820159912109375,0.20225991121758735
1785514106.539315,-0.0371093712747097,-0.1826171875,0.9790038466453552,0.9965814940852638,0.125885009765625,-0.049591064453125,-0.4482269287109375,0.4682026153055164
1785514106.549997,-0.0429687462747097,-0.18505859375,0.9746093153953552,0.9929533291814631,0.0667572021484375,0.2536773681640625,0.1621246337890625,0.3083717367700391
1785514106.56068,-0.0415039025247097,-0.17578125,0.9711913466453552,0.9878432332992728,0.003814697265625,0.316619873046875,0.1010894775390625,0.3323879937551419
1785514106.56866,-0.0498046837747097,-0.18212890625,0.9785155653953552,0.9965661828191401,0.247955322265625,0.316619873046875,-0.2040863037109375,0.45097805402310015
1785514106.576641,-0.0419921837747097,-0.1845703125,0.9726561903953552,0.9909034304456323,0.1277923583984375,0.0705718994140625,-0.0209808349609375,0.14748381364611288
1785514106.58462,-0.0400390550494194,-0.18896484375,0.9638671278953552,0.9830313720019078,0.0057220458984375,0.2536773681640625,-0.1430511474609375,0.29128779534645804
1785514106.5926,-0.0336914025247097,-0.17724609375,0.9726561903953552,0.9892478724102071,-0.1163482666015625,0.1316070556640625,-0.0820159912109375,0.19386582745823072
1785514106.603271,-0.0449218675494194,-0.173828125,0.9750975966453552,0.9914885345825695,0.247955322265625,0.072479248046875,0.1010894775390625,0.27740613855214347
1785514106.613943,-0.0620117150247097,-0.1611328125,0.9785155653953552,0.993630689836751,-0.1773834228515625,-0.1125335693359375,-0.1430511474609375,0.25415017946071444
1785514106.624613,-0.0478515625,-0.18359375,0.9746093153953552,0.9929047057639302,0.0057220458984375,-0.3566741943359375,-0.0209808349609375,0.35733656145168247
1785514106.63525,-0.0366210900247097,-0.1767578125,0.9653319716453552,0.982064276916278,0.003814697265625,0.011444091796875,-0.0209808349609375,0.024201541024111786
1785514106.645886,-0.0424804650247097,-0.171875,0.9804686903953552,0.996325478134178,-0.057220458984375,-0.354766845703125,0.1010894775390625,0.373299850262022
1785514106.656523,-0.0454101525247097,-0.16796875,0.9658202528953552,0.9813686075230488,-0.240325927734375,-0.476837158203125,0.2841949462890625,0.6048942010640069
1785514106.664541,-0.0444335862994194,-0.16943359375,0.9790038466453552,0.994550460272816,0.06866455078125,-0.293731689453125,0.2841949462890625,0.41443925178392677
1785514106.672559,-0.0336913987994194,-0.17431640625,0.9814452528953552,0.9973746057885193,0.0057220458984375,-0.4177093505859375,0.2231597900390625,0.4736181323244159
1785514106.680578,-0.0473632775247097,-0.1748046875,0.9746093153953552,0.9912937387501539,-0.0553131103515625,-0.6008148193359375,0.6504058837890625,0.8871672902997895
1785514106.688597,-0.0307617150247097,-0.1728515625,0.9707030653953552,0.9864524250757825,0.3108978271484375,-0.0514984130859375,0.3452301025390625,0.4674327429428978
1785514106.699272,-0.0327148400247097,-0.166015625,0.9672850966453552,0.9819734755553213,0.1277923583984375,0.0705718994140625,0.2231597900390625,0.2666675303486004
1785514106.709947,-0.03662109375,-0.17822265625,0.9794921278953552,0.9962475838451117,0.431060791015625,0.194549560546875,0.3452301025390625,0.5855311782980733
1785514106.720622,-0.0317382775247097,-0.1708984375,0.9687499403953552,0.9842205246875221,0.0667572021484375,0.5588531494140625,-0.0209808349609375,0.5632171535778735
1785514106.731309,-0.0322265587747097,-0.1806640625,0.9687499403953552,0.9859789559546736,0.087738037109375,0.949859619140625,-0.5359649658203125,1.0941616442813868
1785514106.741996,-0.0449218712747097,-0.1943359375,0.9741210341453552,0.9943320472997146,-0.2193450927734375,0.7038116455078125,-0.4138946533203125,0.8454418289411426
1785514106.752683,-0.0454101525247097,-0.1796875,0.9873046278953552,1.004549704032684,-0.278472900390625,0.644683837890625,-0.4711151123046875,0.8456440481261669
1785514106.760671,-0.0488281175494194,-0.17529296875,0.9658202528953552,0.9828125817567946,-0.156402587890625,0.217437744140625,-0.4138946533203125,0.493000736432503
1785514106.768661,-0.0595703087747097,-0.17529296875,0.9736327528953552,0.9910786972240351,-0.339508056640625,-0.087738037109375,-0.4138946533203125,0.5424688633708312
1785514106.776649,-0.0468749962747097,-0.169921875,0.9702147841453552,0.9860970724292248,-0.156402587890625,-0.087738037109375,-0.5931854248046875,0.619700476726788
1785514106.784638,-0.0502929650247097,-0.1845703125,0.9790038466453552,0.9975189794353422,-0.278472900390625,-0.453948974609375,-0.2880096435546875,0.6054472582986631
1785514106.795303,-0.0380859337747097,-0.181640625,0.9726561903953552,0.9902039788428886,-0.5855560302734375,-0.6389617919921875,-0.5359649658203125,1.0190223161453449
1785514106.805968,-0.0488281212747097,-0.18115234375,0.9663085341453552,0.9843538694166245,-0.522613525390625,-0.576019287109375,-0.0476837158203125,0.7792283701185695
1785514106.816633,-0.0478515625,-0.1845703125,0.9609374403953552,0.9796717494363181,-0.4024505615234375,-0.5130767822265625,0.1392364501953125,0.6667840939865657
1785514106.824738,-0.0292968712747097,-0.1806640625,0.9741210341453552,0.9911657779150302,-0.4596710205078125,-0.3337860107421875,0.3833770751953125,0.6853382594363091
1785514106.832845,-0.0498046837747097,-0.1669921875,0.9741210341453552,0.9895851082025994,-0.156402587890625,-0.331878662109375,0.2002716064453125,0.4179879570162034
1785514106.840952,-0.0424804650247097,-0.1875,0.9731444716453552,0.991953125204328,-0.217437744140625,-0.514984130859375,0.1392364501953125,0.5760855983939727
1785514106.849059,-0.0302734337747097,-0.1826171875,0.9892577528953552,1.0064275530938576,0.270843505859375,-0.514984130859375,0.6275177001953125,0.8557706023004046
1785514106.859567,-0.0356445275247097,-0.185546875,0.9848632216453552,1.002822885914753,0.209808349609375,-0.209808349609375,0.3223419189453125,0.4381134554438677
1785514106.870075,-0.0356445275247097,-0.17724609375,0.9672850966453552,0.9840361620816116,0.0858306884765625,-0.0247955322265625,0.3833770751953125,0.39364921857927204
1785514106.880584,-0.0351562462747097,-0.19677734375,0.9633788466453552,0.9838984128603768,0.270843505859375,-0.026702880859375,0.2002716064453125,0.33790230076247396
1785514106.891322,-0.0351562462747097,-0.177734375,0.9672850966453552,0.984106664900194,0.3910064697265625,0.0934600830078125,0.1392364501953125,0.42544992131489245
1785514106.902063,-0.0488281212747097,-0.1806640625,0.9780272841453552,0.9957715889896442,0.5741119384765625,0.2155303955078125,0.2002716064453125,0.6451097469712084
1785514106.912804,-0.052734375,-0.18359375,0.9770507216453552,0.9955479355678523,-0.156402587890625,0.522613525390625,0.0171661376953125,0.5457850700628193
1785514106.921062,-0.033203125,-0.17431640625,0.9731444716453552,0.9891909925244964,0.0858306884765625,0.6465911865234375,0.0743865966796875,0.6564910017203084
1785514106.929322,-0.0449218712747097,-0.1767578125,0.9790038466453552,0.9958462886133628,-0.217437744140625,0.400543212890625,-0.1659393310546875,0.48502566897081395
1785514106.93758,-0.0429687462747097,-0.18505859375,0.9580077528953552,0.976663632416379,0.026702880859375,0.278472900390625,0.6275177001953125,0.6870506998443209
1785514106.945839,-0.0366210900247097,-0.17578125,0.9765624403953552,0.9929321991340053,-0.0972747802734375,-0.1506805419921875,0.5664825439453125,0.5941965005005144
1785514106.955202,-0.0278320275247097,-0.1728515625,0.9702147841453552,0.9858848876968578,-0.217437744140625,-0.087738037109375,0.5664825439453125,0.613090212226164
1785514106.964563,-0.0410156212747097,-0.181640625,0.9658202528953552,0.9836078277147803,-0.034332275390625,-0.270843505859375,0.5664825439453125,0.6288381209774483
1785514106.973925,-0.0410156212747097,-0.1767578125,0.9746093153953552,0.9913571118036822,-0.217437744140625,-0.026702880859375,0.4405975341796875,0.49205528505278223
1785514106.983287,-0.029296867549419403,-0.18310546875,0.9750975966453552,0.9925730412004515,0.148773193359375,0.278472900390625,-0.1049041748046875,0.3326943119528276
1785514106.99265,-0.0419921837747097,-0.17236328125,0.9746093153953552,0.9906239255523958,0.0858306884765625,0.3376007080078125,0.1392364501953125,0.37513722048702225
1785514107.002266,-0.0375976525247097,-0.18505859375,0.9667968153953552,0.9850666722890877,0.2117156982421875,0.3376007080078125,-0.1049041748046875,0.4120711841672573
1785514107.011886,-0.0380859337747097,-0.17236328125,0.9819335341453552,0.9976738467825773,0.026702880859375,0.034332275390625,-0.3490447998046875,0.3517442554618086
1785514107.021506,-0.0454101525247097,-0.1640625,0.9750975966453552,0.989845396434269,0.026702880859375,-0.148773193359375,-0.2307891845703125,0.2758806891088351
1785514107.031126,-0.0410156212747097,-0.16796875,0.9824218153953552,0.9975211303675819,0.270843505859375,-0.087738037109375,-0.0476837158203125,0.28866573155890135
1785514107.040746,-0.0463867150247097,-0.1767578125,0.9829100966453552,0.9997536244985313,-0.217437744140625,-0.576019287109375,0.2002716064453125,0.6474458340642425
1785514107.050321,-0.0605468675494194,-0.16845703125,0.9702147841453552,0.9865903009465624,-0.0972747802734375,-0.2079010009765625,-0.1659393310546875,0.28323324429730945
1785514107.059897,-0.0488281212747097,-0.1708984375,0.9804686903953552,0.9964483499975009,-0.339508056640625,-0.026702880859375,0.0171661376953125,0.34098891573401363
1785514107.069474,-0.0546874962747097,-0.166015625,0.9785155653953552,0.9940043368687728,0.087738037109375,-0.209808349609375,0.0171661376953125,0.2280617964609378
1785514107.07905,-0.0468749962747097,-0.16748046875,0.9824218153953552,0.9976971464593748,-0.0972747802734375,-0.3337860107421875,0.0743865966796875,0.35554022221123693
1785514107.088625,-0.0395507775247097,-0.17724609375,0.9746093153953552,0.9913847685978667,-0.217437744140625,-0.209808349609375,0.2574920654296875,0.3969897730446215
1785514107.098217,-0.0512695275247097,-0.1748046875,0.9736327528953552,0.9905281322280389,-0.400543212890625,-0.209808349609375,0.0171661376953125,0.45249208307099553
1785514107.107809,-0.0395507775247097,-0.18212890625,0.9824218153953552,0.9999439113566999,-0.0972747802734375,-0.3337860107421875,0.2574920654296875,0.43264032128741275
1785514107.117399,-0.033203125,-0.1748046875,0.9829100966453552,0.9988850706508331,-0.156402587890625,-0.331878662109375,-0.1659393310546875,0.4026674526867928
1785514107.12699,-0.0400390587747097,-0.177734375,0.9633788466453552,0.9804547090243079,-0.156402587890625,-0.026702880859375,0.0743865966796875,0.17523749345006379
1785514107.136581,-0.0419921837747097,-0.18115234375,0.9794921278953552,0.9969876347042916,-0.156402587890625,0.034332275390625,-0.4138946533203125,0.44378965589513697
1785514107.146187,-0.0449218675494194,-0.19287109375,0.9780272841453552,0.9978750430395522,-0.0972747802734375,-0.0247955322265625,-0.1659393310546875,0.19394087471835642
1785514107.155796,-0.0356445275247097,-0.17138671875,0.9790038466453552,0.9945312822896792,-0.2765655517578125,-0.1506805419921875,-0.0476837158203125,0.3185386427242305
1785514107.165404,-0.0283203087747097,-0.1865234375,0.9716796278953552,0.9898254047521549,-0.0972747802734375,-0.0896453857421875,0.0743865966796875,0.15176311748148044
1785514107.175013,-0.033203125,-0.173828125,0.9931640028953552,1.0088079109512902,-0.0972747802734375,0.3986358642578125,-0.1659393310546875,0.44261585685636684
1785514107.184622,-0.0483398362994194,-0.169921875,0.9711913466453552,0.9871285707423267,-0.095367431640625,0.095367431640625,-0.3490447998046875,0.3741953584775644
1785514107.194218,-0.0395507775247097,-0.18017578125,0.9716796278953552,0.9890343145810022,-0.034332275390625,0.583648681640625,-0.5931854248046875,0.8328826069231215
1785514107.20382,-0.0463867150247097,-0.15966796875,0.9746093153953552,0.9886905002228643,-0.0972747802734375,0.1544952392578125,-0.2307891845703125,0.29426996031739977
1785514107.21342,-0.0380859337747097,-0.1767578125,0.9648436903953552,0.9816400610850216,-0.034332275390625,-0.026702880859375,-0.3490447998046875,0.3517442554618086
1785514107.223021,-0.0449218675494194,-0.19384765625,0.9765624403953552,0.9966288617176794,0.026702880859375,-0.148773193359375,-0.4711151123046875,0.49476858828182924
1785514107.232622,-0.0488281212747097,-0.1708984375,0.9599608778953552,0.9762762664618967,-0.278472900390625,-0.026702880859375,-0.2307891845703125,0.3626621676061437
1785514107.243381,-0.0541992112994194,-0.18359375,0.9697265028953552,0.9884400386276332,-0.0972747802734375,-0.0247955322265625,0.0171661376953125,0.10184241542215343
1785514107.254138,-0.0454101525247097,-0.18017578125,0.9672850966453552,0.9849699753259382,0.0858306884765625,-0.5130767822265625,-0.2880096435546875,0.5946126859770335
1785514107.264896,-0.0478515587747097,-0.1865234375,0.9804686903953552,0.9991994882202296,0.026702880859375,-0.026702880859375,0.0743865966796875,0.08342333880855193
1785514107.275455,-0.0512695275247097,-0.17529296875,0.9824218153953552,0.9992541281928741,0.026702880859375,-0.087738037109375,0.2002716064453125,0.22027193046364799
1785514107.28601,-0.0380859375,-0.18359375,0.9677733778953552,0.9857700110255446,-0.156402587890625,-0.148773193359375,-0.0476837158203125,0.2210632699379591
1785514107.296566,-0.0454101525247097,-0.17041015625,0.9765624403953552,0.9923587573536088,-0.156402587890625,-0.087738037109375,-0.1049041748046875,0.20776096492397983
1785514107.304599,-0.0346679650247097,-0.1669921875,0.9765624403953552,0.9913437640273536,-0.0972747802734375,-0.2079010009765625,0.0171661376953125,0.23017359832890613
1785514107.312632,-0.0278320275247097,-0.18701171875,0.9736327528953552,0.9918209224535209,-0.0972747802734375,-0.2727508544921875,-0.1049041748046875,0.30799398921880994
1785514107.320666,-0.0444335862994194,-0.173828125,0.9794921278953552,0.9957888276343606,-0.400543212890625,-0.087738037109375,-0.3490447998046875,0.538484076662667
1785514107.3287,-0.0380859375,-0.173828125,0.9780272841453552,0.9940845659243528,0.209808349609375,0.095367431640625,0.1392364501953125,0.2692606165901927
1785514107.339387,-0.0419921837747097,-0.185546875,0.9667968153953552,0.9853360181070391,0.148773193359375,-0.148773193359375,-0.0476837158203125,0.21573285071848536
1785514107.350074,-0.0415039025247097,-0.18994140625,0.9638671278953552,0.9832803018317051,-0.156402587890625,-0.087738037109375,0.2002716064453125,0.26882791708242815
1785514107.360761,-0.0473632775247097,-0.1708984375,0.9760741591453552,0.9920535873374665,0.0858306884765625,0.3986358642578125,-0.1049041748046875,0.42104910075712815
1785514107.371415,-0.0410156212747097,-0.17919921875,0.9799804091453552,0.9970738405443493,0.209808349609375,0.095367431640625,0.2574920654296875,0.3455671488188446
1785514107.382068,-0.0346679612994194,-0.18408203125,0.9663085341453552,0.9842968276551181,-0.156402587890625,-0.148773193359375,0.2574920654296875,0.33600207785142805
1785514107.392721,-0.0234374962747097,-0.19189453125,0.9638671278953552,0.9830629011373205,-0.278472900390625,-0.392913818359375,0.3223419189453125,0.5795107743770234
1785514107.403345,-0.0415039025247097,-0.16943359375,0.9853515028953552,1.0006737234853107,-0.339508056640625,-0.392913818359375,-0.2880096435546875,0.5937984034688338
1785514107.41397,-0.0200195275247097,-0.17724609375,0.9555663466453552,0.9720720148595461,-0.278472900390625,-0.087738037109375,-1.0814666748046875,1.1201853811404971
1785514107.424593,-0.0351562462747097,-0.17724609375,0.9755858778953552,0.992179391315206,-0.0972747802734375,-0.0247955322265625,-0.8373260498046875,0.843322070728121
1785514107.432583,-0.02880859375,-0.189453125,0.9663085341453552,0.9851266948003506,-0.034332275390625,0.095367431640625,-0.9593963623046875,0.9647357317704648
1785514107.440573,-0.0546874962747097,-0.1611328125,0.9770507216453552,0.9917573383548346,0.1468658447265625,0.1544952392578125,-0.7190704345703125,0.7500004301156857
1785514107.448563,-0.0483398362994194,-0.1884765625,0.9609374403953552,0.9804391458621223,0.270843505859375,-0.209808349609375,-0.4711151123046875,0.5825162635273502
1785514107.456553,-0.0654296875,-0.18603515625,0.9658202528953552,0.9857478806825595,0.209808349609375,0.217437744140625,0.2574920654296875,0.3969897730446215
1785514107.464562,-0.0576171837747097,-0.1728515625,0.9682616591453552,0.9852553187350658,0.331878662109375,-0.026702880859375,1.2989044189453125,1.340898646343324
1785514107.472571,-0.0444335900247097,-0.181640625,0.9863280653953552,1.0038977603119845,0.453948974609375,-0.270843505859375,1.7223358154296875,1.8016288567091023
1785514107.48058,-0.0390624962747097,-0.18603515625,0.9609374403953552,0.9795589427542125,0.514984130859375,-0.148773193359375,1.9702911376953125,2.041908246072781
1785514107.499268,-0.0317382775247097,-0.15380859375,0.9755858778953552,0.988145842940423,0.148773193359375,0.400543212890625,1.7871856689453125,1.8375529771243588
1785514107.509947,-0.0302734337747097,-0.1708984375,0.9677733778953552,0.9832131344197143,0.3910064697265625,-0.0247955322265625,1.2340545654296875,1.2947554009326558
1785514107.520627,-0.0258789025247097,-0.1748046875,0.9746093153953552,0.9904997294412852,0.209808349609375,0.278472900390625,0.5664825439453125,0.6651835629452442
1785514107.528606,-0.0258789025247097,-0.18505859375,0.9721679091453552,0.989963051981569,-0.0972747802734375,0.3986358642578125,-0.2880096435546875,0.5013207455614787
1785514107.536588,-0.0390624925494194,-0.15478515625,0.9838866591453552,0.9967533701792629,-0.461578369140625,0.705718994140625,-0.3490447998046875,0.9126478849041776
1785514107.54457,-0.0458984337747097,-0.1845703125,0.9550780653953552,0.9738310826209304,-0.4024505615234375,0.0324249267578125,-0.5359649658203125,0.671026284829848
1785514107.552552,-0.0551757775247097,-0.1875,0.9765624403953552,0.9959291221851021,-0.705718994140625,-0.087738037109375,-0.5931854248046875,0.9260703051320559
1785514107.560565,-0.0454101525247097,-0.16015625,0.9653319716453552,0.9795804825776638,-0.888824462890625,-0.576019287109375,-0.4711151123046875,1.1592051561292587
1785514107.568577,-0.0351562425494194,-0.17822265625,0.9760741591453552,0.9928343470802727,-1.0738372802734375,-0.5779266357421875,-0.3490447998046875,1.268447071452345
1785514107.576588,-0.0332031212747097,-0.1806640625,0.9716796278953552,0.9888899079312332,-1.0738372802734375,-0.6389617919921875,-0.0476837158203125,1.2504688772158037
1785514107.595254,-0.0341796800494194,-0.17919921875,0.9736327528953552,0.9905762706826158,-0.8907318115234375,-0.9441375732421875,-0.6542205810546875,1.4535485839637436
1785514107.605906,-0.0234374962747097,-0.17724609375,0.9785155653953552,0.9947151379677764,-0.644683837890625,-0.270843505859375,-1.5087127685546875,1.6628853458682993
1785514107.616558,-0.0361328087747097,-0.1845703125,0.9755858778953552,0.9935489848392722,-0.2193450927734375,0.3376007080078125,-1.6956329345703125,1.7427729503784175
1785514107.624563,-0.0634765550494194,-0.18310546875,0.9687499403953552,0.9879439927157325,-0.3414154052734375,0.8258819580078125,-1.1425018310546875,1.4505019550087332
1785514107.632568,-0.0615234337747097,-0.18115234375,0.9804686903953552,0.9989595374163721,0.209808349609375,0.705718994140625,-0.1049041748046875,0.7436825452759515
1785514107.640574,-0.0585937425494194,-0.1845703125,0.9794921278953552,0.9984509279535305,0.453948974609375,0.278472900390625,0.9937286376953125,1.1274366648183176
1785514107.64858,-0.06201171875,-0.18359375,0.9765624403953552,0.9956034945159259,0.453948974609375,0.461578369140625,1.5430450439453125,1.673353599826293
1785514107.656643,-0.03271484375,-0.173828125,0.9692382216453552,0.9852457603770002,0.453948974609375,0.278472900390625,1.9702911376953125,2.0409958341656553
1785514107.664706,-0.03173828125,-0.17822265625,0.9863280653953552,1.002802914975846,0.2117156982421875,-0.1506805419921875,2.4585723876953125,2.4722674507736953
1785514107.67277,-0.0346679612994194,-0.17333984375,0.9707030653953552,0.986667629011853,0.453948974609375,0.095367431640625,1.9702911376953125,2.0241570556276804
1785514107.680833,-0.0336914025247097,-0.17138671875,0.9824218153953552,0.9978282123355097,0.209808349609375,0.461578369140625,1.5430450439453125,1.6242112368988586
1785514107.691404,-0.0346679612994194,-0.17822265625,0.9687499403953552,0.98561738507266,0.087738037109375,0.461578369140625,0.7457733154296875,0.8814365501959363
1785514107.701975,-0.0395507775247097,-0.1748046875,0.9731444716453552,0.9895105383313001,-0.156402587890625,0.400543212890625,0.6885528564453125,0.8117891789193967
1785514107.712546,-0.0400390587747097,-0.166015625,0.9746093153953552,0.989458251583718,-0.156402587890625,-0.087738037109375,0.1392364501953125,0.22703859081152367
1785514107.721313,-0.0429687462747097,-0.185546875,0.9716796278953552,0.9901693063539901,-0.156402587890625,-0.331878662109375,-0.1659393310546875,0.4026674526867928
1785514107.730079,-0.0288085900247097,-0.1806640625,0.9809569716453552,0.9978707424099786,-0.278472900390625,-0.514984130859375,-0.2880096435546875,0.652461007317258
1785514107.738847,-0.0488281212747097,-0.1826171875,0.9716796278953552,0.9898962177241025,-0.278472900390625,-0.759124755859375,-0.3490447998046875,0.8807098406860326
1785514107.747613,-0.0385742112994194,-0.1923828125,0.9711913466453552,0.9908136798215903,-0.644683837890625,-1.430511474609375,-0.4138946533203125,1.622741234415893
1785514107.75725,-0.0273437462747097,-0.18212890625,0.9790038466453552,0.9961762648741231,-0.5855560302734375,-0.6389617919921875,-0.5931854248046875,1.0502461542020385
1785514107.766885,-0.04248046875,-0.1689453125,0.9804686903953552,0.9958242624512246,-0.461578369140625,-0.637054443359375,-1.0204315185546875,1.2884771781922517
1785514107.776521,-0.0498046837747097,-0.17529296875,0.9838866591453552,1.0006203523131516,-0.034332275390625,0.095367431640625,-0.6542205810546875,0.662025846041346
1785514107.784536,-0.0341796837747097,-0.16748046875,0.9809569716453552,0.9957381876855407,0.026702880859375,0.888824462890625,-0.9593963623046875,1.308114425301726
1785514107.792554,-0.0385742150247097,-0.1669921875,0.9853515028953552,1.0001459618520403,0.2689361572265625,0.7038116455078125,-0.4138946533203125,0.8596431079601271
1785514107.800572,-0.0537109337747097,-0.16650390625,0.9658202528953552,0.9815381684408956,0.514984130859375,0.705718994140625,0.0171661376953125,0.8738092640909776
1785514107.80859,-0.0532226487994194,-0.16748046875,0.9726561903953552,0.9884039773657083,0.453948974609375,0.461578369140625,0.1392364501953125,0.6622016697883009
1785514107.819385,-0.0517578087747097,-0.18212890625,0.9560546278953552,0.9746231378235932,0.148773193359375,-0.026702880859375,0.3833770751953125,0.41209766887698873
1785514107.83018,-0.0463867150247097,-0.177734375,0.9721679091453552,0.9893693339493982,0.148773193359375,0.034332275390625,0.6275177001953125,0.6458255432036254
1785514107.840975,-0.0454101525247097,-0.17578125,0.9692382216453552,0.9860952591418999,-0.0972747802734375,-0.2727508544921875,0.5054473876953125,0.582522508776682
1785514107.851496,-0.0502929650247097,-0.18017578125,0.9687499403953552,0.9866453980514118,0.026702880859375,-0.087738037109375,0.6885528564453125,0.6946337474676818
1785514107.862019,-0.0463867150247097,-0.17919921875,0.9672850966453552,0.9848373193190885,-0.278472900390625,-0.026702880859375,0.4405975341796875,0.5219064927967249
1785514107.872542,-0.0595703050494194,-0.16357421875,0.9804686903953552,0.9958031929698441,-0.034332275390625,-0.026702880859375,0.7457733154296875,0.7470405524378686
1785514107.880626,-0.0405273400247097,-0.1787109375,0.9765624403953552,0.9936066950572239,-0.0972747802734375,-0.3337860107421875,0.7457733154296875,0.8228324992678749
1785514107.888713,-0.0312499962747097,-0.17138671875,0.9804686903953552,0.9958256988432483,-0.4024505615234375,-0.5130767822265625,0.3223419189453125,0.7274053557954052
1785514107.896801,-0.02783203125,-0.1689453125,0.9760741591453552,0.9909782564368079,-0.0972747802734375,-0.5779266357421875,0.4405975341796875,0.7332037686092111
1785514107.912807,-0.0356445275247097,-0.18603515625,0.9672850966453552,0.9856571766570951,-0.0972747802734375,-0.2079010009765625,0.1392364501953125,0.268462284403776
1785514107.920724,-0.0390624962747097,-0.18017578125,0.9711913466453552,0.9885351903513997,-0.4024505615234375,-0.1506805419921875,-0.3490447998046875,0.5536274491716283
1785514107.928642,-0.0356445275247097,-0.16650390625,0.9829100966453552,0.9975501697791195,-0.278472900390625,0.034332275390625,-0.7190704345703125,0.7718731445377555
1785514107.936558,-0.0380859337747097,-0.17626953125,0.9663085341453552,0.9829922019836838,-0.034332275390625,0.095367431640625,-1.0814666748046875,1.086206159467131
1785514107.947263,-0.0405273400247097,-0.17626953125,0.9716796278953552,0.9883697244469951,0.209808349609375,0.278472900390625,-0.7190704345703125,0.7991426591610004
1785514107.957966,-0.0439453087747097,-0.17578125,0.9755858778953552,0.9922691384718755,0.087738037109375,0.278472900390625,-0.6542205810546875,0.716414466690411
1785514107.968669,-0.0390624962747097,-0.18017578125,0.9643554091453552,0.9818200170663486,0.3910064697265625,0.2155303955078125,-0.7762908935546875,0.8955260812347782
1785514107.976652,-0.0346679612994194,-0.189453125,0.9809569716453552,0.9996854176852585,-0.156402587890625,0.156402587890625,-0.5359649658203125,0.5798120243531848
1785514107.984634,-0.0424804650247097,-0.1748046875,0.9731444716453552,0.9896319676397918,-0.0972747802734375,0.2155303955078125,-0.6542205810546875,0.6956438046446849
1785514107.992616,-0.0493163987994194,-0.18310546875,0.9672850966453552,0.985697812754454,0.148773193359375,0.095367431640625,-0.4711151123046875,0.5031678240129566
1785514108.000598,-0.0537109300494194,-0.1748046875,0.9731444716453552,0.9901776130940669,0.0858306884765625,-0.0247955322265625,-0.4138946533203125,0.4234271006323295
1785514108.011245,-0.0317382775247097,-0.18896484375,0.9716796278953552,0.9903920080960636,0.0858306884765625,-0.0247955322265625,-0.5931854248046875,0.5998755485127534
1785514108.021892,-0.0322265587747097,-0.18994140625,0.9648436903953552,0.9838900526961412,0.087738037109375,-0.087738037109375,-0.2880096435546875,0.31360083082177936
1785514108.032539,-0.0336914025247097,-0.18603515625,0.9765624403953552,0.9946951241239577,0.0858306884765625,0.0324249267578125,-0.1049041748046875,0.13936702928262
1785514108.040585,-0.0332031212747097,-0.1962890625,0.9687499403953552,0.988993574466243,0.148773193359375,-0.209808349609375,-0.2880096435546875,0.3861380082414238
1785514108.04863,-0.0483398400247097,-0.18115234375,0.9819335341453552,0.9996731352091643,-0.278472900390625,-0.270843505859375,0.1392364501953125,0.4126622710899992
1785514108.056674,-0.0522460900247097,-0.19091796875,0.9648436903953552,0.9849379024132557,-0.2193450927734375,-0.1506805419921875,-0.0476837158203125,0.2703527921314659
1785514108.064719,-0.0410156212747097,-0.17822265625,0.9643554091453552,0.9815431480771803,-0.034332275390625,-0.209808349609375,0.4405975341796875,0.48920796786696796
1785514108.075333,-0.0385742112994194,-0.16455078125,0.9824218153953552,0.9968538271743069,-0.461578369140625,-0.514984130859375,0.3223419189453125,0.7629990554416508
1785514108.085947,-0.0195312462747097,-0.185546875,0.9721679091453552,0.9899088624592471,-0.217437744140625,-0.087738037109375,0.2002716064453125,0.30835993916356275
1785514108.096561,-0.0351562462747097,-0.18017578125,0.9765624403953552,0.9936666814340247,-0.278472900390625,-0.209808349609375,0.1392364501953125,0.37543772969797323
1785514108.104587,-0.0336914025247097,-0.18115234375,0.9697265028953552,0.9870768828555634,0.026702880859375,-0.087738037109375,-0.1049041748046875,0.13934092325461486
1785514108.112611,-0.0380859375,-0.1943359375,0.9829100966453552,1.002661085974039,0.331878662109375,-0.087738037109375,-0.3490447998046875,0.4895647881435195
1785514108.120636,-0.0478515625,-0.16845703125,0.9799804091453552,0.9955044679557962,0.3910064697265625,0.0324249267578125,-0.3490447998046875,0.5251377985957335
1785514108.128661,-0.0468749962747097,-0.18115234375,0.9697265028953552,0.9876147666674124,0.514984130859375,-0.392913818359375,-0.1049041748046875,0.6561972337538328
1785514108.138428,-0.0478515587747097,-0.177734375,0.9804686903953552,0.9975961771074472,0.514984130859375,0.034332275390625,-0.0476837158203125,0.5183252810011449
1785514108.148195,-0.0458984337747097,-0.173828125,0.9638671278953552,0.9804910624280203,0.3910064697265625,0.2155303955078125,0.0743865966796875,0.45262874027327277
1785514108.157963,-0.0488281212747097,-0.18212890625,0.9804686903953552,0.9984357649666913,0.148773193359375,0.644683837890625,0.2574920654296875,0.709966814477253
1785514108.167729,-0.0517578087747097,-0.181640625,0.9692382216453552,0.9874689451915948,0.209808349609375,0.400543212890625,0.3833770751953125,0.5928173333699569
1785514108.177496,-0.0405273400247097,-0.1611328125,0.9838866591453552,0.9978172210369227,-0.217437744140625,-0.270843505859375,0.6275177001953125,0.7172264923311013
1785514108.186928,-0.0351562425494194,-0.17822265625,0.9575194716453552,0.974598797029321,0.026702880859375,-0.026702880859375,0.3223419189453125,0.3245464533802925
1785514108.19636,-0.0332031212747097,-0.16650390625,0.9790038466453552,0.9936168928743583,-0.034332275390625,-0.270843505859375,-0.0476837158203125,0.2771437290543074
1785514108.205792,-0.0395507737994194,-0.1884765625,0.9746093153953552,0.9934540734102166,-0.0972747802734375,-0.0896453857421875,-0.2307891845703125,0.2660118902920336
1785514108.215224,-0.0351562462747097,-0.16650390625,0.9785155653953552,0.9932030125657234,0.331878662109375,-0.087738037109375,-0.7190704345703125,0.7968084458591367
1785514108.224656,-0.0449218712747097,-0.181640625,0.9780272841453552,0.9957653637790138,0.514984130859375,-0.026702880859375,-0.4138946533203125,0.6612340606247666
1785514108.234242,-0.0527343712747097,-0.1533203125,0.9882811903953552,1.0014927575514947,0.2689361572265625,-0.1506805419921875,-0.7190704345703125,0.7823640918856053
1785514108.243829,-0.0532226487994194,-0.18408203125,0.9721679091453552,0.9908729929443046,0.0286102294921875,-0.3337860107421875,0.2574920654296875,0.4225326140761513
1785514108.253414,-0.0483398362994194,-0.17578125,0.9804686903953552,0.9972736036166805,-0.034332275390625,0.095367431640625,0.5054473876953125,0.5155101491525095
1785514108.263,-0.0385742150247097,-0.18701171875,0.9643554091453552,0.9830781800866638,0.576019287109375,-0.209808349609375,0.7457733154296875,0.9653991924042564
1785514108.272587,-0.0473632775247097,-0.16162109375,0.9877929091453552,1.0020476482486613,0.698089599609375,-0.209808349609375,0.7457733154296875,1.0428453723613944
1785514108.280722,-0.0322265587747097,-0.1748046875,0.9746093153953552,0.990685897506286,0.3910064697265625,-0.0896453857421875,0.8716583251953125,0.959536654034223
1785514108.28886,-0.0302734337747097,-0.17236328125,0.9790038466453552,0.994522052677657,0.026702880859375,-0.514984130859375,0.3833770751953125,0.6425727045778463
1785514108.296999,-0.033203125,-0.15966796875,0.9902343153953552,1.0035737676628582,-0.0362396240234375,-0.3337860107421875,-0.2880096435546875,0.4423527620542704
1785514108.305136,-0.0312499962747097,-0.166015625,0.9702147841453552,0.9848118994942782,0.1468658447265625,0.1544952392578125,-1.0204315185546875,1.0424580755888464
1785514108.315622,-0.0356445275247097,-0.17919921875,0.9721679091453552,0.9891882206714361,-0.278472900390625,0.461578369140625,-1.2073516845703125,1.3222328982994098
1785514108.326108,-0.0546874925494194,-0.17431640625,0.9829100966453552,0.9997445620840553,0.026702880859375,0.339508056640625,-1.0814666748046875,1.1338205030264674
1785514108.336594,-0.0615234337747097,-0.1591796875,0.9736327528953552,0.9884756159494359,-0.156402587890625,0.034332275390625,-0.4711151123046875,0.49758408703880463
1785514108.34731,-0.0498046837747097,-0.16650390625,0.9653319716453552,0.9808516059033173,-0.156402587890625,-0.026702880859375,0.0171661376953125,0.1595916339550701
1785514108.358027,-0.0605468712747097,-0.17529296875,0.9697265028953552,0.9873008857141778,0.026702880859375,-0.270843505859375,0.5664825439453125,0.6284677566169486
1785514108.368742,-0.0488281175494194,-0.1748046875,0.9707030653953552,0.9875248376640112,-0.217437744140625,-0.209808349609375,0.9937286376953125,1.0386507216184637
1785514108.376727,-0.0395507737994194,-0.19287109375,0.9736327528953552,0.9933399518911147,-0.278472900390625,-0.514984130859375,0.7457733154296875,0.9481211153096112
1785514108.38471,-0.0361328087747097,-0.177734375,0.9716796278953552,0.9884616265659716,-0.461578369140625,-0.270843505859375,0.6885528564453125,0.8720755882626893
1785514108.392694,-0.0356445275247097,-0.1806640625,0.9741210341453552,0.9913737060190169,-0.4024505615234375,-0.4558563232421875,0.3223419189453125,0.688241058510579
1785514108.400678,-0.0405273400247097,-0.171875,0.9887694716453552,1.0044145304466245,-0.217437744140625,0.217437744140625,0.2002716064453125,0.3669701098211051
1785514108.41132,-0.0375976525247097,-0.19091796875,0.9672850966453552,0.9866629173427006,0.0858306884765625,0.2155303955078125,-0.2307891845703125,0.327236773891237
1785514108.421962,-0.0346679612994194,-0.193359375,0.9853515028953552,1.0047424046486662,0.026702880859375,-0.026702880859375,-0.0476837158203125,0.06082618224755087
1785514108.432604,-0.0478515587747097,-0.18115234375,0.9682616591453552,0.9862233945177957,0.0858306884765625,0.2155303955078125,-0.2307891845703125,0.327236773891237
1785514108.440633,-0.0424804650247097,-0.1865234375,0.9726561903953552,0.9912898906777661,0.270843505859375,-0.026702880859375,0.1392364501953125,0.3057058023253386
1785514108.448663,-0.0356445275247097,-0.1728515625,0.9726561903953552,0.9885384462506032,0.2689361572265625,-0.4558563232421875,-0.0476837158203125,0.5314182729809998
1785514108.456692,-0.03759765625,-0.17822265625,0.9619140028953552,0.9790073788907131,0.3910064697265625,-0.1506805419921875,-0.4138946533203125,0.5889817222547999
1785514108.46472,-0.0263671837747097,-0.17626953125,0.9726561903953552,0.9888509699351614,0.209808349609375,-0.514984130859375,-0.4138946533203125,0.6932077485501278
1785514108.475394,-0.0307617150247097,-0.1875,0.9663085341453552,0.9848120207803145,0.2689361572265625,0.0324249267578125,-1.0204315185546875,1.0557738946378934
1785514108.486066,-0.046875,-0.18310546875,0.9785155653953552,0.9966030252975098,0.148773193359375,0.644683837890625,-1.3256072998046875,1.4815483209113385
1785514108.496739,-0.0439453087747097,-0.17041015625,0.9770507216453552,0.9927733498559292,0.148773193359375,0.888824462890625,-0.9593963623046875,1.3162764788974317
1785514108.507333,-0.0502929612994194,-0.17822265625,0.9848632216453552,1.0021218800658624,0.514984130859375,0.705718994140625,-0.2880096435546875,0.9198899436934505
1785514108.517926,-0.0561523400247097,-0.1748046875,0.9697265028953552,0.9869545351635397,0.1468658447265625,0.1544952392578125,0.2574920654296875,0.3342761120089528
1785514108.528519,-0.04248046875,-0.1689453125,0.9687499403953552,0.9842883499549036,0.3910064697265625,-0.2079010009765625,0.8106231689453125,0.923698439755111
1785514108.536592,-0.0395507775247097,-0.17626953125,0.9819335341453552,0.99841307940606,-0.156402587890625,-0.087738037109375,1.0547637939453125,1.069900179303004
1785514108.544665,-0.0341796800494194,-0.193359375,0.9648436903953552,0.9846214731176643,-0.095367431640625,0.095367431640625,0.8106231689453125,0.8217662782485049
1785514108.552738,-0.0351562425494194,-0.16845703125,0.9804686903953552,0.995455968696426,0.331878662109375,0.278472900390625,0.2002716064453125,0.4772832691009206
1785514108.560812,-0.0361328087747097,-0.18310546875,0.9736327528953552,0.9913596370978066,0.2117156982421875,0.1544952392578125,-0.4138946533203125,0.4898990711183758
1785514108.571463,-0.0302734337747097,-0.17919921875,0.9775390028953552,0.9942893658159919,0.0858306884765625,0.5207061767578125,-0.9593963623046875,1.09496265214918
1785514108.582115,-0.0434570237994194,-0.169921875,0.9824218153953552,0.9979551993379885,0.3910064697265625,0.3376007080078125,-0.7762908935546875,0.9324633230488697
1785514108.592767,-0.0493163987994194,-0.1884765625,0.9589843153953552,0.9785736758040541,0.3910064697265625,-0.0247955322265625,-0.4711151123046875,0.6127400156904118
1785514108.603428,-0.0512695275247097,-0.18896484375,0.9799804091453552,0.9993487273893766,0.759124755859375,-0.087738037109375,-0.6542205810546875,1.0059686509975818
1785514108.614089,-0.0498046837747097,-0.1669921875,0.9711913466453552,0.986701337290445,0.148773193359375,-0.026702880859375,-0.1659393310546875,0.22446017129863627
1785514108.62475,-0.0322265625,-0.173828125,0.9648436903953552,0.9809067821497158,0.209808349609375,-0.514984130859375,0.2574920654296875,0.6128053217474878
1785514108.63273,-0.0468749962747097,-0.18408203125,0.9589843153953552,0.977616681874434,-0.278472900390625,-0.453948974609375,0.5664825439453125,0.7775083924920829
1785514108.640709,-0.0439453087747097,-0.1474609375,0.9692382216453552,0.9813758956434248,-0.339508056640625,-0.514984130859375,0.0171661376953125,0.6170648684249121
1785514108.648688,-0.0322265587747097,-0.1806640625,0.9731444716453552,0.9902970348654899,-0.156402587890625,-0.453948974609375,0.0171661376953125,0.48044366717770576
1785514108.656667,-0.0390624962747097,-0.17724609375,0.9672850966453552,0.9841658978836137,0.209808349609375,-0.209808349609375,-0.7190704345703125,0.7778826241823104
1785514108.667292,-0.0336914025247097,-0.16259765625,0.9858397841453552,0.9997265568273336,0.209808349609375,-0.087738037109375,-0.7762908935546875,0.8089159771802946
1785514108.677917,-0.0444335900247097,-0.1806640625,0.9516600966453552,0.969675609133557,0.148773193359375,-0.392913818359375,-0.7762908935546875,0.8826903665136632
1785514108.688542,-0.0366210900247097,-0.1669921875,0.9833983778953552,0.9981482177351463,0.3910064697265625,-0.0896453857421875,-0.7190704345703125,0.8233982295499748
1785514108.699223,-0.04248046875,-0.17822265625,0.9765624403953552,0.9936005763972549,0.453948974609375,-0.209808349609375,-0.7762908935546875,0.9234266438275689
1785514108.709902,-0.0488281175494194,-0.1845703125,0.9707030653953552,0.9893001700635186,0.026702880859375,-0.148773193359375,-0.4711151123046875,0.49476858828182924
1785514108.720582,-0.0493163987994194,-0.17919921875,0.9790038466453552,0.996490340614276,-0.034332275390625,0.278472900390625,-0.2880096435546875,0.40208881626571363
1785514108.728571,-0.0522460900247097,-0.16162109375,0.9833983778953552,0.997959619180572,-0.217437744140625,0.400543212890625,0.0171661376953125,0.4560797235715296
1785514108.73656,-0.0390624962747097,-0.18115234375,0.9711913466453552,0.9887136501839895,-0.461578369140625,0.217437744140625,0.2574920654296875,0.5715207145806086
1785514108.744549,-0.0449218712747097,-0.185546875,0.9711913466453552,0.9897768683596853,-0.034332275390625,0.461578369140625,0.2002716064453125,0.504323321233713
1785514108.752538,-0.0351562425494194,-0.17822265625,0.9741210341453552,0.9909142575194968,0.026702880859375,0.400543212890625,-0.1659393310546875,0.4343774520273948
1785514108.763222,-0.0463867150247097,-0.1845703125,0.9916991591453552,1.0097946077479003,0.087738037109375,0.583648681640625,0.0743865966796875,0.5948757118106539
1785514108.773904,-0.0444335900247097,-0.1728515625,0.9746093153953552,0.9908154844553947,0.148773193359375,0.522613525390625,-0.1659393310546875,0.568149823175578
1785514108.784588,-0.0566406212747097,-0.166015625,0.9853515028953552,1.0008431105726117,-0.034332275390625,0.400543212890625,-0.1049041748046875,0.4154737734414709
1785514108.795323,-0.052734375,-0.16455078125,0.9746093153953552,0.9898086641225308,0.209808349609375,-0.087738037109375,-0.0476837158203125,0.2323601589688906
1785514108.80606,-0.0434570237994194,-0.193359375,0.9716796278953552,0.9916842542285069,0.148773193359375,-0.026702880859375,-0.1049041748046875,0.18398748000879947
1785514108.816797,-0.0341796837747097,-0.16796875,0.9731444716453552,0.9881254548150347,0.0286102294921875,-0.3337860107421875,-0.0476837158203125,0.33838644026203485
1785514108.824742,-0.0390624925494194,-0.1787109375,0.9785155653953552,0.9954678243053836,-0.034332275390625,-0.514984130859375,0.0743865966796875,0.5214601863383916
1785514108.83269,-0.0351562462747097,-0.19677734375,0.9565429091453552,0.9772060282774012,0.026702880859375,-0.759124755859375,0.1392364501953125,0.772250107068777
1785514108.840636,-0.0385742112994194,-0.169921875,0.9799804091453552,0.995350699848845,0.026702880859375,-0.576019287109375,-0.1049041748046875,0.586102507126215
1785514108.85659,-0.0405273400247097,-0.16455078125,0.9765624403953552,0.9911577194828255,0.148773193359375,-0.514984130859375,-0.4138946533203125,0.6772376998857
1785514108.864599,-0.0322265587747097,-0.20556640625,0.9604491591453552,0.9827302202395222,0.026702880859375,-0.453948974609375,-0.4711151123046875,0.6547764232445692
1785514108.872608,-0.02783203125,-0.16357421875,0.9809569716453552,0.9948908117089031,-0.034332275390625,-0.514984130859375,-0.4138946533203125,0.6615860822429876
1785514108.880617,-0.0390624925494194,-0.1845703125,0.9853515028953552,1.0032495516264417,0.1468658447265625,-0.3337860107421875,-0.4711151123046875,0.5957618033713548
1785514108.888759,-0.0473632775247097,-0.1865234375,0.9702147841453552,0.9891162723203564,-0.156402587890625,-0.148773193359375,-0.4711151123046875,0.5182129693505257
1785514108.896901,-0.0512695275247097,-0.1708984375,0.9726561903953552,0.9888856885944673,-0.156402587890625,-0.026702880859375,-0.2880096435546875,0.3288227001372819
1785514108.905043,-0.0473632775247097,-0.15625,0.9741210341453552,0.9877090319128903,0.2689361572265625,0.1544952392578125,0.2574920654296875,0.4031099097967768
1785514108.913186,-0.0380859337747097,-0.16162109375,0.9809569716453552,0.9949113008284025,0.148773193359375,0.278472900390625,0.4405975341796875,0.5420394878969003
1785514108.923672,-0.04296875,-0.17822265625,0.9780272841453552,0.9950613032422211,0.331878662109375,0.644683837890625,0.8106231689453125,1.0875985561004735
1785514108.934159,-0.0444335862994194,-0.15478515625,0.9833983778953552,0.9964964414557539,0.331878662109375,0.461578369140625,0.9937286376953125,1.1448557300366755
1785514108.944646,-0.0415039025247097,-0.19970703125,0.9599608778953552,0.9813920518045223,0.2117156982421875,0.3376007080078125,1.2340545654296875,1.296799308060969
1785514108.952683,-0.033203125,-0.1640625,0.9804686903953552,0.9946546155634118,-0.034332275390625,0.095367431640625,1.0547637939453125,1.0596227220898657
1785514108.96072,-0.014648430049419403,-0.18408203125,0.9750975966453552,0.9924293897883045,0.087738037109375,0.095367431640625,0.9288787841796875,0.9378745683046693
1785514108.968757,-0.0288085900247097,-0.17236328125,0.9663085341453552,0.9819833087912562,-0.278472900390625,-0.209808349609375,0.2574920654296875,0.4334384195903994
1785514108.976794,-0.029296867549419403,-0.18408203125,0.9882811903953552,1.0057058277481514,-0.034332275390625,-0.453948974609375,-0.4138946533203125,0.615269990109661
1785514108.984942,-0.0488281212747097,-0.16162109375,0.9794921278953552,0.9939368148836901,-0.2765655517578125,-0.1506805419921875,-1.0814666748046875,1.1263939359155262
1785514108.99309,-0.0517578087747097,-0.1728515625,0.9692382216453552,0.9858900870411983,0.209808349609375,-0.026702880859375,-1.5087127685546875,1.5234653935721512
1785514109.001239,-0.0571289025247097,-0.17626953125,0.9848632216453552,1.0021428164191173,-0.034332275390625,0.095367431640625,-1.3256072998046875,1.3294767261771459
1785514109.009387,-0.0571289025247097,-0.17578125,0.9633788466453552,0.9809493164883571,0.026702880859375,-0.148773193359375,-0.5931854248046875,0.6121400616764545
1785514109.019847,-0.0439453087747097,-0.1767578125,0.9770507216453552,0.9938826022779548,0.270843505859375,-0.514984130859375,0.1392364501953125,0.5982906056141738
1785514109.030308,-0.0385742112994194,-0.169921875,0.9672850966453552,0.9828539421364204,0.4520416259765625,-0.8220672607421875,0.3223419189453125,0.9919881680287546
1785514109.04077,-0.0400390587747097,-0.1826171875,0.9780272841453552,0.9957356737260719,-0.034332275390625,-0.270843505859375,0.5664825439453125,0.6288381209774483
1785514109.051431,-0.0449218712747097,-0.17041015625,0.9746093153953552,0.9904145160120453,-0.522613525390625,0.095367431640625,0.6885528564453125,0.869669408486895
1785514109.062093,-0.0390624962747097,-0.1806640625,0.9716796278953552,0.9891039790442012,-0.339508056640625,0.095367431640625,1.1157989501953125,1.1701999678681352
1785514109.072756,-0.0439453087747097,-0.1826171875,0.9863280653953552,1.0040534248336883,-0.0362396240234375,-0.1506805419921875,1.0547637939453125,1.0660884565092754
1785514109.080794,-0.0307617150247097,-0.15576171875,0.9829100966453552,0.9956506687722342,0.026702880859375,-0.148773193359375,1.0547637939453125,1.0655389096257564
1785514109.088831,-0.0253906212747097,-0.16943359375,0.9726561903953552,0.9876297337839527,0.3910064697265625,-0.2727508544921875,0.8106231689453125,0.9404195925357938
1785514109.096868,-0.0126953125,-0.17822265625,0.9775390028953552,0.9937338619277918,0.514984130859375,-0.270843505859375,0.6275177001953125,0.8557706023004046
1785514109.104905,-0.0244140587747097,-0.1806640625,0.9794921278953552,0.9963133936437018,0.3910064697265625,-0.4558563232421875,0.4405975341796875,0.7448605466348287
1785514109.11551,-0.0185546837747097,-0.166015625,0.9711913466453552,0.9854532438593617,0.2117156982421875,-0.1506805419921875,-0.1049041748046875,0.28023748590916386
1785514109.126114,-0.0336913987994194,-0.18408203125,0.9814452528953552,0.9991276640214779,-0.156402587890625,0.095367431640625,-0.9593963623046875,0.976728261350147
1785514109.136717,-0.0483398362994194,-0.18505859375,0.9736327528953552,0.9922419868181199,-0.0972747802734375,0.4634857177734375,-1.4476776123046875,1.5231716458184892
1785514109.147346,-0.0483398362994194,-0.1591796875,0.9628905653953552,0.9771556445180262,-0.339508056640625,0.888824462890625,-1.0814666748046875,1.440432162606004
1785514109.157977,-0.0585937425494194,-0.16796875,0.9648436903953552,0.9811065561590332,-0.278472900390625,0.705718994140625,-0.9021759033203125,1.1787738610414824
1785514109.168608,-0.0546874962747097,-0.1845703125,0.9741210341453552,0.9929595720217215,-0.0972747802734375,0.5817413330078125,-0.4711151123046875,0.7548740361469657
1785514109.176593,-0.0449218675494194,-0.1689453125,0.9648436903953552,0.9805528235110939,0.026702880859375,0.095367431640625,-0.4711151123046875,0.481411923310773
1785514109.184577,-0.052734375,-0.18310546875,0.9721679091453552,0.9906659227836847,-0.278472900390625,-0.087738037109375,0.0171661376953125,0.2924718716238323
1785514109.192561,-0.0512695275247097,-0.18359375,0.9692382216453552,0.9878046162019695,-0.644683837890625,0.095367431640625,0.2002716064453125,0.681777760126642
1785514109.200546,-0.0410156212747097,-0.162109375,0.9755858778953552,0.9898128791848952,-0.8907318115234375,0.0324249267578125,0.5664825439453125,1.0561046390059212
1785514109.211227,-0.0395507737994194,-0.1689453125,0.9726561903953552,0.9880115621986724,-0.766754150390625,-0.392913818359375,0.4405975341796875,0.9676876473967279
1785514109.22191,-0.0385742112994194,-0.189453125,0.9702147841453552,0.989291253233271,-0.5245208740234375,-0.3337860107421875,0.2574920654296875,0.6729319519927264
1785514109.232591,-0.0341796800494194,-0.193359375,0.9829100966453552,1.0023314604042182,-0.583648681640625,-0.392913818359375,0.0743865966796875,0.7075029455798542
1785514109.243412,-0.0395507775247097,-0.1767578125,0.9853515028953552,1.0018608548799226,-0.339508056640625,-0.209808349609375,-0.2307891845703125,0.46103027211272507
1785514109.254236,-0.03759765625,-0.1923828125,0.9785155653953552,0.9979566333372883,0.209808349609375,-0.270843505859375,-0.2307891845703125,0.4130852163254415
1785514109.26506,-0.0444335900247097,-0.169921875,0.9926757216453552,1.0080936840741175,0.514984130859375,-0.453948974609375,-0.1049041748046875,0.6944661348671664
1785514109.275586,-0.0297851525247097,-0.1796875,0.9692382216453552,0.9862035709048214,0.5741119384765625,-0.1506805419921875,0.1392364501953125,0.6096687073315863
1785514109.286112,-0.0371093712747097,-0.17724609375,0.9814452528953552,0.9980120578514399,0.270843505859375,-0.576019287109375,0.0743865966796875,0.6408492721020883
1785514109.296638,-0.0366210900247097,-0.171875,0.9716796278953552,0.9874428687911285,0.3910064697265625,-0.0896453857421875,0.2002716064453125,0.4483648858921503
1785514109.304609,-0.02783203125,-0.17333984375,0.9848632216453552,1.0003883689569983,-0.034332275390625,-0.026702880859375,0.3833770751953125,0.3858364041468871
1785514109.31258,-0.0390624925494194,-0.17431640625,0.9643554091453552,0.9807616647075853,0.331878662109375,0.217437744140625,-0.0476837158203125,0.399620264369695
1785514109.320552,-0.030761711299419403,-0.17822265625,0.9731444716453552,0.9898079413587224,0.087738037109375,0.461578369140625,-0.2880096435546875,0.5510917426298667
1785514109.336559,-0.0405273400247097,-0.17626953125,0.9726561903953552,0.9893298123734969,-0.034332275390625,0.644683837890625,-0.7190704345703125,0.9663634129270527
1785514109.344594,-0.0351562425494194,-0.18359375,0.9731444716453552,0.9909353102615597,0.026702880859375,0.766754150390625,-0.7190704345703125,1.0515166479236442
1785514109.352628,-0.0600585900247097,-0.181640625,0.9633788466453552,0.9821909962170706,-0.034332275390625,0.461578369140625,-0.6542205810546875,0.8013974448845902
1785514109.360662,-0.052734375,-0.1640625,0.9755858778953552,0.9906892668045524,-0.278472900390625,-0.026702880859375,-0.5359649658203125,0.6045813797041104
1785514109.371299,-0.0566406212747097,-0.1875,0.9663085341453552,0.9859597320076161,-0.095367431640625,0.278472900390625,-0.1049041748046875,0.3124851823065354
1785514109.381938,-0.0512695275247097,-0.16943359375,0.9902343153953552,1.005932555656767,-0.0972747802734375,0.3376007080078125,0.1392364501953125,0.3779198459827342
1785514109.392576,-0.0458984337747097,-0.19189453125,0.9721679091453552,0.9919882161188611,-0.0972747802734375,-0.0247955322265625,0.3223419189453125,0.3376114838168134
1785514109.400578,-0.0488281212747097,-0.16748046875,0.9829100966453552,0.998271581748834,0.270843505859375,0.400543212890625,0.7457733154296875,0.8888019509800426
1785514109.408578,-0.0458984337747097,-0.169921875,0.9858397841453552,1.0014290737891764,0.148773193359375,0.461578369140625,1.0547637939453125,1.1609111572117716
1785514109.416579,-0.0517578087747097,-0.185546875,0.9653319716453552,0.9843639210536589,0.2689361572265625,0.1544952392578125,0.9937286376953125,1.04100530305705
1785514109.42458,-0.0292968712747097,-0.1669921875,0.9658202528953552,0.9805883225163198,0.514984130859375,-0.026702880859375,0.4405975341796875,0.6782682994275914
1785514109.435245,-0.0400390587747097,-0.1728515625,0.9824218153953552,0.9983152869965287,0.087738037109375,-0.087738037109375,0.4405975341796875,0.45773585552896445
1785514109.44591,-0.0322265587747097,-0.1767578125,0.9726561903953552,0.9891116924213618,0.148773193359375,-0.453948974609375,-0.2880096435546875,0.5578106214404196
1785514109.456575,-0.0356445275247097,-0.19091796875,0.9667968153953552,0.9861117002615304,-0.217437744140625,-0.759124755859375,-0.3490447998046875,0.8633549906071164
1785514109.464582,-0.0439453087747097,-0.16552734375,0.9653319716453552,0.9804061949890689,-0.156402587890625,-0.331878662109375,-0.5359649658203125,0.6495103235893653
1785514109.472589,-0.0458984337747097,-0.1708984375,0.9780272841453552,0.9939065905283314,-0.0972747802734375,-0.3337860107421875,-0.6542205810546875,0.7408643955002576
1785514109.480597,-0.0405273400247097,-0.17529296875,0.9731444716453552,0.9896364245906597,-0.217437744140625,-0.392913818359375,-0.3490447998046875,0.5687641985088392
1785514109.488603,-0.0297851525247097,-0.169921875,0.9716796278953552,0.9868748138347091,-0.0972747802734375,-0.7610321044921875,-0.2307891845703125,0.8011840579165833
1785514109.49932,-0.0312499962747097,-0.1845703125,0.9809569716453552,0.9986587719251974,-0.461578369140625,-0.637054443359375,-0.5359649658203125,0.9519198491728235
1785514109.510037,-0.0327148400247097,-0.1650390625,0.9702147841453552,0.9846953235813296,0.209808349609375,-0.453948974609375,-0.2307891845703125,0.5507747841262729
1785514109.520754,-0.0551757775247097,-0.1748046875,0.9936522841453552,1.0104186790557224,0.2689361572265625,0.2155303955078125,-0.4138946533203125,0.5385989157979119
1785514109.531407,-0.0385742150247097,-0.18115234375,0.9687499403953552,0.9862964000374811,-0.0972747802734375,-0.0247955322265625,0.4405975341796875,0.451888690299796
1785514109.542063,-0.0449218712747097,-0.1708984375,0.9672850966453552,0.9832927888736789,-0.156402587890625,0.156402587890625,0.8106231689453125,0.8402579729039826
1785514109.552719,-0.0361328087747097,-0.18017578125,0.9697265028953552,0.9869844894610315,-0.0972747802734375,0.3376007080078125,0.6275177001953125,0.7191766716065225
1785514109.563329,-0.0429687462747097,-0.16748046875,0.9848632216453552,0.9999257902058574,-0.034332275390625,0.400543212890625,0.5664825439453125,0.6946337474676818
1785514109.573941,-0.0449218712747097,-0.16943359375,0.9716796278953552,0.9873636698181262,-0.278472900390625,0.278472900390625,-0.1049041748046875,0.4075526940107087
1785514109.584551,-0.0405273400247097,-0.18701171875,0.9760741591453552,0.9946540164251184,-0.034332275390625,0.461578369140625,-0.2307891845703125,0.5172010670006846
1785514109.595243,-0.0390624962747097,-0.1875,0.9697265028953552,0.9884592146532234,0.209808349609375,0.278472900390625,-0.9593963623046875,1.0207879700609936
1785514109.605935,-0.0473632775247097,-0.1875,0.9868163466453552,1.0055874064766168,0.148773193359375,0.034332275390625,-0.7190704345703125,0.7351016651246151
1785514109.616627,-0.0327148400247097,-0.1806640625,0.9663085341453552,0.9835964352309291,0.026702880859375,0.278472900390625,-0.7762908935546875,0.8251592279760871
1785514109.624648,-0.0541992112994194,-0.18798828125,0.9692382216453552,0.9887870744963543,-0.156402587890625,0.034332275390625,-0.6542205810546875,0.6735317685958958
1785514109.632669,-0.0600585900247097,-0.185546875,0.9628905653953552,0.9824423229815624,-0.156402587890625,0.095367431640625,-0.2880096435546875,0.34133014999720157
1785514109.64069,-0.0585937462747097,-0.17236328125,0.9833983778953552,1.0001073429752365,0.0858306884765625,-0.3337860107421875,-0.0476837158203125,0.3479277867690029
1785514109.648711,-0.0439453087747097,-0.181640625,0.9741210341453552,0.991885223187699,0.3910064697265625,-0.0247955322265625,0.0743865966796875,0.3987909772700659
1785514109.659344,-0.0502929650247097,-0.18017578125,0.9638671278953552,0.9818515848728185,-0.2193450927734375,-0.1506805419921875,0.5054473876953125,0.5712214607198007
1785514109.669977,-0.014648433774709702,-0.1806640625,0.9707030653953552,0.987480896655219,0.148773193359375,-0.576019287109375,0.7457733154296875,0.953996603867816
1785514109.68061,-0.025390617549419403,-0.173828125,0.9824218153953552,0.9980047714641759,0.026702880859375,-0.514984130859375,0.4405975341796875,0.6782682994275914
1785514109.688711,-0.0444335900247097,-0.17236328125,0.9721679091453552,0.9883288360752216,0.026702880859375,-0.270843505859375,-0.3490447998046875,0.44260763751101456
1785514109.696815,-0.0371093712747097,-0.1826171875,0.9916991591453552,1.0090556797602495,-0.156402587890625,-0.331878662109375,-0.7762908935546875,0.8586225988630445
1785514109.704919,-0.0493164025247097,-0.1904296875,0.9536132216453552,0.9736907876405939,0.0858306884765625,0.0324249267578125,-0.9021759033203125,0.9068294456464413
1785514109.713023,-0.0371093712747097,-0.17236328125,0.9848632216453552,1.0005207501643028,0.0858306884765625,-0.1506805419921875,-0.5931854248046875,0.6180133340148396
1785514109.721173,-0.04296875,-0.17431640625,0.9833983778953552,0.9996523858880613,0.0858306884765625,0.1544952392578125,-0.3490447998046875,0.39123900407344847
1785514109.729321,-0.03759765625,-0.1787109375,0.9726561903953552,0.98965208414474,0.2689361572265625,0.1544952392578125,-0.4138946533203125,0.5172081009267554
1785514109.73747,-0.0439453087747097,-0.1728515625,0.9824218153953552,0.998479582258296,0.270843505859375,0.278472900390625,-0.0476837158203125,0.3913784583655526
1785514109.74562,-0.0463867150247097,-0.173828125,0.9599608778953552,0.976674373300242,0.331878662109375,0.400543212890625,0.0743865966796875,0.525463297977927
1785514109.756098,-0.0371093712747097,-0.17529296875,0.9799804091453552,0.9962260449507885,0.2689361572265625,0.2155303955078125,0.6275177001953125,0.7159318906920955
1785514109.766575,-0.0361328087747097,-0.169921875,0.9790038466453552,0.9942975184620887,0.026702880859375,0.400543212890625,0.3833770751953125,0.5550908853730593
1785514109.777053,-0.0327148400247097,-0.16650390625,0.9682616591453552,0.9830180324517284,-0.034332275390625,0.095367431640625,0.4405975341796875,0.45210600446847404
1785514109.787682,-0.037109375,-0.18359375,0.9736327528953552,0.9914860101194273,-0.217437744140625,0.400543212890625,0.5664825439453125,0.7270601835917446
1785514109.798315,-0.0478515587747097,-0.171875,0.9692382216453552,0.9855219518612562,-0.156402587890625,-0.026702880859375,0.7457733154296875,0.7624648525355532
1785514109.808946,-0.0400390587747097,-0.1611328125,0.9819335341453552,0.9958716659142945,-0.522613525390625,0.095367431640625,0.9288787841796875,1.0700633811312679
1785514109.819613,-0.0327148400247097,-0.16796875,0.9658202528953552,0.9808631518398745,-0.2193450927734375,-0.1506805419921875,0.5664825439453125,0.625874882107918
1785514109.830281,-0.0371093712747097,-0.1826171875,0.9633788466453552,0.9812364367320189,-0.278472900390625,0.095367431640625,0.1392364501953125,0.3256207799460716
1785514109.84095,-0.0458984337747097,-0.1904296875,0.9838866591453552,1.0031964364712065,-0.522613525390625,-0.209808349609375,-0.2880096435546875,0.6325298374523729
1785514109.851491,-0.0273437462747097,-0.177734375,0.9750975966453552,0.9915404739598501,-0.156402587890625,-0.576019287109375,-0.5931854248046875,0.8415039731466483
1785514109.862032,-0.0493164025247097,-0.17041015625,0.9702147841453552,0.9863003884645625,-0.156402587890625,-0.270843505859375,-0.7190704345703125,0.7841430124908466
1785514109.872573,-0.0434570275247097,-0.17236328125,0.9711913466453552,0.9873247924383184,-0.4024505615234375,0.3376007080078125,-0.7190704345703125,0.8905071489836813
1785514109.880598,-0.0595703087747097,-0.1669921875,0.9716796278953552,0.987722790888418,-0.0972747802734375,-0.3337860107421875,0.2002716064453125,0.4012283641426854
1785514109.888621,-0.0444335900247097,-0.16748046875,0.9633788466453552,0.9788375010689663,-0.0972747802734375,-0.5779266357421875,0.3223419189453125,0.668854163392047
1785514109.896645,-0.0493164025247097,-0.16015625,0.9731444716453552,0.9874676170214187,-0.4024505615234375,-0.2727508544921875,0.3833770751953125,0.6191425238844938
1785514109.90467,-0.0385742112994194,-0.18359375,0.9702147841453552,0.9881858945515529,-0.461578369140625,-0.087738037109375,0.6885528564453125,0.8335811838887225
1785514109.915318,-0.0351562462747097,-0.15673828125,0.9853515028953552,0.9983588707070556,-0.278472900390625,-0.209808349609375,1.1768341064453125,1.2273977407143595
1785514109.925967,-0.02880859375,-0.18408203125,0.9697265028953552,0.9874642371856481,-0.2765655517578125,-0.1506805419921875,0.5664825439453125,0.648147824766014
1785514109.936616,-0.0410156212747097,-0.17236328125,0.9716796278953552,0.9877007042513805,-0.156402587890625,-0.148773193359375,0.7457733154296875,0.7763846151027329
1785514109.944624,-0.0312499962747097,-0.1962890625,0.9707030653953552,0.9908432769576819,0.026702880859375,-0.270843505859375,0.0743865966796875,0.2821393525865787
1785514109.952635,-0.0292968712747097,-0.16162109375,0.9858397841453552,0.9994297196977854,0.0858306884765625,0.1544952392578125,0.1392364501953125,0.22499438904266297
1785514109.960646,-0.0400390587747097,-0.1845703125,0.9736327528953552,0.9917812581383559,0.453948974609375,-0.209808349609375,-0.0476837158203125,0.5023573945600334
1785514109.968657,-0.0537109337747097,-0.16064453125,0.9721679091453552,0.9868140520886066,0.5741119384765625,0.0324249267578125,0.0171661376953125,0.57528303474024
1785514109.979316,-0.0483398362994194,-0.17529296875,0.9931640028953552,1.0096727694227314,0.5741119384765625,0.4634857177734375,0.0743865966796875,0.7415907862472816
1785514109.989975,-0.0278320275247097,-0.18505859375,0.9736327528953552,0.9914545084810757,-0.2193450927734375,0.3376007080078125,0.2574920654296875,0.47790027362454046
1785514110.000634,-0.0332031212747097,-0.17041015625,0.9760741591453552,0.9913943881053819,0.1468658447265625,0.1544952392578125,0.0171661376953125,0.2138528269253178
1785514110.011287,-0.0356445275247097,-0.18359375,0.9755858778953552,0.9933503926260729,-0.156402587890625,0.461578369140625,-0.7190704345703125,0.8686648664649341
1785514110.021943,-0.04296875,-0.17333984375,0.9741210341453552,0.9903558976813605,-0.339508056640625,0.034332275390625,-0.9021759033203125,0.964554708759028
1785514110.032598,-0.0493164025247097,-0.16748046875,0.9833983778953552,0.9987763436415156,-0.278472900390625,0.400543212890625,-0.9593963623046875,1.0763007951535568
1785514110.043266,-0.0673827975988388,-0.15673828125,0.9731444716453552,0.987986585392417,-0.5855560302734375,0.5207061767578125,-0.8373260498046875,1.1467893009549954
1785514110.053938,-0.0527343712747097,-0.18994140625,0.9707030653953552,0.9905165788061832,-0.522613525390625,0.095367431640625,0.0171661376953125,0.5315209499373671
1785514110.06461,-0.0498046800494194,-0.1787109375,0.9785155653953552,0.9959471959185113,-0.827789306640625,-0.209808349609375,0.3833770751953125,0.9360730001125386
1785514110.072611,-0.0307617150247097,-0.189453125,0.9780272841453552,0.9966825664253722,-0.766754150390625,-0.698089599609375,0.8106231689453125,1.3161880330161673
1785514110.080613,-0.0273437462747097,-0.16552734375,0.9609374403953552,0.9754730884769929,-1.010894775390625,-0.514984130859375,0.2574920654296875,1.1633654050676832
1785514110.088615,-0.0307617150247097,-0.1796875,0.9755858778953552,0.99247251141599,-0.8296966552734375,-0.3337860107421875,-0.1659393310546875,0.9095853463694269
1785514110.096617,-0.0278320275247097,-0.1796875,0.9614257216453552,0.9784690274370866,-0.4024505615234375,-0.6389617919921875,-0.2880096435546875,0.8082005820815126
1785514110.107267,-0.0312499962747097,-0.15966796875,0.9931640028953552,1.0064020862255034,0.026702880859375,-0.514984130859375,-0.5359649658203125,0.743760810657529
1785514110.117918,-0.0507812462747097,-0.19140625,0.9760741591453552,0.9959597640786436,0.270843505859375,-0.759124755859375,-0.7762908935546875,1.1190416216748544
1785514110.128567,-0.0312499962747097,-0.18212890625,0.9765624403953552,0.9938921977508035,0.698089599609375,-0.209808349609375,-0.7190704345703125,1.023919392589927
1785514110.139275,-0.0532226487994194,-0.19775390625,0.9599608778953552,0.9815620942518009,0.2689361572265625,-0.1506805419921875,-0.4711151123046875,0.563010418589841
1785514110.149982,-0.0449218712747097,-0.16796875,0.9755858778953552,0.9909587683875828,0.514984130859375,-0.453948974609375,-0.1049041748046875,0.6944661348671664
1785514110.160691,-0.0478515587747097,-0.18017578125,0.9711913466453552,0.9889214911331616,0.514984130859375,-0.209808349609375,-0.2307891845703125,0.6020729576367181
1785514110.168697,-0.0390624962747097,-0.18212890625,0.9736327528953552,0.9912908526853361,0.5741119384765625,0.6465911865234375,0.5054473876953125,1.0015796234544303
1785514110.176707,-0.0395507775247097,-0.17138671875,0.9716796278953552,0.9874709973632424,0.209808349609375,0.644683837890625,0.9937286376953125,1.2029685780513875
1785514110.184717,-0.0395507737994194,-0.17822265625,0.9692382216453552,0.9862810498063872,0.0858306884765625,0.3986358642578125,0.6885528564453125,0.8002390239646733
1785514110.192727,-0.0400390587747097,-0.181640625,0.9624022841453552,0.9802115074850695,0.270843505859375,0.400543212890625,0.8106231689453125,0.9438755172637345
1785514110.203382,-0.0458984337747097,-0.1748046875,0.9648436903953552,0.9816245167530567,-0.156402587890625,0.339508056640625,0.7457733154296875,0.8342094029857052
1785514110.214037,-0.0463867150247097,-0.1826171875,0.9824218153953552,1.0003266405859135,-0.339508056640625,0.461578369140625,0.2002716064453125,0.6069835481548072
1785514110.224693,-0.0439453050494194,-0.16845703125,0.9790038466453552,0.9943628577937996,0.0858306884765625,0.1544952392578125,0.2002716064453125,0.26710372963677537
1785514110.235343,-0.02783203125,-0.17333984375,0.9780272841453552,0.9936592433664142,-0.156402587890625,-0.087738037109375,-0.5359649658203125,0.5651709274559861
1785514110.245992,-0.0327148400247097,-0.1748046875,0.9672850966453552,0.98349753315503,-0.0972747802734375,0.0324249267578125,-0.3490447998046875,0.3637939403332461
1785514110.256642,-0.052734375,-0.1796875,0.9804686903953552,0.9981920480591265,-0.2193450927734375,0.0324249267578125,-0.1659393310546875,0.27694675876405306
1785514110.264633,-0.0341796837747097,-0.177734375,0.9697265028953552,0.9864721228991903,0.2117156982421875,0.8258819580078125,-0.5931854248046875,1.03864021376303
1785514110.272626,-0.0561523400247097,-0.173828125,0.9794921278953552,0.9963805151347738,-0.4024505615234375,0.1544952392578125,0.2002716064453125,0.4753356180342948
1785514110.28062,-0.0419921875,-0.17333984375,0.9677733778953552,0.9840708085322395,-0.0972747802734375,-0.0247955322265625,-0.1049041748046875,0.14519671892675975
1785514110.288612,-0.0375976525247097,-0.17529296875,0.9809569716453552,0.9972049882487469,0.0286102294921875,0.1544952392578125,0.3833770751953125,0.4143251210948193
1785514110.299439,-0.0483398362994194,-0.1689453125,0.9746093153953552,0.9903244801804004,0.331878662109375,0.339508056640625,-0.0476837158203125,0.47716129730085494
1785514110.310266,-0.0317382775247097,-0.17041015625,0.9667968153953552,0.9822133280871246,0.026702880859375,0.034332275390625,-0.0476837158203125,0.06454057432437374
1785514110.321093,-0.0532226525247097,-0.17724609375,0.9672850966453552,0.9848295724051009,-0.034332275390625,0.278472900390625,0.2574920654296875,0.3808254523331012
1785514110.331587,-0.0263671837747097,-0.17138671875,0.9633788466453552,0.9788602749666756,-0.0972747802734375,-0.4558563232421875,0.5054473876953125,0.6875641294055027
1785514110.342082,-0.0327148400247097,-0.17041015625,0.9829100966453552,0.9981092826932195,0.209808349609375,-0.453948974609375,0.3223419189453125,0.5949735522055237
1785514110.352576,-0.0322265587747097,-0.17138671875,0.9624022841453552,0.9780746980586649,-0.034332275390625,-0.576019287109375,0.0743865966796875,0.581816371393137
1785514110.360567,-0.0244140587747097,-0.181640625,0.9814452528953552,0.9984108109125589,-0.156402587890625,-0.576019287109375,-0.1049041748046875,0.6060238233867788
1785514110.368556,-0.04150390625,-0.17822265625,0.9702147841453552,0.9873209289835968,-0.522613525390625,-0.514984130859375,-1.0204315185546875,1.2568269713918574
1785514110.376544,-0.0307617150247097,-0.17724609375,0.9819335341453552,0.9982764779058368,-0.705718994140625,-0.392913818359375,-1.3256072998046875,1.552306439026803
1785514110.384533,-0.0307617150247097,-0.17626953125,0.9628905653953552,0.9793750413839138,-0.461578369140625,-0.270843505859375,-1.2645721435546875,1.373154580438493
1785514110.395224,-0.0507812462747097,-0.18017578125,1.0029296875,1.0202499719142895,-0.217437744140625,0.095367431640625,-1.0814666748046875,1.1072236848567687
1785514110.405915,-0.0380859375,-0.18798828125,0.9667968153953552,0.9856400026283346,-0.278472900390625,0.278472900390625,-0.9593963623046875,1.0370803693578434
1785514110.416606,-0.0571289025247097,-0.166015625,0.9736327528953552,0.9893359574777449,0.087738037109375,0.278472900390625,-0.3490447998046875,0.4550575696309945
1785514110.4246,-0.0556640587747097,-0.17236328125,0.9721679091453552,0.9888973818018696,-0.0972747802734375,0.4634857177734375,-0.0476837158203125,0.4759780774485695
1785514110.432595,-0.0576171837747097,-0.17041015625,0.9794921278953552,0.9958735812482672,-0.156402587890625,0.217437744140625,0.1392364501953125,0.3018737006412455
1785514110.440588,-0.0483398400247097,-0.17138671875,0.9565429091453552,0.9729771243630373,0.087738037109375,0.278472900390625,0.6885528564453125,0.7478971557151238
1785514110.448582,-0.0405273400247097,-0.17236328125,0.9809569716453552,0.9968089818176656,-0.156402587890625,0.644683837890625,0.2574920654296875,0.7116046543520614
1785514110.456585,-0.0346679650247097,-0.1904296875,0.9658202528953552,0.9850249207929462,-0.2193450927734375,0.3376007080078125,0.5054473876953125,0.6461915888489881
1785514110.464588,-0.0278320275247097,-0.1650390625,0.9663085341453552,0.9806960268447916,0.026702880859375,-0.026702880859375,0.2574920654296875,0.26024652053702163
1785514110.472591,-0.0229492150247097,-0.177734375,0.9682616591453552,0.9847064613872537,-0.2193450927734375,0.0324249267578125,-0.4138946533203125,0.46954491760233025
1785514110.480594,-0.025390617549419403,-0.19287109375,0.9790038466453552,0.9981445155939416,-0.2765655517578125,-0.1506805419921875,-1.3904571533203125,1.425680267582388
1785514110.491259,-0.030761711299419403,-0.17822265625,0.9799804091453552,0.9965295782823369,-0.278472900390625,-0.209808349609375,-1.8787384033203125,1.9108178060527732
1785514110.501924,-0.0439453087747097,-0.177734375,0.9736327528953552,0.9906974491390058,-0.095367431640625,0.278472900390625,-2.3021697998046875,2.3209110044123733
1785514110.512589,-0.0458984337747097,-0.1806640625,0.9604491591453552,0.9783704600022403,0.026702880859375,0.644683837890625,-1.8138885498046875,1.9252329640321786
1785514110.523381,-0.0581054650247097,-0.17626953125,0.9677733778953552,0.9854098150900561,-0.156402587890625,-0.087738037109375,-0.6542205810546875,0.6783541120463734
1785514110.534171,-0.0507812462747097,-0.1767578125,0.9868163466453552,1.0038070338762743,-0.278472900390625,-0.453948974609375,0.2002716064453125,0.5689688428631713
1785514110.544961,-0.0449218675494194,-0.1689453125,0.9809569716453552,0.9964120999965207,-0.034332275390625,-0.209808349609375,0.3833770751953125,0.4383790944885713
1785514110.552872,-0.0439453087747097,-0.1875,0.9707030653953552,0.989622090159291,0.209808349609375,-0.392913818359375,0.6885528564453125,0.8200645391324715
1785514110.560783,-0.0454101525247097,-0.1806640625,0.9770507216453552,0.9946505406920718,0.087738037109375,0.095367431640625,0.5664825439453125,0.5811156363137102
1785514110.568695,-0.0302734337747097,-0.18505859375,0.9667968153953552,0.9848143206573714,0.1468658447265625,0.3376007080078125,0.3833770751953125,0.531527794362567
1785514110.576606,-0.0297851525247097,-0.1669921875,0.9746093153953552,0.9892607662554693,-0.034332275390625,0.217437744140625,0.4405975341796875,0.49252823760235565
1785514110.587549,-0.0473632775247097,-0.18505859375,0.9770507216453552,0.9955491328138052,-0.034332275390625,0.217437744140625,0.0171661376953125,0.22079980523957907
1785514110.598493,-0.0419921837747097,-0.1728515625,0.9755858778953552,0.9916697087769251,-0.034332275390625,0.278472900390625,0.0171661376953125,0.28110591895020476
1785514110.609437,-0.0234374962747097,-0.181640625,0.9711913466453552,0.9883092960611248,-0.2193450927734375,0.0324249267578125,-0.2307891845703125,0.32004264296132034
1785514110.619849,-0.0356445275247097,-0.16796875,0.9682616591453552,0.9833690425724914,0.209808349609375,0.034332275390625,-0.9021759033203125,0.9268870531144177
1785514110.630261,-0.0288085900247097,-0.18115234375,0.9824218153953552,0.9993991844453524,-0.0362396240234375,0.1544952392578125,-0.8373260498046875,0.8522306043461539
1785514110.640674,-0.04296875,-0.16845703125,0.9702147841453552,0.9856676986836609,0.026702880859375,-0.270843505859375,-1.3256072998046875,1.353256798175373
1785514110.648671,-0.0478515625,-0.1787109375,0.9785155653953552,0.9958514361775114,0.148773193359375,0.095367431640625,-1.0204315185546875,1.035620052982705
1785514110.656669,-0.0556640587747097,-0.17578125,0.9663085341453552,0.983742709478948,0.5168914794921875,0.1544952392578125,-0.8373260498046875,0.996072534611046
1785514110.664667,-0.0419921837747097,-0.17724609375,0.9741210341453552,0.9910052020106752,-0.034332275390625,-0.026702880859375,-0.4138946533203125,0.41617368132407095
1785514110.672665,-0.0512695275247097,-0.18017578125,0.9790038466453552,0.996764971469231,0.209808349609375,0.217437744140625,0.0743865966796875,0.311178537030368
1785514110.68329,-0.0507812462747097,-0.1552734375,0.9775390028953552,0.9910958972510806,-0.2193450927734375,0.1544952392578125,0.4405975341796875,0.515855828504765
1785514110.693915,-0.0366210900247097,-0.1806640625,0.9814452528953552,0.9986067254652502,-0.217437744140625,0.400543212890625,0.6275177001953125,0.7755594767831301
1785514110.70454,-0.0439453050494194,-0.1796875,0.9760741591453552,0.9934483135238837,0.0858306884765625,0.3986358642578125,0.6275177001953125,0.748368841825572
1785514110.712606,-0.04248046875,-0.16943359375,0.9765624403953552,0.9920617586154561,0.148773193359375,0.278472900390625,0.6885528564453125,0.7574864061046324
1785514110.720675,-0.0341796837747097,-0.16650390625,0.9667968153953552,0.9816251238828642,0.148773193359375,0.461578369140625,0.9288787841796875,1.0478567886977683
1785514110.728745,-0.0546874962747097,-0.18115234375,0.9746093153953552,0.9928092523492705,0.148773193359375,0.461578369140625,0.6275177001953125,0.7930740936251033
1785514110.736813,-0.0439453087747097,-0.19091796875,0.9736327528953552,0.9931473196185541,0.087738037109375,0.278472900390625,0.6885528564453125,0.7478971557151238
1785514110.74746,-0.04296875,-0.17919921875,0.9711913466453552,0.9885197546210148,0.2689361572265625,0.0324249267578125,0.6275177001953125,0.6834884758336851
1785514110.758107,-0.0419921837747097,-0.17724609375,0.9716796278953552,0.9886054928608574,0.209808349609375,-0.209808349609375,0.8106231689453125,0.8632201394560718
1785514110.768754,-0.03759765625,-0.18798828125,0.9785155653953552,0.9971187940079226,0.270843505859375,-0.392913818359375,0.5054473876953125,0.6951363427788514
1785514110.779352,-0.0410156212747097,-0.17919921875,0.9809569716453552,0.9980336774922913,0.5168914794921875,-0.3337860107421875,0.2002716064453125,0.6470692535478659
1785514110.789953,-0.0292968712747097,-0.17138671875,0.9741210341453552,0.9895168028865375,0.7572174072265625,-0.2727508544921875,-0.1049041748046875,0.8116502426073614
1785514110.800552,-0.0410156212747097,-0.16650390625,0.9702147841453552,0.9852525358299148,0.5741119384765625,-0.2727508544921875,-0.1659393310546875,0.6569120246413609
1785514110.808568,-0.0351562462747097,-0.17529296875,0.9711913466453552,0.9875101105022344,0.3910064697265625,0.0324249267578125,-0.2307891845703125,0.45519345662905625
1785514110.816586,-0.0463867150247097,-0.162109375,0.9628905653953552,0.9775425401081331,0.2689361572265625,0.1544952392578125,-0.2880096435546875,0.42325523079770344
1785514110.824605,-0.0341796837747097,-0.166015625,0.9731444716453552,0.9877953235468354,0.026702880859375,0.034332275390625,-0.2880096435546875,0.29127530578506966
1785514110.832622,-0.0498046837747097,-0.18701171875,0.9736327528953552,0.9926805261443965,-0.2193450927734375,0.5207061767578125,-0.3490447998046875,0.6641381366163371
1785514110.843251,-0.0595703087747097,-0.1767578125,0.9750975966453552,0.9927775526022168,-0.278472900390625,0.583648681640625,-0.4711151123046875,0.8000889880973646
1785514110.853878,-0.0498046800494194,-0.18310546875,0.9741210341453552,0.992431311479741,-0.522613525390625,0.217437744140625,-0.0476837158203125,0.568047362684322
1785514110.864506,-0.0415039025247097,-0.17431640625,0.9794921278953552,0.9957477652606942,-0.2193450927734375,0.1544952392578125,-0.3490447998046875,0.4402423434289471
1785514110.875231,-0.0317382775247097,-0.17138671875,0.9824218153953552,0.9977641750377855,-0.339508056640625,0.217437744140625,0.3223419189453125,0.5161871809820583
1785514110.885952,-0.0366210900247097,-0.177734375,0.9731444716453552,0.9899195800594895,-0.522613525390625,0.034332275390625,0.2574920654296875,0.5836143982236572
1785514110.896674,-0.0410156212747097,-0.1826171875,0.9575194716453552,0.9756407417379416,-0.156402587890625,0.339508056640625,0.4405975341796875,0.5778007244266827
1785514110.904658,-0.0361328050494194,-0.18798828125,0.9643554091453552,0.9831716679379924,-0.339508056640625,-0.087738037109375,0.2002716064453125,0.403822238154223
1785514110.912642,-0.0444335862994194,-0.17431640625,0.9687499403953552,0.9853106109726756,-0.2193450927734375,0.0324249267578125,0.0743865966796875,0.23387392194219497
1785514110.920626,-0.0380859337747097,-0.1806640625,0.9716796278953552,0.9890658932029511,-0.400543212890625,-0.392913818359375,0.5664825439453125,0.7973196389436557
1785514110.92861,-0.0483398400247097,-0.19091796875,0.9633788466453552,0.983303215233722,-0.278472900390625,-0.087738037109375,0.4405975341796875,0.5285558688852049
1785514110.939286,-0.0380859375,-0.1796875,0.9750975966453552,0.9922466725945982,-0.2193450927734375,-0.4558563232421875,0.6885528564453125,0.8544134205890452
1785514110.94996,-0.029785148799419403,-0.18310546875,0.9790038466453552,0.9964252603791028,-0.217437744140625,0.095367431640625,0.6275177001953125,0.6709341127511012
1785514110.960635,-0.0346679612994194,-0.189453125,0.9692382216453552,0.9881887898631386,0.2689361572265625,-0.3337860107421875,0.5054473876953125,0.6627343505198667
1785514110.971284,-0.0322265587747097,-0.17431640625,0.9736327528953552,0.989639074657505,0.331878662109375,-0.209808349609375,0.2574920654296875,0.4695371696559974
1785514110.981933,-0.0454101487994194,-0.18798828125,0.9726561903953552,0.991696395181368,0.4520416259765625,-0.3337860107421875,0.2002716064453125,0.5965429145760632
1785514110.992582,-0.0327148400247097,-0.18017578125,0.9677733778953552,0.98494613247115,0.2689361572265625,-0.1506805419921875,-0.2307891845703125,0.38509080762007225
1785514111.000578,-0.0322265587747097,-0.17138671875,0.9868163466453552,1.0021070104838292,0.2689361572265625,0.0324249267578125,-0.1659393310546875,0.3176694730847096
