timestamp,accel_x,accel_y,accel_z,accel_rms,gyro_x,gyro_y,gyro_z,gyro_rms
1780332388.917889,-0.0043945275247097015,-0.1767578125,0.9716796278953552,0.9876355276207952,0.8258819580078125,-0.6465911865234375,-0.1354217529296875,1.0575917086565847
1780332388.928589,-0.0014648400247097015,-0.173828125,0.9780272841453552,0.9933557929211734,0.823974609375,-0.217437744140625,-0.1354217529296875,0.8628744871869819
1780332388.939289,0.0053710974752902985,-0.162109375,0.9682616591453552,0.9817529927236768,0.5207061767578125,-0.5207061767578125,0.0476837158203125,0.7379319628406869
1780332388.9499,0.0,-0.17236328125,0.9956054091453552,1.0104153756959346,0.3986358642578125,-0.7686614990234375,-0.1964569091796875,0.8878887146022113
1780332388.960511,0.0,-0.17431640625,0.9643554091453552,0.9799834512050806,0.640869140625,-0.034332275390625,0.0476837158203125,0.6435570660736747
1780332388.971122,-0.011230465024709702,-0.173828125,0.9824218153953552,0.9977449392256481,0.457763671875,-0.217437744140625,-0.1354217529296875,0.5245624872519916
1780332388.979123,0.0004882849752902985,-0.162109375,0.9838866591453552,0.9971522681763885,1.0089874267578125,-0.7076263427734375,-0.0743865966796875,1.234635182597616
1780332388.987125,0.0063476599752902985,-0.16650390625,0.9580077528953552,0.9723901985269486,1.068115234375,-0.827789306640625,0.5359649658203125,1.4537412887715946
1780332388.995127,-0.0014648400247097015,-0.16162109375,0.9658202528953552,0.9792508792970738,0.823974609375,-0.705718994140625,-0.0133514404296875,1.0849662282979535
1780332389.003129,-0.0053710900247097015,-0.17578125,0.9663085341453552,0.9821812865361268,0.705718994140625,-0.034332275390625,-0.0133514404296875,0.7066797469758849
1780332389.013775,-0.0014648400247097015,-0.1767578125,0.9707030653953552,0.9866660586054546,0.5207061767578125,0.5741119384765625,0.2307891845703125,0.8087045740749117
1780332389.024421,0.01025390625,-0.1787109375,0.9711913466453552,0.9875501878762067,0.457763671875,0.820159912109375,0.1087188720703125,0.9455314134728583
1780332389.035067,0.0078125,-0.18359375,0.9711913466453552,0.9884231543191059,0.2155303955078125,1.0013580322265625,-0.0743865966796875,1.0269881332605524
1780332389.045776,0.007812503725290298,-0.173828125,0.9794921278953552,0.994827663901866,0.152587890625,0.942230224609375,-0.2574920654296875,0.9886268377360927
1780332389.056486,0.0073242224752902985,-0.1728515625,0.9824218153953552,0.9975389367128806,-0.213623046875,0.698089599609375,0.0476837158203125,0.7315993657688395
1780332389.067196,-0.0087890625,-0.1728515625,0.9711913466453552,0.9864925453733235,-0.576019287109375,0.759124755859375,-0.2574920654296875,0.9871022124581602
1780332389.077833,-0.0063476525247097015,-0.1640625,0.9770507216453552,0.9907496703338002,-0.518798828125,0.453948974609375,0.1697540283203125,0.7099565660966519
1780332389.088471,0.0048828125,-0.16943359375,0.9829100966453552,0.9974185894780244,-0.7610321044921875,-0.0972747802734375,-0.1354217529296875,0.7790836271618103
1780332389.099109,0.00732421875,-0.18310546875,0.9663085341453552,0.9835311078093057,-0.335693359375,0.087738037109375,0.1087188720703125,0.36360388863228615
1780332389.107106,0.0039062537252902985,-0.185546875,0.9770507216453552,0.9945204946647109,0.1544952392578125,0.2079010009765625,-0.0743865966796875,0.2694902056215993
1780332389.115104,-0.0024414025247097015,-0.17041015625,0.9736327528953552,0.9884363000770585,-0.087738037109375,0.087738037109375,-0.1964569091796875,0.2323601589688906
1780332389.123102,0.0039062537252902985,-0.1611328125,0.9785155653953552,0.991701443884861,0.091552734375,0.331878662109375,0.0476837158203125,0.34756162948386626
1780332389.1311,-0.00732421875,-0.18798828125,0.9794921278953552,0.9973956419979977,0.091552734375,-0.034332275390625,-0.1964569091796875,0.2194445840513568
1780332389.141768,-0.0087890625,-0.1689453125,0.9858397841453552,1.000249891896576,0.3986358642578125,0.0247955322265625,-0.5626678466796875,0.6900148377956288
1780332389.152436,-0.010253902524709702,-0.17138671875,0.9687499403953552,0.9838470393800461,0.5207061767578125,0.0247955322265625,-0.3795623779296875,0.644839002908304
1780332389.163104,-0.0009765587747097015,-0.17626953125,0.9726561903953552,0.988499856362428,0.7648468017578125,-0.4634857177734375,-0.1354217529296875,0.9045157223098239
1780332389.171097,-0.00927734375,-0.169921875,0.9755858778953552,0.9903167765212413,0.7038116455078125,-0.7686614990234375,-0.1964569091796875,1.0605595926669131
1780332389.179089,0.0009765625,-0.17529296875,0.9790038466453552,0.9945738335155954,0.8869171142578125,-0.6465911865234375,-0.3185272216796875,1.1428743242387471
1780332389.187081,-0.013183590024709702,-0.16748046875,0.9702147841453552,0.9846523456697178,1.068115234375,-1.010894775390625,0.0476837158203125,1.4714116139172124
1780332389.195073,-0.012207027524709702,-0.15771484375,0.9995116591453552,1.0119518467929078,0.8258819580078125,-0.8258819580078125,-0.1964569091796875,1.1843805698718939
1780332389.205765,-0.010253902524709702,-0.1630859375,0.9736327528953552,0.9872501724678644,1.068115234375,-1.377105712890625,0.2918243408203125,1.767046050411581
1780332389.216457,-0.0009765587747097015,-0.16650390625,0.9643554091453552,0.9786244732334537,0.8869171142578125,-1.5621185302734375,0.3528594970703125,1.8306682099331282
1780332389.227149,0.011718753725290298,-0.17041015625,0.9799804091453552,0.9947555241619527,0.762939453125,-1.316070556640625,0.2307891845703125,1.5386298992628697
1780332389.2378,-0.0126953125,-0.16943359375,0.9604491591453552,0.9753622408897796,0.823974609375,-1.010894775390625,0.1697540283203125,1.3151649455249783
1780332389.248452,0.0043945349752902985,-0.17236328125,0.9794921278953552,0.9945517790793431,1.0089874267578125,-1.0089874267578125,0.3528594970703125,1.4699051259803873
1780332389.259104,0.0146484375,-0.154296875,0.9589843153953552,0.9714283398842424,1.068115234375,-1.132965087890625,0.4138946533203125,1.6111451915734083
1780332389.267098,-0.00048827752470970154,-0.16455078125,0.9736327528953552,0.987440092124841,0.5207061767578125,-0.3376007080078125,0.1087188720703125,0.6300229787121701
1780332389.275095,0.01123046875,-0.17529296875,0.9731444716453552,0.9888700172497146,0.5207061767578125,-0.0972747802734375,0.1087188720703125,0.5407560434569593
1780332389.283092,0.0048828125,-0.171875,0.9633788466453552,0.9786029121388538,0.152587890625,0.148773193359375,-0.3795623779296875,0.43529774427094364
1780332389.291089,0.0048828125,-0.16259765625,0.9770507216453552,0.9904998497443666,0.152587890625,0.087738037109375,0.0476837158203125,0.18235888866634756
1780332389.301768,-0.0068359337747097015,-0.17626953125,0.9677733778953552,0.9837189581382748,-0.030517578125,-0.034332275390625,-0.5626678466796875,0.5645397536004613
1780332389.312447,-0.0009765587747097015,-0.1689453125,0.9794921278953552,0.9939558847814797,-0.1506805419921875,-0.3376007080078125,-0.2574920654296875,0.4505341580187701
1780332389.323126,-0.00439453125,-0.1708984375,0.9843749403953552,0.9991094089854262,-0.396728515625,-0.217437744140625,0.1087188720703125,0.4652875249039251
1780332389.333845,0.0029296912252902985,-0.158203125,0.9663085341453552,0.9791777137029756,0.1544952392578125,-0.4634857177734375,0.1697540283203125,0.5172081009267554
1780332389.344562,0.0048828125,-0.17041015625,0.9863280653953552,1.0009528039810887,0.091552734375,-0.400543212890625,0.2918243408203125,0.50396251295061
1780332389.355279,0.0009765625,-0.1845703125,0.9741210341453552,0.9914529454770309,-0.087738037109375,0.148773193359375,0.2918243408203125,0.3391059894979178
1780332389.363244,-0.010253902524709702,-0.16064453125,0.9697265028953552,0.9829960825736661,0.400543212890625,-0.217437744140625,0.3528594970703125,0.5763886385438408
1780332389.37121,-0.0024414025247097015,-0.1650390625,0.9853515028953552,0.9990802954994668,-0.1506805419921875,-0.1544952392578125,0.2918243408203125,0.3629529591883747
1780332389.379176,-0.00048827752470970154,-0.1650390625,0.9770507216453552,0.9908916405104694,0.274658203125,-0.095367431640625,0.5359649658203125,0.609746275223024
1780332389.387142,-0.0058593712747097015,-0.16552734375,0.9814452528953552,0.9953232732090078,0.0324249267578125,-0.2193450927734375,0.5359649658203125,0.5800190429510105
1780332389.397817,0.0073242224752902985,-0.1728515625,0.9746093153953552,0.989845757958765,0.3376007080078125,-0.3376007080078125,0.5970001220703125,0.7644328759588513
1780332389.408492,-0.0039062462747097015,-0.17236328125,0.9809569716453552,0.9959924395811705,0.2155303955078125,-0.0972747802734375,0.3528594970703125,0.42476529865057655
1780332389.419167,0.0190429724752903,-0.1669921875,0.9614257216453552,0.976006374839848,0.152587890625,-0.400543212890625,0.5970001220703125,0.7349333816817001
1780332389.427151,0.012695316225290298,-0.162109375,0.9785155653953552,0.9919341370463779,0.274658203125,-0.400543212890625,0.4749298095703125,0.679286624301621
1780332389.435135,0.012695316225290298,-0.1689453125,0.9877929091453552,1.0022168034051449,0.0324249267578125,0.1506805419921875,0.2307891845703125,0.27752414187767277
1780332389.443119,0.0180664099752903,-0.18603515625,0.9843749403953552,1.0019628225681412,-0.087738037109375,0.148773193359375,0.2307891845703125,0.2882621618124408
1780332389.451103,0.0043945349752902985,-0.17919921875,0.9750975966453552,0.9914368335510877,0.091552734375,0.576019287109375,-0.1354217529296875,0.5987647062578766
1780332389.463129,0.003906257450580597,-0.16845703125,0.9760741591453552,0.9905118850251853,0.3376007080078125,0.5130767822265625,0.1087188720703125,0.6237321666000405
1780332389.475156,-0.0068359337747097015,-0.17626953125,0.9824218153953552,0.9981334084191212,0.3376007080078125,0.5130767822265625,0.1697540283203125,0.6372114661855303
1780332389.487183,-0.0009765587747097015,-0.1728515625,0.9750975966453552,0.9902999239166282,0.091552734375,0.026702880859375,0.2918243408203125,0.30701204033871243
1780332389.49921,-0.013671871274709702,-0.17578125,0.9790038466453552,0.9947534868811051,0.1544952392578125,0.2079010009765625,0.1697540283203125,0.30969022472683705
1780332389.507185,0.0073242224752902985,-0.166015625,0.9746093153953552,0.9886749463976576,0.152587890625,-0.034332275390625,0.1087188720703125,0.1904771971736398
1780332389.515162,0.0024414099752902985,-0.17724609375,0.9697265028953552,0.9857949222074318,0.152587890625,0.087738037109375,0.2918243408203125,0.34079682131205824
1780332389.523139,-0.0024414025247097015,-0.16748046875,0.9736327528953552,0.9879354257083786,-0.0896453857421875,-0.1544952392578125,0.2307891845703125,0.2918368068849851
1780332389.531116,0.003906257450580597,-0.16845703125,0.9770507216453552,0.9914742270440231,-0.1506805419921875,-0.3376007080078125,0.3528594970703125,0.5110662270735071
1780332389.541796,-0.0073242150247097015,-0.1728515625,0.9750975966453552,0.9903265268425194,0.0324249267578125,-0.1544952392578125,0.2918243408203125,0.33178547394933994
1780332389.552476,-0.0009765587747097015,-0.1611328125,0.9702147841453552,0.9835046844349136,0.0324249267578125,-0.0324249267578125,0.1087188720703125,0.11799383413865314
1780332389.563156,-0.00048827752470970154,-0.16015625,0.9785155653953552,0.9915356647897217,-0.0896453857421875,-0.1544952392578125,0.2307891845703125,0.2918368068849851
1780332389.573807,-0.00341796875,-0.1845703125,0.9824218153953552,0.999615179022122,0.0324249267578125,0.0247955322265625,-0.1964569091796875,0.20065271355773884
1780332389.584456,-0.0048828087747097015,-0.171875,0.9843749403953552,0.999279180572121,0.5207061767578125,-0.0972747802734375,-0.3795623779296875,0.6516631830406124
1780332389.595105,0.0039062537252902985,-0.17431640625,0.9804686903953552,0.9958515557811135,0.091552734375,-0.095367431640625,-0.3185272216796875,0.34487162994402626
1780332389.605817,0.001953125,-0.1640625,0.9711913466453552,0.9849532732075843,0.400543212890625,-0.217437744140625,-0.4405975341796875,0.6339086882942443
1780332389.61653,-0.0014648400247097015,-0.1767578125,0.9682616591453552,0.9842642483637203,0.091552734375,-0.461578369140625,-0.5626678466796875,0.7335063733310125
1780332389.627243,0.0029296912252902985,-0.166015625,0.9765624403953552,0.990577594550648,-0.087738037109375,-0.522613525390625,-0.4405975341796875,0.6891654715685083
1780332389.635217,0.0009765625,-0.169921875,0.9775390028953552,0.9921980142388299,-0.2727508544921875,-0.4634857177734375,-0.6847381591796875,0.8706769698590655
1780332389.643193,0.0009765662252902985,-0.17626953125,0.9882811903953552,1.0038782857587605,0.1544952392578125,-0.6465911865234375,-0.3795623779296875,0.7655171717099195
1780332389.651169,-0.00390625,-0.16357421875,0.9873046278953552,1.0007708089729241,0.5207061767578125,-0.9517669677734375,-0.3795623779296875,1.1493749963341036
1780332389.659145,0.00537109375,-0.1650390625,0.9697265028953552,0.9836850264269583,0.640869140625,-1.316070556640625,0.1697540283203125,1.473625256160047
1780332389.669808,0.0073242224752902985,-0.16455078125,0.9731444716453552,0.986985697231105,0.091552734375,-0.705718994140625,0.5359649658203125,0.8908869998204955
1780332389.680471,0.011230472475290298,-0.16748046875,0.9838866591453552,0.9981025944104877,0.274658203125,-0.034332275390625,0.2918243408203125,0.4022154641141504
1780332389.691134,0.01220703125,-0.17431640625,0.9785155653953552,0.9939959420545162,0.579833984375,0.453948974609375,0.2307891845703125,0.7717128797031448
1780332389.701839,0.01513671875,-0.17138671875,0.9785155653953552,0.9935266676538682,0.091552734375,0.331878662109375,-0.1354217529296875,0.3699518897121588
1780332389.712543,0.013183597475290298,-0.1787109375,0.9746093153953552,0.990946378004341,0.2155303955078125,0.6389617919921875,-0.0743865966796875,0.6784238268068185
1780332389.723247,0.0034179724752902985,-0.16943359375,0.9731444716453552,0.9877902550242128,-0.4558563232421875,0.5130767822265625,-0.5016326904296875,0.8501106563310308
1780332389.731255,-0.0058593712747097015,-0.17919921875,0.9638671278953552,0.9804012099490628,-0.8220672607421875,0.5741119384765625,-0.3185272216796875,1.0520735193114883
1780332389.739264,-0.0048828087747097015,-0.169921875,0.9785155653953552,0.9931716856344817,-1.064300537109375,0.270843505859375,-0.0133514404296875,1.0983032818484377
1780332389.747273,0.0039062537252902985,-0.18115234375,0.9790038466453552,0.995630434554251,-0.9441375732421875,-0.1544952392578125,-0.0743865966796875,0.9595821496498161
1780332389.755282,-0.012207027524709702,-0.171875,0.9882811903953552,1.0031897818634565,-0.4558563232421875,-0.1544952392578125,0.2307891845703125,0.5337952923245429
1780332389.763252,-0.012207027524709702,-0.162109375,0.9819335341453552,0.9952999178454036,-0.396728515625,-0.278472900390625,0.3528594970703125,0.5995419051531733
1780332389.771222,0.0039062537252902985,-0.16796875,0.9721679091453552,0.9865795474095236,-0.152587890625,-0.034332275390625,0.4138946533203125,0.44245966318527424
1780332389.779192,0.0,-0.1767578125,0.9790038466453552,0.9948325768822548,0.152587890625,0.087738037109375,0.4138946533203125,0.44976639666424023
1780332389.787162,0.0048828125,-0.1748046875,0.9721679091453552,0.9877707042638664,0.091552734375,0.392913818359375,0.1087188720703125,0.4178312637579005
1780332389.797809,-0.00048827752470970154,-0.1669921875,0.9902343153953552,1.0042164251233316,0.579833984375,0.148773193359375,0.1087188720703125,0.6084083379135881
1780332389.808456,-0.013671871274709702,-0.16552734375,0.9682616591453552,0.9824036146940823,0.7648468017578125,0.5130767822265625,-0.1354217529296875,0.9309014264602172
1780332389.819103,0.0073242224752902985,-0.169921875,0.9711913466453552,0.9859714598492199,0.6427764892578125,0.0247955322265625,-0.0743865966796875,0.6475413495110438
1780332389.827117,0.0009765625,-0.173828125,0.9770507216453552,0.9923937138973833,0.7038116455078125,-0.1544952392578125,-0.0133514404296875,0.7206926336985074
1780332389.835131,0.0,-0.15771484375,0.9848632216453552,0.9974114182666824,0.823974609375,-0.705718994140625,0.4749298095703125,1.1842853455160343
1780332389.843145,-0.0068359337747097015,-0.1845703125,0.9750975966453552,0.9924355159054253,0.6427764892578125,-0.9517669677734375,0.1087188720703125,1.1536211549861086
1780332389.851159,-0.00390625,-0.16845703125,0.9794921278953552,0.9938802034327864,0.8258819580078125,-0.9517669677734375,0.1697540283203125,1.2715179116467197
1780332389.861807,0.005859375,-0.1796875,0.9672850966453552,0.9838507956615449,1.1920928955078125,-0.6465911865234375,0.2307891845703125,1.375655945985266
1780332389.872455,0.008789066225290298,-0.17041015625,0.9736327528953552,0.9884723600328185,1.0089874267578125,-0.6465911865234375,0.4138946533203125,1.267850375199014
1780332389.883103,-0.0048828087747097015,-0.17529296875,0.9726561903953552,0.9883377618148182,1.1920928955078125,-0.5855560302734375,0.0476837158203125,1.3289977700749613
1780332389.891114,-0.0014648400247097015,-0.173828125,0.9760741591453552,0.9914328655782124,1.3751983642578125,-1.0738372802734375,0.4749298095703125,1.8082741411580572
1780332389.899127,0.01513671875,-0.166015625,0.9765624403953552,0.9906889057567915,1.1920928955078125,-0.5855560302734375,0.4138946533203125,1.39113986362153
1780332389.90714,0.01025390625,-0.15380859375,0.9765624403953552,0.9886538454361405,1.251220703125,-0.339508056640625,0.4138946533203125,1.360929003475073
1780332389.915153,0.0,-0.16748046875,0.9711913466453552,0.9855264274546565,0.9479522705078125,-0.4634857177734375,0.2918243408203125,1.0948031620506424
1780332389.92582,-0.00390625,-0.1796875,0.9799804091453552,0.996325478322225,1.068115234375,-0.400543212890625,0.5359649658203125,1.26038226894997
1780332389.936487,-0.0009765587747097015,-0.1708984375,0.9726561903953552,0.9875562233723139,0.7038116455078125,-0.0972747802734375,0.8411407470703125,1.1010590227647488
1780332389.947154,0.013183597475290298,-0.17236328125,0.9736327528953552,0.9888597703801307,0.8869171142578125,0.2079010009765625,0.5359649658203125,1.0569310471157667
1780332389.955231,0.0063476599752902985,-0.16650390625,0.9711913466453552,0.9853813857499487,0.705718994140625,0.942230224609375,0.1697540283203125,1.1893920821113877
1780332389.963307,0.0048828125,-0.1748046875,0.9716796278953552,0.9872901396736112,0.640869140625,0.637054443359375,0.0476837158203125,0.9048896927050177
1780332389.971383,0.0068359375,-0.16455078125,0.9653319716453552,0.9792800953415719,0.6427764892578125,0.8792877197265625,-0.0743865966796875,1.09171510705409
1780332389.979459,-0.0009765587747097015,-0.16064453125,0.9726561903953552,0.9858334969973267,0.5207061767578125,0.8792877197265625,-0.3795623779296875,1.09011440469123
1780332389.989988,0.0009765662252902985,-0.162109375,0.9755858778953552,0.9889631986546992,0.3986358642578125,0.3910064697265625,-0.1354217529296875,0.5745743318380587
1780332390.000517,-0.009765621274709702,-0.1630859375,0.9746093153953552,0.9882083322986798,0.579833984375,0.514984130859375,-0.0133514404296875,0.7756251449216439
1780332390.011046,-0.00830078125,-0.16455078125,0.9692382216453552,0.9831422037923082,0.274658203125,-0.034332275390625,0.4749298095703125,0.5497036999110019
1780332390.019142,0.00048828125,-0.16845703125,0.9750975966453552,0.9895419813124102,0.274658203125,-0.156402587890625,0.5970001220703125,0.6755057688833652
1780332390.027238,-0.00927734375,-0.1640625,0.9780272841453552,0.991735822457798,0.5207061767578125,-0.2803802490234375,0.4749298095703125,0.7584895059093938
1780332390.035334,-0.00390625,-0.1640625,0.9833983778953552,0.996997558844819,0.152587890625,0.148773193359375,0.7190704345703125,0.7499858780676281
1780332390.04343,-0.0073242150247097015,-0.169921875,0.9633788466453552,0.9782770005949126,-0.396728515625,-0.278472900390625,0.9021759033203125,1.024139654487514
1780332390.053979,0.0004882849752902985,-0.18115234375,0.9780272841453552,0.9946626456246734,-0.1506805419921875,-0.4634857177734375,0.7801055908203125,0.9198306198122167
1780332390.064528,0.0063476599752902985,-0.17041015625,0.9858397841453552,1.0004798819287033,-0.396728515625,-0.400543212890625,1.0242462158203125,1.1691487035980455
1780332390.075077,0.0039062537252902985,-0.16748046875,0.9790038466453552,0.993233858654289,-0.1506805419921875,-0.3376007080078125,1.5125274658203125,1.5570543338763911
1780332390.085801,0.0058593787252902985,-0.17578125,0.9726561903953552,0.9884297875342559,-0.2727508544921875,-0.2803802490234375,1.2683868408203125,1.3273323964383585
1780332390.096525,0.0039062537252902985,-0.18505859375,0.9726561903953552,0.990112118223638,-0.0896453857421875,-0.4634857177734375,0.9021759033203125,1.0182223069136946
1780332390.107249,0.013183597475290298,-0.16748046875,0.9750975966453552,0.9894639142680536,-0.030517578125,-0.156402587890625,0.6580352783203125,0.6770550343861208
1780332390.115224,0.0073242224752902985,-0.16162109375,0.9658202528953552,0.9792771737780176,-0.698089599609375,-0.171661376953125,0.2002716064453125,0.7462609689434431
1780332390.123199,0.009277351200580597,-0.16845703125,0.9707030653953552,0.9852554398686676,-0.9441375732421875,-0.4177093505859375,-0.1659393310546875,1.0456637702270504
1780332390.131174,-0.0019531212747097015,-0.1611328125,0.9790038466453552,0.9921774688498405,-0.698089599609375,-0.537872314453125,0.0743865966796875,0.8844032346749561
1780332390.139149,-0.010253902524709702,-0.16943359375,0.9750975966453552,0.9897616926268535,-0.698089599609375,-0.354766845703125,0.3223419189453125,0.8468133894798008
1780332390.149798,-0.00439453125,-0.1650390625,0.9794921278953552,0.993308629110186,-1.003265380859375,-0.354766845703125,0.1392364501953125,1.073213738406308
1780332390.160447,-0.008300777524709702,-0.18115234375,0.9667968153953552,0.9836570321063299,-0.881195068359375,-0.537872314453125,0.4405975341796875,1.1224694037172087
1780332390.171096,0.0024414099752902985,-0.16796875,0.9809569716453552,0.9952366762126766,-0.8831024169921875,-0.2346038818359375,0.6885528564453125,1.1441214517650358
1780332390.18178,0.0014648474752902985,-0.16796875,0.9707030653953552,0.9851294777452493,-0.637054443359375,0.316619873046875,0.5664825439453125,0.9093893447841223
1780332390.192463,0.001953125,-0.17919921875,0.9663085341453552,0.9827860183478503,-0.637054443359375,-0.049591064453125,0.8716583251953125,1.080780215103799
1780332390.203146,-0.00048827752470970154,-0.16015625,0.9697265028953552,0.9828630389055533,-0.698089599609375,0.133514404296875,0.9288787841796875,1.1696029159234604
1780332390.211131,0.005859375,-0.17333984375,0.9858397841453552,1.0009800765801613,-0.514984130859375,0.377655029296875,0.3223419189453125,0.7153574553323365
1780332390.219114,0.007812503725290298,-0.166015625,0.9799804091453552,0.9939737548181522,-0.576019287109375,0.316619873046875,0.3833770751953125,0.7609364920382805
1780332390.227097,0.013183597475290298,-0.16455078125,0.9877929091453552,1.001491686540742,-0.514984130859375,0.316619873046875,-0.1659393310546875,0.6268912669961851
1780332390.23508,-0.008300777524709702,-0.18212890625,0.9736327528953552,0.9905556919779542,-0.392913818359375,0.438690185546875,-0.2880096435546875,0.6555760080519982
1780332390.245764,-0.0019531212747097015,-0.18603515625,0.9819335341453552,0.9994030015578615,-0.2727508544921875,0.1964569091796875,-0.7190704345703125,0.7937572901484385
1780332390.256448,-0.0087890625,-0.16943359375,0.9829100966453552,0.9974453611090938,0.0934600830078125,-0.1125335693359375,-0.9021759033203125,0.9139583972343245
1780332390.267132,-0.0014648400247097015,-0.16064453125,0.9750975966453552,0.9882429530031459,0.156402587890625,-0.293731689453125,-1.2073516845703125,1.2523730135716926
1780332390.277835,-0.0019531212747097015,-0.173828125,0.9697265028953552,0.9851850192432814,-0.0896453857421875,-0.6008148193359375,-0.8373260498046875,1.034470712973578
1780332390.288536,-0.0014648400247097015,-0.18017578125,0.9746093153953552,0.9911250050123591,-0.026702880859375,-0.659942626953125,-0.9021759033203125,1.1181049482261507
1780332390.299237,0.014160159975290298,-0.18212890625,0.9687499403953552,0.9858234606857109,0.2765655517578125,-0.4177093505859375,-0.6542205810546875,0.82399889239098
1780332390.307197,0.0009765662252902985,-0.166015625,0.9780272841453552,0.9920178980030917,0.461578369140625,-0.659942626953125,-0.6542205810546875,1.0375853846329195
1780332390.315158,-0.0048828087747097015,-0.1650390625,0.9916991591453552,1.0053501659730375,0.827789306640625,-0.659942626953125,-0.4138946533203125,1.136691774891285
1780332390.323119,0.008789066225290298,-0.15771484375,0.9868163466453552,0.9993786677884842,0.5817413330078125,-0.9059906005859375,-0.1659393310546875,1.089393321289722
1780332390.33108,0.011230472475290298,-0.16259765625,0.9648436903953552,0.9785128860805766,0.461578369140625,-0.415802001953125,-0.0476837158203125,0.623072734471007
1780332390.341871,0.0224609412252903,-0.16650390625,0.9877929091453552,1.001979478849282,-0.026702880859375,0.133514404296875,-0.4711151123046875,0.49039635912473667
1780332390.352662,0.021484375,-0.173828125,0.9868163466453552,1.0022396407130594,0.2155303955078125,0.8678436279296875,-0.7762908935546875,1.1841593918649005
1780332390.363453,0.0224609412252903,-0.1708984375,0.9750975966453552,0.9902151750019867,0.0362396240234375,1.2302398681640625,-0.9593963623046875,1.5605270979938661
1780332390.374006,0.01025390625,-0.1630859375,0.9711913466453552,0.9848425241643743,-0.453948974609375,1.476287841796875,-1.5087127685546875,2.1590992754818217
1780332390.384559,0.008789066225290298,-0.16357421875,0.9619140028953552,0.9757624309692143,-0.820159912109375,1.171112060546875,-1.4476776123046875,2.0346833190837845
1780332390.395112,0.0,-0.15966796875,0.9619140028953552,0.975075591536839,-1.308441162109375,1.293182373046875,-1.6956329345703125,2.501901271725327
1780332390.40315,-0.012695308774709702,-0.1650390625,0.9682616591453552,0.9823083546354883,-2.040863037109375,0.194549560546875,-0.8373260498046875,2.214517189237827
1780332390.411187,-0.0175781212747097,-0.17041015625,0.9755858778953552,0.9905132088213406,-2.040863037109375,-0.293731689453125,-0.2307891845703125,2.074768394144975
1780332390.419224,-0.00341796875,-0.16845703125,0.9711913466453552,0.9856987804023895,-2.040863037109375,-0.476837158203125,-0.2307891845703125,2.108496919465894
1780332390.427261,0.013671878725290298,-0.1845703125,0.9809569716453552,0.9982633423820856,-1.6765594482421875,-0.4177093505859375,0.3223419189453125,1.7576225413229145
1780332390.437924,0.012695316225290298,-0.17138671875,0.9829100966453552,0.997821044328758,-1.369476318359375,-0.354766845703125,0.6275177001953125,1.5476121495438406
1780332390.448587,0.009277347475290298,-0.1708984375,0.9653319716453552,0.9803867403207918,-0.576019287109375,0.011444091796875,0.6885528564453125,0.8977940869030309
1780332390.45925,0.0009765625,-0.177734375,0.9736327528953552,0.9897227890887149,-0.514984130859375,0.011444091796875,0.3833770751953125,0.6421196181860148
1780332390.4672,-0.00048827752470970154,-0.17236328125,0.9814452528953552,0.9964658165582176,-0.148773193359375,0.438690185546875,0.1392364501953125,0.4837037637030431
1780332390.475152,0.0058593787252902985,-0.17724609375,0.9790038466453552,0.9949367024163308,0.156402587890625,0.499725341796875,0.4405975341796875,0.684334255943767
1780332390.483104,-0.00390625,-0.18359375,0.9750975966453552,0.9922385029879021,0.0362396240234375,0.2536773681640625,0.3223419189453125,0.41178857460759133
1780332390.491056,0.0014648474752902985,-0.16748046875,0.9926757216453552,1.0067059856457456,0.034332275390625,0.194549560546875,0.1392364501953125,0.24169200587829054
1780332390.501804,0.0,-0.17431640625,0.9970702528953552,1.0121933109326116,0.5817413330078125,0.0705718994140625,0.2002716064453125,0.6192835278487563
1780332390.512552,-0.0029296875,-0.1689453125,0.9760741591453552,0.9905916746247581,0.7038116455078125,0.1316070556640625,0.5054473876953125,0.8764407060269359
1780332390.5233,-0.011718746274709702,-0.16748046875,0.9672850966453552,0.9817471643041221,0.7648468017578125,0.0705718994140625,0.6885528564453125,1.031540624146748
1780332390.531253,-0.0068359337747097015,-0.1728515625,0.9799804091453552,0.99513114460254,0.2155303955078125,0.1964569091796875,0.9288787841796875,0.9735833114075675
1780332390.539206,0.0039062537252902985,-0.17919921875,0.9653319716453552,0.9818316730985437,0.400543212890625,0.316619873046875,1.1768341064453125,1.2828178060402424
1780332390.547159,0.0029296912252902985,-0.16064453125,0.9760741591453552,0.9892097920373211,0.156402587890625,-0.171661376953125,1.1768341064453125,1.1995282038907067
1780332390.555112,0.0068359375,-0.1591796875,0.9643554091453552,0.977428390268058,0.156402587890625,-0.415802001953125,1.0547637939453125,1.1444997751616297
1780332390.563119,0.00634765625,-0.14990234375,0.9604491591453552,0.9720975222191605,-0.2727508544921875,-0.2346038818359375,0.8716583251953125,0.9429847537903283
1780332390.571126,0.0268554724752903,-0.15673828125,0.9843749403953552,0.9971369657621937,-0.9441375732421875,-0.2918243408203125,0.0743865966796875,0.9910048278734284
1780332390.579133,0.0229492224752903,-0.177734375,0.9873046278953552,1.0034373937284014,-0.698089599609375,-0.354766845703125,-0.6542205810546875,1.0203887360062611
1780332390.58714,0.013183597475290298,-0.15966796875,0.9775390028953552,0.9905807234490215,-0.514984130859375,0.011444091796875,-1.2645721435546875,1.3654604822288114
1780332390.597813,0.011230472475290298,-0.17578125,0.9873046278953552,1.002893613314576,-0.5168914794921875,-0.1125335693359375,-1.7528533935546875,1.8309384547535432
1780332390.608486,-0.0009765587747097015,-0.1728515625,0.9877929091453552,1.0028027960090538,-0.2727508544921875,-0.2918243408203125,-2.3670196533203125,2.4004867243386374
1780332390.619159,-0.013183590024709702,-0.1826171875,0.9926757216453552,1.0094196018309118,0.400543212890625,0.133514404296875,-2.6073455810546875,2.6413087552561705
1780332390.627219,-0.0253906212747097,-0.16796875,0.9736327528953552,0.9883415007657353,-0.148773193359375,-0.171661376953125,-1.7528533935546875,1.767511275974208
1780332390.635281,-0.0195312462747097,-0.17724609375,0.9775390028953552,0.9936700405629237,-0.453948974609375,-0.537872314453125,-1.1425018310546875,1.341896692062164
1780332390.643343,-0.00390625,-0.173828125,0.9707030653953552,0.9861520759994461,-0.148773193359375,-0.537872314453125,-0.4138946533203125,0.694801319633641
1780332390.651405,-0.0039062462747097015,-0.17578125,0.9750975966453552,0.990822703411195,-0.637054443359375,-0.537872314453125,-0.0476837158203125,0.8351159962625053
1780332390.661969,-0.004882805049419403,-0.16845703125,0.9814452528953552,0.9958094183093178,-0.6351470947265625,-0.9059906005859375,0.2002716064453125,1.1244285289149536
1780332390.672533,-0.0043945275247097015,-0.162109375,0.9726561903953552,0.9860825655336685,-0.331878662109375,-1.026153564453125,0.3833770751953125,1.1446014878501054
1780332390.683097,0.0048828125,-0.171875,0.9931640028953552,1.007938288850084,0.034332275390625,-1.209259033203125,0.6885528564453125,1.3919738325973852
1780332390.693751,0.0068359375,-0.16943359375,0.9736327528953552,0.9882890317326869,0.156402587890625,-1.148223876953125,0.3833770751953125,1.2205973221703634
1780332390.704407,0.0185546912252903,-0.15966796875,0.9692382216453552,0.9824769041099478,0.2765655517578125,-1.0890960693359375,0.5664825439453125,1.2583803976766506
1780332390.715063,0.0185546912252903,-0.18505859375,0.9780272841453552,0.9955542819052775,0.278472900390625,-0.965118408203125,-0.2307891845703125,1.030662090997399
1780332390.725756,0.02001953125,-0.16748046875,0.9741210341453552,0.9886163453072206,-0.026702880859375,-0.904083251953125,-0.9021759033203125,1.2774979181353485
1780332390.736447,0.015625,-0.16845703125,0.9721679091453552,0.9867787774241069,-0.453948974609375,-0.843048095703125,-1.2645721435546875,1.5861722697967158
1780332390.747138,0.0224609375,-0.1689453125,0.9838866591453552,0.9985389178060663,-0.7610321044921875,-0.7801055908203125,-1.6956329345703125,2.015665062875389
1780332390.75514,0.005859375,-0.1689453125,0.9775390028953552,0.9920480598603874,-0.3948211669921875,-0.9059906005859375,-1.9969940185546875,2.22815794601692
1780332390.763141,0.01025390625,-0.18017578125,0.9765624403953552,0.9930975051490983,-0.3948211669921875,-0.9059906005859375,-1.8138885498046875,2.065646241099306
1780332390.771142,0.012695316225290298,-0.166015625,0.9628905653953552,0.9771799218800945,-0.514984130859375,-0.354766845703125,-1.5697479248046875,1.6897268173511817
1780332390.779143,0.009277347475290298,-0.1650390625,0.9877929091453552,1.0015282286011213,-1.003265380859375,-0.232696533203125,-1.2645721435546875,1.6308990794191274
1780332390.789812,0.0063476599752902985,-0.1513671875,0.9667968153953552,0.9785951157130423,-1.186370849609375,-0.171661376953125,-0.9021759033203125,1.5002882328646503
1780332390.800481,-0.0014648400247097015,-0.17529296875,0.9833983778953552,0.9989004656604693,-1.2493133544921875,-0.4177093505859375,-0.6542205810546875,1.4708057410667734
1780332390.81115,0.0190429724752903,-0.15576171875,0.9726561903953552,0.985233176736885,-1.125335693359375,-0.232696533203125,-0.9021759033203125,1.460975516511211
1780332390.821818,0.003906257450580597,-0.18310546875,0.9824218153953552,0.9993475345935131,-0.7610321044921875,0.2536773681640625,-0.4711151123046875,0.9303072181963932
1780332390.832486,0.0063476599752902985,-0.17041015625,0.9755858778953552,0.990377564007365,-0.514984130859375,0.377655029296875,0.2574920654296875,0.6885739901778573
1780332390.843154,-0.0058593712747097015,-0.1767578125,0.9814452528953552,0.99725244594453,-0.2727508544921875,0.3795623779296875,0.6885528564453125,0.8322053012837977
1780332390.851238,0.0034179724752902985,-0.17333984375,0.9755858778953552,0.9908714291551489,-0.514984130859375,0.560760498046875,0.7457733154296875,1.0657573969782022
1780332390.859322,-0.0024414025247097015,-0.17041015625,0.9672850966453552,0.9821843207828412,-0.514984130859375,0.804901123046875,0.7457733154296875,1.2121271843029076
1780332390.867406,0.0058593787252902985,-0.1767578125,0.9746093153953552,0.990525605047257,-0.2727508544921875,0.6847381591796875,0.9937286376953125,1.2372372370078373
1780332390.87549,0.012695316225290298,-0.1708984375,0.9726561903953552,0.9876373381501973,-0.209808349609375,0.988006591796875,1.2340545654296875,1.5946997333221515
1780332390.886043,0.0166015625,-0.1796875,0.9868163466453552,1.0031798002054155,-0.2727508544921875,1.2302398681640625,0.7457733154296875,1.4642612471323335
1780332390.896596,0.0024414099752902985,-0.16015625,0.9628905653953552,0.976122034288806,0.034332275390625,1.171112060546875,0.8106231689453125,1.4247077193315076
1780332390.907149,-0.0009765587747097015,-0.1630859375,0.9663085341453552,0.9799745710167379,-0.514984130859375,1.171112060546875,0.6275177001953125,1.4249528334137054
1780332390.915176,0.00537109375,-0.1708984375,0.9838866591453552,0.9986331071180352,-0.453948974609375,0.438690185546875,0.5054473876953125,0.8087000755360854
1780332390.923203,0.007812503725290298,-0.1806640625,0.9907225966453552,1.0070907616482125,-0.087738037109375,-0.171661376953125,0.0743865966796875,0.20663726009322578
1780332390.93123,0.005859375,-0.158203125,0.9731444716453552,0.9859374846962021,-0.148773193359375,-0.293731689453125,-0.1049041748046875,0.3455671488188446
1780332390.939257,0.0107421875,-0.1640625,0.9521483778953552,0.9662393244053418,-0.514984130859375,-0.720977783203125,-0.4711151123046875,1.0034774875159564
1780332390.949859,0.0244140625,-0.16357421875,0.9760741591453552,0.9899865330592831,-0.331878662109375,-0.965118408203125,-0.9593963623046875,1.400727799474084
1780332390.960461,0.008789066225290298,-0.17138671875,0.9794921278953552,0.9944121296816402,0.2155303955078125,-0.9059906005859375,-1.0204315185546875,1.3815038196826122
1780332390.971063,0.0043945349752902985,-0.16650390625,0.9877929091453552,1.0017373378745558,0.644683837890625,-1.087188720703125,-1.2073516845703125,1.7479401178233351
1780332390.979068,0.012695316225290298,-0.16162109375,0.9731444716453552,0.9865559850778485,0.766754150390625,-1.270294189453125,-1.5697479248046875,2.160015694926369
1780332390.987075,-0.0087890625,-0.18310546875,0.9843749403953552,1.001298598612894,0.888824462890625,-0.293731689453125,-1.6956329345703125,1.936868162787887
1780332390.995082,0.012207034975290298,-0.16455078125,0.9741210341453552,0.9879968423417606,1.194000244140625,0.499725341796875,-1.2645721435546875,1.809559257525537
1780332391.003089,-0.0166015587747097,-0.1767578125,0.9633788466453552,0.979600805531146,0.5245208740234375,0.7419586181640625,-0.3490447998046875,0.9733740342874009
1780332391.011109,-0.00927734375,-0.17333984375,0.9663085341453552,0.9817764275538883,-0.209808349609375,0.621795654296875,0.1392364501953125,0.6708473509907305
1780332391.019129,0.01025390625,-0.18310546875,0.9838866591453552,1.0008325101253204,-0.2727508544921875,0.9250640869140625,0.5054473876953125,1.0888588775651242
1780332391.027149,-0.0185546837747097,-0.17041015625,0.9746093153953552,0.9895692069272022,-0.576019287109375,0.621795654296875,1.4171600341796875,1.6512936193483716
1780332391.035169,-0.01416015625,-0.1689453125,0.9843749403953552,0.9988678851174996,-0.514984130859375,0.377655029296875,1.9702911376953125,2.071202342474269
1780332391.045807,0.01025390625,-0.1689453125,0.9614257216453552,0.976210571265441,-0.881195068359375,0.438690185546875,2.3365020751953125,2.53538868317819
1780332391.056445,0.013671878725290298,-0.17236328125,0.9755858778953552,0.9907894963815456,-1.186370849609375,0.438690185546875,2.5196075439453125,2.8192812997649157
1780332391.067083,0.0170898474752903,-0.166015625,0.9711913466453552,0.9854267514278714,-1.003265380859375,0.194549560546875,1.9702911376953125,2.2195580918778806
1780332391.077897,0.0341796875,-0.17041015625,0.9755858778953552,0.9909468590896274,-1.003265380859375,0.133514404296875,1.7871856689453125,2.053874420666746
1780332391.088711,0.0224609412252903,-0.166015625,0.9760741591453552,0.9903466291032543,-0.637054443359375,-0.049591064453125,1.0547637939453125,1.2332170524670127
1780332391.099525,0.02490234375,-0.18505859375,0.9702147841453552,0.9880200085115629,-0.4520416259765625,0.0705718994140625,0.1392364501953125,0.47823510292055593
1780332391.110039,0.02978515625,-0.17333984375,0.9736327528953552,0.9893910220305717,-0.637054443359375,0.682830810546875,-2.2411346435546875,2.4279169611370612
1780332391.120555,0.0268554724752903,-0.166015625,0.9794921278953552,0.9938245482754904,-0.331878662109375,1.232147216796875,-3.0956268310546875,3.3483183372208623
1780332391.131071,0.012695316225290298,-0.16748046875,0.9667968153953552,0.9812782279890757,0.0934600830078125,0.9250640869140625,-3.2176971435546875,3.3493362416535564
1780332391.14175,0.009277347475290298,-0.1806640625,0.9785155653953552,0.9950971230870748,0.095367431640625,0.621795654296875,-3.0384063720703125,3.1028435449693057
1780332391.152431,-0.0009765587747097015,-0.169921875,0.9887694716453552,1.0032644044958392,0.400543212890625,0.011444091796875,-2.7904510498046875,2.8190748294406593
1780332391.163112,-0.0209960900247097,-0.1826171875,0.9780272841453552,0.9951518685605103,0.2155303955078125,0.1964569091796875,-2.3021697998046875,2.320567701163865
1780332391.17111,-0.0185546875,-0.169921875,0.9868163466453552,1.00151096950469,0.7038116455078125,0.3147125244140625,-0.7190704345703125,1.0542566553020307
1780332391.179109,-0.009765617549419403,-0.17431640625,0.9716796278953552,0.9872400295981179,0.766754150390625,0.194549560546875,-0.2307891845703125,0.8240297970127423
1780332391.187108,-0.0009765550494194031,-0.16357421875,0.9736327528953552,0.9872781858270875,0.705718994140625,-0.171661376953125,0.8106231689453125,1.088401051570256
1780332391.195107,0.00048828125,-0.17236328125,0.9848632216453552,0.9998324382072797,0.3986358642578125,0.0705718994140625,1.6651153564453125,1.7136219231585132
1780332391.20575,-0.0019531212747097015,-0.1689453125,0.9770507216453552,0.9915515347001111,0.644683837890625,0.377655029296875,1.7223358154296875,1.8774134422397364
1780332391.216393,0.008300784975290298,-0.1708984375,0.9736327528953552,0.988552434867132,0.3986358642578125,0.3795623779296875,1.6651153564453125,1.7537352426413206
1780332391.227036,-0.00439453125,-0.17431640625,0.9750975966453552,0.9905659212674188,0.339508056640625,0.255584716796875,1.9054412841796875,1.952254019189196
1780332391.235073,0.0161132849752903,-0.17236328125,0.9794921278953552,0.9946725930098469,0.339508056640625,0.133514404296875,1.7871856689453125,1.8240406881322981
1780332391.24311,0.0019531287252902985,-0.16650390625,0.9765624403953552,0.990657138216476,0.339508056640625,0.499725341796875,1.2340545654296875,1.3740021136140046
1780332391.251147,0.01513671875,-0.169921875,0.9594725966453552,0.9745205116216963,0.217437744140625,0.316619873046875,0.8716583251953125,0.9525311293955071
1780332391.259184,0.009277347475290298,-0.17578125,0.9790038466453552,0.9947027941923868,-0.026702880859375,0.255584716796875,0.3223419189453125,0.4122388919251496
1780332391.269813,0.0039062537252902985,-0.16650390625,0.9755858778953552,0.9897002651123855,-0.3948211669921875,0.0705718994140625,-0.2880096435546875,0.4937749504303347
1780332391.280442,0.005859375,-0.16455078125,0.9716796278953552,0.9855316286919623,-0.4520416259765625,-0.1125335693359375,-0.5931854248046875,0.7542376177596409
1780332391.291071,-0.00341796875,-0.169921875,0.9726561903953552,0.9873931288135932,-0.453948974609375,-0.049591064453125,-0.9593963623046875,1.0625301526196629
1780332391.299084,-0.00927734375,-0.1650390625,0.9697265028953552,0.9837141107433551,-0.8831024169921875,-0.2346038818359375,-0.8373260498046875,1.2393642620115588
1780332391.3071,-0.0063476525247097015,-0.17138671875,0.9492186903953552,0.9645879028125635,-1.2493133544921875,-0.2346038818359375,-0.6542205810546875,1.4296249185575025
1780332391.315116,-0.00390625,-0.16015625,0.9746093153953552,0.9876885140865657,-1.003265380859375,-0.354766845703125,-0.5359649658203125,1.19149460083872
1780332391.323132,0.0043945349752902985,-0.166015625,0.9819335341453552,0.9958784891546645,-1.0051727294921875,-0.6008148193359375,-0.1049041748046875,1.1757361732718365
1780332391.331185,-0.009765617549419403,-0.16455078125,0.9819335341453552,0.9956735370468045,-0.637054443359375,-0.537872314453125,0.2002716064453125,0.8574693620224986
1780332391.339238,0.0029296912252902985,-0.185546875,0.9794921278953552,0.9969157710267764,-0.9441375732421875,-0.4177093505859375,0.2002716064453125,1.0516584878765343
1780332391.347291,-0.009765621274709702,-0.1796875,0.9824218153953552,0.9987670340874475,-0.148773193359375,-0.232696533203125,0.6885528564453125,0.7418801626584297
1780332391.355344,-0.0058593712747097015,-0.16552734375,0.9765624403953552,0.9905088761599248,0.0934600830078125,-0.4177093505859375,0.9937286376953125,1.08199468300844
1780332391.366197,0.0009765625,-0.17529296875,0.9814452528953552,0.9969771125749741,0.0362396240234375,-0.1125335693359375,0.9288787841796875,0.9363722071249129
1780332391.37705,0.0,-0.1708984375,0.9887694716453552,1.003429790268246,0.2155303955078125,-0.0514984130859375,0.9288787841796875,0.9549456705160029
1780332391.387903,0.013183597475290298,-0.16796875,0.9707030653953552,0.9852166002392023,-0.026702880859375,0.316619873046875,0.8106231689453125,0.870672791515475
1780332391.395714,0.010742191225290298,-0.16650390625,0.9619140028953552,0.9762773655242627,-0.026702880859375,-0.476837158203125,0.2574920654296875,0.5425761541467414
1780332391.403525,0.0175781287252903,-0.16748046875,0.9667968153953552,0.981353544998337,-0.2727508544921875,-0.5397796630859375,-0.1659393310546875,0.6271291532836468
1780332391.411336,0.0209960974752903,-0.1767578125,0.9799804091453552,0.9960149410012256,-0.331878662109375,-0.476837158203125,-0.6542205810546875,0.8749409639982996
1780332391.427136,0.00537109375,-0.1689453125,0.9770507216453552,0.9915641582527595,-0.3948211669921875,-0.4177093505859375,-1.0814666748046875,1.22471834483897
1780332391.435125,0.013671878725290298,-0.1728515625,0.9956054091453552,1.0105912693300199,-0.576019287109375,-0.659942626953125,-1.4476776123046875,1.6920676579735177
1780332391.443114,0.01123046875,-0.17333984375,0.9653319716453552,0.9808356846793086,-0.2727508544921875,-0.6008148193359375,-1.8138885498046875,1.9301717920621588
1780332391.451103,0.0034179724752902985,-0.17822265625,0.9829100966453552,0.9989430693608266,-0.0896453857421875,-0.0514984130859375,-1.8138885498046875,1.8168324228854427
1780332391.461789,0.00244140625,-0.16845703125,0.9755858778953552,0.9900260284411173,-0.1468658447265625,0.0705718994140625,-1.1425018310546875,1.1540625647240574
1780332391.472475,-0.012695308774709702,-0.17529296875,0.9755858778953552,0.991290371640381,0.156402587890625,0.316619873046875,-0.9593963623046875,1.0223264124097406
1780332391.483161,-0.0195312462747097,-0.1875,0.9824218153953552,1.000345111921755,0.4596710205078125,0.5588531494140625,0.1392364501953125,0.7368860690552522
1780332391.49382,-0.011230465024709702,-0.181640625,0.9804686903953552,0.9972152690571102,0.3986358642578125,0.5588531494140625,1.6651153564453125,1.8010653916925363
1780332391.50448,0.0009765662252902985,-0.18701171875,0.9809569716453552,0.9986245124425135,0.522613525390625,0.499725341796875,2.2106170654296875,2.325871476269526
1780332391.51514,0.005859375,-0.1650390625,0.9541015028953552,0.9682881297699797,0.7648468017578125,0.5588531494140625,2.5768280029296875,2.745423469968116
1780332391.525784,0.013183597475290298,-0.15869140625,0.9565429091453552,0.9697067116898038,-0.209808349609375,0.438690185546875,2.0923614501953125,2.1481259415416947
1780332391.536427,0.02490234375,-0.1748046875,0.9794921278953552,0.995279676324794,-0.3948211669921875,0.5588531494140625,1.7223358154296875,1.8532785159351888
1780332391.54707,0.03076171875,-0.16552734375,0.9707030653953552,0.9851954253026777,-0.5779266357421875,0.4367828369140625,0.6275177001953125,0.958413745196402
1780332391.5551,0.0229492224752903,-0.16015625,0.9619140028953552,0.97542567128021,-0.698089599609375,-0.049591064453125,-1.0814666748046875,1.2881609105501841
1780332391.563128,0.0166015662252903,-0.16552734375,0.9731444716453552,0.9872614021747133,-0.5779266357421875,-0.2346038818359375,-1.8787384033203125,1.9795696920753587
1780332391.571156,0.0019531287252902985,-0.17529296875,0.9960936903953552,1.0114020366058414,-0.2727508544921875,-0.4177093505859375,-2.6073455810546875,2.654642181017726
1780332391.579184,0.0068359412252902985,-0.17724609375,0.9775390028953552,0.9935015903478538,-0.026702880859375,0.133514404296875,-2.6721954345703125,2.6756620826515745
1780332391.588759,-0.014648433774709702,-0.1767578125,0.9921874403953552,1.00791558067634,0.0934600830078125,0.5588531494140625,-2.5463104248046875,2.608591269094273
1780332391.598338,-0.0175781212747097,-0.1796875,0.9780272841453552,0.994552138671743,0.644683837890625,0.682830810546875,-1.5697479248046875,1.829203027030655
1780332391.607917,-0.0185546837747097,-0.16552734375,0.9628905653953552,0.9771907790939787,0.949859619140625,0.621795654296875,-0.6542205810546875,1.3102929826767695
1780332391.617496,-0.014160152524709702,-0.15673828125,0.9941405653953552,1.0065201749062578,1.3751983642578125,0.1316070556640625,0.8106231689453125,1.6017493187727183
1780332391.627075,-0.013671871274709702,-0.17578125,0.9716796278953552,0.9875460835741139,1.194000244140625,0.988006591796875,1.4171600341796875,2.100032421396899
1780332391.636718,-0.013671871274709702,-0.17236328125,0.9624022841453552,0.9778109108184546,0.827789306640625,1.354217529296875,2.1533966064453125,2.6751181651459226
1780332391.646361,0.001953125,-0.1787109375,0.9780272841453552,0.9942227026235791,0.339508056640625,1.293182373046875,2.6416778564453125,2.9607513012268596
1780332391.656004,0.0161132849752903,-0.1728515625,0.9687499403953552,0.9841817655430274,-0.0896453857421875,0.9250640869140625,2.5196075439453125,2.6855543255702616
1780332391.665647,0.008789066225290298,-0.1796875,0.9887694716453552,1.0050024444742398,-0.2727508544921875,0.7419586181640625,1.6040802001953125,1.7882865845140083
1780332391.67529,0.011718753725290298,-0.17041015625,0.9790038466453552,0.9937934807033227,-0.2727508544921875,-0.1125335693359375,1.1768341064453125,1.213258153463904
1780332391.685013,0.0205078125,-0.185546875,0.9897460341453552,1.0071968155739273,-0.759124755859375,-0.171661376953125,-0.4138946533203125,0.8815025849894828
1780332391.694736,0.009277347475290298,-0.19140625,0.9672850966453552,0.9860846210683208,-0.209808349609375,-0.049591064453125,-0.5359649658203125,0.5776999756155201
1780332391.704459,0.013183597475290298,-0.1728515625,0.9619140028953552,0.977409852041224,-0.2727508544921875,0.1964569091796875,-0.4711151123046875,0.5787381055646091
1780332391.714182,-0.0024414025247097015,-0.16748046875,0.9565429091453552,0.9710973199918053,-0.7610321044921875,-0.2346038818359375,-0.4138946533203125,0.8975063395249306
1780332391.723905,0.012695316225290298,-0.169921875,0.9853515028953552,0.9999760991722307,-0.7610321044921875,-0.2918243408203125,-0.8373260498046875,1.1685230950411463
1780332391.733342,-0.0024414025247097015,-0.171875,0.9897460341453552,1.0045616895829477,-0.331878662109375,-0.232696533203125,-1.0204315185546875,1.0979852489847426
1780332391.742782,0.0004882849752902985,-0.16650390625,0.9711913466453552,0.9853610612448335,0.034332275390625,0.011444091796875,-0.9593963623046875,0.9600786698880568
1780332391.752222,0.00634765625,-0.173828125,0.9736327528953552,0.9890486576966129,0.156402587890625,0.011444091796875,-0.7190704345703125,0.7359721642895729
1780332391.761662,0.0039062537252902985,-0.17578125,0.9755858778953552,0.9913032390840755,0.156402587890625,0.072479248046875,-0.5359649658203125,0.5630039568982564
1780332391.771102,0.001953125,-0.17919921875,0.9799804091453552,0.9962317887954458,0.644683837890625,0.499725341796875,-0.3490447998046875,0.8872287981924863
1780332391.782021,-0.0019531212747097015,-0.16015625,0.9707030653953552,0.9838283794771909,0.400543212890625,0.133514404296875,0.5664825439453125,0.706514992156746
1780332391.792941,0.01025390625,-0.16552734375,0.9716796278953552,0.9857310705203375,0.2155303955078125,0.0705718994140625,0.5054473876953125,0.5539953123472059
1780332391.803861,0.009765625,-0.1669921875,0.9809569716453552,0.9951172485377299,0.217437744140625,-0.171661376953125,0.3223419189453125,0.4250307207999831
1780332391.814278,0.00146484375,-0.1650390625,0.9843749403953552,0.9981152544653598,-0.087738037109375,-0.171661376953125,0.4405975341796875,0.48092803891899444
1780332391.824694,0.008300784975290298,-0.1806640625,0.9697265028953552,0.9864471080234689,0.034332275390625,-0.293731689453125,-0.1049041748046875,0.3137863865975342
1780332391.83511,0.00732421875,-0.1591796875,0.9697265028953552,0.982731554144137,0.278472900390625,0.255584716796875,-0.2307891845703125,0.4428705809000362
1780332391.845758,0.0107421875,-0.1640625,0.9892577528953552,1.0028274029772535,0.339508056640625,-0.476837158203125,-0.2880096435546875,0.65237178874291
1780332391.856407,-0.010742183774709702,-0.17236328125,0.9819335341453552,0.9970044938287408,0.766754150390625,-0.171661376953125,-0.5359649658203125,0.9511245975504266
1780332391.867056,-0.0073242150247097015,-0.16162109375,0.9663085341453552,0.9797587484849622,0.8869171142578125,-0.1125335693359375,-0.4711151123046875,1.010561834245065
1780332391.875077,-0.0009765587747097015,-0.15087890625,0.9887694716453552,1.0002152098803896,0.339508056640625,-0.049591064453125,-0.4138946533203125,0.5376186178366869
1780332391.8831,0.0014648474752902985,-0.1708984375,0.9804686903953552,0.9952523672735726,-0.0896453857421875,-0.4177093505859375,-0.4138946533203125,0.594832901577353
1780332391.891123,0.0034179724752902985,-0.17626953125,0.9858397841453552,1.0014802595092411,0.156402587890625,0.133514404296875,-0.3490447998046875,0.4051174372010275
1780332391.899146,0.00244140625,-0.16845703125,0.9653319716453552,0.9799232354234437,0.339508056640625,0.988006591796875,0.0171661376953125,1.0448528232441854
1780332391.909793,-0.009765621274709702,-0.16796875,0.9677733778953552,0.9822902724238033,0.156402587890625,0.621795654296875,0.2574920654296875,0.6909368776962264
1780332391.92044,0.014160159975290298,-0.166015625,0.9814452528953552,0.9954880623621231,-0.331878662109375,0.499725341796875,0.2002716064453125,0.6324378071760878
1780332391.931087,-0.0063476525247097015,-0.17333984375,0.9741210341453552,0.9894436736309274,-0.576019287109375,0.499725341796875,0.3833770751953125,0.8535230624542658
1780332391.939092,0.011230472475290298,-0.17626953125,0.9760741591453552,0.9919263255456149,-1.003265380859375,0.133514404296875,-0.2307891845703125,1.038090154225675
1780332391.947096,-0.0029296837747097015,-0.177734375,0.9824218153953552,0.9983740353536673,-1.003265380859375,-0.049591064453125,-0.2307891845703125,1.030662090997399
1780332391.9551,0.011718753725290298,-0.171875,0.9912108778953552,1.006070250664413,-0.5779266357421875,-0.0514984130859375,0.0743865966796875,0.5849655106211301
1780332391.963104,0.00048828125,-0.16943359375,0.9633788466453552,0.9781650082032959,-0.026702880859375,-0.049591064453125,-0.0476837158203125,0.0737973866354107
1780332391.973796,0.014648433774709702,-0.15185546875,0.9721679091453552,0.9840655992226259,0.0362396240234375,-0.2346038818359375,0.0171661376953125,0.23800623522341818
1780332391.984488,-0.001953125,-0.15869140625,0.9819335341453552,0.9946759485350269,-0.514984130859375,-0.171661376953125,-0.2307891845703125,0.5898643327825972
1780332391.99518,0.0205078125,-0.158203125,0.9731444716453552,0.98613333876673,-0.514984130859375,-0.049591064453125,-0.3490447998046875,0.6240995120822274
1780332392.003157,0.0068359412252902985,-0.1669921875,0.9824218153953552,0.9965368754557837,-0.331878662109375,-0.171661376953125,-0.4138946533203125,0.5576018819445405
1780332392.011135,0.013183597475290298,-0.1708984375,0.9912108778953552,1.0059220087265277,-0.759124755859375,-0.171661376953125,-0.4711151123046875,0.9097733082135664
1780332392.019113,-0.0073242150247097015,-0.17724609375,0.9868163466453552,1.0026346911422166,-0.0896453857421875,0.0705718994140625,-0.5359649658203125,0.5479736606430485
1780332392.027091,0.01025390625,-0.189453125,0.9755858778953552,0.9938638912419046,0.2155303955078125,0.8029937744140625,-0.5359649658203125,0.9891970469639834
1780332392.037917,-0.0053710900247097015,-0.16552734375,0.9775390028953552,0.9914689366382738,-0.026702880859375,0.560760498046875,-0.1659393310546875,0.5854069025958324
1780332392.048743,0.0029296912252902985,-0.17236328125,0.9663085341453552,0.9815650090422372,-0.148773193359375,0.133514404296875,0.0743865966796875,0.21329070533589098
1780332392.059569,0.0048828125,-0.1650390625,0.9663085341453552,0.9803131730069398,-0.2117156982421875,0.5588531494140625,0.0171661376953125,0.5978587255995917
1780332392.070112,0.0024414099752902985,-0.15771484375,0.9785155653953552,0.9911471354661456,-0.881195068359375,0.194549560546875,0.1392364501953125,0.9130942279265911
1780332392.080656,0.005859375,-0.17041015625,0.9858397841453552,1.000476903097868,-0.331878662109375,0.011444091796875,-0.2880096435546875,0.43957248364867213
1780332392.0912,-0.0078124962747097015,-0.16748046875,0.9687499403953552,0.9831516615084197,-0.0896453857421875,0.0705718994140625,-0.2307891845703125,0.25744967641541894
1780332392.101806,0.0024414099752902985,-0.16455078125,0.9858397841453552,0.9994813655573641,-0.698089599609375,0.316619873046875,-0.1659393310546875,0.784291460288759
1780332392.112411,0.0126953125,-0.1787109375,0.9785155653953552,0.9947821278363385,-0.3948211669921875,0.0705718994140625,0.0743865966796875,0.40791851227612586
1780332392.123016,-0.00048827752470970154,-0.16650390625,0.9853515028953552,0.999320455844663,-0.209808349609375,0.133514404296875,-0.4138946533203125,0.48286066703315234
1780332392.131108,-0.004882805049419403,-0.1787109375,0.9809569716453552,0.9971148485439908,-0.392913818359375,0.438690185546875,-0.6542205810546875,0.8802470768076589
1780332392.1392,0.0039062537252902985,-0.1748046875,0.9819335341453552,0.9973792674150223,-0.331878662109375,0.194549560546875,-0.5359649658203125,0.6597358732547894
1780332392.147292,-0.004882805049419403,-0.17431640625,0.9780272841453552,0.9934522735420183,-0.1468658447265625,0.0705718994140625,-0.5359649658203125,0.5601860529510924
1780332392.155384,0.0185546912252903,-0.16259765625,0.9653319716453552,0.9791057603063971,-0.026702880859375,0.011444091796875,-0.3490447998046875,0.3502517428278404
1780332392.163345,0.0053710974752902985,-0.171875,0.9687499403953552,0.9838934451093235,-0.026702880859375,-0.232696533203125,-0.1049041748046875,0.25664295490504985
1780332392.171306,0.01611328125,-0.1796875,0.9697265028953552,0.9863654119577323,-0.1468658447265625,0.0705718994140625,-0.7762908935546875,0.793207110879681
1780332392.179267,0.0175781287252903,-0.17431640625,0.9711913466453552,0.9868676871274165,-0.209808349609375,0.133514404296875,-1.0204315185546875,1.0502981118617631
1780332392.187228,0.008300784975290298,-0.162109375,0.9624022841453552,0.9759951378066869,0.2155303955078125,0.1316070556640625,-1.4476776123046875,1.4695387839919432
1780332392.197855,0.01513671875,-0.16357421875,0.9702147841453552,0.9840235630656451,-0.148773193359375,0.194549560546875,-1.5697479248046875,1.5887389785612838
1780332392.208482,-0.00048827752470970154,-0.169921875,0.9750975966453552,0.9897924050031929,-0.209808349609375,-0.232696533203125,-1.6307830810546875,1.6606085262893184
1780332392.219109,0.0043945349752902985,-0.17626953125,0.9765624403953552,0.9923529914177089,-0.2117156982421875,-0.1125335693359375,-1.1425018310546875,1.1673892988514916
1780332392.227405,-0.010742183774709702,-0.1630859375,0.9936522841453552,1.0070041108703505,0.339508056640625,0.133514404296875,-0.9593963623046875,1.02641765216802
1780332392.235701,-0.011230465024709702,-0.16064453125,0.9648436903953552,0.9781902349036876,0.2155303955078125,-0.1125335693359375,-0.5359649658203125,0.5885368299452542
1780332392.243997,-0.008300777524709702,-0.17529296875,0.9819335341453552,0.9974918512348312,0.339508056640625,-0.476837158203125,-0.1049041748046875,0.5946799827290122
1780332392.252293,-0.015136715024709702,-0.18115234375,0.9882811903953552,1.0048606883927333,0.827789306640625,-0.415802001953125,0.9937286376953125,1.3585370979081046
1780332392.262791,-0.00048827752470970154,-0.16748046875,0.9843749403953552,0.9985208906708062,1.1920928955078125,-0.6008148193359375,1.6651153564453125,2.1341680039125026
1780332392.273289,0.0068359412252902985,-0.15185546875,0.9580077528953552,0.9699926123890459,1.0700225830078125,-0.2346038818359375,2.4585723876953125,2.6915730521494363
1780332392.283787,0.0058593787252902985,-0.16162109375,0.9667968153953552,0.9802304792866794,0.278472900390625,0.011444091796875,2.5196075439453125,2.5349754040217336
1780332392.294306,0.015625,-0.158203125,0.9824218153953552,0.9952009810834549,-0.026702880859375,0.255584716796875,2.3937225341796875,2.407476720956187
1780332392.304827,0.015625,-0.185546875,0.9667968153953552,0.9845648103125899,0.156402587890625,0.499725341796875,1.6651153564453125,1.7455074726287734
1780332392.315348,0.02587890625,-0.16552734375,0.9697265028953552,0.9840927343168846,-0.7610321044921875,0.2536773681640625,0.6275177001953125,1.018479521269263
1780332392.325925,0.02490234375,-0.171875,0.9765624403953552,0.9918847424676795,-1.1234283447265625,-0.6008148193359375,-1.2645721435546875,1.795052199553884
1780332392.336503,0.0288085974752903,-0.16796875,0.9697265028953552,0.984587693749374,-1.4934539794921875,-0.1125335693359375,-2.4242401123046875,2.8495628989716266
1780332392.347081,0.013183597475290298,-0.16064453125,0.9628905653953552,0.9762882328443325,-1.552581787109375,-0.843048095703125,-2.8553009033203125,3.3576753187040285
1780332392.3551,0.011718753725290298,-0.1669921875,0.9785155653953552,0.9927318024501385,-1.674652099609375,-0.904083251953125,-2.9735565185546875,3.5304198829922906
1780332392.36312,-0.0058593712747097015,-0.17529296875,0.9926757216453552,1.0080511125280553,-1.186370849609375,-0.720977783203125,-2.9735565185546875,3.281664688190193
1780332392.37114,-0.0053710900247097015,-0.1845703125,0.9882811903953552,1.0053828923120094,-0.698089599609375,-0.049591064453125,-2.1839141845703125,2.2933097323134928
1780332392.37916,-0.0009765587747097015,-0.17724609375,0.9726561903953552,0.9886744641847891,-0.514984130859375,0.438690185546875,-1.5697479248046875,1.7093174899241979
1780332392.389825,-0.009765621274709702,-0.181640625,0.9887694716453552,1.0053624978420006,-0.331878662109375,0.621795654296875,-0.9021759033203125,1.1448557300366755
1780332392.40049,-0.00439453125,-0.17041015625,0.9814452528953552,0.996139406754338,0.034332275390625,1.476287841796875,-0.1659393310546875,1.4859812779983637
1780332392.411155,-0.020507805049419403,-0.173828125,0.9721679091453552,0.9877991854020797,0.2155303955078125,1.4133453369140625,0.9937286376953125,1.7411188925918473
1780332392.419242,-0.00390625,-0.1728515625,0.9658202528953552,0.9811736249770485,-0.1468658447265625,1.0471343994140625,1.9702911376953125,2.2360919466927527
1780332392.427327,-0.0053710900247097015,-0.162109375,0.9707030653953552,0.9841609315751583,-0.026702880859375,0.743865966796875,2.4585723876953125,2.568779438944237
1780332392.435412,0.014160159975290298,-0.16748046875,0.9790038466453552,0.9933271109204902,0.339508056640625,0.133514404296875,2.2106170654296875,2.2405177139776438
1780332392.443497,0.012207034975290298,-0.17236328125,0.9770507216453552,0.9922127922446192,0.2155303955078125,-0.3566741943359375,2.0923614501953125,2.133458757641304
1780332392.451457,0.013671878725290298,-0.166015625,0.9829100966453552,0.9969254566412682,-0.026702880859375,-0.720977783203125,1.0547637939453125,1.2779079265489326
1780332392.459417,0.0224609412252903,-0.1669921875,0.9667968153953552,0.9813699439178691,-0.026702880859375,-1.209259033203125,0.6885528564453125,1.3918065560086093
1780332392.467377,0.01953125,-0.1728515625,0.9643554091453552,0.9799186127088103,0.278472900390625,-1.514434814453125,-0.4138946533203125,1.5944807140654853
1780332392.475337,0.0170898474752903,-0.15234375,0.9858397841453552,0.9976877071782291,-0.026702880859375,-1.392364501953125,-0.7762908935546875,1.5943711931546238
1780332392.485931,0.0219726599752903,-0.1611328125,0.9819335341453552,0.995309020621102,-0.331878662109375,-1.514434814453125,-1.6307830810546875,2.2501354872641333
1780332392.496525,0.0244140625,-0.15771484375,0.9775390028953552,0.9904809541674621,0.156402587890625,-0.720977783203125,-2.0580291748046875,2.1862650383058866
1780332392.507119,0.008300784975290298,-0.154296875,0.9775390028953552,0.989676174739807,0.400543212890625,-0.171661376953125,-2.4852752685546875,2.523191561142309
1780332392.515131,-0.0014648400247097015,-0.16552734375,0.9746093153953552,0.9885670260233403,0.461578369140625,-0.293731689453125,-2.2411346435546875,2.306949801531993
1780332392.523143,0.008789066225290298,-0.17431640625,0.9794921278953552,0.9949212460200045,0.644683837890625,0.011444091796875,-1.5087127685546875,1.640720096809444
1780332392.531155,-0.0058593712747097015,-0.16748046875,0.9887694716453552,1.0028704341550256,0.0362396240234375,-0.2346038818359375,-1.3256072998046875,1.346694844802387
1780332392.539167,-0.0053710900247097015,-0.1630859375,0.9794921278953552,0.9929907855701775,0.461578369140625,0.072479248046875,-0.2880096435546875,0.5488691893670637
1780332392.54982,-0.0024414025247097015,-0.16650390625,0.9853515028953552,0.9993233188017437,0.156402587890625,-0.171661376953125,-0.1049041748046875,0.2548220628748225
1780332392.560473,-0.008789058774709702,-0.16064453125,0.9770507216453552,0.9902080718931688,-0.331878662109375,-0.232696533203125,0.3833770751953125,0.5579149619015196
1780332392.571126,-0.0019531212747097015,-0.16796875,0.9594725966453552,0.9740662089266092,-0.026702880859375,0.133514404296875,1.4171600341796875,1.4236859564093172
1780332392.579116,0.0009765662252902985,-0.162109375,0.9838866591453552,0.9971526268273535,-0.392913818359375,0.377655029296875,1.4820098876953125,1.5790370157275098
1780332392.587106,0.0029296875,-0.1884765625,0.9819335341453552,0.9998627221573227,-0.4520416259765625,-0.2346038818359375,1.4171600341796875,1.505896137010849
1780332392.595096,0.009765625,-0.17431640625,0.9594725966453552,0.9752277891000318,-0.8182525634765625,-0.1125335693359375,1.4171600341796875,1.6402876651184162
1780332392.603086,0.0048828125,-0.15966796875,0.9653319716453552,0.9784597679942544,-0.7610321044921875,-0.2918243408203125,1.6040802001953125,1.799278910736646
1780332392.613846,0.02099609375,-0.17431640625,0.9584960341453552,0.9744442995436157,-1.4324188232421875,-0.4177093505859375,1.1157989501953125,1.8631457495328754
1780332392.624606,0.0190429724752903,-0.1533203125,0.9868163466453552,0.9988374517569304,-1.2493133544921875,-0.7228851318359375,0.0743865966796875,1.445295864972833
1780332392.635366,0.0336914025247097,-0.1669921875,0.9746093153953552,0.989386081843443,-1.064300537109375,-0.843048095703125,-0.3490447998046875,1.4018908649501443
1780332392.643327,0.0336914025247097,-0.16162109375,0.9750975966453552,0.9889751319080659,-1.003265380859375,-0.843048095703125,-1.2073516845703125,1.7818444394318893
1780332392.651291,0.01171875,-0.16845703125,0.9765624403953552,0.9910546405067976,-1.003265380859375,-0.904083251953125,-2.0580291748046875,2.461583237520175
1780332392.659255,0.02490234375,-0.17041015625,0.9877929091453552,1.0026936618106432,-0.820159912109375,-0.415802001953125,-2.6073455810546875,2.7647431282679573
1780332392.667219,0.01123046875,-0.18359375,1.0009765625,1.0177361480962164,-0.2727508544921875,-0.2346038818359375,-2.4852752685546875,2.511180035459083
1780332392.675191,-0.0078124962747097015,-0.16796875,0.9697265028953552,0.9841971481833608,0.4596710205078125,0.5588531494140625,-2.4242401123046875,2.5299317010171944
1780332392.683163,-0.0161132775247097,-0.17333984375,0.9624022841453552,0.9780207030896942,0.095367431640625,0.438690185546875,-1.6956329345703125,1.754056747859775
1780332392.691135,-0.008789058774709702,-0.17724609375,0.9848632216453552,1.0007242330699537,0.339508056640625,0.743865966796875,-0.9593963623046875,1.2605727575534902
1780332392.699107,-0.015624996274709702,-0.177734375,0.9633788466453552,0.9797614254138403,0.339508056640625,1.110076904296875,0.3223419189453125,1.2047575551481609
1780332392.70977,-0.01416015625,-0.158203125,0.9780272841453552,0.9908411110352302,0.339508056640625,1.293182373046875,1.2340545654296875,1.819471637850092
1780332392.720433,-0.0058593712747097015,-0.16064453125,0.9667968153953552,0.9800699362345872,0.583648681640625,0.804901123046875,1.8482208251953125,2.098673824144334
1780332392.731096,-0.0034179650247097015,-0.17041015625,0.9643554091453552,0.9793021285517381,0.156402587890625,0.560760498046875,1.9054412841796875,1.9923906728162026
1780332392.741761,0.025390625,-0.1689453125,0.9667968153953552,0.981775577569647,-0.026702880859375,0.194549560546875,1.9054412841796875,1.9155336235136957
1780332392.752424,0.0234375037252903,-0.17822265625,0.9809569716453552,0.9972909364880966,0.156402587890625,-0.293731689453125,1.3599395751953125,1.4000627568328068
1780332392.763087,0.01513671875,-0.1650390625,0.9750975966453552,0.9890815615453274,0.461578369140625,-0.232696533203125,0.8106231689453125,0.9614115609114615
1780332392.773771,0.0029296875,-0.17333984375,0.9711913466453552,0.9865434183546817,0.522613525390625,0.011444091796875,-0.1049041748046875,0.5331610920254076
1780332392.784458,0.01611328125,-0.16943359375,0.9960936903953552,1.010529574316912,0.522613525390625,-0.659942626953125,-0.3490447998046875,0.9113075441703
1780332392.795145,0.014160159975290298,-0.16796875,0.9707030653953552,0.985230151931531,0.5245208740234375,-0.4177093505859375,-0.5359649658203125,0.8584064849708472
1780332392.805807,0.0190429724752903,-0.16162109375,0.9580077528953552,0.9717318906741966,0.0362396240234375,-0.4177093505859375,-1.2645721435546875,1.332267660108427
1780332392.816467,0.0043945349752902985,-0.1875,0.9858397841453552,1.0035216200667576,-0.392913818359375,-0.476837158203125,-1.5087127685546875,1.6303279308473269
1780332392.827127,0.007812503725290298,-0.177734375,0.9882811903953552,1.0041664476372225,-0.148773193359375,0.011444091796875,-1.5697479248046875,1.5768236989999942
1780332392.835257,0.00048828125,-0.16796875,0.9736327528953552,0.9880154234149027,-0.331878662109375,-0.293731689453125,-1.5087127685546875,1.5724617546231279
1780332392.843389,-0.0019531212747097015,-0.1591796875,0.9643554091453552,0.977406436823094,0.034332275390625,-0.049591064453125,-1.3256072998046875,1.3269787835917222
1780332392.851521,-0.0019531212747097015,-0.16552734375,0.9853515028953552,0.9991599974327333,0.278472900390625,-0.171661376953125,-0.9021759033203125,0.9596541799634031
1780332392.859653,-0.00732421875,-0.17333984375,0.9741210341453552,0.9894504205749718,0.156402587890625,-0.293731689453125,-0.3490447998046875,0.4822575527231959
1780332392.870151,0.0068359412252902985,-0.1826171875,0.9653319716453552,0.9824772683088168,0.5245208740234375,-0.1125335693359375,0.2574920654296875,0.5950530356808909
1780332392.880649,0.01123046875,-0.17529296875,0.9682616591453552,0.9840652360958847,0.2155303955078125,-0.0514984130859375,0.2574920654296875,0.3397169434946841
1780332392.891147,-0.011230465024709702,-0.14892578125,0.9790038466453552,0.9903300174244928,0.278472900390625,-0.354766845703125,0.6275177001953125,0.7727775456886192
1780332392.89918,0.013183597475290298,-0.16845703125,0.9672850966453552,0.9819328066686478,1.0128021240234375,-0.6008148193359375,1.7871856689453125,2.140275497416995
1780332392.907213,0.007812503725290298,-0.1650390625,0.9711913466453552,0.9851454507655989,1.0700225830078125,-0.4177093505859375,1.5430450439453125,1.9236469107811414
1780332392.915246,0.014160159975290298,-0.17919921875,0.9829100966453552,0.9992122538372504,0.8869171142578125,0.0705718994140625,1.2989044189453125,1.5744062531970502
1780332392.923279,0.03955078125,-0.16796875,0.9750975966453552,0.9902490031591022,0.2765655517578125,0.5588531494140625,0.7457733154296875,0.9721024560385124
1780332392.933917,0.01953125,-0.173828125,0.9790038466453552,0.9945080283808574,-0.0286102294921875,1.0471343994140625,0.0743865966796875,1.0501630165995333
1780332392.944555,0.02685546875,-0.17919921875,0.9765624403953552,0.9932309782690653,0.034332275390625,1.293182373046875,-0.2880096435546875,1.3253108729174234
1780332392.955193,0.0205078125,-0.169921875,0.9775390028953552,0.9924094498535855,-0.209808349609375,0.865936279296875,-0.9021759033203125,1.2679852301585168
1780332392.963173,-0.0039062462747097015,-0.171875,0.9799804091453552,0.9949461677365548,-0.453948974609375,0.621795654296875,-1.2073516845703125,1.431920946660867
1780332392.971153,-0.0019531212747097015,-0.17626953125,0.9902343153953552,1.0058025460876088,-0.514984130859375,0.682830810546875,-0.9593963623046875,1.2852657121671593
1780332392.979133,0.00048828125,-0.17333984375,0.9853515028953552,1.0004821458216977,-0.2727508544921875,1.1081695556640625,-0.5359649658203125,1.2608295829784741
1780332392.987113,-0.00341796875,-0.17822265625,0.9697265028953552,0.9859738780154559,0.034332275390625,0.499725341796875,0.0171661376953125,0.501197364968009
1780332392.997823,-0.010253902524709702,-0.181640625,0.9711913466453552,0.9880845565872363,-0.2727508544921875,0.1316070556640625,0.7457733154296875,0.8049169421336404
1780332393.008533,-0.00048827752470970154,-0.158203125,0.9682616591453552,0.9811009671515072,-0.2727508544921875,0.2536773681640625,1.1768341064453125,1.2343758543643832
1780332393.019243,0.011718753725290298,-0.18017578125,0.9882811903953552,1.004639414231386,-0.0286102294921875,-0.1125335693359375,1.3599395751953125,1.3648875402909535
1780332393.027213,-0.009277340024709702,-0.17626953125,0.9760741591453552,0.991906135093609,-0.026702880859375,0.072479248046875,1.2989044189453125,1.3011990527199482
1780332393.035181,0.0224609375,-0.18310546875,0.9877929091453552,1.0048716026226336,0.156402587890625,0.255584716796875,0.8716583251953125,0.9217231432709719
1780332393.043149,0.015625,-0.16552734375,0.9760741591453552,0.9901334285363983,0.278472900390625,0.133514404296875,0.9937286376953125,1.040610329461753
1780332393.051117,0.01025390625,-0.17041015625,0.9721679091453552,0.9870436705225281,0.461578369140625,0.255584716796875,0.3223419189453125,0.6182899409079888
1780332393.06218,0.013183597475290298,-0.15966796875,0.9760741591453552,0.9891351938124806,0.156402587890625,-0.354766845703125,-0.4138946533203125,0.5671243852596811
1780332393.073242,0.011230472475290298,-0.166015625,0.9829100966453552,0.9968949640476374,0.034332275390625,-0.843048095703125,-0.7762908935546875,1.1465323145110644
1780332393.084304,-0.00341796875,-0.1591796875,0.9829100966453552,0.9957219057097997,0.156402587890625,-0.782012939453125,-1.0814666748046875,1.3437172975310354
1780332393.09203,-0.009765617549419403,-0.17431640625,0.9907225966453552,1.005988489137799,0.156402587890625,-0.659942626953125,-1.2645721435546875,1.4349664618461204
1780332393.099756,0.011718753725290298,-0.17236328125,0.9736327528953552,0.9888413257053572,0.339508056640625,-0.843048095703125,-1.2073516845703125,1.5111895653515248
1780332393.107482,0.0,-0.17724609375,0.9809569716453552,0.9968413905778893,0.644683837890625,-0.904083251953125,-0.9021759033203125,1.4307009253618819
1780332393.115208,0.0009765625,-0.16796875,0.9658202528953552,0.9803179155527695,0.949859619140625,-0.782012939453125,-0.4138946533203125,1.298108746443545
1780332393.123222,0.005859375,-0.16064453125,0.9633788466453552,0.9766984180695992,0.644683837890625,-0.904083251953125,-0.0476837158203125,1.1114213935559976
1780332393.131236,0.0107421875,-0.158203125,0.9726561903953552,0.9854966707536136,0.278472900390625,-0.720977783203125,0.4405975341796875,0.8896529139218733
1780332393.13925,0.0039062537252902985,-0.1630859375,0.9843749403953552,0.9978007341682904,0.095367431640625,-0.049591064453125,0.6275177001953125,0.6366574312373471
1780332393.147264,0.0214843787252903,-0.16259765625,0.9653319716453552,0.9791656610747304,0.156402587890625,0.255584716796875,1.1157989501953125,1.155332252737707
1780332393.157869,0.02001953125,-0.15380859375,0.9809569716453552,0.9931437183824144,-0.331878662109375,-0.049591064453125,0.9288787841796875,0.987632783850474
1780332393.168474,0.0283203162252903,-0.1552734375,0.9677733778953552,0.9805596318772015,-0.331878662109375,0.194549560546875,0.5664825439453125,0.68475941064526
1780332393.179079,0.02490234375,-0.16845703125,0.9853515028953552,0.9999577402870292,-0.4520416259765625,0.0705718994140625,-0.2880096435546875,0.5406214751403621
1780332393.189762,0.01513671875,-0.173828125,0.9731444716453552,0.988663491785476,-0.453948974609375,0.377655029296875,-0.7190704345703125,0.930459715718668
1780332393.200445,0.0073242224752902985,-0.17041015625,0.9760741591453552,0.9908652934376747,-0.637054443359375,0.438690185546875,-0.7190704345703125,1.0561011942859513
1780332393.211128,0.0073242224752902985,-0.1728515625,0.9746093153953552,0.989845757958765,-0.698089599609375,0.438690185546875,-1.4476776123046875,1.6659977902584775
1780332393.21912,0.0019531287252902985,-0.17138671875,0.9775390028953552,0.9924513712305276,-0.820159912109375,0.988006591796875,-0.9593963623046875,1.6028913521723178
1780332393.227111,0.0043945349752902985,-0.1767578125,0.9716796278953552,0.9876355276539469,-0.576019287109375,0.621795654296875,-0.6542205810546875,1.0707159396870882
1780332393.235102,0.001953125,-0.17431640625,0.9853515028953552,1.0006535906313012,-0.514984130859375,0.926971435546875,-0.4711151123046875,1.1603594901575454
1780332393.243093,0.0014648474752902985,-0.1630859375,0.9633788466453552,0.9770864705603668,-0.2727508544921875,1.1730194091796875,-0.0476837158203125,1.20525569888423
1780332393.253782,0.0068359375,-0.16943359375,0.9760741591453552,0.9906943206074497,-0.270843505859375,0.988006591796875,0.2002716064453125,1.043849580374711
1780332393.264471,-0.00244140625,-0.173828125,0.9721679091453552,0.9875892977738999,-0.331878662109375,0.682830810546875,0.1392364501953125,0.7718731445377555
1780332393.27516,0.01513671875,-0.1650390625,0.9838866591453552,0.9977474482300639,-0.026702880859375,0.743865966796875,0.0743865966796875,0.7480527963789896
1780332393.283288,-0.010253898799419403,-0.16845703125,0.9799804091453552,0.994406615086027,-0.270843505859375,0.804901123046875,0.5054473876953125,0.9882808731713538
1780332393.291416,0.0,-0.1748046875,0.9892577528953552,1.0045832869581,-0.209808349609375,0.377655029296875,0.3833770751953125,0.5775992092310598
1780332393.299544,-0.0009765587747097015,-0.1689453125,0.9711913466453552,0.9857769038081495,-0.148773193359375,0.804901123046875,0.1392364501953125,0.8302927616253548
1780332393.307672,0.009277347475290298,-0.16943359375,0.9682616591453552,0.9830180326108638,-0.2727508544921875,0.4367828369140625,0.0743865966796875,0.520293802590903
1780332393.318158,0.0029296912252902985,-0.1591796875,0.9663085341453552,0.9793359684834507,-0.148773193359375,0.133514404296875,-0.0476837158203125,0.20550741098930642
1780332393.328644,-0.0053710900247097015,-0.16162109375,0.9804686903953552,0.9937147877527952,0.2155303955078125,0.3795623779296875,-0.0476837158203125,0.4390839178127859
1780332393.33913,0.012695316225290298,-0.16455078125,0.9560546278953552,0.9701951258299393,-0.2727508544921875,0.5588531494140625,-0.5931854248046875,0.8594060852920187
1780332393.349797,0.015625,-0.15966796875,0.9711913466453552,0.9843529004724726,-0.453948974609375,0.499725341796875,-0.1049041748046875,0.6832276155677249
1780332393.360466,0.0146484375,-0.15771484375,0.9951171278953552,1.0076441072576066,-0.576019287109375,-0.293731689453125,-0.4711151123046875,0.8000162333058236
1780332393.371135,0.0,-0.1767578125,0.9814452528953552,0.9972352323853249,-0.148773193359375,-0.171661376953125,-0.6542205810546875,0.6925356742257556
1780332393.381783,0.01220703125,-0.17822265625,0.9853515028953552,1.0014139558997963,-0.087738037109375,-0.659942626953125,-0.6542205810546875,0.9333953089131799
1780332393.392432,0.0009765662252902985,-0.181640625,0.9819335341453552,0.9985928779092962,0.3414154052734375,0.0705718994140625,-0.4711151123046875,0.5860838856228624
1780332393.403081,0.007812503725290298,-0.15966796875,0.9663085341453552,0.9794422283225048,0.461578369140625,0.072479248046875,-0.7190704345703125,0.8575372424152187
1780332393.411094,-0.0019531212747097015,-0.169921875,0.9648436903953552,0.9796941385871192,0.156402587890625,-0.171661376953125,-0.1049041748046875,0.2548220628748225
1780332393.419109,0.0068359412252902985,-0.15673828125,0.9692382216453552,0.9818535273654062,0.156402587890625,0.011444091796875,0.5664825439453125,0.5877884052366914
1780332393.427124,0.0,-0.15283203125,0.9711913466453552,0.9831430524470076,-0.392913818359375,-0.354766845703125,0.5054473876953125,0.7319274862962207
1780332393.435139,0.0024414099752902985,-0.15625,0.9765624403953552,0.9889864624824746,-0.148773193359375,0.011444091796875,0.6885528564453125,0.7045349291684554
1780332393.44583,0.0170898474752903,-0.1630859375,0.9833983778953552,0.9969761559556971,-0.7610321044921875,-0.2346038818359375,0.2002716064453125,0.8211684125613238
1780332393.456521,0.008300784975290298,-0.17578125,0.9707030653953552,0.9865254137885693,-0.148773193359375,-0.232696533203125,0.2574920654296875,0.3776020436734228
1780332393.467212,0.0034179724752902985,-0.1630859375,0.9726561903953552,0.9862397123724542,-0.209808349609375,-0.232696533203125,-0.1659393310546875,0.35454630405835563
1780332393.477834,0.005859375,-0.15576171875,0.9643554091453552,0.9768712302300904,-0.331878662109375,-0.782012939453125,-0.4138946533203125,0.9449849035210919
1780332393.488459,0.015625,-0.15087890625,0.9887694716453552,1.0003367698100631,-0.392913818359375,-0.171661376953125,-0.5359649658203125,0.6863725967591914
1780332393.499084,-0.0053710900247097015,-0.16943359375,0.9838866591453552,0.9983834680839332,-0.087738037109375,0.316619873046875,-0.2880096435546875,0.4369160811237365
1780332393.507106,0.0043945349752902985,-0.18212890625,0.9775390028953552,0.994370530844069,-0.026702880859375,0.438690185546875,-0.3490447998046875,0.5612436146737315
1780332393.515128,0.011718753725290298,-0.1630859375,0.9638671278953552,0.9776370453477963,0.339508056640625,-0.293731689453125,0.2002716064453125,0.4915818774742078
1780332393.52315,0.010742191225290298,-0.162109375,0.9794921278953552,0.9928744496381112,0.0934600830078125,-0.6008148193359375,0.1392364501953125,0.6237788256365345
1780332393.531172,0.0166015625,-0.14990234375,0.9887694716453552,1.0002056751473767,0.2155303955078125,-0.7801055908203125,-0.2880096435546875,0.8590504286695636
1780332393.541802,0.01611328125,-0.16845703125,0.9765624403953552,0.9911163449369286,0.0362396240234375,-0.1125335693359375,0.0171661376953125,0.11946460086661986
1780332393.552432,0.0209960974752903,-0.18701171875,0.9907225966453552,1.0084371485435948,-0.026702880859375,0.377655029296875,-0.1049041748046875,0.39286289070217095
1780332393.563062,0.0107421875,-0.169921875,0.9838866591453552,0.9985097877537351,-0.0896453857421875,0.7419586181640625,-0.5359649658203125,0.919672404087216
1780332393.571072,0.0029296875,-0.17822265625,0.9819335341453552,0.9979806429730192,-1.186370849609375,0.926971435546875,-0.2307891845703125,1.5231597036546543
1780332393.579084,-0.0068359337747097015,-0.16259765625,0.9770507216453552,0.9905114035064285,-1.491546630859375,0.682830810546875,-0.1049041748046875,1.6437682786060532
1780332393.587096,-0.0004882737994194031,-0.16357421875,0.9672850966453552,0.9810184614181275,-1.674652099609375,0.682830810546875,0.2002716064453125,1.8195676098750428
1780332393.595108,0.0146484375,-0.166015625,0.9707030653953552,0.9849061912858865,-2.3479461669921875,0.5588531494140625,0.2574920654296875,2.4272350956309463
1780332393.605882,0.008300784975290298,-0.17578125,0.9765624403953552,0.9922913639016013,-1.9207000732421875,-0.0514984130859375,0.1392364501953125,1.926428728753261
1780332393.616656,0.009277351200580597,-0.16357421875,0.9970702528953552,1.0104413310498435,-1.613616943359375,0.133514404296875,0.1392364501953125,1.6251069272863843
1780332393.62743,0.010253909975290298,-0.1767578125,0.9799804091453552,0.9958464084678241,-0.576019287109375,0.316619873046875,0.0171661376953125,0.6575264552955921
1780332393.637971,0.00048828125,-0.1689453125,0.9921874403953552,1.0064684167486768,-0.514984130859375,0.377655029296875,0.2574920654296875,0.6885739901778573
1780332393.648512,0.00537109375,-0.1845703125,0.9746093153953552,0.9919467559097221,0.2155303955078125,0.6198883056640625,0.0743865966796875,0.6604908997498775
1780332393.659053,0.010742191225290298,-0.17138671875,0.9692382216453552,0.9843330393390557,0.278472900390625,0.865936279296875,0.5664825439453125,1.0715853996062261
1780332393.669752,0.0107421875,-0.16455078125,0.9658202528953552,0.9797964661628038,0.2155303955078125,0.7419586181640625,0.6885528564453125,1.034920759563107
1780332393.680454,0.0024414099752902985,-0.166015625,0.9843749403953552,0.9982791050128051,0.2155303955078125,0.5588531494140625,0.3833770751953125,0.7111597399903082
1780332393.691156,0.01611328125,-0.1630859375,0.9750975966453552,0.988772968798421,0.400543212890625,-0.293731689453125,0.0171661376953125,0.496998840104387
1780332393.699163,0.009277347475290298,-0.1650390625,0.9799804091453552,0.993823708529714,-0.0896453857421875,-0.7228851318359375,-0.4138946533203125,0.8377994945459611
1780332393.707173,0.00537109375,-0.18359375,0.9921874403953552,1.0090448109798793,-0.331878662109375,-0.843048095703125,-0.8373260498046875,1.233688960684052
1780332393.715183,0.0053710974752902985,-0.171875,0.9672850966453552,0.9824511807236547,-0.0286102294921875,-0.6008148193359375,-0.9593963623046875,1.132359647977946
1780332393.723193,-0.0034179650247097015,-0.17626953125,0.9750975966453552,0.9909076410622499,-0.3948211669921875,-0.4177093505859375,-0.4138946533203125,0.7082892343662581
1780332393.734044,0.00244140625,-0.1689453125,0.9931640028953552,1.0074339758650814,0.034332275390625,-0.843048095703125,-0.4138946533203125,0.9397965635441028
1780332393.744895,-0.008789058774709702,-0.166015625,0.9858397841453552,0.9997592286656055,0.522613525390625,-0.782012939453125,-0.1049041748046875,0.9464005601671983
1780332393.755746,-0.0048828087747097015,-0.17138671875,0.9667968153953552,0.9818825446274226,-0.026702880859375,0.011444091796875,0.5054473876953125,0.5062816141351183
1780332393.766199,0.013183597475290298,-0.17236328125,0.9833983778953552,0.9984764782471708,-0.576019287109375,0.011444091796875,1.0547637939453125,1.2018551690519776
1780332393.776654,0.0073242224752902985,-0.1767578125,0.9785155653953552,0.9943790425364185,-0.2727508544921875,0.0705718994140625,1.2340545654296875,1.265805708657921
1780332393.787109,0.0180664099752903,-0.1572265625,0.9541015028953552,0.9671381829667037,0.034332275390625,0.804901123046875,0.8716583251953125,1.1869426097743376
1780332393.795105,0.0180664099752903,-0.1640625,0.9765624403953552,0.9904125903211131,-0.576019287109375,0.988006591796875,0.3833770751953125,1.206206129291914
1780332393.8031,0.0205078162252903,-0.1572265625,0.9721679091453552,0.9850133024756307,-1.003265380859375,0.438690185546875,-0.4711151123046875,1.1920318587889824
1780332393.811095,0.0161132849752903,-0.16552734375,0.9794921278953552,0.993510829377615,-0.9441375732421875,0.8029937744140625,-0.8373260498046875,1.4957639093910882
1780332393.81909,0.0063476599752902985,-0.166015625,0.9604491591453552,0.9747123000323339,-0.9441375732421875,0.6198883056640625,-1.2073516845703125,1.6532862301916993
1780332393.827203,0.009277347475290298,-0.17138671875,0.9804686903953552,0.9953784854946643,-1.491546630859375,0.316619873046875,-1.3904571533203125,2.063572288836957
1780332393.835316,0.0063476599752902985,-0.18212890625,0.9877929091453552,1.0044630718134078,-1.003265380859375,0.194549560546875,-2.1190643310546875,2.352620792879324
1780332393.843429,-0.0063476525247097015,-0.1748046875,0.9921874403953552,1.0074884060587663,-0.7610321044921875,0.5588531494140625,-1.4476776123046875,1.7283683565276313
1780332393.851542,-0.011718746274709702,-0.1650390625,0.9829100966453552,0.9967384206764137,-0.148773193359375,0.682830810546875,-0.8373260498046875,1.0906448975610579
1780332393.862075,-0.0166015587747097,-0.17236328125,0.9843749403953552,0.9994892374384908,-0.0286102294921875,1.0471343994140625,-0.1049041748046875,1.052764874774656
1780332393.872608,-0.0078124962747097015,-0.16064453125,0.9760741591453552,0.9892363037565326,-0.392913818359375,1.110076904296875,0.3833770751953125,1.2383981524115697
1780332393.883141,-0.0185546837747097,-0.17236328125,0.9873046278953552,1.0024090009955178,-0.087738037109375,1.171112060546875,1.2340545654296875,1.7035527852027388
1780332393.891126,0.007812503725290298,-0.16455078125,0.9672850966453552,0.981212746052892,0.2155303955078125,0.8678436279296875,2.0923614501953125,2.27543014662928
1780332393.899111,0.0048828125,-0.1689453125,0.9614257216453552,0.9761689293943568,-0.2727508544921875,0.8678436279296875,2.2106170654296875,2.3904755596184923
1780332393.907096,0.012207034975290298,-0.1572265625,0.9755858778953552,0.9882494668894617,-0.209808349609375,0.377655029296875,1.7871856689453125,1.8386613282501314
1780332393.915081,0.0268554724752903,-0.16064453125,0.9770507216453552,0.9905331869705895,-0.820159912109375,0.255584716796875,1.2340545654296875,1.5036211289248536
1780332393.926087,0.0332031287252903,-0.1708984375,0.9692382216453552,0.9847494371642669,-0.5168914794921875,-0.1125335693359375,0.0743865966796875,0.5342040542383549
1780332393.937093,0.025390625,-0.17578125,0.9799804091453552,0.9959444432287129,-0.6351470947265625,0.0705718994140625,-0.9021759033203125,1.1055829165912086
1780332393.948099,0.0244140625,-0.169921875,0.9785155653953552,0.9934597132104861,-0.148773193359375,-0.171661376953125,-1.9359588623046875,1.9492403155937055
1780332393.955842,0.0288085974752903,-0.16064453125,0.9609374403953552,0.9746986021651013,-0.331878662109375,-0.476837158203125,-2.9125213623046875,2.9698986190925596
1780332393.963583,-0.0063476525247097015,-0.17578125,0.9858397841453552,1.0014087180307036,-0.576019287109375,0.194549560546875,-3.1604766845703125,3.21842517768295
1780332393.971324,-0.00048827752470970154,-0.16259765625,0.9790038466453552,0.9924146149565395,-0.514984130859375,0.194549560546875,-2.8553009033203125,2.9078860766969123
1780332393.979065,-0.0073242150247097015,-0.16552734375,0.9555663466453552,0.9698247205014987,-0.6351470947265625,0.5588531494140625,-2.6073455810546875,2.7411639231529032
1780332393.989748,-0.010742183774709702,-0.16650390625,0.9794921278953552,0.9936014160203926,-0.4520416259765625,0.5588531494140625,-1.3256072998046875,1.5079433634991155
1780332394.000431,-0.01416015625,-0.1689453125,0.9843749403953552,0.9988678851174996,-0.392913818359375,-0.049591064453125,-0.2880096435546875,0.4896836704565878
1780332394.011114,-0.0170898400247097,-0.1865234375,0.9858397841453552,1.0034755280387495,-0.026702880859375,0.377655029296875,0.2574920654296875,0.45786300217276776
1780332394.021782,-0.0297851525247097,-0.19189453125,0.9804686903953552,0.9995146418538151,0.461578369140625,0.682830810546875,1.7223358154296875,1.909385547185918
1780332394.032449,-0.009765617549419403,-0.18359375,0.9736327528953552,0.990839426867831,0.583648681640625,0.682830810546875,2.6988983154296875,2.8444605492856017
1780332394.043116,-0.013183590024709702,-0.17578125,0.9746093153953552,0.9904222193352212,0.156402587890625,1.110076904296875,3.6792755126953125,3.846271025457199
1780332394.053808,0.0073242224752902985,-0.1650390625,0.9628905653953552,0.9769594553066843,0.156402587890625,0.865936279296875,3.8013458251953125,3.9018633358987898
1780332394.064502,0.0263671912252903,-0.158203125,0.9609374403953552,0.9742300661991774,-0.5779266357421875,0.3795623779296875,3.2520294189453125,3.324719858382915
1780332394.075196,0.0185546912252903,-0.16552734375,0.9736327528953552,0.9877774625926552,-1.003265380859375,-0.049591064453125,2.1533966064453125,2.3761560644778132
1780332394.085847,0.0390625,-0.16845703125,0.9858397841453552,1.00089146778638,-0.820159912109375,-0.782012939453125,0.5054473876953125,1.2408398690529694
1780332394.096498,0.0263671912252903,-0.16259765625,0.9785155653953552,0.9922831946133603,-0.392913818359375,-0.782012939453125,-0.9593963623046875,1.2986018967078894
1780332394.107149,0.0263671875,-0.17431640625,0.9765624403953552,0.9923485466586359,-0.514984130859375,-0.965118408203125,-2.1839141845703125,2.4425690087399645
1780332394.115138,0.008300784975290298,-0.15576171875,0.9721679091453552,0.9846019803104256,-0.209808349609375,-0.965118408203125,-3.8318634033203125,3.957101240444054
1780332394.123128,0.008300784975290298,-0.1630859375,0.9829100966453552,0.9963825490888735,0.156402587890625,-1.270294189453125,-3.4008026123046875,3.633671353481991
1780332394.131118,0.0,-0.17333984375,0.9682616591453552,0.98365509300882,0.461578369140625,-1.148223876953125,-3.6487579345703125,3.8529089176301063
1780332394.139108,-0.01708984375,-0.16845703125,0.9770507216453552,0.991613809305151,0.278472900390625,-0.720977783203125,-2.6721954345703125,2.7817233077110455
1780332394.149783,-0.0063476525247097015,-0.17138671875,0.9775390028953552,0.9924697487773173,-0.087738037109375,-0.354766845703125,-2.5463104248046875,2.5724024291379797
1780332394.160458,-0.015624996274709702,-0.17138671875,0.9877929091453552,1.0026726181712156,0.0934600830078125,0.0705718994140625,-1.3256072998046875,1.3307704134816833
1780332394.171133,-0.0175781212747097,-0.1767578125,0.9785155653953552,0.9945074290061011,0.339508056640625,0.743865966796875,-0.0476837158203125,0.8190702252169686
1780332394.179133,-0.0224609337747097,-0.16943359375,0.9599608778953552,0.9750574974465316,0.278472900390625,0.988006591796875,0.7457733154296875,1.2688112624393875
1780332394.187133,-0.0058593712747097015,-0.181640625,0.9648436903953552,0.9818100609475611,-0.5779266357421875,1.0471343994140625,1.9702911376953125,2.3048941003909964
1780332394.195133,-0.0009765587747097015,-0.16455078125,0.9838866591453552,0.9975524403865865,-0.514984130859375,0.743865966796875,2.8820037841796875,3.0206772491647755
1780332394.203133,0.0043945349752902985,-0.1728515625,0.9667968153953552,0.9821369847709336,-1.369476318359375,0.438690185546875,3.3702850341796875,3.6642510390334717
1780332394.213788,0.011718753725290298,-0.16650390625,0.9550780653953552,0.9695540165378704,-1.186370849609375,0.255584716796875,3.1871795654296875,3.4104124270468494
1780332394.224443,0.015625,-0.1826171875,0.9829100966453552,0.9998527070937957,-1.4324188232421875,-0.1125335693359375,2.8247833251953125,3.169209416196334
1780332394.235098,0.013671878725290298,-0.171875,0.9838866591453552,0.9988798195664419,-1.3065338134765625,-0.1125335693359375,2.3937225341796875,2.7293959003092096
1780332394.243115,0.0375976599752903,-0.1591796875,0.9760741591453552,0.9896830407254271,-0.637054443359375,0.499725341796875,0.1392364501953125,0.8215537536284029
1780332394.251133,0.0209960974752903,-0.166015625,0.9790038466453552,0.9932021725709901,-0.392913818359375,0.499725341796875,-0.6542205810546875,0.912201323484723
1780332394.259151,0.0234375037252903,-0.16162109375,0.9648436903953552,0.9785673412808887,-0.514984130859375,0.194549560546875,-1.5697479248046875,1.663480307660596
1780332394.277805,0.01953125,-0.16064453125,0.9760741591453552,0.9893982511094341,-0.514984130859375,0.560760498046875,-1.9969940185546875,2.137205208057936
1780332394.288444,0.007812503725290298,-0.1689453125,0.9692382216453552,0.9838832675314847,-0.209808349609375,0.377655029296875,-2.3670196533203125,2.4061223792491613
1780332394.299083,0.0175781287252903,-0.16748046875,0.9838866591453552,0.998194197572001,0.278472900390625,0.316619873046875,-2.4242401123046875,2.4606371984441813
1780332394.307099,-0.008300777524709702,-0.171875,0.9697265028953552,0.9848753266023929,0.461578369140625,-0.476837158203125,-1.8787384033203125,1.992507529323869
1780332394.315115,-0.012207027524709702,-0.15234375,0.9731444716453552,0.9850724807743687,0.156402587890625,-0.965118408203125,-1.3904571533203125,1.6997901066222987
1780332394.323131,-0.0058593712747097015,-0.17041015625,0.9716796278953552,0.9865268637253323,-0.026702880859375,-0.476837158203125,-0.9593963623046875,1.071694032498497
1780332394.331147,-0.0087890625,-0.17041015625,0.9902343153953552,1.00482877564254,0.0362396240234375,-0.4177093505859375,-0.2307891845703125,0.4786001040857759
1780332394.341819,-0.015624996274709702,-0.173828125,0.9755858778953552,0.9910742468142593,0.339508056640625,-0.659942626953125,0.7457733154296875,1.0521253867294875
1780332394.352491,-0.0068359337747097015,-0.1650390625,0.9736327528953552,0.9875451177804683,0.3986358642578125,-0.4177093505859375,1.1768341064453125,1.310850932765597
1780332394.363163,0.0024414099752902985,-0.17919921875,0.9653319716453552,0.9818269378887435,0.278472900390625,-0.171661376953125,1.3599395751953125,1.3987317229446885
1780332394.371137,0.0068359375,-0.15869140625,0.9780272841453552,0.9908415922799395,0.156402587890625,0.133514404296875,1.8482208251953125,1.8596257914804462
1780332394.379111,0.013183597475290298,-0.17578125,0.9648436903953552,0.9808140506689742,0.217437744140625,0.011444091796875,1.9054412841796875,1.917841658550141
1780332394.387085,0.0073242224752902985,-0.1630859375,0.9545897841453552,0.9684484102107852,0.034332275390625,0.011444091796875,1.6040802001953125,1.6044883798361353
1780332394.395059,0.0068359412252902985,-0.16650390625,0.9750975966453552,0.9892348577928763,-0.514984130859375,0.377655029296875,1.3599395751953125,1.5024205883748454
1780332394.405779,0.009765625,-0.16748046875,0.9985350966453552,1.012530204031914,-0.392913818359375,-0.049591064453125,1.0547637939453125,1.126661973863167
1780332394.416499,0.0205078125,-0.17333984375,0.9692382216453552,0.9848299356249587,0.156402587890625,0.194549560546875,0.1392364501953125,0.28582877754148306
1780332394.427219,0.012207034975290298,-0.15234375,0.9531249403953552,0.9653003583706989,-0.209808349609375,0.133514404296875,-0.2307891845703125,0.3392775964239149
1780332394.437833,0.014648433774709702,-0.181640625,0.9726561903953552,0.9895796875324635,-0.9441375732421875,0.0133514404296875,-1.3256072998046875,1.6275161232579753
1780332394.448447,0.012207034975290298,-0.1806640625,0.9829100966453552,0.9994502355141417,-0.698089599609375,-0.171661376953125,-1.6956329345703125,1.8417295583824869
1780332394.459061,0.0068359375,-0.1689453125,0.9599608778953552,0.9747379831251307,-0.637054443359375,-0.354766845703125,-1.7528533935546875,1.8984712001793054
1780332394.467082,0.00048828125,-0.1689453125,0.9858397841453552,1.0002113961748598,-0.759124755859375,-0.476837158203125,-1.8138885498046875,2.023322945432671
1780332394.475105,-0.00927734375,-0.17578125,0.9873046278953552,1.0028736436970531,-0.3948211669921875,-0.6008148193359375,-1.7528533935546875,1.8945599014902992
1780332394.483128,-0.009765617549419403,-0.16943359375,0.9741210341453552,0.9887946698590045,-0.148773193359375,-0.354766845703125,-0.7762908935546875,0.8663835924626146
1780332394.491151,-0.001953125,-0.16357421875,0.9672850966453552,0.981020284157852,0.095367431640625,-0.354766845703125,-0.4711151123046875,0.5974143544222322
1780332394.501828,0.0048828125,-0.16455078125,0.9790038466453552,0.9927483735641665,-0.331878662109375,-0.659942626953125,0.0171661376953125,0.7388926806490065
1780332394.512505,0.007812503725290298,-0.17724609375,0.9824218153953552,0.9983134960165554,-0.209808349609375,-0.720977783203125,0.3223419189453125,0.8171492031126558
1780332394.523182,0.0029296875,-0.17822265625,0.9780272841453552,0.9941374486470131,0.156402587890625,-0.171661376953125,0.6275177001953125,0.669109753250348
1780332394.533799,0.009277347475290298,-0.17236328125,0.9760741591453552,0.9912194177127263,-0.026702880859375,0.133514404296875,0.8106231689453125,0.8219787479198474
1780332394.544417,-0.0024414025247097015,-0.166015625,0.9741210341453552,0.9881694881723705,-0.331878662109375,-0.049591064453125,0.6885528564453125,0.7659685085929459
1780332394.555035,0.0205078162252903,-0.17724609375,0.9843749403953552,1.0004152995403075,-0.331878662109375,0.499725341796875,0.6275177001953125,0.8681286354313664
1780332394.563053,0.011230472475290298,-0.15625,0.9697265028953552,0.98229816065677,-0.087738037109375,0.804901123046875,0.5054473876953125,0.9544845953528753
1780332394.571072,0.02099609375,-0.16796875,0.9672850966453552,0.9819851297863607,-0.331878662109375,0.621795654296875,0.2002716064453125,0.7327223201282828
1780332394.579091,0.03125,-0.169921875,0.9741210341453552,0.9893239081655371,-0.331878662109375,0.438690185546875,0.1392364501953125,0.5674322112126277
1780332394.58711,0.0146484375,-0.17724609375,0.9902343153953552,1.0060789004135475,-0.2727508544921875,0.6198883056640625,-0.2307891845703125,0.7154845825312454
1780332394.597764,-0.00048827752470970154,-0.1669921875,0.9755858778953552,0.9897749412112974,-0.026702880859375,0.804901123046875,-0.1659393310546875,0.822261955412743
1780332394.608418,-0.00927734375,-0.1708984375,0.9726561903953552,0.9875993164038757,-0.0896453857421875,0.7419586181640625,-0.3490447998046875,0.8248461423341235
1780332394.619072,0.001953125,-0.17333984375,0.9682616591453552,0.9836570320490045,0.095367431640625,0.621795654296875,-0.2307891845703125,0.6700659896120963
1780332394.627095,0.0039062537252902985,-0.1787109375,0.9877929091453552,1.003836485369076,-0.453948974609375,-0.049591064453125,0.0171661376953125,0.45697223275147847
1780332394.635119,0.01708984375,-0.16845703125,0.9785155653953552,0.9930571714951535,-0.3948211669921875,0.0705718994140625,0.0743865966796875,0.40791851227612586
1780332394.643143,0.0170898474752903,-0.17236328125,0.9819335341453552,0.9970930894802064,-0.209808349609375,-0.049591064453125,0.0743865966796875,0.2280617964609378
1780332394.651167,0.0068359375,-0.19287109375,0.9619140028953552,0.9810833490646912,-0.331878662109375,0.133514404296875,-0.1659393310546875,0.3943417351855308
1780332394.66182,0.0273437537252903,-0.16748046875,0.9638671278953552,0.9786915900924816,-0.637054443359375,0.194549560546875,-0.4138946533203125,0.7842172399023417
1780332394.672473,0.0224609412252903,-0.16748046875,0.9628905653953552,0.9776054634773849,-0.209808349609375,0.255584716796875,-0.6542205810546875,0.7330400123468578
1780332394.683126,0.005859375,-0.16845703125,0.9599608778953552,0.974647110877868,-0.2727508544921875,0.3795623779296875,-0.4711151123046875,0.6636339928060615
1780332394.691111,0.0068359412252902985,-0.16748046875,0.9755858778953552,0.9898809234721145,-0.2727508544921875,0.5588531494140625,-0.7762908935546875,0.9946544237332733
1780332394.699098,0.0034179724752902985,-0.1650390625,0.9707030653953552,0.9846390282000099,0.0934600830078125,0.0705718994140625,-0.5359649658203125,0.5486106312217295
1780332394.707085,0.00537109375,-0.16015625,0.9873046278953552,1.0002246254345668,0.0362396240234375,-0.4177093505859375,-0.7762908935546875,0.8822822469778143
1780332394.715072,0.0014648474752902985,-0.17041015625,0.9799804091453552,0.9946875737838354,-0.1468658447265625,0.0705718994140625,-0.4138946533203125,0.4448131668254628
1780332394.725963,-0.0058593712747097015,-0.1826171875,0.9799804091453552,0.9968675798273524,-0.026702880859375,-0.049591064453125,-0.6542205810546875,0.6566406065690097
1780332394.736854,-0.009765621274709702,-0.1728515625,0.9702147841453552,0.985540337780139,0.0362396240234375,-0.1125335693359375,-0.2307891845703125,0.2593082379938519
1780332394.747745,0.0048828125,-0.169921875,0.9819335341453552,0.9965393875510458,-0.087738037109375,-0.354766845703125,0.1392364501953125,0.3910808957606376
1780332394.755594,-0.0073242150247097015,-0.1533203125,0.9882811903953552,1.0001302283403328,0.156402587890625,-0.537872314453125,0.5054473876953125,0.7544835703195011
1780332394.763443,0.0048828125,-0.1513671875,0.9799804091453552,0.9916135686941099,0.461578369140625,0.194549560546875,1.0547637939453125,1.1676603887198584
1780332394.771292,0.0043945349752902985,-0.16796875,0.9858397841453552,1.0000564448659746,0.095367431640625,0.377655029296875,0.6885528564453125,0.7910899470287509
1780332394.779141,0.02197265625,-0.17431640625,0.9648436903953552,0.9807101274109102,0.217437744140625,0.499725341796875,0.9288787841796875,1.0769495742652493
1780332394.789812,0.02099609375,-0.16357421875,0.9731444716453552,0.9870195153523305,-0.331878662109375,1.232147216796875,0.7457733154296875,1.4780081353736798
1780332394.800483,0.014160159975290298,-0.15576171875,0.9794921278953552,0.9919007267703007,-0.331878662109375,0.804901123046875,0.5054473876953125,1.006720579889795
1780332394.811154,0.0146484375,-0.1787109375,0.9594725966453552,0.9760839306210818,-0.637054443359375,0.926971435546875,0.1392364501953125,1.1333583701489787
1780332394.819283,-0.0053710900247097015,-0.17138671875,0.9711913466453552,0.9862123948576005,-0.8831024169921875,0.0705718994140625,-0.6542205810546875,1.1012968902888471
1780332394.82741,0.007812503725290298,-0.173828125,0.9882811903953552,1.0034824181542663,-1.1882781982421875,0.0705718994140625,-0.7762908935546875,1.4211308950341426
1780332394.835537,0.01025390625,-0.17626953125,0.9858397841453552,1.001526919380722,-0.881195068359375,-0.476837158203125,-0.9021759033203125,1.3482580555946764
1780332394.843664,0.0043945349752902985,-0.17529296875,0.9799804091453552,0.9955443431306992,-0.9441375732421875,-0.4749298095703125,-1.0204315185546875,1.469093109808213
1780332394.854143,0.008789066225290298,-0.1611328125,0.9770507216453552,0.9902874045533357,-1.003265380859375,-0.476837158203125,-1.1425018310546875,1.593494754882316
1780332394.864622,0.013671878725290298,-0.18017578125,0.9799804091453552,0.9964997916335079,-0.698089599609375,-0.354766845703125,-0.9593963623046875,1.2383981524115697
1780332394.875101,0.0004882849752902985,-0.17138671875,0.9804686903953552,0.9953353699289962,-0.453948974609375,0.316619873046875,-0.7190704345703125,0.9074029454604279
1780332394.885778,0.009765625,-0.16845703125,0.9799804091453552,0.9944017000779423,-0.392913818359375,0.499725341796875,-0.7190704345703125,0.959775481956528
1780332394.896454,-0.0078125,-0.15869140625,0.9707030653953552,0.9836200682894752,-0.087738037109375,0.499725341796875,-0.2880096435546875,0.5834148911112124
1780332394.90713,0.0063476599752902985,-0.17626953125,0.9887694716453552,1.0043785683157977,-0.270843505859375,0.988006591796875,-0.2880096435546875,1.0641723473576883
1780332394.91528,0.0009765662252902985,-0.171875,0.9697265028953552,0.9848408296391086,0.156402587890625,0.804901123046875,0.6885528564453125,1.0707159396870882
1780332394.923431,-0.004882805049419403,-0.1689453125,0.9716796278953552,0.986269567444788,0.3986358642578125,0.2536773681640625,0.5054473876953125,0.6919102695575735
1780332394.931582,0.0063476599752902985,-0.1630859375,0.9702147841453552,0.9838465546880947,0.461578369140625,-0.049591064453125,0.3223419189453125,0.5651709274559861
1780332394.939733,0.0058593787252902985,-0.1708984375,0.9716796278953552,0.9866113254599522,0.339508056640625,-0.293731689453125,0.6275177001953125,0.7715714419101416
1780332394.950184,-0.00390625,-0.16845703125,0.9692382216453552,0.9837762756159942,0.339508056640625,-0.659942626953125,0.3223419189453125,0.8091318212152033
1780332394.960635,0.0058593787252902985,-0.17236328125,0.9775390028953552,0.9926358522761296,0.2155303955078125,-0.2918243408203125,0.1392364501953125,0.3885892257203688
1780332394.971086,0.008789066225290298,-0.177734375,0.9790038466453552,0.9950453695626925,0.156402587890625,-1.148223876953125,-0.2307891845703125,1.1815851593595696
1780332394.981768,0.008300784975290298,-0.162109375,0.9677733778953552,0.981291833990828,0.156402587890625,-0.720977783203125,-0.0476837158203125,0.7392864601261201
1780332394.99245,0.013183597475290298,-0.17041015625,0.9765624403953552,0.99140689355404,-0.148773193359375,-0.354766845703125,-0.2307891845703125,0.44861634565307656
1780332395.003132,0.005859375,-0.15478515625,0.9716796278953552,0.983948208056493,0.217437744140625,-0.476837158203125,-0.6542205810546875,0.8382466323795932
1780332395.013786,0.0014648474752902985,-0.16796875,0.9746093153953552,0.9889787482095312,0.034332275390625,-0.354766845703125,-0.5359649658203125,0.6436588106523605
1780332395.024442,0.0166015662252903,-0.166015625,0.9833983778953552,0.9974513368543295,0.156402587890625,-0.354766845703125,-0.6542205810546875,0.7604773849264438
1780332395.035098,0.014160159975290298,-0.16552734375,0.9711913466453552,0.9852981495254495,0.2155303955078125,-0.1125335693359375,-0.9021759033203125,0.9343653012323725
1780332395.045794,0.008300784975290298,-0.17626953125,0.9648436903953552,0.9808482031252486,-0.0896453857421875,-0.0514984130859375,-0.9021759033203125,0.9080802510059655
1780332395.056488,0.00634765625,-0.16845703125,0.9790038466453552,0.9934115943876606,-0.576019287109375,0.194549560546875,-0.7190704345703125,0.9416528237647424
1780332395.067182,0.00146484375,-0.1748046875,0.9907225966453552,1.0060268823659235,-0.392913818359375,0.438690185546875,-0.6542205810546875,0.8802470768076589
1780332395.075189,-0.0029296837747097015,-0.162109375,0.9838866591453552,0.99715645239557,-0.087738037109375,0.621795654296875,-0.0476837158203125,0.6297630789532817
1780332395.083196,0.0048828125,-0.17724609375,0.9760741591453552,0.9920487809371352,-0.331878662109375,0.499725341796875,0.1392364501953125,0.6158373589353799
1780332395.091203,0.012207034975290298,-0.17626953125,0.9809569716453552,0.9967429656484208,-0.3948211669921875,0.2536773681640625,0.6885528564453125,0.8332712626406344
1780332395.09921,0.01025390625,-0.1796875,0.9838866591453552,1.0002128264993617,-0.209808349609375,0.377655029296875,0.5054473876953125,0.664920992635252
1780332395.109841,0.019042976200580597,-0.17333984375,0.9638671278953552,0.979514765897427,-0.331878662109375,0.133514404296875,1.0547637939453125,1.113775652246074
1780332395.120472,0.0229492224752903,-0.154296875,0.9726561903953552,0.9850859135940334,-0.392913818359375,-0.171661376953125,0.5664825439453125,0.7104585628943744
1780332395.131103,0.0175781287252903,-0.171875,0.9819335341453552,0.9970172875701154,-0.2727508544921875,0.4367828369140625,0.3223419189453125,0.6075167388296897
1780332395.141768,0.007812503725290298,-0.17578125,0.9721679091453552,0.9879628164248246,0.095367431640625,0.194549560546875,0.0743865966796875,0.229080431927954
1780332395.152434,0.02001953125,-0.1640625,0.9687499403953552,0.9827480514118173,-0.0896453857421875,0.2536773681640625,-0.2307891845703125,0.35447447019234074
1780332395.1631,0.010253909975290298,-0.16162109375,0.9804686903953552,0.9937531753208694,0.156402587890625,0.316619873046875,-0.5931854248046875,0.6903469140278832
1780332395.171103,0.00732421875,-0.17822265625,0.9794921278953552,0.9956012193594755,-0.331878662109375,0.133514404296875,-1.1425018310546875,1.1971967158665162
1780332395.179107,0.0009765625,-0.17333984375,0.9731444716453552,0.9884623502185141,0.278472900390625,0.438690185546875,-1.0204315185546875,1.1451099157753128
1780332395.187111,0.0063476599752902985,-0.17041015625,0.9902343153953552,1.004810386852574,-0.087738037109375,0.499725341796875,-0.5359649658203125,0.7380256262329773
1780332395.195115,0.010742191225290298,-0.162109375,0.9843749403953552,0.9976917697433263,-0.148773193359375,-0.049591064453125,-0.5359649658203125,0.5584363717763275
1780332395.203149,0.0034179724752902985,-0.17822265625,0.9687499403953552,0.9850134236408414,0.156402587890625,0.072479248046875,-0.5359649658203125,0.5630039568982564
1780332395.211183,0.0043945349752902985,-0.17919921875,0.9809569716453552,0.9972002066575626,0.0934600830078125,0.0705718994140625,-0.3490447998046875,0.36816769599386384
1780332395.219217,0.0043945349752902985,-0.16748046875,0.9677733778953552,0.9821681782227292,0.156402587890625,0.499725341796875,0.4405975341796875,0.684334255943767
1780332395.227251,0.0,-0.16552734375,0.9902343153953552,1.00397375509295,-0.2727508544921875,-0.2346038818359375,-0.0476837158203125,0.362912863857347
1780332395.237882,0.0190429724752903,-0.17431640625,0.9775390028953552,0.9931421582383133,-0.5168914794921875,-0.1125335693359375,-0.2880096435546875,0.6023206459848499
1780332395.248513,0.0073242224752902985,-0.1630859375,0.9838866591453552,0.9973382702420126,-0.209808349609375,-0.293731689453125,-0.1049041748046875,0.37590256030818575
1780332395.259144,0.008789066225290298,-0.1708984375,0.9726561903953552,0.9875948503001925,-0.148773193359375,0.255584716796875,-0.3490447998046875,0.4574814562287516
1780332395.269782,0.009765625,-0.17333984375,0.9804686903953552,0.9957213072484178,-0.148773193359375,0.194549560546875,-0.4711151123046875,0.5309731100660244
1780332395.28042,0.0170898474752903,-0.1669921875,0.9790038466453552,0.993290987233432,-0.148773193359375,0.133514404296875,-0.7190704345703125,0.7463389639367849
1780332395.291058,0.01025390625,-0.16015625,0.9877929091453552,1.0007447218773078,-0.026702880859375,0.560760498046875,-0.5359649658203125,0.7761596643750164
1780332395.301762,0.013671878725290298,-0.1796875,0.9731444716453552,0.9896891838441232,0.0934600830078125,0.5588531494140625,0.3223419189453125,0.6518864490347916
1780332395.312468,0.01171875,-0.16845703125,0.9741210341453552,0.9886490224764005,-0.087738037109375,0.194549560546875,0.4405975341796875,0.4895647881435195
1780332395.323174,0.01025390625,-0.169921875,0.9619140028953552,0.9768608576266452,-0.209808349609375,0.316619873046875,0.2574920654296875,0.4588789070476823
1780332395.331178,0.0048828125,-0.158203125,0.9746093153953552,0.9873780371636178,-0.392913818359375,0.011444091796875,-0.1049041748046875,0.40683795519377447
1780332395.339182,0.0107421875,-0.16796875,0.9653319716453552,0.979895255141873,-0.331878662109375,-0.293731689453125,-0.2880096435546875,0.5285558688852049
1780332395.347186,0.0185546912252903,-0.15185546875,0.9736327528953552,0.9855785597639266,-0.514984130859375,-0.171661376953125,-0.5359649658203125,0.7628464642122932
1780332395.35519,0.008789066225290298,-0.1650390625,0.9677733778953552,0.9817843198987125,-0.331878662109375,-0.476837158203125,-0.7762908935546875,0.9696105781305585
1780332395.365826,0.013671878725290298,-0.16796875,0.9995116591453552,1.0136192470607206,-0.087738037109375,-0.354766845703125,-0.8373260498046875,0.9136040672235829
1780332395.376462,0.0009765625,-0.16064453125,0.9707030653953552,0.9839065302470494,0.156402587890625,-0.659942626953125,-0.7762908935546875,1.0308315050407664
1780332395.387098,0.0034179724752902985,-0.15380859375,0.9731444716453552,0.9852303937359586,-0.026702880859375,-1.148223876953125,-0.0476837158203125,1.1495237501704292
1780332395.39533,0.009277347475290298,-0.14990234375,0.9677733778953552,0.9793580003251653,0.095367431640625,-0.537872314453125,0.0743865966796875,0.5513029470613023
1780332395.403562,0.007812503725290298,-0.18017578125,0.9780272841453552,0.9945158198320653,-0.1468658447265625,0.0705718994140625,0.2574920654296875,0.3047164798520123
1780332395.411794,0.0068359412252902985,-0.1806640625,0.9731444716453552,0.9897961387403758,-0.026702880859375,0.926971435546875,0.7457733154296875,1.190028119068206
1780332395.420026,0.0048828125,-0.18017578125,1.0009765625,1.0170748412389692,0.2155303955078125,1.2912750244140625,0.6885528564453125,1.4791719224560378
1780332395.430529,0.003906257450580597,-0.18798828125,0.9692382216453552,0.9873082512735574,0.0934600830078125,1.4133453369140625,0.8106231689453125,1.6319895068668464
1780332395.441032,0.0019531287252902985,-0.16162109375,0.9677733778953552,0.9811781202308528,-0.392913818359375,0.865936279296875,0.7457733154296875,1.20847207103319
1780332395.451535,0.013671878725290298,-0.17138671875,0.9604491591453552,0.9757166161005922,-0.7610321044921875,0.6198883056640625,0.8716583251953125,1.3127145963419342
1780332395.462118,0.0234375037252903,-0.16943359375,0.9755858778953552,0.9904669931001052,-1.308441162109375,0.499725341796875,0.5664825439453125,1.5108428655988313
1780332395.472702,0.00732421875,-0.17333984375,0.9824218153953552,0.9976236609946045,-1.2493133544921875,0.2536773681640625,0.1392364501953125,1.282389509429237
1780332395.483286,0.0107421875,-0.1787109375,0.9785155653953552,0.9947591193326181,-1.186370849609375,0.194549560546875,0.0743865966796875,1.2045159567550108
1780332395.491393,0.0107421875,-0.1787109375,0.9707030653953552,0.9870751921420948,-0.7610321044921875,0.3795623779296875,-0.0476837158203125,0.8517694521182825
1780332395.499499,0.0019531287252902985,-0.1875,0.9858397841453552,1.0035138986160472,-0.698089599609375,0.682830810546875,-0.2307891845703125,1.0034194798933842
1780332395.507605,0.0048828125,-0.1806640625,0.9731444716453552,0.989784576577566,-0.087738037109375,0.682830810546875,-0.1049041748046875,0.6963912441145141
1780332395.515711,0.01123046875,-0.1630859375,0.9697265028953552,0.9834086825202705,0.0934600830078125,0.9250640869140625,-0.2880096435546875,0.9733590841999028
1780332395.526185,0.013671878725290298,-0.16455078125,0.9829100966453552,0.9966825662994442,-0.087738037109375,0.621795654296875,-0.4711151123046875,0.7850332782119133
1780332395.536659,-0.0073242150247097015,-0.16650390625,0.9746093153953552,0.9887570543756641,-0.331878662109375,1.049041748046875,-0.1659393310546875,1.1127299299918327
1780332395.547133,0.0053710974752902985,-0.1767578125,0.9956054091453552,1.0111885599072827,0.0934600830078125,0.0705718994140625,-0.6542205810546875,0.6646200032938135
1780332395.55787,0.00732421875,-0.1591796875,0.9570311903953552,0.9702064298294699,0.400543212890625,0.011444091796875,-0.2880096435546875,0.49347278284652946
1780332395.568606,0.00732421875,-0.1689453125,0.9877929091453552,1.0021631574518515,0.522613525390625,-0.720977783203125,-0.2880096435546875,0.935886433053823
1780332395.579342,0.01513671875,-0.15576171875,0.9785155653953552,0.9909508287515897,0.827789306640625,-0.965118408203125,0.2574920654296875,1.2973013689194763
1780332395.589925,0.008789066225290298,-0.1708984375,0.9760741591453552,0.9909612947922669,0.2765655517578125,-0.9059906005859375,0.1392364501953125,0.9574415187530583
1780332395.600509,0.0219726599752903,-0.1513671875,0.9804686903953552,0.9923274036746303,-0.026702880859375,-0.965118408203125,0.0171661376953125,0.9656403377977217
1780332395.611093,0.008300784975290298,-0.1748046875,0.9838866591453552,0.9993290448332757,-0.0896453857421875,-1.2111663818359375,-0.3490447998046875,1.2636425807739766
1780332395.621843,0.0244140625,-0.16748046875,0.9804686903953552,0.9949696511482431,-0.1468658447265625,-0.6008148193359375,-0.2307891845703125,0.6601603374904855
1780332395.632596,0.02490234375,-0.16943359375,0.9785155653953552,0.9933884341667538,-0.209808349609375,-0.171661376953125,-0.7190704345703125,0.7684721607035552
1780332395.643349,0.0014648474752902985,-0.16650390625,0.9794921278953552,0.9935444253699004,0.4596710205078125,-0.1125335693359375,-0.5931854248046875,0.7588347643083424
1780332395.651301,-0.00390625,-0.1689453125,0.9677733778953552,0.9824169625814546,0.278472900390625,0.133514404296875,0.4405975341796875,0.5380515212616142
1780332395.659253,-0.0019531212747097015,-0.1611328125,0.9775390028953552,0.9907321031078579,0.278472900390625,0.499725341796875,0.0743865966796875,0.5768933517137782
1780332395.667205,0.0029296912252902985,-0.16943359375,0.9633788466453552,0.9781692736666033,-0.209808349609375,0.865936279296875,0.9937286376953125,1.3346766607475036
1780332395.675157,-0.004882805049419403,-0.16455078125,0.9755858778953552,0.9893778886471978,-0.392913818359375,0.682830810546875,0.9937286376953125,1.2681229395707767
1780332395.684754,0.00146484375,-0.16455078125,0.9746093153953552,0.988403977649119,-0.514984130859375,0.804901123046875,0.7457733154296875,1.2121271843029076
1780332395.694354,0.009765625,-0.15869140625,0.9790038466453552,0.9918300568119749,-0.514984130859375,0.926971435546875,1.1157989501953125,1.539315430512467
1780332395.703954,0.013183597475290298,-0.16259765625,0.9809569716453552,0.9944286727966013,-0.2727508544921875,0.2536773681640625,0.8106231689453125,0.892107144784641
1780332395.713554,0.0180664099752903,-0.17431640625,0.9902343153953552,1.0056224957924411,-0.453948974609375,0.011444091796875,0.5664825439453125,0.726018671509701
1780332395.723154,0.0185546912252903,-0.16748046875,0.9536132216453552,0.9683863694187455,0.1583099365234375,-0.1125335693359375,0.0171661376953125,0.1949885035403767
1780332395.732813,0.0234375037252903,-0.16162109375,0.9702147841453552,0.9838635179231099,-0.2727508544921875,-0.2346038818359375,0.0171661376953125,0.36017591019123335
1780332395.742472,0.01708984375,-0.16943359375,0.9946288466453552,1.0091017530603685,-0.9441375732421875,-0.3566741943359375,-1.0204315185546875,1.4352326369521642
1780332395.752131,0.0229492224752903,-0.18603515625,0.9750975966453552,0.9929506881797958,-0.576019287109375,-0.171661376953125,-1.2645721435546875,1.4001459044377955
1780332395.76179,0.0043945349752902985,-0.1708984375,0.9594725966453552,0.9745836298599372,-0.331878662109375,0.011444091796875,-1.5697479248046875,1.6044883798361353
