timestamp,accel_x,accel_y,accel_z,accel_rms,gyro_x,gyro_y,gyro_z,gyro_rms
1780399363.249768,-0.1166992112994194,0.0205078125,0.9780272841453552,0.9851784837399673,-0.0095367431640625,-0.0667572021484375,-0.0133514404296875,0.06874397770286599
1780399363.257767,-0.11328125,0.0258789025247097,0.9907225966453552,0.9975137205578484,-0.2536773681640625,-0.0057220458984375,0.1087188720703125,0.27605206406065885
1780399363.265766,-0.10986328125,0.009765621274709702,0.9887694716453552,0.994902194179776,-0.6160736083984375,-0.0667572021484375,-0.1964569091796875,0.650075789557029
1780399363.273765,-0.1059570237994194,0.01904296875,0.9726561903953552,0.9785957236089118,-0.4329681396484375,-0.3719329833984375,0.0476837158203125,0.572773332868006
1780399363.284385,-0.1142578125,0.0014648400247097015,0.9736327528953552,0.9803151182064729,-0.7419586181640625,-0.0057220458984375,0.1087188720703125,0.7499034111280132
1780399363.295007,-0.11474609375,0.0219726525247097,0.9946288466453552,1.0014669270969088,-0.5588531494140625,-0.2460479736328125,-0.2574920654296875,0.6626904342889492
1780399363.305628,-0.12255859375,0.0200195275247097,0.9863280653953552,0.9941149043097756,-0.98419189453125,-0.003814697265625,0.0476837158203125,0.9853537303581247
1780399363.316218,-0.1020507737994194,0.02197265625,0.9809569716453552,0.986495685887864,-0.7419586181640625,-0.0057220458984375,-0.0133514404296875,0.7421007976270719
1780399363.32681,-0.1074218675494194,0.017578125,0.9858397841453552,0.9918308969325775,-0.80108642578125,0.057220458984375,-0.3795623779296875,0.8883024491900265
1780399363.337402,-0.1157226487994194,0.01904296875,0.9790038466453552,0.9860034978895204,-0.6160736083984375,-0.0667572021484375,-0.3185272216796875,0.6967516099405436
1780399363.345455,-0.1152343675494194,0.0185546875,0.9858397841453552,0.9927251965657454,-0.49591064453125,-0.125885009765625,-0.6237030029296875,0.8067092654151191
1780399363.353506,-0.1118163987994194,0.013671875,0.9863280653953552,0.9927400867261433,-0.31280517578125,0.118255615234375,-0.4405975341796875,0.553134392037975
1780399363.361557,-0.1123046800494194,0.02685546875,0.9819335341453552,0.9886996626084041,-0.4329681396484375,0.1163482666015625,-0.5016326904296875,0.672780562441829
1780399363.369608,-0.10986328125,0.0219726525247097,0.9941405653953552,1.0004340067143784,-0.19073486328125,0.057220458984375,-0.8068084716796875,0.831019782539148
1780399363.380284,-0.0986328125,0.009765621274709702,0.9804686903953552,0.9854657030592816,-0.2536773681640625,0.6656646728515625,-0.9899139404296875,1.2195865173321054
1780399363.39096,-0.11767578125,0.0253906212747097,0.9946288466453552,1.001887626293779,-0.0095367431640625,0.6046295166015625,-1.1730194091796875,1.3197129749033611
1780399363.401636,-0.1025390550494194,0.00537109375,0.9882811903953552,0.9936009348565245,-0.12969970703125,0.301361083984375,-1.1119842529296875,1.159374614051828
1780399363.409781,-0.1157226487994194,0.0263671875,0.9882811903953552,0.9953826758142188,-0.2536773681640625,-0.2460479736328125,-1.0509490966796875,1.1087767206517773
1780399363.417928,-0.1015624925494194,0.02099609375,0.9853515028953552,0.9907943076662001,-0.43487548828125,-0.614166259765625,-0.9899139404296875,1.2434816019545218
1780399363.426075,-0.1206054612994194,0.01171875,0.9887694716453552,0.9961666900949073,-0.43487548828125,-0.919342041015625,-1.1730194091796875,1.5525079751804478
1780399363.434222,-0.10791015625,0.0048828087747097015,0.9902343153953552,0.9961086502133879,-0.37384033203125,-0.980377197265625,-1.1730194091796875,1.5738076683902327
1780399363.444758,-0.11767578125,0.0053710900247097015,0.9794921278953552,0.9865501845875972,-0.67901611328125,-1.102447509765625,-0.9899139404296875,1.6298414043522866
1780399363.455296,-0.115234375,0.011230465024709702,0.9892577528953552,0.9960100331773167,-0.7419586181640625,-1.2226104736328125,-1.0509490966796875,1.774759973944766
1780399363.465833,-0.1025390550494194,0.00244140625,0.9653319716453552,0.9707656945708446,-0.43487548828125,-0.980377197265625,-0.6847381591796875,1.272447439332189
1780399363.476501,-0.1020507737994194,0.02197265625,0.9750975966453552,0.9806694045596043,-0.37384033203125,-0.431060791015625,-0.7457733154296875,0.9390142903125808
1780399363.48717,-0.09765625,0.0200195275247097,0.9912108778953552,0.9962110866199271,-0.06866455078125,-0.125885009765625,-1.0509490966796875,1.0606865041234066
1780399363.497838,-0.1064453050494194,0.005859375,0.9838866591453552,0.9896453371216696,-0.0705718994140625,-0.0057220458984375,-0.6847381591796875,0.68838904801933
1780399363.505793,-0.1088867112994194,0.00341796875,0.9907225966453552,0.9966941666889068,0.05340576171875,0.179290771484375,-0.5626678466796875,0.59295232676108
1780399363.513748,-0.1166992038488388,0.0048828087747097015,0.9892577528953552,0.996129232411162,0.2346038818359375,0.4825592041015625,-0.5016326904296875,0.7345323157924032
1780399363.521705,-0.1127929612994194,0.0029296875,0.9736327528953552,0.9801487502915707,0.2956390380859375,0.2994537353515625,-0.5626678466796875,0.7026165996783298
1780399363.529661,-0.0971679612994194,0.02197265625,0.9833983778953552,0.9884314745964851,0.2956390380859375,-0.0667572021484375,-0.6237030029296875,0.6934438699293372
1780399363.540347,-0.1079101487994194,0.017578125,0.9829100966453552,0.9889721172913876,0.11444091796875,-0.308990478515625,-0.1354217529296875,0.35624554830256394
1780399363.551033,-0.1093749925494194,0.00830078125,0.9873046278953552,0.9933791925685437,-0.06866455078125,0.057220458984375,-0.4405975341796875,0.44957222844120864
1780399363.561718,-0.1103515625,0.0190429724752903,0.9746093153953552,0.9810216204560881,-0.06866455078125,-0.125885009765625,-0.2574920654296875,0.29472702620718183
1780399363.56967,-0.1132812425494194,-0.0009765625,0.9936522841453552,1.0000892237071344,0.2346038818359375,-0.3719329833984375,-0.1964569091796875,0.4816310233743139
1780399363.577621,-0.1025390550494194,0.0166015625,0.9902343153953552,0.9956675494734059,0.4177093505859375,-0.2460479736328125,-0.3185272216796875,0.580069218151351
1780399363.585572,-0.1005859375,-0.0029296912252902985,0.9868163466453552,0.9919337759749465,0.84686279296875,-0.125885009765625,0.0476837158203125,0.8574948177994756
1780399363.593523,-0.1035156175494194,0.013671875,0.9858397841453552,0.9913538637875043,1.09100341796875,-0.431060791015625,-0.1964569091796875,1.1894104340953746
1780399363.604218,-0.109375,0.0195312462747097,0.9829100966453552,0.9891696610255618,0.84686279296875,-0.125885009765625,0.0476837158203125,0.8574948177994756
1780399363.614913,-0.115234375,0.0073242150247097015,0.9868163466453552,0.9935487443069185,0.7839202880859375,-0.1888275146484375,-0.0133514404296875,0.806452174231425
1780399363.625608,-0.1030273362994194,0.0068359375,0.9814452528953552,0.9868617666610078,0.7228851318359375,-0.2460479736328125,0.1087188720703125,0.7713120719284218
1780399363.63621,-0.1064452975988388,0.0205078087747097,0.9819335341453552,0.9878991026824717,0.54168701171875,-0.675201416015625,0.2307891845703125,0.8958713180858756
1780399363.646813,-0.11474609375,0.011718746274709702,0.9907225966453552,0.9974142863167993,0.78582763671875,-0.431060791015625,0.5359649658203125,1.044316486879701
1780399363.657416,-0.10498046875,0.0209960900247097,0.9843749403953552,0.9901796594020978,1.15203857421875,-0.614166259765625,0.7190704345703125,1.490454749730969
1780399363.668205,-0.1035156175494194,0.02783203125,0.9741210341453552,0.9800009664304188,1.2149810791015625,-0.5550384521484375,0.5359649658203125,1.439272437909133
1780399363.678994,-0.1069335862994194,0.01171875,0.9829100966453552,0.9887792367701698,0.48065185546875,-0.125885009765625,0.1697540283203125,0.5250615887495648
1780399363.689783,-0.1069335862994194,0.02783203125,0.9736327528953552,0.9798827232648528,-0.00762939453125,0.362396240234375,-0.0743865966796875,0.3700305505799633
1780399363.700446,-0.103515625,0.0258789025247097,0.9721679091453552,0.9780059538607501,-0.37384033203125,0.240325927734375,-0.0743865966796875,0.4506068254700652
1780399363.71111,-0.1044921875,0.0302734337747097,0.9833983778953552,0.9893975276339955,-1.28936767578125,0.301361083984375,-0.4405975341796875,1.3954976508095602
1780399363.721772,-0.1083984375,0.0195312462747097,0.9809569716453552,0.9871212038311764,-2.02178955078125,0.240325927734375,-0.5626678466796875,2.112341034226432
1780399363.729678,-0.103515625,0.015624996274709702,0.9868163466453552,0.9923538316216707,-2.3288726806640625,-0.0667572021484375,-0.7457733154296875,2.4462792818460226
1780399363.737585,-0.1074218675494194,0.0234375,0.9829100966453552,0.9890404603055613,-2.08282470703125,-0.186920166015625,-0.8678436279296875,2.2641224505801985
1780399363.745492,-0.1108398288488388,-0.0043945349752902985,0.9892577528953552,0.9954575235842344,-1.83868408203125,-0.247955322265625,-0.5626678466796875,1.938771802209354
1780399363.753398,-0.109375,0.011230465024709702,0.9916991591453552,0.9977756442303429,-1.41143798828125,0.057220458984375,-0.9288787841796875,1.6906351384580114
1780399363.764148,-0.1064453050494194,0.0029296875,0.9951171278953552,1.0007983234731224,-1.3523101806640625,0.2994537353515625,-0.8068084716796875,1.602920857159762
1780399363.774899,-0.1059570237994194,0.0029296875,0.9902343153953552,0.9958912959494054,-0.67901611328125,0.057220458984375,-0.6847381591796875,0.9660245388491666
1780399363.785649,-0.11767578125,0.0053710900247097015,0.9916991591453552,0.9986709469842686,-0.12969970703125,0.484466552734375,-0.5016326904296875,0.7093413922999614
1780399363.796326,-0.123046875,0.014648433774709702,0.9965819716453552,1.0042563100463253,-0.49591064453125,0.240325927734375,-0.5016326904296875,0.7451974738339594
1780399363.807003,-0.1079101487994194,0.00830078125,0.9819335341453552,0.9878800375867814,0.35858154296875,0.118255615234375,-0.4405975341796875,0.580251066881855
1780399363.81768,-0.1123046800494194,0.0068359375,0.9941405653953552,1.0004871488265619,0.48065185546875,-0.614166259765625,-0.4405975341796875,0.8957413621828961
1780399363.825672,-0.1215820237994194,0.017578125,0.9848632216453552,0.9924952112425259,0.7228851318359375,-0.6160736083984375,-0.5016326904296875,1.0741252072743934
1780399363.833663,-0.115234375,0.0039062537252902985,0.9809569716453552,0.9877098765424153,0.66375732421875,-0.797271728515625,-0.5626678466796875,1.1801741821576524
1780399363.841654,-0.1059570163488388,0.0205078087747097,0.9804686903953552,0.9863905475925198,0.84686279296875,-0.736236572265625,-0.3795623779296875,1.1846047776351012
1780399363.849645,-0.1044921800494194,0.013671875,0.9726561903953552,0.9783484044919281,0.2346038818359375,-0.9174346923828125,-0.6847381591796875,1.1685853596536384
1780399363.860306,-0.1166992112994194,0.02294921875,0.9921874403953552,0.9992903929476298,0.2956390380859375,-0.1888275146484375,-0.3795623779296875,0.516842209836158
1780399363.870966,-0.1206054612994194,0.0166015625,0.9956054091453552,1.0030211462836551,0.4177093505859375,-0.5550384521484375,-0.1354217529296875,0.7077342976688414
1780399363.881628,-0.1079101487994194,0.00927734375,0.9892577528953552,0.9951691167759057,0.4787445068359375,-0.5550384521484375,-0.0133514404296875,0.7331045267562231
1780399363.892326,-0.1074218675494194,0.00634765625,0.9965819716453552,1.0023748682884146,-0.0705718994140625,-0.7343292236328125,0.2307891845703125,0.7729705359085218
1780399363.903024,-0.0932617112994194,0.00927734375,0.9814452528953552,0.9859100366323388,-0.19073486328125,-1.102447509765625,0.4749298095703125,1.2154540813530712
1780399363.913722,-0.1064452975988388,0.015136715024709702,0.9882811903953552,0.9941123843972094,-0.12969970703125,-0.370025634765625,0.3528594970703125,0.5274948426860775
1780399363.9217,-0.0966796800494194,0.01220703125,0.9829100966453552,0.9877288242396179,-0.06866455078125,0.057220458984375,0.2918243408203125,0.3052055821173383
1780399363.92968,-0.1015624925494194,0.02197265625,0.9873046278953552,0.9927578585834097,0.1125335693359375,0.2994537353515625,0.1087188720703125,0.3378700001298293
1780399363.93766,-0.1044921875,0.010742183774709702,0.9848632216453552,0.990449179468817,-0.00762939453125,0.545501708984375,-0.1964569091796875,0.5798496695956834
1780399363.94564,-0.1215820237994194,0.015625,0.9882811903953552,0.995854427326315,-0.00762939453125,0.240325927734375,-0.0743865966796875,0.25169053412452363
1780399363.956282,-0.099609375,0.014648433774709702,0.9882811903953552,0.9933963536721901,-0.31280517578125,0.118255615234375,-0.1964569091796875,0.3878489212237611
1780399363.966923,-0.1118163987994194,-0.0009765625,0.9775390028953552,0.983913798509012,0.0553131103515625,-0.3719329833984375,-0.1964569091796875,0.42425110663481186
1780399363.977566,-0.1079101487994194,0.01220703125,0.9956054091453552,1.001510730119923,-0.00762939453125,-0.308990478515625,-0.1354217529296875,0.3374498105508102
1780399363.988288,-0.107421875,0.014648433774709702,0.9785155653953552,0.9845032999241594,-0.00762939453125,-0.247955322265625,0.0476837158203125,0.25261390748570384
1780399363.999012,-0.1157226413488388,0.0195312462747097,0.9843749403953552,0.99134616687621,-0.06866455078125,-0.431060791015625,-0.1354217529296875,0.4570199965554642
1780399364.009735,-0.103515625,0.0058593712747097015,0.9809569716453552,0.9864210039686411,-0.19073486328125,0.179290771484375,0.1697540283203125,0.3119958316089383
1780399364.017727,-0.1015624850988388,0.009765621274709702,0.9853515028953552,0.990619952351288,-0.37384033203125,0.545501708984375,-0.0133514404296875,0.6614430960556293
1780399364.025722,-0.1127929612994194,0.0166015625,0.9824218153953552,0.9890149075523782,-0.4329681396484375,0.4215240478515625,0.1087188720703125,0.6139737176883358
1780399364.033715,-0.11767578125,0.009765621274709702,0.9946288466453552,1.0016134481079757,-0.37384033203125,0.667572021484375,-0.3185272216796875,0.828775354769283
1780399364.04171,-0.1113281175494194,0.01904296875,0.9843749403953552,0.9908332895569617,-0.61798095703125,0.240325927734375,-0.1964569091796875,0.6915579021015403
1780399364.052459,-0.1083984300494194,0.01220703125,0.9848632216453552,0.9908858645670476,-0.5588531494140625,0.2422332763671875,-0.2574920654296875,0.6612835749879511
1780399364.063208,-0.1176757737994194,0.02783203125,0.9819335341453552,0.9893511384649945,-0.49591064453125,0.057220458984375,-0.2574920654296875,0.5616971711207284
1780399364.073956,-0.1108398362994194,0.00146484375,0.9853515028953552,0.9915670422801623,-0.3757476806640625,-0.0667572021484375,-0.6847381591796875,0.783906365709513
1780399364.081861,-0.11474609375,0.0043945349752902985,0.9843749403953552,0.9910499489162451,-0.2536773681640625,0.0591278076171875,-0.5626678466796875,0.6200350074305617
1780399364.089767,-0.1181640625,0.009765621274709702,0.9833983778953552,0.9905203090662003,0.05340576171875,0.057220458984375,-0.6237030029296875,0.6285950939791467
1780399364.097673,-0.1142578050494194,0.00390625,0.9809569716453552,0.9875964180895959,0.11444091796875,-0.125885009765625,-0.6237030029296875,0.6464899034422203
1780399364.105578,-0.1240234300494194,0.01708984375,0.9921874403953552,1.0000548939127838,0.2346038818359375,-0.0057220458984375,-0.8068084716796875,0.840244984011132
1780399364.116309,-0.11328125,0.010253902524709702,0.9814452528953552,0.9880144576621217,0.41961669921875,-0.431060791015625,-0.8068084716796875,1.0063952949951467
1780399364.127041,-0.1123046800494194,0.0166015625,0.9809569716453552,0.9875041940458127,0.35858154296875,-0.247955322265625,-0.6237030029296875,0.7609651770358544
1780399364.137772,-0.10546875,0.008789066225290298,0.9824218153953552,0.9881060308875664,0.48065185546875,-0.675201416015625,-0.6847381591796875,1.0750765112269194
1780399364.148403,-0.1088867112994194,0.013671875,0.9863280653953552,0.9924143734600799,0.66375732421875,-0.858306884765625,-0.4405975341796875,1.1710639098765394
1780399364.159033,-0.1044921800494194,0.013671875,0.9765624403953552,0.9822320173199546,0.4177093505859375,-1.0433197021484375,-0.5016326904296875,1.2307040499509851
1780399364.169662,-0.0927734300494194,0.01806640625,0.9868163466453552,0.9913323390086749,0.41961669921875,-1.102447509765625,-0.3795623779296875,1.2391675773644604
1780399364.180253,-0.1025390550494194,0.013671875,0.9775390028953552,0.9829972940746524,0.4177093505859375,-0.5550384521484375,-0.4405975341796875,0.8226025602047928
1780399364.190846,-0.1083984300494194,0.0078125,0.9824218153953552,0.9884148310087897,0.2346038818359375,-0.4940032958984375,-0.1354217529296875,0.5633979844635221
1780399364.201438,-0.1040038987994194,0.01708984375,0.9912108778953552,0.9967988152997375,0.4177093505859375,-0.7343292236328125,-0.1354217529296875,0.8556047927721326
1780399364.20952,-0.0961913987994194,0.01708984375,0.9863280653953552,0.991154831773993,0.4177093505859375,-0.0057220458984375,0.1697540283203125,0.4509215824366393
1780399364.217601,-0.1035156175494194,0.01220703125,0.9907225966453552,0.996190623421186,0.35858154296875,0.057220458984375,-0.1354217529296875,0.3875486486246357
1780399364.225682,-0.1215820237994194,0.00634765625,0.9829100966453552,0.9904214957978307,0.11444091796875,0.057220458984375,0.3528594970703125,0.37534081753071646
1780399364.233763,-0.1059570163488388,0.010253902524709702,0.9873046278953552,0.9930269181115485,0.48065185546875,0.179290771484375,0.5970001220703125,0.7871343803042671
1780399364.241739,-0.1166992112994194,0.01611328125,0.9926757216453552,0.9996416518406358,0.48065185546875,0.179290771484375,0.5970001220703125,0.7871343803042671
1780399364.249715,-0.10888671875,0.0014648400247097015,0.9814452528953552,0.9874680995896866,0.2346038818359375,0.1163482666015625,0.9632110595703125,0.9981740558601204
1780399364.257691,-0.115234375,0.0029296837747097015,0.9902343153953552,0.9969210317849495,0.41961669921875,0.057220458984375,0.9021759033203125,0.9966311833980729
1780399364.276576,-0.115234375,0.0019531212747097015,0.9970702528953552,1.0037090539958091,0.2956390380859375,0.4215240478515625,0.6580352783203125,0.8355210298200972
1780399364.287485,-0.1044921875,0.011718746274709702,0.9848632216453552,0.990460252414227,0.2346038818359375,0.4825592041015625,1.0242462158203125,1.1562796709524275
1780399364.298393,-0.1113281175494194,0.0068359375,0.9985350966453552,1.0047452508129362,0.2956390380859375,0.6046295166015625,0.8411407470703125,1.077263686182831
1780399364.306213,-0.1064452975988388,0.010253902524709702,0.9643554091453552,0.9702665092879363,0.05340576171875,0.667572021484375,1.0852813720703125,1.2752804537890146
1780399364.314031,-0.10009765625,0.0219726525247097,0.9804686903953552,0.9858099163080567,0.2346038818359375,0.7877349853515625,0.7801055908203125,1.133194652894385
1780399364.321849,-0.1044921875,0.0205078087747097,0.9902343153953552,0.9959433652852873,0.35858154296875,0.606536865234375,1.0852813720703125,1.2939487425740681
1780399364.329667,-0.1123046800494194,0.01123046875,0.9731444716453552,0.9796676106125305,0.2956390380859375,0.2994537353515625,0.8411407470703125,0.9405279032747436
1780399364.340408,-0.1279296875,0.014648433774709702,0.9794921278953552,0.9879197387262139,0.11444091796875,0.179290771484375,0.5359649658203125,0.5766284323823803
1780399364.351149,-0.1201171875,0.0063476525247097015,0.9907225966453552,0.9979978431485711,0.48065185546875,-0.003814697265625,0.7801055908203125,0.9162998913619326
1780399364.36189,-0.1015624850988388,0.015136715024709702,1.00146484375,1.00671539761166,1.02996826171875,-0.308990478515625,0.6580352783203125,1.2606824197534245
1780399364.372395,-0.1025390550494194,-0.0029296875,0.9814452528953552,0.9867915814953547,1.02996826171875,-0.370025634765625,0.6580352783203125,1.2770137109858055
1780399364.3829,-0.1083984300494194,0.013671875,0.9858397841453552,0.9918756070228539,1.02996826171875,-0.247955322265625,0.4138946533203125,1.1373764750666049
1780399364.393405,-0.1118163987994194,0.02197265625,0.9765624403953552,0.9831886414387033,0.90789794921875,0.545501708984375,-0.0133514404296875,1.0592587321622764
1780399364.401469,-0.1123046800494194,0.01171875,0.9824218153953552,0.9888894243682002,-0.00762939453125,0.728607177734375,-0.0743865966796875,0.7324342925290644
1780399364.409532,-0.1040038987994194,0.02734375,0.9868163466453552,0.9926585483619371,-0.55694580078125,0.850677490234375,-0.1964569091796875,1.0355849238781718
1780399364.417595,-0.1137695237994194,0.01904296875,0.9731444716453552,0.9799572959564502,-0.98419189453125,0.301361083984375,-0.6237030029296875,1.2035188507309549
1780399364.425658,-0.1162109225988388,0.010253902524709702,0.9716796278953552,0.9786579690142596,-1.0471343994140625,0.1163482666015625,-0.0743865966796875,1.0562010866037888
1780399364.436339,-0.1196288987994194,0.0185546875,0.9843749403953552,0.9917909926665716,-1.35040283203125,-0.247955322265625,-0.5016326904296875,1.4617472444665653
1780399364.44702,-0.12451171875,0.0068359337747097015,0.9648436903953552,0.9728685651167784,-1.28936767578125,-0.858306884765625,-0.3795623779296875,1.5947499209986666
1780399364.4577,-0.1215820237994194,0.00146484375,0.9790038466453552,0.9865256540124928,-1.10626220703125,-0.736236572265625,-0.5626678466796875,1.4430715390216264
1780399364.468271,-0.10498046875,0.012695308774709702,0.9785155653953552,0.9842127724251737,-1.5354156494140625,-1.0433197021484375,-0.4405975341796875,1.9079159846497258
1780399364.478841,-0.126953125,0.00537109375,0.9824218153953552,0.990605152399301,-1.28936767578125,-0.858306884765625,-0.5016326904296875,1.6281262444581321
1780399364.489411,-0.1025390625,0.010253902524709702,0.9848632216453552,0.9902398533714108,-0.86212158203125,-0.736236572265625,-0.5626678466796875,1.2656591240269468
1780399364.497571,-0.1157226413488388,0.015136715024709702,0.9780272841453552,0.9849661001248878,-0.86212158203125,-0.431060791015625,-0.8068084716796875,1.2569832686751223
1780399364.505735,-0.0976562425494194,-0.00537109375,0.9877929091453552,0.9926230007987857,-0.25177001953125,-0.614166259765625,-0.6847381591796875,0.9536533353404948
1780399364.513897,-0.1186523362994194,0.0087890625,0.9946288466453552,1.0017196050332693,-0.43487548828125,-1.224517822265625,-0.8068084716796875,1.5295425778081881
1780399364.522061,-0.1074218675494194,0.0068359375,0.9995116591453552,1.0052908755364338,-0.1926422119140625,-1.0433197021484375,-0.5016326904296875,1.1735682250342216
1780399364.532567,-0.1108398288488388,0.0009765587747097015,0.9829100966453552,0.9891403739680541,0.4177093505859375,-0.8602142333984375,-0.6237030029296875,1.1416895658504096
1780399364.543072,-0.1064453050494194,-0.00048828125,0.9951171278953552,1.0007941544675127,0.48065185546875,-0.797271728515625,-0.3185272216796875,0.9839349603539989
1780399364.553579,-0.1113281175494194,0.01708984375,0.9790038466453552,0.9854615894406534,0.60272216796875,-0.980377197265625,-0.1964569091796875,1.167479669135094
1780399364.561608,-0.10498046875,0.0170898400247097,0.9716796278953552,0.9774836370589003,0.54168701171875,-0.858306884765625,-0.0133514404296875,1.0150338851794105
1780399364.569637,-0.09521484375,0.0024414025247097015,0.9892577528953552,0.9938323443016897,0.66375732421875,-0.431060791015625,0.0476837158203125,0.7928814083830465
1780399364.577666,-0.1083984300494194,0.0166015625,0.9965819716453552,1.0025973557331795,0.41961669921875,-0.431060791015625,0.1697540283203125,0.6250664044285444
1780399364.585695,-0.11474609375,0.015136715024709702,0.9877929091453552,0.994550460022249,0.54168701171875,-0.308990478515625,0.4138946533203125,0.748470920293665
1780399364.593659,-0.1059570163488388,0.015624996274709702,0.9716796278953552,0.9775644884553595,0.35858154296875,-0.492095947265625,0.3528594970703125,0.7037392762563535
1780399364.601623,-0.1044921800494194,0.01806640625,0.9912108778953552,0.9968671000611622,0.2346038818359375,-0.4291534423828125,0.9021759033203125,1.0262226946493291
1780399364.609587,-0.0893554612994194,0.0322265625,0.9990233778953552,1.0035291024061257,0.35858154296875,0.240325927734375,0.6580352783203125,0.786986468761267
1780399364.617551,-0.0971679612994194,0.01904296875,0.9902343153953552,0.9951724708553823,-0.0705718994140625,0.4215240478515625,0.4138946533203125,0.59495520835708
1780399364.628251,-0.0991210862994194,0.02392578125,0.9887694716453552,0.994013330300673,0.1125335693359375,1.0929107666015625,0.7801055908203125,1.347472627109809
1780399364.638951,-0.1118163987994194,0.01220703125,0.9765624403953552,0.9830188801052302,0.23651123046875,1.522064208984375,0.4138946533203125,1.5949689032881535
1780399364.649651,-0.10302734375,0.014648433774709702,0.9863280653953552,0.9918025321397284,-0.06866455078125,1.338958740234375,0.2918243408203125,1.3721103361170432
1780399364.660313,-0.1176757737994194,0.01220703125,0.9873046278953552,0.9943676521361786,0.05340576171875,1.277923583984375,0.1697540283203125,1.2902547391965677
1780399364.670978,-0.109375,0.0068359337747097015,0.9711913466453552,0.9773547218970146,0.11444091796875,0.850677490234375,0.0476837158203125,0.8596642675204185
1780399364.681643,-0.1181640550494194,0.01123046875,0.9794921278953552,0.9866578413731063,0.1735687255859375,0.9098052978515625,0.0476837158203125,0.9274403049548414
1780399364.692273,-0.1113281175494194,0.01611328125,0.9829100966453552,0.9893259552226054,0.29754638671875,0.057220458984375,0.3528594970703125,0.4650998364313627
1780399364.702903,-0.1113281175494194,0.0087890625,0.9799804091453552,0.986322867871076,0.11444091796875,0.057220458984375,0.5359649658203125,0.5510257246433069
1780399364.713533,-0.11962890625,0.0014648400247097015,0.9848632216453552,0.9921032135400718,0.4177093505859375,0.1163482666015625,0.1087188720703125,0.4470322290980315
1780399364.721588,-0.1040038987994194,0.01904296875,0.9819335341453552,0.9876096957318112,0.66375732421875,0.240325927734375,0.4138946533203125,0.8183148055868014
1780399364.729642,-0.1186523362994194,0.0068359375,0.9868163466453552,0.9939474880280649,0.29754638671875,-0.003814697265625,0.2918243408203125,0.4167851365629804
1780399364.737696,-0.1083984375,0.015624996274709702,0.9799804091453552,0.9860811143459365,0.29754638671875,0.057220458984375,0.4749298095703125,0.5633527821838282
1780399364.74575,-0.11279296875,0.0205078087747097,0.9838866591453552,0.9905431752651608,0.41961669921875,0.057220458984375,0.7190704345703125,0.8345146164464464
1780399364.756427,-0.1079101487994194,0.0068359375,0.9980468153953552,1.0038868342478782,0.17547607421875,-0.003814697265625,0.0476837158203125,0.18187946913515265
1780399364.767102,-0.1123046800494194,0.0185546875,0.9848632216453552,0.9914192770664151,0.1125335693359375,-0.0667572021484375,0.1087188720703125,0.17011796322086206
1780399364.777779,-0.11962890625,0.011718746274709702,0.9887694716453552,0.996048930666891,0.1735687255859375,-0.0667572021484375,-0.1354217529296875,0.23004712062263058
1780399364.788377,-0.10546875,0.0175781212747097,0.9941405653953552,0.9998740477373675,-0.06866455078125,-0.125885009765625,-0.5016326904296875,0.5217252268439864
1780399364.798976,-0.1162109225988388,0.0200195275247097,0.9829100966453552,0.989958594134607,-0.12969970703125,-0.125885009765625,-0.3795623779296875,0.4204005809074513
1780399364.809577,-0.1025390550494194,0.0107421875,0.9916991591453552,0.9970440685608222,-0.06866455078125,-0.125885009765625,-0.3185272216796875,0.34931568411490366
1780399364.817636,-0.1113281175494194,0.01171875,0.9829100966453552,0.9892641391185881,-0.19073486328125,-0.247955322265625,-0.5016326904296875,0.5911827010480718
1780399364.825695,-0.1113281100988388,0.0053710900247097015,0.9814452528953552,0.9877538059339789,-0.12969970703125,-0.431060791015625,-0.4405975341796875,0.629890154455703
1780399364.833753,-0.119140625,0.0014648400247097015,0.9829100966453552,0.9901054955756332,-0.0705718994140625,-0.5550384521484375,-0.3185272216796875,0.6438226986533037
1780399364.841811,-0.1083984300494194,0.00439453125,0.9746093153953552,0.9806288029613902,-0.1926422119140625,-0.5550384521484375,-0.6237030029296875,0.8568454592503748
1780399364.852549,-0.1118163987994194,0.017578125,0.9838866591453552,0.9903761182314499,0.29754638671875,-0.675201416015625,-0.3795623779296875,0.8297580389357658
1780399364.863286,-0.1064452975988388,0.009765621274709702,0.9814452528953552,0.9872490836514431,0.17547607421875,-1.041412353515625,-0.0133514404296875,1.0561769755300126
1780399364.874025,-0.1157226487994194,0.00390625,0.9936522841453552,1.0003758553771167,0.05340576171875,-0.919342041015625,-0.3795623779296875,0.9960469680206722
1780399364.884569,-0.1259765625,0.00830078125,0.9858397841453552,0.9938908779501084,0.60272216796875,-0.614166259765625,-0.0743865966796875,0.8637172987506003
1780399364.895113,-0.1201171875,0.0068359337747097015,0.9819335341453552,0.9892766722220179,0.4177093505859375,-0.3719329833984375,-0.0133514404296875,0.559458226025979
1780399364.905657,-0.10400390625,0.011230465024709702,0.9916991591453552,0.9972011623085558,0.2346038818359375,-0.3108978271484375,0.1697540283203125,0.4248680623782914
1780399364.913668,-0.1069335862994194,0.01513671875,0.9833983778953552,0.9893110136759763,0.35858154296875,-0.247955322265625,0.2307891845703125,0.4932810684714438
1780399364.921679,-0.1044921875,0.011718746274709702,0.9975585341453552,1.0030847298753063,0.29754638671875,0.057220458984375,0.2918243408203125,0.42067740499220585
1780399364.92969,-0.10546875,0.013183590024709702,0.9873046278953552,0.9930095128124846,0.4177093505859375,0.1163482666015625,0.0476837158203125,0.43622443473806716
1780399364.937701,-0.1069335862994194,0.0166015625,0.9916991591453552,0.9975858990612795,0.2346038818359375,0.2422332763671875,0.1697540283203125,0.37753459667035316
1780399364.948356,-0.1064452975988388,0.014648433774709702,0.9809569716453552,0.9868240766279386,0.17547607421875,0.240325927734375,-0.0743865966796875,0.3067275173997253
1780399364.959011,-0.1127929612994194,0.00146484375,0.9775390028953552,0.984025863515563,0.41961669921875,0.362396240234375,-0.1964569091796875,0.5882214943060868
1780399364.969666,-0.1157226487994194,0.00732421875,0.9965819716453552,1.003305039274694,0.1735687255859375,0.4215240478515625,0.0476837158203125,0.458347425184352
1780399364.97765,-0.1010742112994194,0.00341796875,0.9814452528953552,0.9866420136660528,-0.0705718994140625,0.1773834228515625,-0.0743865966796875,0.2048868894171398
1780399364.985635,-0.1108398288488388,0.010253902524709702,0.9833983778953552,0.9896782203440884,0.17547607421875,0.545501708984375,-0.1354217529296875,0.5888149270311066
1780399364.993619,-0.1020507737994194,0.01416015625,0.9858397841453552,0.9912088329216227,0.1125335693359375,-0.0057220458984375,0.2307891845703125,0.25682716708202785
1780399365.001605,-0.1093749925494194,0.01806640625,0.9912108778953552,0.9973907401254818,0.1125335693359375,0.2994537353515625,0.2307891845703125,0.39446164776581216
1780399365.012286,-0.1127929612994194,0.01416015625,0.9975585341453552,1.0040148361403562,0.11444091796875,0.362396240234375,0.0476837158203125,0.383016312180008
1780399365.022969,-0.1147460862994194,0.0078125,0.9926757216453552,0.9993161600921955,-0.0705718994140625,0.1163482666015625,0.0476837158203125,0.144191015262842
1780399365.033651,-0.10986328125,0.0253906212747097,0.9863280653953552,0.9927525758225342,0.05340576171875,-0.003814697265625,0.4138946533203125,0.4173433973925189
1780399365.044408,-0.1103515625,0.012207027524709702,0.9790038466453552,0.9852791536481337,0.05340576171875,0.179290771484375,0.5359649658203125,0.5676757883783586
1780399365.055166,-0.1064453050494194,0.02099609375,0.9873046278953552,0.9932481397835128,0.05340576171875,-0.003814697265625,0.5970001220703125,0.599396257122078
1780399365.065924,-0.1025390625,0.015136715024709702,0.9999999403953552,1.0053572799113917,0.1125335693359375,-0.0667572021484375,0.5359649658203125,0.5517053315429735
1780399365.073879,-0.11474609375,0.011230465024709702,0.9843749403953552,0.9911038354551526,0.9059906005859375,-0.2460479736328125,0.6580352783203125,1.1464593325508639
1780399365.081835,-0.1103515625,0.0161132775247097,0.9985350966453552,1.0047434718829122,1.02996826171875,-0.797271728515625,0.5970001220703125,1.4327895780575053
1780399365.089791,-0.0961913987994194,0.021484375,0.9941405653953552,0.9990144279922718,1.33514404296875,-0.492095947265625,0.1697540283203125,1.43303330977377
1780399365.097747,-0.1108398362994194,0.0068359375,0.9863280653953552,0.9925599487884498,0.96893310546875,0.057220458984375,-0.0743865966796875,0.9734674671324588
1780399365.108536,-0.1069335862994194,0.02783203125,0.9848632216453552,0.9910423700286605,0.9059906005859375,0.2994537353515625,-0.3185272216796875,1.0059578017576345
1780399365.119326,-0.1191406175494194,0.01806640625,0.9936522841453552,1.0009324370666228,0.35858154296875,0.606536865234375,-0.6237030029296875,0.9409958170521809
1780399365.130117,-0.10986328125,0.0322265587747097,0.9843749403953552,0.9910108551049457,-0.0705718994140625,0.4825592041015625,-0.8068084716796875,0.9427532489597451
1780399365.138055,-0.1064453050494194,0.0166015625,0.9863280653953552,0.9921941682105622,-0.55694580078125,0.057220458984375,-0.5626678466796875,0.793761873373499
1780399365.145993,-0.11962890625,0.0268554650247097,0.9863280653953552,0.9939191837361873,-0.7419586181640625,-0.0057220458984375,-1.0509490966796875,1.2864794350043223
1780399365.153933,-0.1083984375,0.0292968712747097,0.9794921278953552,0.9859073772560479,-0.8640289306640625,-0.3719329833984375,-0.8678436279296875,1.279856515279079
1780399365.169828,-0.10986328125,0.0063476525247097015,0.9882811903953552,0.9943892319151748,-1.0471343994140625,-0.4940032958984375,-0.5626678466796875,1.2872935999537654
1780399365.177783,-0.11474609375,0.0068359337747097015,0.9736327528953552,0.9803948865289148,-0.98419189453125,-0.736236572265625,-0.8068084716796875,1.4702441584908819
1780399365.185737,-0.1044921875,0.0048828087747097015,0.9833983778953552,0.9889463224651182,-0.80108642578125,-0.492095947265625,-0.6237030029296875,1.1282301709978069
1780399365.193693,-0.1030273362994194,0.01904296875,0.9765624403953552,0.9821667204068252,-0.92315673828125,-0.614166259765625,-0.6237030029296875,1.272172941833021
1780399365.204357,-0.0986328050494194,0.01416015625,0.9829100966453552,0.9879479735007926,-0.92315673828125,-0.431060791015625,-0.3185272216796875,1.0674696060947466
1780399365.215021,-0.1059570237994194,0.00927734375,0.9873046278953552,0.9930173151879438,-1.04522705078125,-0.431060791015625,-0.3795623779296875,1.1926359846891779
1780399365.225684,-0.1010742038488388,0.015624996274709702,0.9711913466453552,0.9765617066991107,-0.49591064453125,-0.736236572265625,-0.0743865966796875,0.8907889893046631
1780399365.236325,-0.1171874925494194,-0.00048828125,0.9892577528953552,0.9961747078159368,-0.0705718994140625,-0.5550384521484375,0.1697540283203125,0.5846918046981806
1780399365.246964,-0.1196288987994194,-0.0009765625,0.9941405653953552,1.0013128836017615,-0.0705718994140625,-0.0057220458984375,0.4138946533203125,0.4199070359535716
1780399365.257605,-0.1035156175494194,0.0068359375,0.9990233778953552,1.0043953020099143,0.35858154296875,-0.614166259765625,0.4749298095703125,0.8551837472794019
1780399365.26561,-0.0976562425494194,0.005859375,0.9824218153953552,0.9872809617069332,0.78582763671875,-0.247955322265625,0.9632110595703125,1.2675892322631137
1780399365.273617,-0.1020507737994194,-0.00048828125,0.9785155653953552,0.9838228044585219,0.7228851318359375,0.1773834228515625,1.0242462158203125,1.2661390536407235
1780399365.281622,-0.1181640625,0.0205078087747097,0.9833983778953552,0.9906844530598327,0.35858154296875,0.484466552734375,0.9632110595703125,1.1362500204421309
1780399365.289629,-0.115234375,0.0219726525247097,0.9804686903953552,0.987461701275647,0.6008148193359375,0.4215240478515625,0.6580352783203125,0.9857339385274978
1780399365.300367,-0.1044921875,0.0214843712747097,0.9931640028953552,0.9988768353028965,0.4787445068359375,0.1163482666015625,0.6580352783203125,0.822036282338477
1780399365.311105,-0.0971679612994194,0.0078125,0.9907225966453552,0.995506861534892,0.35858154296875,-0.125885009765625,0.6580352783203125,0.7598935360664888
1780399365.321843,-0.0991210862994194,0.0224609375,0.9833983778953552,0.9886363604024342,0.29754638671875,-0.125885009765625,0.5359649658203125,0.6258109399170361
1780399365.33251,-0.09912109375,0.010742183774709702,0.9902343153953552,0.9952408678932723,0.48065185546875,0.179290771484375,0.2307891845703125,0.562525585746679
1780399365.343181,-0.0942382737994194,0.00341796875,0.9853515028953552,0.9898535846362357,0.11444091796875,0.667572021484375,0.1697540283203125,0.6982589474580605
1780399365.353851,-0.0971679612994194,0.01513671875,0.9858397841453552,0.9907324628583454,0.35858154296875,1.155853271484375,0.0476837158203125,1.2111363444771255
1780399365.364465,-0.1123046800494194,0.01171875,0.9902343153953552,0.9966512276865327,0.2956390380859375,1.0929107666015625,-0.1354217529296875,1.1402611261288103
1780399365.375079,-0.1157226487994194,0.01318359375,0.9877929091453552,0.9946357976401025,-0.19073486328125,0.667572021484375,0.2918243408203125,0.7531225915047708
1780399365.385693,-0.1171874925494194,0.0234375,0.9775390028953552,0.9848171033232087,-0.0705718994140625,0.4215240478515625,0.2307891845703125,0.4857227229795871
1780399365.393763,-0.11767578125,0.0053710900247097015,0.9853515028953552,0.9923678866020336,0.2346038818359375,-0.1277923583984375,0.1087188720703125,0.2884261801254633
1780399365.401834,-0.115234375,0.0058593712747097015,0.9873046278953552,0.9940240045778378,-0.19073486328125,-0.186920166015625,0.4138946533203125,0.4925725536216646
1780399365.409907,-0.1132812425494194,0.01220703125,0.9829100966453552,0.9894917430746253,-0.31280517578125,-0.492095947265625,0.2307891845703125,0.6271117500297864
1780399365.417979,-0.1010742112994194,0.02099609375,0.9907225966453552,0.9960863896501516,-0.0705718994140625,-0.6771087646484375,0.2307891845703125,0.7188326090720089
1780399365.428684,-0.1103515625,-0.0034179724752902985,0.9824218153953552,0.9886059747172979,-0.0095367431640625,-0.5550384521484375,0.2918243408203125,0.6271523568708967
1780399365.439389,-0.1118163987994194,0.01025390625,0.9819335341453552,0.988332694548269,0.05340576171875,-0.308990478515625,-0.1964569091796875,0.3700305505799633
1780399365.450094,-0.1020507737994194,0.005859375,0.9907225966453552,0.9959819055646373,0.35858154296875,-0.492095947265625,0.1087188720703125,0.6185134900851745
1780399365.458039,-0.1035156175494194,0.0166015625,0.9931640028953552,0.9986820473009436,0.2346038818359375,-0.3108978271484375,-0.5626678466796875,0.6843183075040932
1780399365.465985,-0.09326171875,0.0205078087747097,0.9814452528953552,0.9860796635342258,0.2346038818359375,-0.0057220458984375,-0.9288787841796875,0.9580644648878742
1780399365.473931,-0.1113281175494194,0.01318359375,0.9794921278953552,0.9858867001386281,0.29754638671875,-0.247955322265625,-0.7457733154296875,0.8403532186504804
1780399365.481876,-0.0961913987994194,0.0224609375,0.9775390028953552,0.9825170640238332,0.2346038818359375,0.1163482666015625,-0.9899139404296875,1.0239655804619165
1780399365.492474,-0.1176757737994194,0.01708984375,0.9965819716453552,1.0036509735496872,-0.00762939453125,-0.308990478515625,-0.6237030029296875,0.6960881835929541
1780399365.50307,-0.11376953125,0.009765621274709702,0.9995116591453552,1.0060131362796545,-0.06866455078125,0.057220458984375,-0.8678436279296875,0.8724342748875329
1780399365.513668,-0.109375,0.009765621274709702,0.9770507216453552,0.9832021006139025,0.2346038818359375,-0.1277923583984375,-0.9288787841796875,0.9665328054115182
1780399365.524298,-0.10546875,0.013183590024709702,0.9868163466453552,0.9925240381366025,0.2346038818359375,-0.0667572021484375,-0.8678436279296875,0.9014699484449494
1780399365.534931,-0.1083984375,0.009765621274709702,0.9936522841453552,0.999595143244806,0.2346038818359375,0.1163482666015625,-0.8678436279296875,0.9064923954738069
1780399365.545565,-0.1015624925494194,0.0068359375,0.9853515028953552,0.9905954038821753,0.2956390380859375,0.1163482666015625,-0.6847381591796875,0.7548547586246998
1780399365.553598,-0.1030273362994194,0.0087890625,0.9770507216453552,0.9825069935182609,0.05340576171875,0.057220458984375,-0.6237030029296875,0.6285950939791467
1780399365.561631,-0.099609375,0.015624996274709702,0.9853515028953552,0.9904967200120405,0.2346038818359375,-0.2460479736328125,-0.8678436279296875,0.9320574817249554
1780399365.569665,-0.10546875,0.0014648400247097015,0.9892577528953552,0.9948651690789201,0.66375732421875,-0.003814697265625,-0.6847381591796875,0.9536533353404948
1780399365.5777,-0.1166992112994194,0.01416015625,0.9853515028953552,0.9923390550618605,0.60272216796875,-0.125885009765625,-0.7457733154296875,0.9671085179294151
1780399365.588342,-0.1142578125,0.010253902524709702,0.9794921278953552,0.9861870100763052,0.29754638671875,-0.247955322265625,-0.3185272216796875,0.5014731149724925
1780399365.598985,-0.109375,0.0214843712747097,0.9799804091453552,0.9862991793278383,0.48065185546875,-0.186920166015625,0.1087188720703125,0.5270532684398247
1780399365.609629,-0.1108398362994194,0.0029296875,0.9907225966453552,0.9969078773304206,0.35858154296875,0.118255615234375,0.1697540283203125,0.4139825402396622
1780399365.620446,-0.10400390625,0.010742183774709702,0.9765624403953552,0.982143781234927,0.35858154296875,0.057220458984375,0.4138946533203125,0.5506030220870329
1780399365.631263,-0.1035156175494194,0.0126953125,0.9780272841453552,0.9835720728898567,0.2346038818359375,-0.0057220458984375,0.7801055908203125,0.8146388500500471
1780399365.64208,-0.1088867112994194,0.01318359375,0.9863280653953552,0.9924077668117638,0.48065185546875,0.057220458984375,0.4138946533203125,0.6368745332787898
1780399365.649987,-0.1108398288488388,0.0195312462747097,0.9750975966453552,0.9815713220259805,0.17547607421875,0.301361083984375,0.5970001220703125,0.691389543828535
1780399365.657893,-0.10009765625,0.0166015587747097,0.9785155653953552,0.9837620973901592,0.17547607421875,0.362396240234375,0.7801055908203125,0.8778881593849777
1780399365.665799,-0.1049804612994194,0.01904296875,0.9970702528953552,1.0027624948721705,-0.0705718994140625,0.4215240478515625,0.6580352783203125,0.784648547706657
1780399365.673705,-0.1123046800494194,0.005859375,0.9946288466453552,1.000966141293232,0.11444091796875,0.362396240234375,0.5359649658203125,0.6570283123491024
1780399365.684315,-0.1108398288488388,0.014648433774709702,0.9858397841453552,0.9921593240377538,-0.00762939453125,0.301361083984375,0.1697540283203125,0.3459669647988438
1780399365.694925,-0.1059570163488388,0.015624996274709702,0.9829100966453552,0.988728116273384,0.1125335693359375,-0.0057220458984375,0.2307891845703125,0.25682716708202785
1780399365.705534,-0.1020507737994194,0.00390625,0.9848632216453552,0.9901440221360682,0.35858154296875,0.118255615234375,0.1087188720703125,0.3929184478190748
1780399365.716342,-0.1162109300494194,0.01220703125,0.9941405653953552,1.0009842434521565,0.35858154296875,0.057220458984375,-0.0743865966796875,0.37065923656347555
1780399365.727154,-0.1171874925494194,0.0107421875,0.9794921278953552,0.9865359251498529,0.2956390380859375,-0.1888275146484375,-0.1964569091796875,0.40206167225081313
1780399365.737965,-0.1015624925494194,0.0078125,0.9785155653953552,0.9838031748119603,0.35858154296875,-0.186920166015625,-0.2574920654296875,0.4793975752758923
1780399365.745906,-0.1103515625,0.0297851525247097,0.9814452528953552,0.9880786441816964,0.1125335693359375,-0.0667572021484375,-0.3185272216796875,0.34435435123888647
1780399365.753849,-0.1201171875,0.010742183774709702,0.9936522841453552,1.00094375218213,0.2346038818359375,0.1163482666015625,-0.1354217529296875,0.29481341841956266
1780399365.761791,-0.1157226487994194,0.02392578125,0.9750975966453552,0.9822318959579375,0.29754638671875,0.057220458984375,-0.1354217529296875,0.33188414295099394
1780399365.77774,-0.115234375,0.0078124962747097015,1.00244140625,1.0090732229348673,0.17547607421875,-0.308990478515625,0.1087188720703125,0.3716002712334588
1780399365.785743,-0.10888671875,0.0161132775247097,0.9838866591453552,0.9900247033670111,0.6008148193359375,0.1163482666015625,0.5970001220703125,0.8549412330837901
1780399365.793746,-0.1020507737994194,0.02001953125,0.9780272841453552,0.9835408027109345,1.02996826171875,-0.492095947265625,0.4138946533203125,1.2142083122390235
1780399365.809733,-0.1147460862994194,0.0126953125,0.9726561903953552,0.9794834863308886,1.09100341796875,0.057220458984375,0.5970001220703125,1.2449786282092739
1780399365.817718,-0.0991210862994194,0.0087890625,0.9755858778953552,0.9806477667937947,1.02996826171875,0.667572021484375,0.4138946533203125,1.2952975751014977
1780399365.825703,-0.1035156175494194,0.02734375,0.9931640028953552,0.9989183652270216,0.7228851318359375,1.0356903076171875,0.0476837158203125,1.2639189308955212
1780399365.833688,-0.1108398362994194,0.0126953125,0.9824218153953552,0.988736195167882,0.11444091796875,0.850677490234375,-0.0743865966796875,0.8615580548416757
1780399365.841701,-0.1142578125,0.0361328087747097,0.9799804091453552,0.9872801172392427,-0.31280517578125,0.667572021484375,-0.6847381591796875,1.0061639173122143
1780399365.849714,-0.1064452975988388,0.0200195275247097,0.9921874403953552,0.9980818101445915,-0.579833984375,0.3662109375,-0.9517669677734375,1.173106244602534
1780399365.857727,-0.1108398362994194,0.02197265625,0.9838866591453552,0.9903540907058299,-0.885009765625,-0.1220703125,-0.8296966552734375,1.2192374609637757
1780399365.86574,-0.1123046800494194,0.024414055049419403,0.9868163466453552,0.9934862300260857,-1.190185546875,0.244140625,-1.1959075927734375,1.7047994753690803
1780399365.876366,-0.10986328125,0.011230465024709702,0.9814452528953552,0.9876390273488161,-1.1310577392578125,-0.1239776611328125,-1.0128021240234375,1.523295838772411
1780399365.886992,-0.1162109225988388,0.010253902524709702,0.9848632216453552,0.9917488020652849,-1.495361328125,0.1220703125,-0.9517669677734375,1.7767574465273124
1780399365.897618,-0.1118163987994194,0.0224609375,0.9790038466453552,0.9856246407736831,-1.373291015625,0.06103515625,-0.7076263427734375,1.5460881426625444
1780399365.908303,-0.1142578050494194,0.00927734375,0.9829100966453552,0.989572217278329,-1.495361328125,0.1220703125,-0.4062652587890625,1.5543674351145407
1780399365.91899,-0.1181640550494194,0.0166015625,0.9863280653953552,0.993519707086733,-1.1310577392578125,0.0591278076171875,-0.3414154052734375,1.1829421736190804
1780399365.929676,-0.1176757737994194,0.00927734375,0.9887694716453552,0.995790502517564,-1.0089874267578125,0.1811981201171875,-0.4062652587890625,1.1026966249101784
1780399365.940328,-0.1127929612994194,0.0029296875,0.9804686903953552,0.9869395564233521,-0.4596710205078125,-0.1239776611328125,-0.2193450927734375,0.5241947894422876
1780399365.950982,-0.10888671875,0.0009765587747097015,0.9931640028953552,0.9991156128468353,0.1506805419921875,-0.3070831298828125,-0.1583099365234375,0.3769173787393445
1780399365.961636,-0.1157226413488388,0.009765621274709702,0.9848632216453552,0.9916867763710985,0.3948211669921875,-0.4901885986328125,-0.2193450927734375,0.6665439864393506
1780399365.969652,-0.1088867112994194,0.0126953125,0.9926757216453552,0.9987104561389164,0.5817413330078125,-0.9784698486328125,0.2079010009765625,1.157172869289754
1780399365.97767,-0.1166992038488388,0.0195312462747097,0.9790038466453552,0.9861281384822149,0.7648468017578125,-0.9784698486328125,0.2079010009765625,1.2592127306574257
1780399365.985687,-0.1010742112994194,0.00927734375,0.9785155653953552,0.9837656108127825,1.007080078125,-0.732421875,0.3299713134765625,1.2882286887242573
1780399365.993704,-0.1157226487994194,0.0068359375,0.9716796278953552,0.9785702635751372,0.518798828125,-0.18310546875,0.1468658447265625,0.5694290237573751
1780399366.004361,-0.1103515625,0.0058593712747097015,0.9868163466453552,0.9929845424700287,0.579833984375,0.06103515625,0.1468658447265625,0.6012506266790052
1780399366.015019,-0.10888671875,0.0292968712747097,0.9863280653953552,0.992752575807876,0.396728515625,-0.1220703125,0.5130767822265625,0.6599564082299882
1780399366.025678,-0.1118163913488388,0.015136715024709702,0.9833983778953552,0.9898506933690716,0.3337860107421875,-0.1239776611328125,0.6961822509765625,0.7819547864179486
1780399366.03371,-0.1074218675494194,0.025390625,0.9824218153953552,0.9886034416440199,-0.3376007080078125,-0.6122589111328125,0.9403228759765625,1.1717688865103677
1780399366.041746,-0.1162109225988388,0.0253906212747097,0.9975585341453552,1.0046256473066069,-0.396728515625,-0.06103515625,0.9403228759765625,1.0224118135532823
1780399366.04978,-0.09765625,0.0249023400247097,0.9790038466453552,0.9841775253729232,-0.152587890625,0.42724609375,0.8182525634765625,0.935606512710331
1780399366.057816,-0.0971679612994194,0.01806640625,0.9877929091453552,0.9927249564183019,-0.457763671875,0.79345703125,0.4520416259765625,1.0215004999235588
1780399366.068441,-0.1079101487994194,0.01806640625,0.9736327528953552,0.9797610590135182,-0.396728515625,0.91552734375,0.2079010009765625,1.0192186509630812
1780399366.079066,-0.0971679612994194,0.01123046875,0.9868163466453552,0.9916522768278788,-0.396728515625,0.42724609375,0.0820159912109375,0.5887778550089687
1780399366.089691,-0.1108398362994194,0.01123046875,0.9877929091453552,0.9940555437685918,-0.8258819580078125,0.5474090576171875,0.0247955322265625,0.9911369750657847
1780399366.100502,-0.1157226487994194,0.00732421875,0.9838866591453552,0.9906958835433102,-0.274658203125,0.3662109375,0.0247955322265625,0.45843472567736526
1780399366.111315,-0.12451171875,0.015624996274709702,0.9814452528953552,0.9894352394398996,-0.5817413330078125,-0.0019073486328125,-0.1010894775390625,0.5904622756600411
1780399366.122129,-0.10791015625,0.010253902524709702,0.9809569716453552,0.9869277200274151,-0.6427764892578125,0.0591278076171875,0.4520416259765625,0.7880351162173855
1780399366.132626,-0.1166992112994194,0.00927734375,0.9829100966453552,0.9898570771138345,-0.701904296875,-0.06103515625,0.5702972412109375,0.9064402217481615
1780399366.143121,-0.1044921800494194,0.00341796875,0.9916991591453552,0.9971948257243721,-0.396728515625,0.30517578125,0.2689361572265625,0.5682010464926601
1780399366.153616,-0.1118163987994194,0.025390625,0.9853515028953552,0.992000592306525,-0.640869140625,0.42724609375,0.6351470947265625,0.9983307628084255
1780399366.16434,-0.1176757737994194,0.0224609375,0.9873046278953552,0.9945463838938116,-0.6427764892578125,0.1811981201171875,0.5130767822265625,0.8421651609610581
1780399366.175069,-0.1035156175494194,0.00927734375,0.9819335341453552,0.9874183599988815,-0.457763671875,0.6103515625,0.3871917724609375,0.8555665244714268
1780399366.185796,-0.1069335862994194,0.00830078125,0.9887694716453552,0.9945696370320434,0.030517578125,0.6103515625,0.0247955322265625,0.6116168497018418
1780399366.193748,-0.11474609375,-0.0029296912252902985,0.9809569716453552,0.9876496490867526,-0.0324249267578125,-0.0629425048828125,-0.2803802490234375,0.2891819822164189
1780399366.201699,-0.11474609375,0.0219726525247097,0.9692382216453552,0.9762541645432844,0.396728515625,0.18310546875,-0.4062652587890625,0.5966343841039645
1780399366.209651,-0.1093749925494194,0.01416015625,0.9931640028953552,0.9992688005073185,0.0286102294921875,0.3643035888671875,-0.4062652587890625,0.5464312496481624
1780399366.217604,-0.1162109300494194,0.02294921875,0.9799804091453552,0.9871135948880879,-0.0324249267578125,0.3643035888671875,-0.6465911865234375,0.7428651581724297
1780399366.228269,-0.115234375,0.014160159975290298,0.9809569716453552,0.9878036502928063,0.091552734375,0.18310546875,-0.6465911865234375,0.6782253890466526
1780399366.238934,-0.1142578050494194,0.0224609375,0.9897460341453552,0.9965724017022289,-0.3376007080078125,0.3643035888671875,-0.6465911865234375,0.8153352104494664
1780399366.249599,-0.1186523362994194,0.01171875,0.9848632216453552,0.9920540667526851,-0.4596710205078125,-0.0019073486328125,-0.7076263427734375,0.8438223308614269
1780399366.260259,-0.1137695237994194,0.017578125,0.9873046278953552,0.9939934221551208,-0.4596710205078125,-0.6122589111328125,-0.7686614990234375,1.084895811328069
1780399366.270921,-0.1044921800494194,0.01806640625,0.9956054091453552,1.0012368058784897,-0.457763671875,-0.42724609375,-0.5893707275390625,0.8599096803694213
1780399366.281583,-0.0947265625,0.012207027524709702,0.9926757216453552,0.9972598565610581,0.091552734375,-0.67138671875,-0.7686614990234375,1.0246865517641914
1780399366.289597,-0.10498046875,0.0073242150247097015,0.9799804091453552,0.9856146028004028,0.030517578125,-0.732421875,-0.7686614990234375,1.062174009112485
1780399366.297611,-0.1088867112994194,0.01708984375,0.9785155653953552,0.9847035545675633,-0.0324249267578125,-0.7953643798828125,-0.7076263427734375,1.0650778908833527
1780399366.305624,-0.0947265625,0.015624996274709702,0.9858397841453552,0.9905035800820771,0.091552734375,-0.732421875,-0.3414154052734375,0.8132577605581643
1780399366.313639,-0.1074218675494194,0.00341796875,0.9863280653953552,0.9921664138261913,0.2765655517578125,-0.4901885986328125,-0.4062652587890625,0.6941360292821918
1780399366.324291,-0.1069335788488388,0.009765621274709702,0.9926757216453552,0.9984664471019687,-0.2117156982421875,-0.0019073486328125,-0.6465911865234375,0.680372939901912
1780399366.334943,-0.1171874925494194,0.01318359375,0.9833983778953552,0.9904438829138181,0.274658203125,-0.06103515625,-0.2193450927734375,0.3567557828068153
1780399366.345595,-0.115234375,0.009277347475290298,0.9760741591453552,0.982896634702312,-0.152587890625,-0.06103515625,-0.2193450927734375,0.27408141926740814
1780399366.356274,-0.1074218675494194,0.01025390625,0.9902343153953552,0.9960966818575878,-0.213623046875,-0.06103515625,-0.1010894775390625,0.24408846536397616
1780399366.366953,-0.10986328125,0.010742183774709702,0.9833983778953552,0.9895745069101579,-0.1544952392578125,-0.0019073486328125,0.3299713134765625,0.3643535160384536
1780399366.377631,-0.1176757737994194,-0.0048828125,0.9775390028953552,0.9846085170151879,-0.2117156982421875,-0.4901885986328125,0.2079010009765625,0.5730019418107012
1780399366.385661,-0.115234375,0.0073242150247097015,0.9863280653953552,0.9930637733267249,-0.091552734375,-0.54931640625,0.2079010009765625,0.5944352307476493
1780399366.393691,-0.1015624925494194,0.021484375,0.9804686903953552,0.9859489698293591,-0.0324249267578125,-0.2460479736328125,0.4520416259765625,0.5156865451217407
1780399366.401721,-0.1093749925494194,0.00830078125,0.9946288466453552,1.0006589501641483,0.0286102294921875,-0.1239776611328125,0.3871917724609375,0.40756162031403365
1780399366.40975,-0.1088867112994194,0.01220703125,0.9858397841453552,0.9919099795411387,-0.091552734375,0.244140625,0.5130767822265625,0.575529610365004
1780399366.420462,-0.1064453050494194,0.015625,0.9960936903953552,1.0018869116010558,0.4558563232421875,-0.0629425048828125,0.2689361572265625,0.5330041304010682
1780399366.431173,-0.1015624925494194,0.013671875,0.9916991591453552,0.9969799808965429,0.274658203125,0.1220703125,0.4520416259765625,0.5428442883122524
1780399366.441884,-0.10498046875,0.0048828087747097015,0.9760741591453552,0.981715592619274,0.091552734375,0.30517578125,0.4520416259765625,0.5530423060206349
1780399366.449886,-0.1166992112994194,0.00830078125,0.9809569716453552,0.9879089983935226,0.274658203125,0.732421875,0.6351470947265625,1.0076163771306827
1780399366.457887,-0.1044921800494194,0.01318359375,0.9863280653953552,0.991935217351511,0.1506805419921875,0.5474090576171875,0.4520416259765625,0.7257430218141482
1780399366.465889,-0.1108398362994194,0.0263671875,0.9785155653953552,0.98512608817782,0.091552734375,0.3662109375,0.7534027099609375,0.8426790594838895
1780399366.473891,-0.1118163987994194,0.0322265625,0.9941405653953552,1.000928030447561,0.274658203125,0.1220703125,0.3299713134765625,0.4463399572692874
1780399366.48444,-0.1132812425494194,0.0078125,0.9897460341453552,0.9962383686529289,0.5168914794921875,-0.0019073486328125,0.3299713134765625,0.613238540266247
1780399366.494987,-0.0981445237994194,0.0234375,0.9716796278953552,0.9769047871849748,1.068115234375,-0.18310546875,0.2079010009765625,1.1034584689951747
1780399366.505536,-0.1015624850988388,0.010253902524709702,0.9843749403953552,0.9896535273391376,0.6389617919921875,-0.4901885986328125,0.2079010009765625,0.8317330461527452
1780399366.513633,-0.1069335862994194,0.02294921875,0.9877929091453552,0.9938291049662084,0.579833984375,0.30517578125,-0.5245208740234375,0.8393222588398609
1780399366.521732,-0.1118163913488388,0.015136715024709702,0.9921874403953552,0.9985829672061819,0.030517578125,0.732421875,-0.6465911865234375,0.9774729091094637
1780399366.52983,-0.1035156175494194,0.017578125,0.9804686903953552,0.986074706298025,-0.396728515625,0.8544921875,-0.6465911865234375,1.1426419282077556
1780399366.537928,-0.1157226413488388,0.009765621274709702,0.9858397841453552,0.9926566259706292,-1.0089874267578125,0.2422332763671875,-1.0128021240234375,1.4500002517107784
1780399366.548499,-0.1132812425494194,0.0185546875,0.9931640028953552,0.9997758013619295,-1.434326171875,0.30517578125,-0.7686614990234375,1.655676394972187
1780399366.55907,-0.1123046800494194,0.0302734375,0.9833983778953552,0.9902530948329749,-1.434326171875,0.06103515625,-0.0362396240234375,1.4360815324950789
1780399366.569641,-0.1186523362994194,0.02392578125,0.9946288466453552,1.0019667472011249,-1.434326171875,-0.3662109375,-0.1010894775390625,1.483786069667505
1780399366.580233,-0.1142578050494194,0.00390625,0.9799804091453552,0.9866264273333,-1.495361328125,-0.54931640625,0.0247955322265625,1.5932573032142603
1780399366.590826,-0.1093749925494194,0.01318359375,0.9902343153953552,0.9963436633641318,-1.434326171875,-0.42724609375,0.5130767822265625,1.5821120619002276
1780399366.601418,-0.1049804612994194,0.013671875,0.9926757216453552,0.9983050163976845,-1.0089874267578125,-0.1811981201171875,0.0247955322265625,1.0254283029582094
1780399366.612241,-0.1083984375,0.010253902524709702,0.9858397841453552,0.9918343832380425,-1.1882781982421875,-0.0019073486328125,-0.0362396240234375,1.1888322105099047
1780399366.623065,-0.1108398362994194,0.0185546875,0.9863280653953552,0.9927098258432062,-0.8258819580078125,0.0591278076171875,-0.2193450927734375,0.8565566974346889
1780399366.633888,-0.1044921875,0.0009765587747097015,0.9794921278953552,0.9850504553191916,-0.701904296875,-0.42724609375,-0.3414154052734375,0.8898164673427029
1780399366.641839,-0.1108398362994194,0.00732421875,0.9931640028953552,0.9993567181633919,-0.6427764892578125,-0.4901885986328125,-0.3414154052734375,0.8775026816655461
1780399366.649787,-0.1069335862994194,0.00390625,0.9824218153953552,0.9882320952249138,-0.091552734375,-0.79345703125,-0.4634857177734375,0.9234581604986559
1780399366.657735,-0.119140625,-0.0034179724752902985,0.9819335341453552,0.9891408577853914,0.152587890625,-0.8544921875,-0.1010894775390625,0.8738758752437572
1780399366.665683,-0.1093749925494194,0.00244140625,0.9853515028953552,0.9914062909412056,0.1506805419921875,-0.6694793701171875,0.1468658447265625,0.7017669336003316
1780399366.676346,-0.1069335862994194,0.0126953125,0.9931640028953552,0.998984834462192,0.213623046875,-0.67138671875,0.0820159912109375,0.7093106196049532
1780399366.687009,-0.1030273362994194,0.0166015625,0.9663085341453552,0.9719271716875396,0.396728515625,-0.54931640625,0.3871917724609375,0.7804226405909002
1780399366.697672,-0.1152343675494194,0.00830078125,0.9907225966453552,0.9974362766300362,0.3337860107421875,-0.3070831298828125,0.1468658447265625,0.4767417812328334
1780399366.708311,-0.115234375,0.014160159975290298,0.9907225966453552,0.9975022480254777,0.579833984375,-0.06103515625,0.7534027099609375,0.9526533383719044
1780399366.718953,-0.0961913987994194,0.0224609375,0.9853515028953552,0.9902902923761815,0.274658203125,-0.42724609375,0.6351470947265625,0.8132577605581643
1780399366.729595,-0.0981445237994194,0.02197265625,0.9960936903953552,1.0011582218710153,0.030517578125,-0.3662109375,0.5702972412109375,0.6784399138111279
1780399366.737659,-0.1103515550494194,0.013671875,0.9873046278953552,0.9935465837752282,-0.091552734375,-0.18310546875,0.9403228759765625,0.9623495347027141
1780399366.745726,-0.1010742038488388,0.0200195275247097,0.9770507216453552,0.9824687724470934,-0.1544952392578125,0.3643035888671875,0.6961822509765625,0.8007843719689058
1780399366.753793,-0.1069335862994194,0.01416015625,0.9804686903953552,0.9863843848872825,-0.0324249267578125,0.4253387451171875,0.3871917724609375,0.5760919133563287
1780399366.76186,-0.1157226487994194,0.01416015625,0.9951171278953552,1.0019233202700089,-0.0324249267578125,0.8525848388671875,0.3299713134765625,0.9147859591504919
1780399366.772427,-0.1137695237994194,0.001953125,0.9960936903953552,1.0025716728933898,-0.213623046875,1.28173828125,0.1468658447265625,1.3076916318938152
1780399366.782994,-0.1093749925494194,0.017578125,0.9897460341453552,0.9959262480626564,-0.579833984375,0.67138671875,0.2689361572265625,0.9269812469591118
1780399366.793561,-0.1069335862994194,0.00830078125,0.9853515028953552,0.991171669846526,-0.457763671875,0.6103515625,0.5130767822265625,0.919415245465637
1780399366.804177,-0.11279296875,0.0053710900247097015,0.9907225966453552,0.9971370848139223,-0.213623046875,-0.244140625,0.1468658447265625,0.35610255163196436
1780399366.814795,-0.1083984375,0.010742183774709702,0.9848632216453552,0.9908689020825909,-0.3948211669921875,-0.4901885986328125,-0.2803802490234375,0.6890440480674064
1780399366.825413,-0.1113281175494194,0.00927734375,0.9902343153953552,0.9965159397875484,-0.274658203125,-0.244140625,-0.3414154052734375,0.5016036804861682
1780399366.836186,-0.1166992112994194,0.015625,0.9833983778953552,0.990421736529506,-0.213623046875,-0.244140625,-0.6465911865234375,0.7234083310422516
1780399366.846959,-0.1069335862994194,-0.00341796875,0.9897460341453552,0.9955117711487343,-0.091552734375,-0.18310546875,-0.5245208740234375,0.5630556483545897
1780399366.857732,-0.1171874925494194,0.01708984375,0.9833983778953552,0.9905035794062712,-0.0324249267578125,0.4253387451171875,-0.8945465087890625,0.9910488788953921
1780399366.865717,-0.10546875,0.011230465024709702,0.9848632216453552,0.9905580982057044,0.091552734375,0.48828125,-0.5245208740234375,0.7224421288652902
1780399366.873703,-0.1181640550494194,0.01318359375,0.9775390028953552,0.9847431407385037,-0.0324249267578125,0.5474090576171875,-0.0362396240234375,0.5495647028202839
1780399366.881688,-0.12939453125,0.0019531212747097015,0.9956054091453552,1.0039805227790084,-0.335693359375,0.1220703125,0.3299713134765625,0.48628413550080823
1780399366.889673,-0.1113281175494194,0.00732421875,0.9643554091453552,0.9707877981749156,-0.2117156982421875,0.1811981201171875,0.3299713134765625,0.4318997144403173
1780399366.900362,-0.1127929612994194,0.00830078125,0.9897460341453552,0.9961869137840104,-0.0324249267578125,-0.4901885986328125,0.2689361572265625,0.5600561532280851
1780399366.911052,-0.1025390550494194,0.00341796875,0.9868163466453552,0.9921352943662924,0.274658203125,-0.244140625,0.1468658447265625,0.3957415187549711
1780399366.921743,-0.1010742112994194,0.0029296875,0.9892577528953552,0.9944121283060736,-0.0324249267578125,0.1239776611328125,-0.1583099365234375,0.20367590023678991
1780399366.929743,-0.1035156175494194,0.0087890625,0.9995116591453552,1.0048961575524942,-0.3376007080078125,-0.2460479736328125,-0.2193450927734375,0.47183271728439663
1780399366.937742,-0.0917968675494194,0.0107421875,0.9975585341453552,1.0018308682259698,-0.091552734375,-0.06103515625,-0.8945465087890625,0.9012883278156338
1780399366.94574,-0.1069335862994194,0.01025390625,0.9980468153953552,1.0038114266101226,-0.2117156982421875,-0.0019073486328125,-0.8296966552734375,0.8562848326537809
1780399366.953739,-0.1123046800494194,0.01416015625,0.9824218153953552,0.9889213692456708,0.091552734375,-0.244140625,-0.9517669677734375,0.9868368197891552
1780399366.964297,-0.1157226487994194,0.00439453125,0.9980468153953552,1.0047429965274062,0.213623046875,0.1220703125,-1.3179779052734375,1.3407467046906976
1780399366.974854,-0.1123046800494194,0.01171875,0.9780272841453552,0.9845237624330376,-0.091552734375,-0.1220703125,-0.9517669677734375,0.9639208605015407
1780399366.98541,-0.125,0.0073242150247097015,0.9907225966453552,0.9986039793779331,0.0934600830078125,-0.4901885986328125,-0.5893707275390625,0.7722548179359916
1780399366.996087,-0.1118163987994194,0.02294921875,0.9843749403953552,0.9909710373971912,-0.0324249267578125,-0.4901885986328125,-0.4062652587890625,0.637485449719281
1780399367.006763,-0.10546875,0.013183590024709702,0.9848632216453552,0.9905821670220851,0.152587890625,-0.3662109375,0.0247955322265625,0.3975026207818187
1780399367.017438,-0.09814453125,0.0195312462747097,0.9858397841453552,0.9909055952002118,-0.091552734375,-0.42724609375,-0.0362396240234375,0.4384454791026282
1780399367.028174,-0.1088867112994194,0.01904296875,0.9824218153953552,0.9886210466711307,-0.0324249267578125,-0.3643035888671875,0.2689361572265625,0.4539770229874554
1780399367.038909,-0.10791015625,0.0200195275247097,0.9965819716453552,1.0026071062548658,-0.0324249267578125,-0.3070831298828125,0.5702972412109375,0.6485293885913576
1780399367.049644,-0.1093749925494194,0.02392578125,0.9760741591453552,0.9824744760831808,0.152587890625,-0.06103515625,0.1468658447265625,0.22040401768365214
1780399367.05758,-0.1005859375,0.012207027524709702,0.9892577528953552,0.9944332275257654,-0.213623046875,-0.06103515625,0.0820159912109375,0.23682634834184507
1780399367.065519,-0.1049804612994194,-0.0009765625,0.9892577528953552,0.9948129234145096,-0.335693359375,0.1220703125,0.0247955322265625,0.35805866997004704
1780399367.073457,-0.1108398288488388,0.014648433774709702,0.9965819716453552,1.0028338199721005,-0.3376007080078125,0.1811981201171875,0.3299713134765625,0.5056560733332754
1780399367.081395,-0.1137695237994194,0.01220703125,0.9785155653953552,0.9851828398213587,-0.274658203125,0.06103515625,0.2689361572265625,0.38921597539939956
1780399367.092228,-0.1064452975988388,0.0053710900247097015,0.9858397841453552,0.9915843534428724,-0.2765655517578125,0.1811981201171875,0.0247955322265625,0.33156610437664535
1780399367.10306,-0.1240234375,0.0053710900247097015,0.9868163466453552,0.9945939692476804,-0.396728515625,0.06103515625,0.2079010009765625,0.4520416259765625
1780399367.113894,-0.1123046800494194,0.019531242549419403,0.9887694716453552,0.9953184810171876,-0.335693359375,-0.06103515625,0.2689361572265625,0.43444444810668853
1780399367.124403,-0.1064453050494194,-0.00244140625,0.9858397841453552,0.9915728129770914,-0.396728515625,-0.1220703125,-0.0362396240234375,0.4166629173003324
1780399367.134913,-0.109375,0.0058593712747097015,1.005859375,1.0118054680283781,-0.3948211669921875,-0.0019073486328125,0.2079010009765625,0.4462176801639941
1780399367.145425,-0.1176757737994194,0.00244140625,0.9863280653953552,0.9933260294537306,-0.2117156982421875,-0.3070831298828125,0.3299713134765625,0.49800065588134435
1780399367.153498,-0.1215820237994194,0.0029296875,0.9882811903953552,0.9957361512314749,-0.274658203125,-0.42724609375,0.5702972412109375,0.7636853386711662
1780399367.16157,-0.10546875,0.009277347475290298,0.9809569716453552,0.9866540967443281,0.091552734375,-0.30517578125,0.5130767822265625,0.6039552509027888
1780399367.169641,-0.1132812425494194,0.01904296875,0.9941405653953552,1.000755084092482,-0.2765655517578125,-0.0019073486328125,0.6351470947265625,0.6927510190086358
1780399367.177714,-0.1171874925494194,0.01708984375,0.9877929091453552,0.9948667260127175,-0.1544952392578125,0.3643035888671875,0.3299713134765625,0.5152348508518124
1780399367.188339,-0.1098632737994194,0.01904296875,0.9755858778953552,0.9819370543663125,-0.091552734375,-0.1220703125,0.3871917724609375,0.41617368132407095
1780399367.198966,-0.1025390550494194,0.0166015625,0.9980468153953552,1.0034377486464616,-0.274658203125,0.1220703125,0.1468658447265625,0.33452633092919337
1780399367.209592,-0.1118163987994194,0.02392578125,1.00146484375,1.0079718167270877,0.396728515625,-0.06103515625,0.2079010009765625,0.4520416259765625
1780399367.220231,-0.0991210862994194,0.01416015625,0.9628905653953552,0.9680825071767324,0.5168914794921875,-0.7953643798828125,0.2689361572265625,0.9859553514342237
1780399367.230873,-0.1118163913488388,0.009765621274709702,0.9877929091453552,0.9941494375047454,0.396728515625,-0.42724609375,0.0247955322265625,0.5835645278399366
1780399367.241514,-0.1132812425494194,0.017578125,0.9819335341453552,0.9886025975442526,0.4558563232421875,0.3070831298828125,0.0247955322265625,0.5501998314402764
1780399367.249578,-0.10546875,0.0170898400247097,0.9775390028953552,0.9833606774933996,-0.152587890625,0.91552734375,-0.7686614990234375,1.2051198619225707
1780399367.25764,-0.1064453050494194,0.01416015625,0.9794921278953552,0.9853608179753542,-0.396728515625,0.732421875,-0.6465911865234375,1.0544740303005657
1780399367.265702,-0.1166992112994194,0.02392578125,0.9750975966453552,0.9823474293292965,-0.946044921875,0.48828125,-0.8945465087890625,1.3905513401862362
1780399367.273764,-0.1171874925494194,0.01806640625,0.9692382216453552,0.9764640463135655,-1.1310577392578125,0.0591278076171875,-0.6465911865234375,1.3041732513966062
1780399367.284317,-0.1210937425494194,0.02294921875,0.9829100966453552,0.9906071972347273,-1.373291015625,-0.3662109375,-1.1348724365234375,1.8187836901406436
1780399367.294869,-0.11279296875,0.0253906212747097,0.9799804091453552,0.9867768439504709,-1.4972686767578125,-0.2460479736328125,-0.7076263427734375,1.674242556117785
1780399367.305423,-0.1132812425494194,0.0087890625,0.9775390028953552,0.9841201093945874,-1.4972686767578125,-0.4291534423828125,-0.6465911865234375,1.686435984554082
1780399367.313501,-0.1074218675494194,0.00830078125,0.9814452528953552,0.9873414531093045,-1.556396484375,-0.54931640625,-0.7076263427734375,1.7957877301444025
1780399367.321579,-0.1074218675494194,0.0087890625,0.9916991591453552,0.9975389353288615,-1.556396484375,-0.42724609375,-0.4062652587890625,1.6643198916369526
1780399367.329657,-0.1074218675494194,0.02685546875,0.9912108778953552,0.9973763974987918,-1.434326171875,-0.244140625,-0.5893707275390625,1.5697942752414746
1780399367.337735,-0.1201171875,0.011230465024709702,0.9843749403953552,0.9917400291184886,-1.4972686767578125,-0.3070831298828125,-0.2803802490234375,1.553939066727251
1780399367.348415,-0.1127929612994194,0.0087890625,0.9921874403953552,0.9986167516202639,-1.1310577392578125,-0.3070831298828125,-0.1583099365234375,1.182646901740191
1780399367.359097,-0.10888671875,0.0063476525247097015,0.9916991591453552,0.9976792232287494,-0.885009765625,-0.6103515625,-0.3414154052734375,1.1279786319145564
1780399367.369778,-0.10546875,0.0029296837747097015,0.9897460341453552,0.9953539332217666,-0.8258819580078125,-0.4901885986328125,-0.4062652587890625,1.0427930433654429
1780399367.380386,-0.1108398288488388,0.010742183774709702,0.9916991591453552,0.9979319036993928,-0.213623046875,-0.67138671875,-0.2193450927734375,0.7379073126035803
1780399367.390993,-0.10986328125,0.0063476525247097015,0.9907225966453552,0.9968156784297216,-0.1544952392578125,-0.6122589111328125,-0.2803802490234375,0.6909000197259447
1780399367.401599,-0.11962890625,-3.725290298461914e-09,0.9848632216453552,0.9921021321216075,0.0934600830078125,-0.4901885986328125,-0.4062652587890625,0.6434835738730024
1780399367.412293,-0.1088867112994194,0.01318359375,0.9799804091453552,0.9860992472111851,0.0934600830078125,-0.4901885986328125,-0.1583099365234375,0.5235281132350799
1780399367.422984,-0.1196288987994194,0.0078125,0.9912108778953552,0.9984343308612201,-0.274658203125,0.06103515625,-0.2193450927734375,0.3567557828068153
1780399367.433675,-0.10400390625,-0.0034179724752902985,0.9912108778953552,0.99665816582677,-0.152587890625,-0.06103515625,0.2689361572265625,0.315174572780926
1780399367.441663,-0.1113281175494194,0.017578125,0.9882811903953552,0.9946872129091,-0.396728515625,-0.18310546875,0.7534027099609375,0.87094016509325
1780399367.44965,-0.1142578125,0.0166015587747097,0.9897460341453552,0.9964575613529629,-0.0324249267578125,-0.4291534423828125,0.5702972412109375,0.714466931577014
1780399367.457637,-0.1113281175494194,0.0087890625,0.9912108778953552,0.9974819305806031,-0.2117156982421875,-0.4901885986328125,0.8754730224609375,1.025456684686714
1780399367.465624,-0.1108398288488388,0.0258789025247097,0.9863280653953552,0.9928737270376669,-0.1544952392578125,-0.0019073486328125,0.8754730224609375,0.8890024915538904
1780399367.476361,-0.10009765625,0.0048828087747097015,0.9833983778953552,0.9884916551268854,0.030517578125,0.42724609375,0.7534027099609375,0.8666522893154635
1780399367.487098,-0.1044921875,0.011230465024709702,0.9794921278953552,0.9851139879233151,0.274658203125,0.30517578125,0.3871917724609375,0.5643463959899487
1780399367.497834,-0.0942382737994194,0.01806640625,0.9716796278953552,0.9764059332830481,0.213623046875,0.79345703125,0.3871917724609375,0.9083646488374943
1780399367.508421,-0.10546875,0.011230465024709702,0.9980468153953552,1.0036668901045027,0.030517578125,0.732421875,0.0820159912109375,0.7376311736684151
1780399367.519006,-0.1127929612994194,0.0224609375,0.9882811903953552,0.9949504797332034,0.2117156982421875,0.6694793701171875,0.1468658447265625,0.7173532883049536
1780399367.529593,-0.1210937425494194,0.01220703125,0.9868163466453552,0.9942933209586844,0.091552734375,0.42724609375,0.2079010009765625,0.48388423615905257
1780399367.537546,-0.1201171875,0.0058593712747097015,0.9746093153953552,0.9820009107022498,-0.1544952392578125,-0.3070831298828125,0.5130767822265625,0.6175893555364409
1780399367.545502,-0.1093749925494194,0.00390625,0.9916991591453552,0.9977200860130323,-0.0324249267578125,-0.5512237548828125,0.2689361572265625,0.6141869914660736
1780399367.553459,-0.1118163913488388,0.014648433774709702,0.9912108778953552,0.9976053761104184,0.091552734375,-0.3662109375,0.2079010009765625,0.4309468414122847
1780399367.561415,-0.1064452975988388,-3.725290298461914e-09,0.9848632216453552,0.9905988929584837,0.213623046875,-0.42724609375,-0.2803802490234375,0.5538836654237396
1780399367.56956,-0.1113281175494194,0.01123046875,0.9873046278953552,0.9936249299655419,-0.091552734375,-0.30517578125,0.1468658447265625,0.3508329188949263
1780399367.577705,-0.1225585862994194,0.0224609375,0.9868163466453552,0.9946514981618321,-0.0324249267578125,0.1811981201171875,-0.2803802490234375,0.3354060504100918
1780399367.58585,-0.1166992038488388,0.010253902524709702,0.9877929091453552,0.9947153753983011,0.335693359375,-0.244140625,-0.5245208740234375,0.6688922361562992
1780399367.593994,-0.1030273362994194,0.013671875,0.9877929091453552,0.9932453793241695,0.091552734375,0.06103515625,-0.3414154052734375,0.3587083389440881
1780399367.604537,-0.1142578125,0.0268554650247097,0.9755858778953552,0.9826209181916643,0.4558563232421875,0.3070831298828125,-0.4062652587890625,0.6834884758336851
1780399367.615081,-0.1127929612994194,0.0009765625,0.9819335341453552,0.988390950622372,0.213623046875,0.1220703125,-0.3414154052734375,0.42083303851769016
1780399367.625623,-0.1215820237994194,0.0126953125,0.9868163466453552,0.9943590204132112,0.274658203125,0.3662109375,-0.7076263427734375,0.8427826649115376
1780399367.636381,-0.0966796800494194,0.0078125,0.9956054091453552,1.0003190123206687,0.0286102294921875,0.3643035888671875,-0.3414154052734375,0.5001001190273143
1780399367.647141,-0.1083984300494194,0.0078125,0.9682616591453552,0.9743417754383442,-0.1544952392578125,0.3643035888671875,-0.4062652587890625,0.5671308000045364
1780399367.657901,-0.1118163987994194,0.00732421875,0.9814452528953552,0.9878215100166611,-0.091552734375,-0.06103515625,-0.5893707275390625,0.5995540408919993
1780399367.665848,-0.1015624925494194,0.0107421875,0.9838866591453552,0.9891730346756044,-0.3376007080078125,-0.1239776611328125,-0.3414154052734375,0.4958923043014121
1780399367.673798,-0.1074218675494194,0.00390625,0.9892577528953552,0.9950807093298689,-0.152587890625,-0.3662109375,-0.3414154052734375,0.5234099674901515
1780399367.681747,-0.1118163987994194,0.0029296875,0.9868163466453552,0.9931354349311097,-0.3376007080078125,-0.4901885986328125,-0.4634857177734375,0.7543726604649292
1780399367.689696,-0.10986328125,0.0048828087747097015,0.9892577528953552,0.9953515379262317,0.030517578125,-0.67138671875,-0.7686614990234375,1.0210445380929596
1780399367.7005,-0.1064453050494194,0.01123046875,0.9775390028953552,0.9833815274739779,-0.091552734375,-0.6103515625,-0.7076263427734375,0.9389600492058441
1780399367.711304,-0.0966796800494194,-0.00390625,0.9892577528953552,0.993978430846006,0.0286102294921875,-0.6122589111328125,-0.8296966552734375,1.031540624146748
1780399367.722108,-0.1162109300494194,0.00634765625,0.9921874403953552,0.9989900849763754,0.213623046875,-0.54931640625,-0.5893707275390625,0.8335113525390625
1780399367.732636,-0.1108398362994194,0.0029296875,0.9775390028953552,0.9838071734650927,0.274658203125,-0.3662109375,-0.5893707275390625,0.7462609689434431
1780399367.743163,-0.1040038987994194,0.01220703125,0.9921874403953552,0.9976982206337269,0.091552734375,-0.30517578125,-0.4062652587890625,0.5162999333062431
1780399367.75369,-0.1010742112994194,0.01416015625,0.9985350966453552,1.0037374385004143,-0.2117156982421875,-0.3070831298828125,-0.2803802490234375,0.4666226200938464
1780399367.764405,-0.10400390625,0.0063476525247097015,0.9902343153953552,0.9957013129419591,-0.1544952392578125,-0.0019073486328125,-0.2193450927734375,0.26829962105065247
1780399367.775122,-0.0991210862994194,0.0087890625,0.9887694716453552,0.9937642101759555,0.0286102294921875,0.1811981201171875,-0.2193450927734375,0.2859433050263395
1780399367.785839,-0.10986328125,-0.0024414099752902985,0.9809569716453552,0.9870929445950418,-0.1544952392578125,0.3643035888671875,-0.5893707275390625,0.7098899480164269
1780399367.796532,-0.1079101487994194,0.00927734375,0.9916991591453552,0.9975960563126606,-0.0324249267578125,-0.0629425048828125,-0.3414154052734375,0.348679815524498
1780399367.807228,-0.1035156175494194,0.0224609375,0.9863280653953552,0.9919995107743556,-0.274658203125,0.42724609375,-0.0362396240234375,0.5092049327312607
1780399367.817923,-0.1171874925494194,0.0107421875,0.9814452528953552,0.9884751324303171,-0.091552734375,0.1220703125,-0.1010894775390625,0.18303591678822925
1780399367.82586,-0.1166992112994194,0.0107421875,0.9809569716453552,0.9879325284298609,0.1506805419921875,0.4901885986328125,0.2689361572265625,0.5790648880984326
1780399367.833797,-0.1069335788488388,0.0200195275247097,0.9804686903953552,0.9864858968142,-0.091552734375,0.244140625,0.7534027099609375,0.797246631428076
1780399367.841734,-0.1064453050494194,0.013671875,0.9897460341453552,0.9955474550414652,-0.0324249267578125,-0.0629425048828125,0.6351470947265625,0.6390813459456983
1780399367.849671,-0.11376953125,0.015136715024709702,0.9746093153953552,0.9813439478786156,0.1506805419921875,-0.0019073486328125,0.5702972412109375,0.589870500234308
1780399367.860291,-0.1044921800494194,0.013671875,0.9946288466453552,1.0001960200063613,-0.0324249267578125,0.0591278076171875,0.5130767822265625,0.5174893795710479
1780399367.87091,-0.09423828125,0.011230465024709702,0.9785155653953552,0.983107160343478,0.335693359375,-0.244140625,0.2689361572265625,0.4945920874495
1780399367.881531,-0.09130859375,0.02783203125,0.9931640028953552,0.9977407568618357,0.091552734375,0.244140625,-0.1010894775390625,0.27965269606433363
1780399367.889529,-0.1074218675494194,0.00537109375,0.9916991591453552,0.9975146758446619,0.579833984375,0.244140625,-0.0362396240234375,0.6301788671170578
1780399367.897527,-0.1118163987994194,0.0009765625,0.9799804091453552,0.9863394258689475,0.091552734375,0.6103515625,-0.2803802490234375,0.6778820082139484
1780399367.905524,-0.115234375,0.0166015587747097,0.9882811903953552,0.9951152115331426,0.030517578125,0.42724609375,0.0247955322265625,0.42905170506321005
1780399367.913523,-0.095703125,0.0219726525247097,0.9995116591453552,1.0043233753932237,0.091552734375,0.18310546875,-0.4062652587890625,0.4549296389076452
1780399367.924211,-0.11474609375,0.015624996274709702,0.9916991591453552,0.9984377941509792,0.518798828125,0.244140625,-0.5245208740234375,0.7770965294772424
1780399367.934899,-0.1079101487994194,0.01806640625,0.9829100966453552,0.9889809165682037,0.7648468017578125,-0.3070831298828125,-0.4634857177734375,0.9455737355689071
1780399367.945587,-0.0966796800494194,0.02734375,0.9916991591453552,0.9967757337777265,0.6389617919921875,-0.1239776611328125,-0.3414154052734375,0.7349878305413332
1780399367.956254,-0.103515625,0.0200195275247097,0.9848632216453552,0.9904907023547073,0.274658203125,0.48828125,-1.2569427490234375,1.376139811926104
1780399367.966923,-0.1074218675494194,0.024414055049419403,0.9819335341453552,0.9880936034561445,-0.0324249267578125,0.6694793701171875,-1.5659332275390625,1.7033498982882704
1780399367.977591,-0.1059570237994194,0.01416015625,0.9721679091453552,0.9780275274702174,-0.396728515625,0.67138671875,-1.3179779052734375,1.5314109180794244
1780399367.988272,-0.1201171800494194,0.013671875,0.9819335341453552,0.9893475236681132,-0.946044921875,0.54931640625,-1.1348724365234375,1.5762883478480496
1780399367.998953,-0.1215820163488388,0.0200195275247097,0.9814452528953552,0.9891500152214474,-1.1310577392578125,-0.0019073486328125,-0.9517669677734375,1.4782271843185826
1780399368.009634,-0.1142578050494194,0.00390625,0.9960936903953552,1.002632906326743,-1.434326171875,-0.06103515625,-1.2569427490234375,1.908119999357129
1780399368.017638,-0.119140625,0.010742183774709702,1.00146484375,1.0085840154914474,-1.373291015625,-0.30517578125,-0.4634857177734375,1.4811750340988907
1780399368.025641,-0.1181640625,0.0053710900247097015,0.9921874403953552,0.9992134462430157,-1.3141632080078125,-0.6122589111328125,-0.5245208740234375,1.541754863403788
1780399368.033643,-0.1108398362994194,0.01171875,0.9897460341453552,0.9960020133106675,-0.946044921875,-0.42724609375,-0.0362396240234375,1.0386787420465813
1780399368.041646,-0.1069335862994194,0.00634765625,0.9814452528953552,0.9872739584581127,-0.885009765625,-0.732421875,-0.2193450927734375,1.1695282629991979
1780399368.052424,-0.10546875,0.0048828087747097015,0.9799804091453552,0.9856516125674379,-0.8258819580078125,-0.2460479736328125,-0.1583099365234375,0.8761750109959118
1780399368.0632,-0.0942382737994194,0.00390625,0.9853515028953552,0.9898553911031106,-0.8258819580078125,-0.4291534423828125,-0.2803802490234375,0.9720425760810485
1780399368.073978,-0.1035156175494194,-0.01025390625,0.9902343153953552,0.9956829942589807,-0.885009765625,-0.30517578125,-0.5893707275390625,1.1062243882653686
1780399368.084535,-0.1162109300494194,-0.00341796875,0.9936522841453552,1.0004306695421772,-0.3376007080078125,-0.4901885986328125,-0.2193450927734375,0.6343274942809627
1780399368.095091,-0.1000976487994194,0.00390625,0.9877929091453552,0.9928593200660798,0.308990478515625,-0.438690185546875,-0.1201629638671875,0.5498757428672532
1780399368.105649,-0.0981445237994194,0.00146484375,0.9858397841453552,0.9907141733733232,0.492095947265625,-0.621795654296875,0.0,0.7929616995906749
1780399368.113692,-0.10888671875,0.014648433774709702,0.9873046278953552,0.9933988737640986,0.6122589111328125,-0.2536773681640625,0.5512237548828125,0.8620097501347009
1780399368.121734,-0.1074218675494194,0.00146484375,0.9824218153953552,0.9882784156095499,0.675201416015625,-0.255584716796875,0.7343292236328125,1.0297863411071313
1780399368.129776,-0.10009765625,0.0063476525247097015,0.9750975966453552,0.9802423967891133,0.431060791015625,0.110626220703125,0.7343292236328125,0.8586564941460828
1780399368.137818,-0.1074218675494194,0.00390625,0.9892577528953552,0.9950807093298689,0.247955322265625,0.232696533203125,0.6732940673828125,0.7542906731343655
1780399368.148468,-0.1010742038488388,0.0053710900247097015,0.9887694716453552,0.9939365731019083,0.186920166015625,0.171661376953125,0.4291534423828125,0.4985774302049479
1780399368.159117,-0.10498046875,0.0048828087747097015,0.9916991591453552,0.9972522062598331,0.370025634765625,-0.133514404296875,0.4863739013671875,0.6255434744840616
1780399368.169768,-0.1123046800494194,0.01318359375,0.9790038466453552,0.9855123946717107,-0.118255615234375,-0.316619873046875,0.6084442138671875,0.696015011282903
1780399368.180466,-0.0976562425494194,0.01318359375,0.9887694716453552,0.9936677598226034,0.186920166015625,-0.133514404296875,0.6084442138671875,0.6503611350676776
1780399368.191163,-0.0991210862994194,0.0234375,0.9951171278953552,1.0003161522169517,0.064849853515625,0.171661376953125,0.4291534423828125,0.4667395515139668
1780399368.201859,-0.1083984300494194,0.01904296875,0.9916991591453552,0.9977875908957762,-0.057220458984375,0.537872314453125,0.4863739013671875,0.7274203595670681
1780399368.209849,-0.1113281100988388,0.0205078087747097,0.9863280653953552,0.9928028862294184,0.247955322265625,1.148223876953125,0.3681182861328125,1.231020302850637
1780399368.217838,-0.1201171875,0.0019531212747097015,0.9736327528953552,0.9810161522249324,-0.179290771484375,0.904083251953125,0.4291534423828125,1.0167027020277943
1780399368.225827,-0.10400390625,0.0209960900247097,0.9975585341453552,1.0031852657200535,0.003814697265625,0.843048095703125,0.4291534423828125,0.9460006980403934
1780399368.233816,-0.1166992038488388,0.015136715024709702,0.9843749403953552,0.9913838043860971,-0.118255615234375,0.049591064453125,0.3032684326171875,0.3292649486813623
1780399368.244535,-0.1083984375,0.014648433774709702,0.9843749403953552,0.9904336530746785,-0.179290771484375,-0.072479248046875,0.4863739013671875,0.5234099674901515
1780399368.255255,-0.1123046875,0.009765621274709702,0.9873046278953552,0.9937193459206375,-0.1201629638671875,-0.1964569091796875,0.3032684326171875,0.38079679262287464
1780399368.265975,-0.1108398362994194,0.0126953125,0.9804686903953552,0.9867955680463597,0.064849853515625,-0.316619873046875,0.4863739013671875,0.5839633716598636
1780399368.276459,-0.1020507737994194,0.00048828125,0.9726561903953552,0.9779952267603584,0.1239776611328125,-0.0133514404296875,-0.0591278076171875,0.13800296755912575
1780399368.286942,-0.0961913987994194,0.0078125,0.9873046278953552,0.9920102059065847,0.1239776611328125,-0.0705718994140625,0.0629425048828125,0.15592502162191263
1780399368.297425,-0.1079101487994194,0.01806640625,0.9960936903953552,1.002084644775151,0.3070831298828125,0.2918243408203125,-0.0591278076171875,0.427735423115095
1780399368.305498,-0.1108398362994194,0.013671875,0.9936522841453552,0.9999086214570706,0.4901885986328125,-0.0133514404296875,-0.3681182861328125,0.6131673472849866
1780399368.313572,-0.109375,0.00048827752470970154,0.9804686903953552,0.9865505470504409,0.3070831298828125,-0.1354217529296875,-0.1850128173828125,0.3832347093115387
1780399368.321645,-0.1113281175494194,0.00341796875,0.9873046278953552,0.9935673407127769,0.431060791015625,-0.011444091796875,-0.6084442138671875,0.745753802656434
1780399368.32972,-0.1220703050494194,0.01171875,0.9868163466453552,0.9944068535981169,0.186920166015625,-0.133514404296875,-0.4863739013671875,0.5378892233064322
1780399368.340409,-0.1030273362994194,0.00732421875,0.9799804091453552,0.9854084830738719,0.3070831298828125,-0.1354217529296875,-0.7305145263671875,0.8039219943866754
1780399368.351098,-0.1088867112994194,0.02197265625,0.9868163466453552,0.9930486471098834,0.1850128173828125,-0.1964569091796875,-1.0356903076171875,1.0702707475459405
1780399368.361787,-0.1162109225988388,0.015136715024709702,0.9916991591453552,0.9985996800132759,0.1239776611328125,0.1125335693359375,-1.0967254638671875,1.1094327414413847
1780399368.372704,-0.1171874925494194,0.0068359375,0.9780272841453552,0.9850467029457352,0.1239776611328125,0.1697540283203125,-1.1615753173828125,1.1804423359672922
1780399368.383623,-0.1171874925494194,0.01025390625,0.9873046278953552,0.9942879257373036,0.3070831298828125,0.3528594970703125,-0.8563995361328125,0.9758227496937313
1780399368.394542,-0.1264648288488388,0.0053710900247097015,0.9804686903953552,0.9886056111460234,-0.118255615234375,0.537872314453125,-0.7305145263671875,0.914845610156762
1780399368.40227,-0.1157226413488388,0.010742183774709702,0.9838866591453552,0.9907270473128358,-0.057220458984375,-0.072479248046875,-0.1201629638671875,0.15154722105393414
1780399368.409997,-0.1020507737994194,0.0078125,0.9819335341453552,0.9872531899510367,-0.057220458984375,-0.072479248046875,0.1850128173828125,0.20677805715246697
1780399368.417724,-0.1181640625,0.0058593712747097015,0.9902343153953552,0.9972768308171742,-0.057220458984375,-0.255584716796875,0.4863739013671875,0.5524104455182396
1780399368.425451,-0.1064453050494194,0.01123046875,0.9843749403953552,0.9901771304538233,0.003814697265625,-0.255584716796875,0.4291534423828125,0.4995105369102689
1780399368.436102,-0.11767578125,0.015136715024709702,0.9921874403953552,0.9992560365155788,0.1850128173828125,-0.5016326904296875,0.7343292236328125,0.9083526338294076
1780399368.446753,-0.1162109225988388,0.010253902524709702,0.9790038466453552,0.9859303488556693,0.4901885986328125,-0.5016326904296875,0.5512237548828125,0.8920582079014991
1780399368.457404,-0.1108398362994194,-0.009765625,0.9897460341453552,0.9959809480351426,0.3070831298828125,-0.3795623779296875,0.7343292236328125,0.8818203082711537
1780399368.468147,-0.1083984375,0.015136715024709702,0.9799804091453552,0.9860734981241908,0.064849853515625,0.293731689453125,0.4291534423828125,0.5240767939901585
1780399368.478892,-0.10498046875,0.0058593712747097015,0.9912108778953552,0.9967719074636812,0.1239776611328125,0.4749298095703125,0.6084442138671875,0.7817500533206989
1780399368.489637,-0.1108398362994194,0.00341796875,0.9985350966453552,1.0046738232151802,0.247955322265625,0.415802001953125,0.3681182861328125,0.6081810743959695
1780399368.497675,-0.10009765625,-3.725290298461914e-09,0.9882811903953552,0.9933374311260014,-0.0553131103515625,0.2918243408203125,0.4863739013671875,0.5698952166873421
1780399368.505715,-0.1010742112994194,0.00634765625,0.9873046278953552,0.9924851219001993,-0.057220458984375,0.171661376953125,0.3032684326171875,0.35314805887320266
1780399368.513756,-0.1186523362994194,0.00732421875,0.9829100966453552,0.9900728655896948,0.003814697265625,0.354766845703125,-0.1201629638671875,0.37458404211968277
1780399368.521796,-0.1020507737994194,0.0078125,0.9892577528953552,0.9945382331780301,-0.0553131103515625,0.2918243408203125,0.4863739013671875,0.5698952166873421
1780399368.532427,-0.1015624925494194,-0.0029296875,0.9838866591453552,0.9891190428891291,-0.118255615234375,0.049591064453125,0.6084442138671875,0.6218102810315332
1780399368.543058,-0.1010742038488388,0.0053710900247097015,0.9931640028953552,0.9983083591450366,-0.118255615234375,0.171661376953125,0.0629425048828125,0.21774705002095043
1780399368.553689,-0.1123046800494194,0.01220703125,0.9838866591453552,0.9903505999478919,0.003814697265625,0.110626220703125,0.3681182861328125,0.3844005530792641
1780399368.564366,-0.1259765625,0.01171875,0.9848632216453552,0.9929566902692921,-0.118255615234375,0.232696533203125,0.4291534423828125,0.5022994567070839
1780399368.575042,-0.11767578125,0.0195312462747097,0.9892577528953552,0.996423584996566,0.0019073486328125,0.2918243408203125,0.6732940673828125,0.7338187685300154
1780399368.58572,-0.1123046800494194,0.0224609375,0.9809569716453552,0.9876200762914895,0.0019073486328125,0.2918243408203125,0.8563995361328125,0.9047570112259498
1780399368.593676,-0.1074218675494194,0.015625,0.9960936903953552,1.0019911368361711,0.1850128173828125,0.4749298095703125,1.2226104736328125,1.3245997270311773
1780399368.601635,-0.1162109300494194,0.01708984375,0.9868163466453552,0.9937824435100654,0.1239776611328125,0.4749298095703125,1.7108917236328125,1.7799099062800094
1780399368.609594,-0.1210937425494194,0.01611328125,0.9941405653953552,1.0016180889350308,-0.057220458984375,0.476837158203125,1.5277862548828125,1.6014926465577246
1780399368.617553,-0.1088867112994194,0.013671875,0.9653319716453552,0.9715498193836112,-0.118255615234375,-0.072479248046875,1.5277862548828125,1.534069252850324
1780399368.628271,-0.11328125,0.010742183774709702,0.9975585341453552,1.004027422513968,-0.0553131103515625,-0.3795623779296875,1.4057159423828125,1.4571082490966831
1780399368.638988,-0.1020507663488388,-3.725290298461914e-09,0.9863280653953552,0.9915933700357871,0.431060791015625,-0.560760498046875,1.4629364013671875,1.6249457394528508
1780399368.649707,-0.1074218675494194,-0.00439453125,0.9995116591453552,1.0052772385268718,0.431060791015625,-0.499725341796875,0.8563995361328125,1.081184067711653
1780399368.660433,-0.1079101487994194,0.03076171875,0.9926757216453552,0.9989974834295098,0.553131103515625,-0.255584716796875,1.0395050048828125,1.2049266452000171
1780399368.671162,-0.115234375,0.0224609337747097,0.9775390028953552,0.9845638409515748,-0.057220458984375,0.476837158203125,0.7343292236328125,0.8774321996888328
1780399368.68189,-0.1040038987994194,0.03662109375,0.9760741591453552,0.9822823828330824,-0.972747802734375,1.392364501953125,0.6732940673828125,1.8270856835946747
1780399368.692403,-0.1015624925494194,0.0263671875,0.9848632216453552,0.9904371427905857,-2.559661865234375,1.697540283203125,0.4863739013671875,3.109673849355203
1780399368.702914,-0.1157226487994194,0.0380859375,0.9848632216453552,0.9923698077985221,-3.9653778076171875,1.2683868408203125,0.4291534423828125,4.18535530298421
1780399368.713427,-0.1083984375,0.0258789025247097,0.9873046278953552,0.993574540289711,-4.512786865234375,0.537872314453125,0.1201629638671875,4.5463162071695375
1780399368.721524,-0.13037109375,0.021484375,0.9804686903953552,0.9893316194786735,-5.062103271484375,0.232696533203125,0.3681182861328125,5.080801932797905
1780399368.729623,-0.1069335862994194,-0.00146484375,0.9809569716453552,0.986769232326228,-5.4302215576171875,-0.3795623779296875,0.0629425048828125,5.443834634012223
1780399368.73772,-0.1162109300494194,-0.01025390625,1.0009765625,1.0077520535978337,-5.733489990234375,-0.255584716796875,0.3032684326171875,5.747190857958347
1780399368.745819,-0.1196288987994194,-0.00732421875,0.9907225966453552,0.9979458808532529,-6.160736083984375,0.049591064453125,0.7915496826171875,6.211576230735005
1780399368.756449,-0.1298827975988388,0.0019531212747097015,0.9887694716453552,0.9972654731076623,-6.160736083984375,-0.072479248046875,1.5888214111328125,6.36272550204538
1780399368.767081,-0.1049804612994194,-0.0166015625,0.9877929091453552,0.993494509541912,-5.977630615234375,0.354766845703125,1.7681121826171875,6.243728691840858
1780399368.777712,-0.1171874925494194,-0.00927734375,0.9814452528953552,0.9884602986199819,-5.855560302734375,0.659942626953125,1.9512176513671875,6.207282904204976
1780399368.785769,-0.1103515625,-0.0009765587747097015,0.9863280653953552,0.9924824802482792,-5.1860809326171875,1.2683868408203125,2.6874542236328125,5.97717749625553
1780399368.793829,-0.1093749925494194,-0.01171875,0.9956054091453552,1.0016637903090229,-4.9419403076171875,0.9632110595703125,2.6264190673828125,5.678787429270621
1780399368.801888,-0.1123046800494194,-0.00537109375,0.9863280653953552,0.9927155898824285,-4.146575927734375,0.720977783203125,2.8095245361328125,5.060368465583409
1780399368.809947,-0.1030273362994194,-0.015625,0.9916991591453552,0.9971589617004694,-4.1446685791015625,-0.0133514404296875,2.3212432861328125,4.750434325929574
1780399368.820537,-0.1000976487994194,-0.0068359375,0.9755858778953552,0.9807313977259658,-3.902435302734375,-0.255584716796875,2.2563934326171875,4.515045532687975
1780399368.831126,-0.1079101487994194,0.0087890625,0.9833983778953552,0.989340294075177,-4.146575927734375,-0.621795654296875,1.3446807861328125,4.40328152367793
1780399368.841717,-0.09814453125,-0.0239257849752903,0.9892577528953552,0.9944021791330375,-4.024505615234375,-0.499725341796875,0.9746551513671875,4.170890016336275
1780399368.852528,-0.1079101487994194,-0.01611328125,0.9916991591453552,0.997683046010184,-4.329681396484375,-1.110076904296875,0.4863739013671875,4.496106237673589
1780399368.863339,-0.13330078125,-0.02685546875,0.9785155653953552,0.9879185321698517,-4.512786865234375,-0.926971435546875,-0.3032684326171875,4.6169787822312784
1780399368.874152,-0.1171874925494194,-0.0341796875,0.9790038466453552,0.9865848626418409,-4.024505615234375,-1.354217529296875,0.2460479736328125,4.253362219355032
1780399368.882028,-0.11962890625,-0.008789066225290298,0.9892577528953552,0.9965034995218288,-2.925872802734375,-2.208709716796875,0.4863739013671875,3.698065689355014
1780399368.889907,-0.1259765625,-0.02294921875,0.9902343153953552,0.9984792237833793,-2.376556396484375,-1.598358154296875,1.4057159423828125,3.1904241733266927
1780399368.897786,-0.1210937425494194,-0.0185546875,1.00830078125,1.0157157261666316,-1.2798309326171875,-1.3561248779296875,2.3822784423828125,3.025275603588121
1780399368.905664,-0.1166992112994194,-0.01513671875,0.9951171278953552,1.0020508591898536,0.2498626708984375,-1.3561248779296875,2.9277801513671875,3.23626368727704
1780399368.916284,-0.11474609375,-0.0180664099752903,0.9931640028953552,0.9999338967388816,1.1615753173828125,-1.1730194091796875,3.2978057861328125,3.687920112382629
1780399368.926903,-0.115234375,-0.015624996274709702,0.9833983778953552,0.9902502064314055,1.712799072265625,-1.171112060546875,3.4809112548828125,4.052397720446769
1780399368.937522,-0.109375,-0.0200195275247097,0.9799804091453552,0.9862683582149487,1.8329620361328125,-1.3561248779296875,3.4160614013671875,4.107103603313984
1780399368.948277,-0.1025390550494194,-0.01025390625,0.9721679091453552,0.9776143636300887,2.5691986083984375,-0.8678436279296875,3.1147003173828125,4.129805336700414
1780399368.959033,-0.095703125,0.0014648400247097015,0.9697265028953552,0.9744386713943156,1.834869384765625,-1.781463623046875,2.7446746826171875,3.7514793632364873
1780399368.96979,-0.0937499925494194,0.0068359375,0.9633788466453552,0.9679538177559169,1.041412353515625,-1.476287841796875,2.6264190673828125,3.1877958842128256
1780399368.980411,-0.0771484300494194,0.00244140625,0.9672850966453552,0.9703598811347168,-0.789642333984375,-2.086639404296875,1.5277862548828125,2.704021053873945
1780399368.991032,-0.0966796725988388,0.009765621274709702,0.9648436903953552,0.9697245347769787,-1.399993896484375,-1.720428466796875,1.2226104736328125,2.532712654407365
1780399369.001652,-0.0961913987994194,0.0068359375,0.9907225966453552,0.9954048315877355,-1.8291473388671875,-1.9664764404296875,1.0395050048828125,2.879822951715321
1780399369.009624,-0.0937499925494194,-0.0205078125,0.9897460341453552,0.9943876726825459,-2.5005340576171875,-1.3561248779296875,0.9746551513671875,3.006941622634181
1780399369.017597,-0.1040038987994194,-0.0068359375,0.9819335341453552,0.9874497488410088,-2.193450927734375,-1.537322998046875,0.9174346923828125,2.831302772133381
1780399369.025569,-0.1044921800494194,-0.0166015625,0.9843749403953552,0.9900445701317092,-2.3174285888671875,-0.9899139404296875,0.6732940673828125,2.6083960157784487
1780399369.033543,-0.1010742112994194,-0.0302734375,0.9887694716453552,0.9943829972730331,-2.437591552734375,-0.560760498046875,0.5512237548828125,2.5612794736379056
1780399369.044312,-0.0917968675494194,-0.00634765625,1.0126953125,1.0168671268121643,-2.071380615234375,-0.194549560546875,0.2460479736328125,2.094995653934999
1780399369.055083,-0.09814453125,0.0058593712747097015,0.9702147841453552,0.9751837819714986,-1.7681121826171875,-0.3795623779296875,-0.0591278076171875,1.8093602147423737
1780399369.065853,-0.0947265625,-0.0283203162252903,0.9912108778953552,0.9961295931816541,-1.399993896484375,-0.194549560546875,-0.1850128173828125,1.4255041859982072
1780399369.073812,-0.1064453050494194,-0.0166015625,0.9882811903953552,0.994135768461112,0.1239776611328125,-0.0705718994140625,-0.6084442138671875,0.6249441693746177
1780399369.081773,-0.1083984300494194,-0.01171875,0.9941405653953552,1.0001015011004322,0.919342041015625,-0.072479248046875,-0.8563995361328125,1.2585162673818373
1780399369.089733,-0.1162109300494194,-0.01123046875,0.9882811903953552,0.9951536640039849,1.346588134765625,-0.011444091796875,-0.8563995361328125,1.5958855652637243
1780399369.097693,-0.1157226487994194,-0.017578125,0.9794921278953552,0.986461124694045,1.346588134765625,0.720977783203125,-0.7305145263671875,1.6931509211519018
1780399369.108371,-0.1118163987994194,-0.015625,0.9824218153953552,0.9888880983357905,1.346588134765625,0.476837158203125,-1.0967254638671875,1.8009664136872443
1780399369.119051,-0.1088867112994194,-0.01513671875,0.9804686903953552,0.9866125323538631,1.1615753173828125,-0.0133514404296875,-0.8563995361328125,1.443210187187932
1780399369.12973,-0.11865234375,-3.725290298461914e-09,0.9780272841453552,0.9851983288709475,1.224517822265625,0.110626220703125,-0.5474090576171875,1.3458598493582246
1780399369.137689,-0.1069335862994194,-0.01123046875,0.9736327528953552,0.9795517611733379,1.102447509765625,-0.255584716796875,-0.0591278076171875,1.1332299664596686
1780399369.145649,-0.1074218675494194,0.00830078125,0.9824218153953552,0.9883121895240747,0.736236572265625,-0.438690185546875,0.0,0.857025885978124
1780399369.153609,-0.1166992112994194,0.001953125,0.9912108778953552,0.9980588785604049,0.6732940673828125,-0.3795623779296875,0.0629425048828125,0.7754703468434193
1780399369.161568,-0.1166992112994194,-0.00732421875,0.9726561903953552,0.9796593361024075,0.431060791015625,-0.560760498046875,0.1201629638671875,0.7174293551327146
1780399369.172246,-0.10888671875,0.0009765587747097015,0.9843749403953552,0.9903793689619858,0.736236572265625,-0.560760498046875,0.1850128173828125,0.9437830095457017
1780399369.182925,-0.1005859375,0.00048827752470970154,0.9790038466453552,0.9841576606337509,-0.1811981201171875,-0.5588531494140625,-0.1201629638671875,0.5996571847558955
1780399369.193603,-0.10546875,0.0019531212747097015,0.9755858778953552,0.9812722746812564,-0.1201629638671875,-0.8678436279296875,0.0629425048828125,0.878381158350082
1780399369.201632,-0.1025390550494194,0.00439453125,0.9833983778953552,0.9887395710512202,-1.155853271484375,-0.621795654296875,-0.1850128173828125,1.325464584023103
1780399369.209662,-0.0966796800494194,-0.00537109375,0.9741210341453552,0.9789216507703493,-1.6460418701171875,-0.8678436279296875,-0.0591278076171875,1.8617471628421152
1780399369.217693,-0.0966796800494194,-0.01611328125,0.9946288466453552,0.9994464172461519,-1.7681121826171875,-0.6847381591796875,0.0,1.896071474643322
1780399369.225723,-0.0991210862994194,-0.025390625,0.9838866591453552,0.9891929193192175,-2.010345458984375,-1.110076904296875,-0.3681182861328125,2.3257838830161734
1780399369.236336,-0.0927734300494194,-0.03759765625,0.9921874403953552,0.9972243528699618,-1.583099365234375,-0.621795654296875,-0.6732940673828125,1.8292507583928594
1780399369.246949,-0.0947265625,-0.0288085974752903,0.9912108778953552,0.9961435947641487,-1.3980865478515625,-0.3795623779296875,-0.2422332763671875,1.4688058259016814
1780399369.257562,-0.11328125,-0.0385742150247097,1.00439453125,1.0114983865885512,-1.094818115234375,-0.438690185546875,-0.4253387451171875,1.253789787978178
1780399369.268311,-0.1059570237994194,-0.04296875,0.9965819716453552,1.0031195494942449,0.553131103515625,0.232696533203125,0.2460479736328125,0.6485686544769022
1780399369.279059,-0.10498046875,-0.0253906212747097,0.9912108778953552,0.9970780244924498,1.4095306396484375,-0.1964569091796875,0.6732940673828125,1.5743877674972773
1780399369.289807,-0.11474609375,-0.0341796837747097,0.9912108778953552,0.998415705641645,2.323150634765625,0.415802001953125,1.1615753173828125,2.6304329291189186
1780399369.297779,-0.109375,-0.0229492224752903,0.9902343153953552,0.9965207257371661,2.811431884765625,-0.316619873046875,1.7681121826171875,3.3362580950826226
1780399369.305752,-0.0986328050494194,-0.02197265625,0.9868163466453552,0.9919766780832517,3.360748291015625,0.171661376953125,2.0771026611328125,3.954548288842469
1780399369.313725,-0.0922851487994194,-0.0087890625,0.9819335341453552,0.9862997829198521,3.238677978515625,0.232696533203125,2.0160675048828125,3.822003520319051
1780399369.321697,-0.1015624925494194,-0.00048828125,0.9829100966453552,0.9881434290622042,3.543853759765625,0.110626220703125,2.2563934326171875,4.20267164480762
1780399369.332273,-0.0917968675494194,0.01318359375,0.9765624403953552,0.9809559990269606,3.360748291015625,0.232696533203125,1.6498565673828125,3.751106962626552
1780399369.342848,-0.0908203125,0.0068359337747097015,0.9853515028953552,0.9895517386227489,3.4198760986328125,0.3528594970703125,1.5888214111328125,3.787402253675567
1780399369.353423,-0.0830078050494194,0.0087890625,0.9819335341453552,0.9854750168309386,2.7484893798828125,0.4177093505859375,0.6732940673828125,2.860419527633739
1780399369.364151,-0.0961913987994194,0.0068359375,0.9897460341453552,0.9944328671916227,2.079010009765625,0.354766845703125,-0.6732940673828125,2.213925707129465
1780399369.374881,-0.0986328050494194,-0.00048828125,0.9790038466453552,0.9839599587365829,1.712799072265625,0.110626220703125,-1.2187957763671875,2.1050847885896515
1780399369.385609,-0.1127929612994194,0.01220703125,0.9887694716453552,0.9952569174783291,1.2836456298828125,1.0890960693359375,-0.9136199951171875,1.915353191147304
1780399369.393566,-0.10986328125,0.0063476525247097015,0.9770507216453552,0.9832285318924082,0.6122589111328125,1.5125274658203125,-0.8563995361328125,1.8428294751850618
1780399369.401526,-0.1220703050494194,0.01123046875,0.9785155653953552,0.9861642837398821,-0.1811981201171875,1.7566680908203125,-0.6732940673828125,1.8899842436415113
1780399369.409487,-0.1127929612994194,-0.001953125,0.9960936903953552,1.002461324371866,-0.606536865234375,1.819610595703125,-0.1850128173828125,1.9269404327792155
1780399369.417447,-0.1210937350988388,-3.725290298461914e-09,0.9814452528953552,0.9888874946681324,-0.911712646484375,1.697540283203125,0.1201629638671875,1.9306222055964848
1780399369.428262,-0.1215820237994194,0.0068359375,0.9804686903953552,0.9880019086005094,-1.216888427734375,1.453399658203125,0.7343292236328125,2.0328372833800468
1780399369.439077,-0.1030273362994194,-0.00732421875,0.9848632216453552,0.9902645311001094,-0.8525848388671875,1.3294219970703125,0.8563995361328125,1.7965756091100376
1780399369.449892,-0.1157226487994194,-0.01123046875,0.9848632216453552,0.9917022840667287,-0.9746551513671875,0.9632110595703125,0.8563995361328125,1.615904816149038
1780399369.460473,-0.1118163987994194,-0.0126953125,0.9892577528953552,0.9956379762059657,-0.606536865234375,0.537872314453125,0.4863739013671875,0.9453851952905982
1780399369.471056,-0.0986328050494194,-0.0166015625,0.9780272841453552,0.9831283795324482,-0.1811981201171875,-0.0133514404296875,-0.1850128173828125,0.2593082379938519
1780399369.481639,-0.1005859375,-0.0175781287252903,0.9970702528953552,1.0022851942641098,-0.0553131103515625,-0.1964569091796875,-0.1850128173828125,0.2754715955178066
1780399369.489666,-0.1059570237994194,-0.01025390625,0.9877929091453552,0.9935123878662301,0.186920166015625,-0.743865966796875,-0.7915496826171875,1.1021917369828758
1780399369.497698,-0.11474609375,-0.015136715024709702,0.9892577528953552,0.9960053653651625,-0.057220458984375,-1.049041748046875,-0.7305145263671875,1.2796148808548227
1780399369.505728,-0.09912109375,-0.014648433774709702,0.9848632216453552,0.9899470355468096,0.064849853515625,-1.659393310546875,-0.9746551513671875,1.9255503957765714
1780399369.513759,-0.1162109300494194,0.0068359375,0.9790038466453552,0.9859007262655085,0.1239776611328125,-1.8444061279296875,-0.8563995361328125,2.0373081727350533
1780399369.524371,-0.1279296875,-0.01123046875,0.9980468153953552,1.0062750986151863,0.308990478515625,-2.391815185546875,-0.7305145263671875,2.519902075648858
1780399369.534982,-0.10546875,0.0053710900247097015,0.9882811903953552,0.9939075495859141,0.247955322265625,-2.208709716796875,-0.1201629638671875,2.225830090729777
1780399369.545593,-0.1098632737994194,-0.0009765625,0.9863280653953552,0.9924283073304523,-0.301361083984375,-2.086639404296875,0.1850128173828125,2.1163913270235684
1780399369.556376,-0.0986328050494194,-0.001953125,0.9892577528953552,0.9941645470407552,0.064849853515625,-1.476287841796875,0.7915496826171875,1.6763598048717474
1780399369.567157,-0.1010742112994194,0.00146484375,0.9804686903953552,0.9856657622148567,0.431060791015625,-1.293182373046875,0.9174346923828125,1.6431130424586462
1780399369.577938,-0.09130859375,-3.725290298461914e-09,0.9877929091453552,0.9920040779404319,0.553131103515625,-0.621795654296875,0.6732940673828125,1.070471276845756
1780399369.585865,-0.1015624925494194,-0.00830078125,0.9897460341453552,0.9949779168246248,1.224517822265625,-0.194549560546875,0.6084442138671875,1.3811219315989414
1780399369.593792,-0.1030273362994194,-0.009765625,0.9956054091453552,1.0009695950307804,0.736236572265625,-0.560760498046875,0.6084442138671875,1.1075653424966294
1780399369.601721,-0.1049804612994194,-0.01123046875,1.0078125,1.013327713940181,0.919342041015625,-0.499725341796875,0.6732940673828125,1.244282968936596
1780399369.609649,-0.10400390625,-0.0043945349752902985,0.9873046278953552,0.9927771918796753,1.041412353515625,-0.316619873046875,0.9174346923828125,1.4235428510763974
1780399369.620284,-0.0917968675494194,0.00341796875,0.9956054091453552,0.9998342253202537,1.041412353515625,-0.072479248046875,0.8563995361328125,1.3502640841483158
1780399369.630919,-0.09033203125,0.0009765587747097015,0.9926757216453552,0.9967777675494764,0.797271728515625,0.049591064453125,1.1615753173828125,1.4097371034050525
1780399369.641554,-0.095703125,-0.0195312462747097,0.9873046278953552,0.9921244810906517,0.553131103515625,-0.011444091796875,0.4291534423828125,0.7001840201136315
1780399369.649539,-0.095703125,0.0078124962747097015,0.9877929091453552,0.9924489682551199,0.431060791015625,0.476837158203125,0.4291534423828125,0.7728905214215441
1780399369.657526,-0.08984375,-0.0039062537252902985,0.9863280653953552,0.9904192096374005,-0.057220458984375,0.476837158203125,0.3681182861328125,0.605110674963658
1780399369.665512,-0.1108398362994194,0.001953125,0.9887694716453552,0.9949644978922527,-0.179290771484375,0.720977783203125,0.3032684326171875,0.8024499279294879
1780399369.673498,-0.0888671800494194,0.001953125,0.9877929091453552,0.9917842616945711,-0.4863739013671875,0.7801055908203125,-0.1201629638671875,0.9271264437203776
1780399369.684242,-0.0961913987994194,-0.0146484375,0.9868163466453552,0.9916016659579925,-0.667572021484375,1.026153564453125,0.1201629638671875,1.2300742577559842
1780399369.694985,-0.1044921875,0.0048828087747097015,0.9785155653953552,0.9840910378572997,-0.6694793701171875,0.8411407470703125,0.1201629638671875,1.0817391188636272
1780399369.705729,-0.10498046875,-0.0175781287252903,0.9941405653953552,0.9998226608719414,-0.301361083984375,1.087188720703125,0.3681182861328125,1.1867219092734802
1780399369.71649,-0.109375,-0.0195312462747097,0.9877929091453552,0.9940217259013443,-0.240325927734375,1.453399658203125,0.0,1.4731351322965414
1780399369.72725,-0.11376953125,-0.0043945349752902985,0.9873046278953552,0.9938476978099208,-0.3032684326171875,1.7566680908203125,0.0629425048828125,1.7837646376271983
1780399369.73801,-0.1166992112994194,-0.0078125,0.9912108778953552,0.9980875440221851,-0.240325927734375,1.392364501953125,0.0,1.4129527443763157
1780399369.745969,-0.1240234375,0.0009765587747097015,0.9887694716453552,0.9965178547192176,-0.118255615234375,1.209259033203125,0.0,1.2150274893671407
1780399369.753928,-0.1166992112994194,-0.0087890625,0.9848632216453552,0.9917920744224585,-0.301361083984375,1.087188720703125,0.3032684326171875,1.1682335209992996
1780399369.761886,-0.11474609375,-0.0073242224752902985,0.9960936903953552,1.0027078090406942,-0.057220458984375,0.476837158203125,0.4863739013671875,0.6835257334590653
1780399369.769845,-0.13330078125,-3.725290298461914e-09,0.9848632216453552,0.9938433798298042,-0.240325927734375,0.232696533203125,0.8563995361328125,0.919415245465637
1780399369.780502,-0.1123046800494194,-0.017578125,0.9877929091453552,0.9943119042822338,-0.1811981201171875,-0.1354217529296875,0.9174346923828125,0.9449117549740281
1780399369.791157,-0.109375,-0.008300784975290298,0.9770507216453552,0.9831886422878955,-0.057220458984375,-0.316619873046875,0.7343292236328125,0.8017242254140577
1780399369.801814,-0.1201171875,-0.008300784975290298,0.9814452528953552,0.9888032292599696,0.247955322265625,-0.560760498046875,0.5512237548828125,0.8244888149373139
1780399369.8125,-0.1083984300494194,0.00634765625,0.9843749403953552,0.990345664732979,-0.118255615234375,-0.560760498046875,0.1850128173828125,0.6022179583009508
1780399369.823187,-0.08642578125,-0.005859375,0.9858397841453552,0.9896382308418689,-0.1811981201171875,-0.3795623779296875,-0.2422332763671875,0.48536307817264374
1780399369.833875,-0.09521484375,-0.014648433774709702,0.9941405653953552,0.9987972300957715,0.1239776611328125,-0.4405975341796875,-0.4253387451171875,0.6248277328056487
1780399369.841901,-0.0976562425494194,-0.01416015625,0.9824218153953552,0.9873651174204002,0.370025634765625,-0.743865966796875,-1.1615753173828125,1.4281151091194766
1780399369.849928,-0.1015624925494194,-0.00634765625,0.9829100966453552,0.9881636963176195,0.4329681396484375,-0.8678436279296875,-1.4019012451171875,1.7046821033699835
1780399369.857955,-0.10546875,-0.0068359412252902985,0.9785155653953552,0.9842068375295865,0.431060791015625,-0.988006591796875,-1.6498565673828125,1.9707859152940204
1780399369.865982,-0.1040038987994194,-0.0029296875,0.9741210341453552,0.9796617697954452,0.431060791015625,-1.598358154296875,-1.3446807861328125,2.1327748619001228
1780399369.87654,-0.1157226487994194,-0.009765625,0.9877929091453552,0.9945963654843297,-0.057220458984375,-1.598358154296875,-1.0356903076171875,1.90543364713282
1780399369.887098,-0.10888671875,0.00048827752470970154,0.9946288466453552,1.0005713860160865,-0.240325927734375,-1.781463623046875,-1.0967254638671875,2.1057483075798458
1780399369.897655,-0.11474609375,-0.015136715024709702,0.9848632216453552,0.9916407371232241,-0.0553131103515625,-1.8444061279296875,-0.7305145263671875,1.984576775575796
1780399369.908254,-0.1010742112994194,-0.01123046875,0.9975585341453552,1.0027288510182473,0.064849853515625,-1.049041748046875,-0.5474090576171875,1.1850530659036238
1780399369.918855,-0.1020507737994194,-0.00732421875,0.9868163466453552,0.9921060964533198,0.186920166015625,-0.804901123046875,-0.1850128173828125,0.8467790201353333
1780399369.929455,-0.1113281175494194,-0.00146484375,0.9882811903953552,0.9945329591388963,0.0019073486328125,-0.1964569091796875,0.5512237548828125,0.5851893566106189
1780399369.937514,-0.1103515625,-0.009277347475290298,0.9882811903953552,0.9944663130602409,-0.0553131103515625,-0.3795623779296875,0.5512237548828125,0.6715465485456016
1780399369.945572,-0.1074218675494194,-0.00634765625,0.9907225966453552,0.9965495541474033,0.064849853515625,0.293731689453125,0.5512237548828125,0.6279581489534888
1780399369.95363,-0.09033203125,-0.0043945349752902985,0.9897460341453552,0.9938694078770403,0.1239776611328125,0.2918243408203125,0.6732940673828125,0.7442155652282904
1780399369.961688,-0.0976562425494194,-0.0126953125,0.9902343153953552,0.9951190441624819,0.186920166015625,0.537872314453125,0.4863739013671875,0.7488693791640895
1780399369.972264,-0.0908203125,-0.0219726599752903,0.9882811903953552,0.9926886915031559,0.247955322265625,0.598907470703125,0.0629425048828125,0.6512555252930967
1780399369.98284,-0.0976562425494194,-0.017578125,0.9882811903953552,0.9932499400838879,0.1239776611328125,0.6580352783203125,0.1201629638671875,0.680308772440427
1780399369.993416,-0.1064453050494194,-0.01171875,0.9858397841453552,0.9916390533215133,0.003814697265625,0.843048095703125,0.1201629638671875,0.8515772316526792
1780399370.004178,-0.10400390625,-0.009277347475290298,0.9736327528953552,0.9792158185007144,0.064849853515625,1.087188720703125,0.0,1.089121121788158
1780399370.014941,-0.11962890625,-0.0053710900247097015,0.9697265028953552,0.9770923263623966,0.431060791015625,0.476837158203125,0.3681182861328125,0.7407416240360789
1780399370.025704,-0.13134765625,-0.01611328125,0.9936522841453552,1.0024254118997042,0.6122589111328125,0.6008148193359375,1.0395050048828125,1.3477425854263225
1780399370.03638,-0.1113281175494194,-0.01123046875,0.9785155653953552,0.9848922707110833,0.858306884765625,0.171661376953125,1.7108917236328125,1.9217983314512401
1780399370.047056,-0.1147460862994194,-0.005859375,0.9770507216453552,0.9837830600615838,0.675201416015625,-0.255584716796875,2.3822784423828125,2.489271193882162
1780399370.057732,-0.103515625,0.0048828087747097015,0.9809569716453552,0.9864156865441147,0.431060791015625,0.476837158203125,2.4394989013671875,2.52276474740828
1780399370.065649,-0.1069335862994194,-0.01123046875,0.9765624403953552,0.9824637984669622,-0.301361083984375,1.209259033203125,2.2563934326171875,2.5776805921373516
1780399370.073566,-0.1010742038488388,0.0048828087747097015,0.9931640028953552,0.9983058515066072,-0.545501708984375,1.514434814453125,2.3212432861328125,2.8247575675001215
1780399370.081482,-0.10009765625,0.0078124962747097015,0.9853515028953552,0.9904535123583139,-0.911712646484375,1.636505126953125,1.7108917236328125,2.537029654989997
1780399370.0894,-0.10009765625,0.014160159975290298,0.9731444716453552,0.9783814254222054,-1.3408660888671875,1.3294219970703125,0.9174346923828125,2.099278716453809
1780399370.100152,-0.1083984300494194,0.00439453125,0.9775390028953552,0.9835405602839831,-1.583099365234375,1.209259033203125,0.6732940673828125,2.102816185680938
1780399370.110906,-0.10986328125,0.0063476525247097015,0.9912108778953552,0.9973009764948954,-1.888275146484375,0.782012939453125,0.4291534423828125,2.08837255857563
1780399370.121659,-0.1030273362994194,-0.0107421875,0.9931640028953552,0.9985513323131485,-2.254486083984375,0.110626220703125,0.4291534423828125,2.2976332041244696
1780399370.132288,-0.1074218675494194,-0.0078125,0.9848632216453552,0.9907351099732578,-2.193450927734375,-0.438690185546875,0.3681182861328125,2.2669775305148705
1780399370.142918,-0.12744140625,-0.0234375,0.9877929091453552,0.9962557200794742,-2.2563934326171875,-0.6847381591796875,0.7343292236328125,2.4696997951321795
1780399370.153547,-0.1166992112994194,-0.0166015625,0.9746093153953552,0.9817115846575056,-2.437591552734375,-0.438690185546875,1.0395050048828125,2.6860514351057296
1780399370.164227,-0.1230468675494194,-0.02001953125,0.9780272841453552,0.9859405062060963,-2.620697021484375,-0.560760498046875,1.2798309326171875,2.969928017759123
1780399370.174909,-0.1225585862994194,-0.02099609375,0.9838866591453552,0.9917128622099641,-3.4770965576171875,-0.3795623779296875,1.8939971923828125,3.977624094165625
1780399370.18559,-0.1123046800494194,-0.01953125,0.9975585341453552,1.0040502178346433,-4.329681396484375,-0.682830810546875,2.3822784423828125,4.988752297713013
