timestamp,accel_x,accel_y,accel_z,accel_rms,gyro_x,gyro_y,gyro_z,gyro_rms
1784817093.392859,-0.0922851487994194,-0.23388671875,0.9462890028953552,0.9791232930010695,-12.294769287109375,2.5787353515625,-57.01637268066406,58.38388460437539
1784817093.401012,-0.0981445237994194,-0.23681640625,0.9604491591453552,0.9940708954214481,-12.416839599609375,2.8839111328125,-56.28776550292969,57.713147500177016
1784817093.409167,-0.07568359375,-0.25341796875,0.9658202528953552,1.001377767953303,-12.174606323242188,3.1299591064453125,-55.67359924316406,57.07510259143111
1784817093.417321,-0.0825195237994194,-0.2470703125,0.9716796278953552,1.0059893192245069,-11.747360229492188,3.0689239501953125,-55.06324768066406,56.385991271908075
1784817093.427892,-0.09130859375,-0.25,0.9628905653953552,0.9989972473535598,-11.196136474609375,3.1890869140625,-54.33082580566406,55.56403855038738
1784817093.438464,-0.0820312425494194,-0.25390625,0.9575194716453552,0.9940025387911564,-10.951995849609375,3.2501220703125,-53.90357971191406,55.100865803728226
1784817093.449037,-0.0683593675494194,-0.25048828125,0.9672850966453552,1.0015277531689024,-10.770797729492188,3.5572052001953125,-54.02565002441406,55.20357464083646
1784817093.459584,-0.0678710862994194,-0.271484375,0.9653319716453552,1.0050751542572887,-10.402679443359375,3.3721923828125,-53.59840393066406,54.70261716757815
1784817093.470132,-0.0571289025247097,-0.2685546875,0.9531249403953552,0.9918833014450591,-9.975433349609375,3.009796142578125,-53.72047424316406,54.72163645435716
1784817093.48068,-0.0595703050494194,-0.2666015625,0.9423827528953552,0.981177999817439,-9.853363037109375,2.5787353515625,-53.90357971191406,54.85740191544934
1784817093.488683,-0.0625,-0.27294921875,0.9506835341453552,0.991063422850091,-10.404586791992188,1.6651153564453125,-53.66325378417969,54.68795884075071
1784817093.496685,-0.06591796875,-0.27392578125,0.9458007216453552,0.9868736075619935,-10.404586791992188,0.9937286376953125,-53.48014831542969,54.49191854539378
1784817093.504687,-0.0644531175494194,-0.28125,0.9589843153953552,1.001452287448652,-10.282516479492188,0.4444122314453125,-53.23219299316406,54.21802300198664
1784817093.512689,-0.0634765550494194,-0.2763671875,0.9477538466453552,0.989265105620667,-9.975433349609375,-0.2288818359375,-52.80876159667969,53.74315732055824
1784817093.523363,-0.0673828050494194,-0.27587890625,0.9628905653953552,1.0038963364099955,-9.365081787109375,-0.7171630859375,-52.19459533691406,53.03296014890448
1784817093.534036,-0.0585937425494194,-0.27880859375,0.9604491591453552,1.0018133787875965,-9.181976318359375,-1.3885498046875,-51.52702331542969,52.35714747214409
1784817093.544711,-0.0727538987994194,-0.28662109375,0.9580077528953552,1.0026084159733402,-8.573532104492188,-2.1190643310546875,-50.42457580566406,51.19212567931779
1784817093.552699,-0.0458984337747097,-0.283203125,0.9335936903953552,0.9766820644297485,-8.813858032226562,-2.9125213623046875,-48.71940612792969,49.59584062757963
1784817093.560686,-0.0600585900247097,-0.29541015625,0.9350585341453552,0.9824503330598784,-8.756637573242188,-3.2787322998046875,-47.25456237792969,48.17076346304413
1784817093.568672,-0.0507812462747097,-0.2861328125,0.9394530653953552,0.9833731659157181,-9.059906005859375,-3.6468505859375,-45.96900939941406,46.995012939614966
1784817093.57666,-0.0429687462747097,-0.29443359375,0.9340819716453552,0.9803298343097769,-8.939743041992188,-4.2552947998046875,-44.07691955566406,45.17522968404891
1784817093.587338,-0.0366210900247097,-0.2841796875,0.9482421278953552,0.990586862489962,-9.181976318359375,-4.5623779296875,-42.61207580566406,43.8282213414128
1784817093.598017,-0.0356445275247097,-0.29541015625,0.9531249403953552,0.9984912842693013,-8.937835693359375,-4.5013427734375,-41.45240783691406,42.64327742004971
1784817093.608696,-0.04296875,-0.306640625,0.9370116591453552,0.9868463080699469,-8.876800537109375,-4.6234130859375,-39.38102722167969,40.63297726445258
1784817093.619418,-0.0400390550494194,-0.28759765625,0.9399413466453552,0.9837709453644315,-8.451461791992188,-5.9032440185546875,-34.67750549316406,36.1774084698245
1784817093.630141,-0.0336914025247097,-0.28955078125,0.9599608778953552,1.0032445627144901,-8.146286010742188,-6.2694549560546875,-32.17887878417969,33.78088632676387
1784817093.640863,-0.0224609375,-0.29638671875,0.9633788466453552,1.008190648106054,-7.4748992919921875,-6.5135955810546875,-29.672622680664062,31.28522947922901
1784817093.651497,-0.02880859375,-0.30078125,0.9580077528953552,1.0045288199116156,-6.3152313232421875,-6.2694549560546875,-26.803970336914062,28.24253950929744
1784817093.662131,-0.0302734337747097,-0.28955078125,0.9663085341453552,1.0092117314405051,-5.702972412109375,-6.4544677734375,-24.545669555664062,26.012957204198784
1784817093.672764,-0.0219726525247097,-0.2998046875,0.9667968153953552,1.0124533225608698,-4.5452117919921875,-5.8422088623046875,-21.558761596679688,22.794090379028667
1784817093.680789,-0.015624996274709702,-0.298828125,0.9550780653953552,1.0008578819187741,-2.468109130859375,-3.9520263671875,-17.103195190429688,17.7265157549563
1784817093.688816,-0.01220703125,-0.302734375,0.9570311903953552,1.0038455124211743,-1.674652099609375,-3.2806396484375,-15.207290649414062,15.647004347586236
1784817093.696841,-0.00244140625,-0.2919921875,0.9604491591453552,1.003856556151591,-0.9441375732421875,-2.7904510498046875,-13.315200805664062,13.637176588785549
1784817093.704868,-0.00390625,-0.29296875,0.9560546278953552,0.9999431977796295,0.0934600830078125,-2.2411346435546875,-11.060714721679688,11.285868572335875
1784817093.715571,-0.0283203125,-0.29150390625,0.9404296278953552,0.9849794172887587,0.5245208740234375,-1.9359588623046875,-8.981704711914062,9.202938573947
1784817093.726274,-0.011718746274709702,-0.2880859375,0.9389647841453552,0.9822350544877934,0.5817413330078125,-1.6307830810546875,-7.3337554931640625,7.535372988080815
1784817093.736977,-0.0170898400247097,-0.29443359375,0.9467772841453552,0.9916503564937921,0.7038116455078125,-1.2035369873046875,-4.4651031494140625,4.6777129291001005
1784817093.747596,-0.0454101487994194,-0.28173828125,0.9565429091453552,0.9982048275639368,0.827789306640625,-1.2054443359375,-1.7223358154296875,2.259374215207435
1784817093.758216,-0.0498046837747097,-0.2998046875,0.9550780653953552,1.0022661663311827,1.132965087890625,-1.0223388671875,1.8215179443359375,2.376281606055783
1784817093.768836,-0.0610351525247097,-0.28369140625,0.9609374403953552,1.0037962284136128,1.499176025390625,-0.8392333984375,5.2394866943359375,5.51398787378811
1784817093.776812,-0.0893554612994194,-0.2919921875,0.9667968153953552,1.0138737191009872,2.6569366455078125,-0.7762908935546875,14.699935913085938,14.958277164783782
1784817093.784787,-0.0986328125,-0.3046875,0.9638671278953552,1.0156784651626474,3.086090087890625,-0.9002685546875,20.009994506835938,20.266581252513713
1784817093.792762,-0.1010742112994194,-0.31103515625,0.9453124403953552,1.0002871960489566,3.5114288330078125,-0.7762908935546875,26.052474975585938,26.29950973600508
1784817093.800736,-0.12646484375,-0.30224609375,0.9619140028953552,1.0161813848216328,3.8776397705078125,-0.2880096435546875,32.76634216308594,32.9962455211654
1784817093.811393,-0.1572265625,-0.29833984375,0.9550780653953552,1.0128676938888292,4.245758056640625,0.0762939453125,40.57884216308594,40.8004254087903
1784817093.822048,-0.16748046875,-0.3125,0.9541015028953552,1.017848532562628,4.6710968017578125,-0.1049041748046875,49.36790466308594,49.588508356683064
1784817093.832705,-0.166015625,-0.30126953125,0.9565429091453552,1.0165130866053789,4.8542022705078125,-0.1659393310546875,57.79075622558594,57.99450250385543
1784817093.843373,-0.1796875,-0.31640625,0.9370116591453552,1.00518225316091,5.1593780517578125,0.3833770751953125,66.70188903808594,66.90222837179547
1784817093.854042,-0.1796874850988388,-0.33251953125,0.9448241591453552,1.017619537287189,4.550933837890625,0.9307861328125,75.00267028808594,75.14637657242845
1784817093.864711,-0.1474609375,-0.318359375,0.9394530653953552,1.002830734381181,4.062652587890625,1.1138916015625,82.32307434082031,82.43078593264869
1784817093.872687,-0.1328125,-0.328125,0.9511718153953552,1.0149054134173026,3.696441650390625,2.8839111328125,94.35081481933594,94.46722649347404
1784817093.880665,-0.1118163987994194,-0.34228515625,0.9467772841453552,1.0129408970928226,3.3283233642578125,3.1299591064453125,98.13499450683594,98.24129237383741
1784817093.888643,-0.0961913987994194,-0.326171875,0.9492186903953552,1.008294103642324,3.452301025390625,3.1890869140625,101.06468200683594,101.17390279542559
1784817093.896621,-0.07568359375,-0.322265625,0.9555663466453552,1.0112814555111287,3.269195556640625,2.7008056640625,103.20091247558594,103.28799701134754
1784817093.907296,-0.0610351525247097,-0.32568359375,0.9497069716453552,1.005852089063507,3.757476806640625,2.521514892578125,104.23851013183594,104.33668417105653
1784817093.917973,-0.0439453050494194,-0.33056640625,0.9511718153953552,1.0079350977019415,4.367828369140625,2.2735595703125,103.62434387207031,103.74127260015227
1784817093.928649,-0.0224609337747097,-0.32861328125,0.9628905653953552,1.0176686214516542,5.2204132080078125,2.1533966064453125,102.28538513183594,102.4411530712877
1784817093.939325,0.0029296912252902985,-0.31884765625,0.9589843153953552,1.010605426544451,5.9528350830078125,1.1768341064453125,100.08811950683594,100.27189461885247
1784817093.949999,0.013183597475290298,-0.29248046875,0.9541015028953552,0.9980121791189653,6.259918212890625,-0.0457763671875,97.15843200683594,97.35989719353053
1784817093.960673,0.01318359375,-0.2919921875,0.9545897841453552,0.9983360660117795,6.8073272705078125,-1.4476776123046875,93.86253356933594,94.12019274890848
1784817093.971322,0.0361328125,-0.30615234375,0.9506835341453552,0.9994168398710725,7.2956085205078125,-4.1942596435546875,84.76448059082031,85.18118857748823
1784817093.981971,0.0268554724752903,-0.29345703125,0.9462890028953552,0.9911110546213376,7.1125030517578125,-4.2552947998046875,80.18684387207031,80.61405065904013
1784817093.99262,0.0361328162252903,-0.2939453125,0.9262694716453552,0.9724631413330064,7.175445556640625,-5.352020263671875,75.12092590332031,75.65239354052989
1784817094.000637,0.04345703125,-0.2958984375,0.9277343153953552,0.9747488696285281,6.9293975830078125,-6.8798065185546875,69.93675231933594,70.6151372835335
1784817094.008652,0.0322265662252903,-0.26611328125,0.9350585341453552,0.9727226183791425,6.7501068115234375,-6.8187713623046875,64.56565856933594,65.27468001721974
1784817094.016669,0.0390625,-0.26513671875,0.9262694716453552,0.9642605937390225,6.381988525390625,-7.488250732421875,59.55696105957031,60.36418878127171
1784817094.024684,0.0332031287252903,-0.27197265625,0.9384765028953552,0.9776552152939831,6.381988525390625,-8.0413818359375,54.25071716308594,55.21353015410906
1784817094.035447,0.021484375,-0.283203125,0.9321288466453552,0.9744381843540956,6.076812744140625,-8.5906982421875,49.97825622558594,51.07400361011454
1784817094.046209,0.01025390625,-0.26171875,0.9536132216453552,0.9889287250311721,6.0138702392578125,-8.649826049804688,44.78645324707031,46.00883089580223
1784817094.056971,0.0205078125,-0.2529296875,0.9594725966453552,0.9924624229187538,6.6242218017578125,-8.710861206054688,40.88020324707031,42.31962233942796
1784817094.064946,-0.0058593712747097015,-0.25439453125,0.9780272841453552,1.010588085371276,8.943557739257812,-9.138107299804688,34.23118591308594,36.54129607819672
1784817094.07292,0.001953125,-0.25390625,0.9741210341453552,1.0066697510359315,10.471343994140625,-9.0789794921875,31.606674194335938,34.51171927461869
1784817094.080894,-0.009765617549419403,-0.25244140625,0.9804686903953552,1.0124924116857281,11.632919311523438,-9.809494018554688,28.860092163085938,32.62600043324786
1784817094.088868,-0.0161132775247097,-0.24853515625,0.9687499403953552,1.0002528723381925,12.849807739257812,-9.870529174804688,26.964187622070312,31.458104190252318
1784817094.099493,-0.011230465024709702,-0.244140625,0.9697265028953552,1.0000501280124499,13.521194458007812,-10.114669799804688,25.197982788085938,30.332615800801246
1784817094.110118,-0.0126953125,-0.2431640625,0.9716796278953552,1.00172412944774,13.643264770507812,-10.663986206054688,23.611068725585938,29.28040030063535
1784817094.120743,-0.011718746274709702,-0.24462890625,0.9560546278953552,0.9869250641803806,14.131546020507812,-11.091232299804688,22.691726684570312,28.941846637441802
1784817094.13139,-0.0068359375,-0.24267578125,0.9565429091453552,0.9868701038551432,14.497756958007812,-11.335372924804688,21.413803100585938,28.235201422843136
1784817094.142036,-0.00830078125,-0.24072265625,0.9443358778953552,0.9745699310371767,14.865875244140625,-11.2152099609375,20.376205444335938,27.60371224223384
1784817094.152683,-0.011718746274709702,-0.2358398288488388,0.9560546278953552,0.9847833291672979,14.863967895507812,-11.091232299804688,19.216537475585938,26.70633423136759
1784817094.160679,-0.015136711299419403,-0.248046875,0.9570311903953552,0.9887694734445326,13.950347900390625,-9.3841552734375,16.466140747070312,23.533133404632864
1784817094.168674,-0.010742183774709702,-0.2465820163488388,0.9604491591453552,0.9916555211372186,13.399124145507812,-8.649826049804688,15.188217163085938,22.023577346826933
1784817094.176671,-0.00927734375,-0.251953125,0.9892577528953552,1.0208806727369704,13.338088989257812,-7.5511932373046875,14.513015747070312,21.10812078957261
1784817094.184667,-0.0302734337747097,-0.2407226413488388,0.9790038466453552,1.0086190572247162,14.377593994140625,-6.7596435546875,13.418197631835938,20.795576879081388
1784817094.195363,-0.03759765625,-0.232421875,0.9804686903953552,1.008341392872271,15.047073364257812,-6.6967010498046875,13.353347778320312,21.20311577737065
1784817094.206059,-0.0405273400247097,-0.2333984375,0.9638671278953552,0.9925508229577773,16.088485717773438,-5.9032440185546875,12.929916381835938,21.467892310957563
1784817094.216755,-0.0400390550494194,-0.22216796875,0.9658202528953552,0.9918520520574625,16.939163208007812,-5.5370330810546875,12.865066528320312,21.979625163007835
1784817094.227444,-0.0454101525247097,-0.2158203125,0.9721679091453552,0.9968705697391045,18.098831176757812,-4.6825408935546875,12.258529663085938,22.355433985618582
1784817094.238133,-0.04296875,-0.22216796875,0.9794921278953552,1.0052908775195537,19.016265869140625,-3.4637451171875,12.136459350585938,22.823442847456377
1784817094.248822,-0.0405273362994194,-0.20751953125,0.9697265028953552,0.9925101063744396,19.931793212890625,-2.3651123046875,11.526107788085938,23.145653968678275
1784817094.25683,-0.0585937462747097,-0.20654296875,0.9790038466453552,1.0022683057889095,22.981643676757812,-0.5321502685546875,10.793685913085938,25.395723765707782
1784817094.264839,-0.0532226525247097,-0.18701171875,0.9853515028953552,1.0043523375537742,24.631500244140625,-0.4119873046875,10.671615600585938,26.84704671547678
1784817094.272847,-0.05126953125,-0.19287109375,0.9941405653953552,1.0139740072622732,26.155471801757812,-0.6542205810546875,10.488510131835938,28.187684447766344
1784817094.280854,-0.05224609375,-0.1787109375,0.9672850966453552,0.9850419847328726,27.742385864257812,-0.8373260498046875,10.240554809570312,29.58394921512114
1784817094.291495,-0.0537109337747097,-0.17138671875,0.9687499403953552,0.9852587065267919,28.902053833007812,-1.4476776123046875,9.935379028320312,30.59634361605381
1784817094.302135,-0.0639648362994194,-0.154296875,0.9711913466453552,0.9854499772775864,30.063629150390625,-1.6937255859375,9.817123413085938,31.671223786908463
1784817094.312775,-0.0605468712747097,-0.14453125,0.9643554091453552,0.9770038694885625,30.918121337890625,-2.4871826171875,9.752273559570312,32.514967999622286
1784817094.320759,-0.0634765550494194,-0.13330078125,0.9536132216453552,0.9649748949167722,31.469345092773438,-2.2411346435546875,9.206771850585938,32.86498156042912
1784817094.328743,-0.0624999962747097,-0.11669921875,0.9594725966453552,0.9685621409618381,32.01484680175781,-2.1190643310546875,8.901596069335938,33.29683561482664
1784817094.336726,-0.0922851487994194,-0.1181640625,0.9501952528953552,0.961951304890379,32.260894775390625,-1.934051513671875,8.104324340820312,33.31945317659903
1784817094.344711,-0.0820312350988388,-0.09228515625,0.9721679091453552,0.9799776105442305,32.444000244140625,-1.8157958984375,7.3757171630859375,33.32133656167501
1784817094.355354,-0.07666015625,-0.087890625,0.9560546278953552,0.9631417305045459,32.566070556640625,-2.3651123046875,6.7653656005859375,33.34535768924171
1784817094.365997,-0.0830078050494194,-0.07568359375,0.9360350966453552,0.9427512949945585,32.993316650390625,-3.5247802734375,6.9446563720703125,33.900018756559625
1784817094.37664,-0.0922851487994194,-0.07568359375,0.9296874403953552,0.9373170711561339,33.725738525390625,-5.2337646484375,6.5212249755859375,34.74685750770071
1784817094.387316,-0.0917968675494194,-0.08056640625,0.9433593153953552,0.9512330990094483,33.054351806640625,-8.7127685546875,7.1277618408203125,34.91858385021036
1784817094.397993,-0.0922851487994194,-0.0703125,0.9438475966453552,0.9509514614523678,32.505035400390625,-9.5672607421875,6.7653656005859375,34.55256830105747
1784817094.40867,-0.0903320237994194,-0.06591796875,0.9282225966453552,0.934934351733249,31.709671020507812,-9.809494018554688,6.9446563720703125,33.91102565914263
1784817094.416686,-0.0830078050494194,-0.06396484375,0.9301757216453552,0.9360601850701383,30.612945556640625,-10.417938232421875,6.8874359130859375,33.06240532879098
1784817094.4247,-0.0751953050494194,-0.056640625,0.9243163466453552,0.9290980588601412,29.636383056640625,-10.2386474609375,6.7653656005859375,32.07670921741956
1784817094.432714,-0.0698242112994194,-0.060546875,0.9072265028953552,0.9119217467039524,28.354644775390625,-10.2386474609375,6.0939788818359375,30.756338546390907
1784817094.440727,-0.0551757775247097,-0.0625,0.8955077528953552,0.8993802043191438,27.011871337890625,-10.1776123046875,5.3005218505859375,29.348262594024582
1784817094.451428,-0.064453125,-0.06298828125,0.8979491591453552,0.9024602048328476,25.300979614257812,-10.969161987304688,4.9343109130859375,28.01445177639246
1784817094.462128,-0.080078125,-0.07763671875,0.8891600966453552,0.8961281402054952,22.676467895507812,-11.762619018554688,4.6291351318359375,25.961708234637772
1784817094.472828,-0.076171875,-0.08642578125,0.9101561903953552,0.9174180405467698,20.357131958007812,-13.288497924804688,4.8122406005859375,24.78214393976456
1784817094.483488,-0.07080078125,-0.09521484375,0.9267577528953552,0.9343225083704211,14.314651489257812,-16.584396362304688,6.2160491943359375,22.772586975294228
1784817094.49415,-0.0722656175494194,-0.1010742112994194,0.9443358778953552,0.9524749686737126,12.239456176757812,-17.805099487304688,7.4367523193359375,22.850189065185894
1784817094.504812,-0.0532226525247097,-0.12158203125,0.9516600966453552,0.9608703245556545,9.614944458007812,-19.147872924804688,8.047103881835938,22.887640231358553
1784817094.515428,-0.01904296875,-0.140625,0.9858397841453552,0.9960010568707114,7.541656494140625,-20.0653076171875,8.718490600585938,23.140985951347915
1784817094.526044,0.009277347475290298,-0.12548828125,1.00537109375,1.0132148903639975,6.8073272705078125,-20.734786987304688,8.535385131835938,23.433392740392183
1784817094.53666,0.0146484375,-0.12890625,1.02197265625,1.0301745037288268,6.3190460205078125,-19.758224487304688,7.4367523193359375,22.036856911982042
1784817094.544698,0.01953125,-0.125,1.01513671875,1.022990238213972,6.565093994140625,-17.5628662109375,3.8967132568359375,19.150433491208297
1784817094.552736,0.012695316225290298,-0.1328125,1.0166015625,1.025319007961791,6.687164306640625,-17.3797607421875,2.6760101318359375,18.813167732877385
1784817094.560774,0.0029296912252902985,-0.11669921875,1.0390625,1.045599430783025,6.870269775390625,-17.5018310546875,2.0046234130859375,18.908548650855305
1784817094.568811,0.0014648474752902985,-0.12841796875,1.05078125,1.0586002814223905,7.1125030517578125,-18.049240112304688,1.6994476318359375,19.47436495874116
1784817094.579447,-0.010742183774709702,-0.12841796875,1.04345703125,1.0513843946317585,7.7266693115234375,-18.171310424804688,1.2722015380859375,19.786774319169908
1784817094.590081,-0.010742183774709702,-0.10693359375,1.04443359375,1.0499484367044316,7.9059600830078125,-18.476486206054688,1.3904571533203125,20.144927859187327
1784817094.600717,0.0039062537252902985,-0.11572265625,1.04443359375,1.0508323004843647,7.7838897705078125,-19.025802612304688,1.2111663818359375,20.592159406101285
1784817094.611351,-0.0063476525247097015,-0.09765625,1.01416015625,1.0188708742434742,7.9059600830078125,-18.476486206054688,1.9435882568359375,20.190648396442164
1784817094.621985,0.0009765625,-0.1059570237994194,1.00634765625,1.0119107914270977,7.4787139892578125,-17.377853393554688,2.3670196533203125,19.06629837016628
1784817094.632621,0.0063476599752902985,-0.107421875,1.0107421875,1.016454387372086,7.358551025390625,-15.9759521484375,2.8553009033203125,17.81942938174351
1784817094.64066,0.0185546912252903,-0.1083984375,1.0029296875,1.0089412549240688,5.710601806640625,-11.8255615234375,3.8318634033203125,13.679841208154361
1784817094.648699,0.0009765625,-0.11328125,0.9843749403953552,0.9908721504584929,4.428863525390625,-9.2010498046875,3.9577484130859375,10.951617329698825
1784817094.656738,0.012695316225290298,-0.1015625,0.9877929091453552,0.9930815393602652,3.452301025390625,-6.7596435546875,4.1980743408203125,8.673810669330713
1784817094.664777,0.0014648474752902985,-0.09716796875,0.9907225966453552,0.9954772842374868,1.987457275390625,-4.680633544921875,4.5680999755859375,6.835631221057737
1784817094.675412,-0.0053710900247097015,-0.09423828125,0.9877929091453552,0.9922925645286533,1.316070556640625,-3.0364990234375,4.6863555908203125,5.737098286852515
1784817094.686046,-0.012695308774709702,-0.09375,0.9916991591453552,0.9962015135576184,0.461578369140625,-1.5106201171875,4.8732757568359375,5.12287461602126
1784817094.696681,-0.0087890625,-0.09423828125,0.9707030653953552,0.9753063838817637,-0.331878662109375,-0.774383544921875,5.2394866943359375,5.306791322553828
1784817094.707357,-0.0161132775247097,-0.09765625,0.9526366591453552,0.9577645771400582,-1.613616943359375,0.0762939453125,5.3615570068359375,5.599631589983339
1784817094.718033,-0.0180664025247097,-0.103515625,0.9663085341453552,0.9720051762626939,-3.0193328857421875,0.3833770751953125,5.6629180908203125,6.428996061598539
1784817094.728709,-0.0185546837747097,-0.107421875,0.9809569716453552,0.9869956006680685,-3.932952880859375,0.7476806640625,6.2160491943359375,7.393673804332827
1784817094.736702,-0.021484375,-0.1005859375,0.9931640028953552,0.9984757612676533,-7.1086883544921875,1.6651153564453125,6.0329437255859375,9.471138752423046
1784817094.744694,-0.00927734375,-0.0986328125,1.00390625,1.0087825630916596,-7.839202880859375,1.7852783203125,5.6629180908203125,9.834071475822805
1784817094.752686,-0.020019523799419403,-0.1044921875,0.9975585341453552,1.0032160423497625,-8.634567260742188,2.3975372314453125,5.1746368408203125,10.347985455673106
1784817094.760678,-0.0048828087747097015,-0.10107421875,0.9975585341453552,1.0026778488446242,-9.244918823242188,3.7403106689453125,4.5680999755859375,10.969320185659278
1784817094.771351,-0.0058593712747097015,-0.09912109375,0.9877929091453552,0.9927709478101054,-9.122848510742188,3.6182403564453125,3.8967132568359375,10.559469798856446
1784817094.782024,0.008300784975290298,-0.09619140625,0.9956054091453552,1.0002758721408054,-9.365081787109375,3.9215087890625,2.9811859130859375,10.581609400763393
1784817094.792696,-0.0024414025247097015,-0.10400390625,0.9873046278953552,0.9927704675427912,-9.426116943359375,4.0435791015625,1.7604827880859375,10.40680124858866
1784817094.803364,0.010742191225290298,-0.11181640625,1.0068359375,1.0130828734217598,-9.365081787109375,4.1046142578125,-0.0743865966796875,10.225367888269398
1784817094.814031,0.0029296912252902985,-0.12451171875,1.0078125,1.0154790920314434,-9.853363037109375,5.2032470703125,-1.7795562744140625,11.284031360714811
1784817094.824697,-0.0068359337747097015,-0.12548828125,1.01220703125,1.0199789766625535,-9.428024291992188,5.8765411376953125,-3.5495758056640625,11.662798386046797
1784817094.835412,-0.019531242549419403,-0.1396484375,0.9995116591453552,1.0094090906561206,-8.571624755859375,4.8980712890625,-6.2351226806640625,11.676498111631375
1784817094.846127,-0.0214843712747097,-0.13134765625,0.9912108778953552,1.0001063890754416,-8.083343505859375,3.5552978515625,-6.5402984619140625,10.988907544335756
1784817094.856842,-0.0322265587747097,-0.12646484375,0.9980468153953552,1.0065432695696603,-6.923675537109375,1.544952392578125,-5.8689117431640625,9.206969419279543
1784817094.864859,0.00048828125,-0.13330078125,0.9936522841453552,1.002553838199087,-5.3386688232421875,-0.8373260498046875,-5.9299468994140625,8.02289037366273
1784817094.872875,0.014160159975290298,-0.14013671875,0.9990233778953552,1.0089036225794752,-3.749847412109375,-2.9754638671875,-5.1975250244140625,7.066046080974293
1784817094.880893,0.041015625,-0.12841796875,0.9999999403953552,1.0090457556437817,-1.7375946044921875,-5.1097869873046875,-4.2209625244140625,6.851691958757093
1784817094.88891,0.044921875,-0.11865234375,1.0087890625,1.0167358192522347,1.0128021240234375,-7.0018768310546875,-3.2444000244140625,7.783198495355543
1784817094.899561,0.06396484375,-0.1103515625,0.9999999403953552,1.008101606671107,3.2062530517578125,-8.710861206054688,-3.4275054931640625,9.894794363134821
1784817094.910214,0.05517578125,-0.103515625,0.9985350966453552,1.0054015072040807,5.405426025390625,-8.953094482421875,-3.4275054931640625,11.005649696079425
1784817094.920866,0.07177734375,-0.1015625,1.00439453125,1.012064870888701,6.565093994140625,-8.2244873046875,-3.7326812744140625,11.1658210657895
1784817094.928807,0.095703125,-0.109375,0.9785155653953552,0.9892495592522431,6.1359405517578125,-4.9266815185546875,-6.9065093994140625,10.470044380238752
1784817094.936748,0.08984375,-0.0849609375,0.9589843153953552,0.9669235634160745,5.100250244140625,-2.056121826171875,-9.107589721679688,10.639002775418492
1784817094.944689,0.10595703125,-0.10009765625,0.9736327528953552,0.9844831998407308,3.5114288330078125,0.9326934814453125,-11.423110961914062,11.986972663179406
1784817094.95263,0.0966796875,-0.11083984375,0.9716796278953552,0.9827480512341289,2.902984619140625,3.9215087890625,-13.990402221679688,14.816777828058347
1784817094.963329,0.08837890625,-0.099609375,0.9897460341453552,0.998664143125353,2.475738525390625,6.122589111328125,-16.183853149414062,17.479487447692982
1784817094.974028,0.04345703125,-0.10009765625,0.9765624403953552,0.9826404501865056,2.109527587890625,7.3394775390625,-17.953872680664062,19.510499261268787
1784817094.984726,0.04541015625,-0.09814453125,0.9892577528953552,0.9951509096456171,2.4776458740234375,7.4024200439453125,-19.056320190429688,20.593151550557938
1784817094.995445,0.004394538700580597,-0.08642578125,1.0029296875,1.0066561904165252,3.879547119140625,6.4849853515625,-19.662857055664062,21.06499153693375
1784817095.006164,-0.0053710900247097015,-0.0673828125,1.01318359375,1.0154360081623208,5.405426025390625,5.146026611328125,-19.540786743164062,20.917518183146964
1784817095.016883,-0.009765621274709702,-0.06396484375,1.021484375,1.0235317273851279,7.236480712890625,3.5552978515625,-18.934249877929688,20.57942210950646
1784817095.025691,-0.0073242150247097015,-0.08740234375,1.0205078125,1.0242699884270048,11.384963989257812,0.5664825439453125,-16.614913940429688,20.149284671103754
1784817095.034498,-0.0024414025247097015,-0.0673828125,1.017578125,1.0198096118125253,13.095855712890625,-0.0457763671875,-14.966964721679688,19.887522855012566
1784817095.043307,-0.0180664025247097,-0.0673828125,1.00390625,1.006327281310438,14.440536499023438,-0.4711151123046875,-13.315200805664062,19.64804357496763
1784817095.052115,-0.00830078125,-0.0478515625,1.00439453125,1.005568023262454,15.657424926757812,-0.2880096435546875,-11.972427368164062,19.712354551848982
1784817095.061635,-0.00244140625,-0.05078125,0.9980468153953552,0.9993408535313916,16.576766967773438,0.6885528564453125,-10.141372680664062,19.44507001756751
1784817095.071157,0.007812503725290298,-0.0346679650247097,0.9780272841453552,0.9786727091046075,16.576766967773438,1.8482208251953125,-8.741378784179688,18.8312725637716
1784817095.080678,0.00048828125,-0.04345703125,0.9804686903953552,0.9814314060744264,16.880035400390625,2.4566650390625,-7.3947906494140625,18.591765031358758
1784817095.088688,0.0039062537252902985,-0.0429687537252903,0.9946288466453552,0.9955642195227491,16.880035400390625,3.009796142578125,-6.5402984619140625,18.35129346692582
1784817095.096697,0.00537109375,-0.03076171875,1.0068359375,1.0073200767531785,17.244338989257812,3.4961700439453125,-5.6858062744140625,18.491047161877663
1784817095.104706,0.01171875,-0.0400390625,1.013671875,1.0145300024116868,17.732620239257812,3.3740997314453125,-4.7702789306640625,18.670456090406912
1784817095.112715,0.013671878725290298,-0.0390624962747097,1.01318359375,1.0140284973940603,18.100738525390625,3.8604736328125,-4.7092437744140625,19.097564471970202
1784817095.123365,0.01708984375,-0.01708984375,1.0380859375,1.0383672467648681,19.016265869140625,4.169464111328125,-4.5261383056640625,19.98721407659145
1784817095.134014,0.02001953125,-0.01318359375,1.01611328125,1.0163959804664107,19.441604614257812,4.4727325439453125,-5.1403045654296875,20.60106932691057
1784817095.144665,0.029296875,-0.0087890625,0.9931640028953552,0.9936348882519774,20.114898681640625,4.5318603515625,-6.1168670654296875,21.50727713856104
1784817095.155339,0.0380859412252903,-0.0161132775247097,1.0146484375,1.0154908312499902,19.018173217773438,4.4727325439453125,-9.412765502929688,21.686318345077513
1784817095.166014,0.0498046875,-0.00537109375,1.00927734375,1.0105197237818269,19.016265869140625,4.2266845703125,-11.301040649414062,22.521029057804384
1784817095.176688,0.0571289099752903,-0.0185546912252903,0.9892577528953552,0.9910796590511776,18.833160400390625,3.986358642578125,-13.925552368164062,23.759208628499785
1784817095.184685,0.03662109375,-0.0205078125,0.9868163466453552,0.987708548554414,19.016265869140625,3.4332275390625,-16.427993774414062,25.36305183515988
1784817095.192681,0.04931640625,-0.0146484375,0.9648436903953552,0.9662142782749251,18.892288208007812,2.8858184814453125,-18.934249877929688,26.902645232061527
1784817095.200677,0.0366210974752903,-0.0039062537252902985,0.9765624403953552,0.9772566518522106,18.955230712890625,2.2125244140625,-21.432876586914062,28.697808878930523
1784817095.208673,0.03857421875,-0.0107421875,0.9799804091453552,0.9807981276762083,18.405914306640625,1.7242431640625,-24.179458618164062,30.436769129126084
1784817095.219387,0.0380859412252903,0.0024414025247097015,0.9584960341453552,0.9592555169701542,18.283843994140625,1.4190673828125,-26.681900024414062,32.37648054300933
1784817095.2301,0.02587890625,0.01806640625,0.9516600966453552,0.9521833081768096,17.185211181640625,1.361846923828125,-28.818130493164062,33.580809333941886
1784817095.240815,0.02001953125,0.015625,0.9428710341453552,0.9432129713308661,16.450881958007812,0.3833770751953125,-31.019210815429688,35.113671622178195
1784817095.251422,0.0068359375,0.02880859375,0.9345702528953552,0.9350391557107353,13.643264770507812,-1.8138885498046875,-34.37232971191406,37.025476568085146
1784817095.26203,0.007812503725290298,0.0458984337747097,0.9492186903953552,0.9503598390258831,12.119293212890625,-2.6092529296875,-35.83717346191406,37.92081843223346
1784817095.272637,0.0063476599752902985,0.0356445275247097,0.9521483778953552,0.9528364805455225,11.079788208007812,-2.7904510498046875,-36.69166564941406,38.42950236373166
1784817095.283325,-0.0224609375,0.02294921875,0.8598632216453552,0.8604626199277593,9.677886962890625,-3.3416748046875,-36.99684143066406,38.38742713978722
1784817095.294011,-0.0244140587747097,0.0214843712747097,0.8549804091453552,0.8555986936042408,6.320953369140625,-3.5247802734375,-36.56959533691406,37.27886573618504
1784817095.304697,-0.0463867150247097,0.009765621274709702,0.9003905653953552,0.9016375463248145,2.1686553955078125,-4.1942596435546875,-36.50856018066406,36.81263161806265
1784817095.312695,-0.0488281212747097,0.0058593712747097015,0.9521483778953552,0.9534175639181968,-2.7141571044921875,-6.2084197998046875,-33.27369689941406,33.956590384674215
1784817095.320693,-0.0624999962747097,-0.0034179724752902985,0.9638671278953552,0.9658973922251896,-3.200531005859375,-7.6141357421875,-31.507492065429688,32.57208188116073
1784817095.328691,-0.0566406212747097,0.0063476525247097015,0.9711913466453552,0.9728623152685986,-3.5076141357421875,-8.344650268554688,-29.249191284179688,30.617833623695216
1784817095.336689,-0.0512695275247097,0.011718746274709702,0.9614257216453552,0.9628630804575228,-4.1790008544921875,-8.649826049804688,-26.498794555664062,28.186338033469646
1784817095.347335,-0.0556640587747097,-0.0029296912252902985,0.9550780653953552,0.9567032881355035,-4.726409912109375,-8.5296630859375,-23.630142211914062,25.563210361223675
1784817095.357981,-0.0605468675494194,-0.01171875,0.9584960341453552,0.9604779538042418,-5.641937255859375,-8.4075927734375,-21.310806274414062,23.593845305685512
1784817095.368627,-0.0581054612994194,-0.0107421875,0.9526366591453552,0.9544675183434621,-6.2541961669921875,-7.1849822998046875,-19.056320190429688,21.304513126187715
1784817095.376682,-0.0541992112994194,-0.00634765625,0.9536132216453552,0.9551732951366367,-7.7800750732421875,-5.9032440185546875,-16.309738159179688,19.010139844537917
1784817095.384734,-0.0478515625,-0.0048828125,0.9624022841453552,0.9636035338352588,-8.876800537109375,-4.7454833984375,-13.742446899414062,17.034437097940348
1784817095.392788,-0.04736328125,-0.03173828125,0.9594725966453552,0.9611650548271359,-10.461807250976562,-3.4008026123046875,-11.423110961914062,15.858825095594105
1784817095.400841,-0.0356445237994194,-0.01171875,0.9819335341453552,0.9826501547639614,-11.926651000976562,-1.9359588623046875,-8.798599243164062,14.946848813627524
1784817095.411464,-0.0444335862994194,-0.02197265625,1.0185546875,1.0197601642750767,-12.598037719726562,-0.7762908935546875,-6.5402984619140625,14.215790020606827
1784817095.422087,-0.0366210900247097,-0.0405273400247097,1.00537109375,1.0068538154430104,-12.174606323242188,0.0171661376953125,-4.5261383056640625,12.988735957136537
1784817095.43271,-0.0361328087747097,-0.0327148474752903,0.9829100966453552,0.984117929519965,-11.438369750976562,0.3833770751953125,-2.9392242431640625,11.816188881929921
1784817095.44072,-0.0292968712747097,-0.0283203162252903,0.9868163466453552,0.9876572527876628,-11.014938354492188,0.6885528564453125,-1.5964508056640625,11.151306074370279
1784817095.44873,-0.020507805049419403,-0.0361328125,0.9980468153953552,0.9989112052269288,-10.461807250976562,0.6885528564453125,-0.1926422119140625,10.486211280272581
1784817095.45674,-0.0336914025247097,-0.0434570275247097,0.9902343153953552,0.9917598616761384,-10.036468505859375,1.056671142578125,0.6618499755859375,10.113619498619057
1784817095.46475,-0.0234374962747097,-0.0239257849752903,0.9750975966453552,0.9756726307537066,-10.099411010742188,1.4820098876953125,1.3904571533203125,10.301836106556289
1784817095.475397,-0.029296867549419403,-0.05224609375,0.9755858778953552,0.9774230230095836,-10.646820068359375,1.9073486328125,2.7370452880859375,11.157247567574409
1784817095.486044,-0.014648433774709702,-0.0434570275247097,0.9721679091453552,0.9732489575773442,-11.564254760742188,2.0313262939453125,3.3435821533203125,12.208104533457437
1784817095.496691,-0.009765617549419403,-0.04248046875,0.9731444716453552,0.9741201774962157,-11.869430541992188,2.1533966064453125,3.5266876220703125,12.568135260232168
1784817095.507344,-0.00732421875,-0.05078125,0.9697265028953552,0.9710828337219826,-12.538909912109375,2.7008056640625,3.9577484130859375,13.423203251098862
1784817095.517999,-0.0053710900247097015,-0.0527343787252903,0.9770507216453552,0.9784875451303943,-12.599945068359375,2.7618408203125,4.2629241943359375,13.585245788320242
1784817095.528654,-0.0019531212747097015,-0.0532226525247097,0.9829100966453552,0.9843519307198322,-12.783050537109375,2.9449462890625,4.0798187255859375,13.73768577721142
1784817095.536661,-0.011718746274709702,-0.0468750037252903,0.9838866591453552,0.9850723592877355,-12.783050537109375,3.5552978515625,4.0149688720703125,13.86241316983846
1784817095.544669,-0.0078125,-0.05126953125,0.9785155653953552,0.9798889282525017,-12.723922729492188,4.4727325439453125,4.3849945068359375,14.182091625029672
1784817095.552675,0.0034179724752902985,-0.0625,0.9643554091453552,0.9663846478932431,-12.845993041992188,4.4727325439453125,4.8732757568359375,14.449003088336028
1784817095.560683,-0.0063476525247097015,-0.0590820275247097,0.9873046278953552,0.9890912025352318,-13.149261474609375,4.2266845703125,4.5680999755859375,14.547696627697194
1784817095.57133,0.00146484375,-0.05712890625,0.9819335341453552,0.983595101236134,-13.576507568359375,4.4097900390625,4.6291351318359375,15.006555168030134
1784817095.581977,0.009765625,-0.0634765625,0.9873046278953552,0.9893912621819756,-13.574600219726562,4.2896270751953125,4.1408538818359375,14.826238310521145
1784817095.592624,0.005859375,-0.0810546875,0.9868163466453552,0.9901569050648483,-13.883590698242188,4.2896270751953125,4.0149688720703125,15.075641484336884
1784817095.603315,0.0,-0.078125,0.9829100966453552,0.98601002718653,-13.637542724609375,4.3487548828125,3.8318634033203125,14.81814488180073
1784817095.614007,-0.009277340024709702,-0.072265625,0.9804686903953552,0.9831720309488862,-13.576507568359375,4.2266845703125,3.7746429443359375,14.711707907916818
1784817095.624701,-0.00390625,-0.07861328125,0.9975585341453552,1.000658950804011,-13.271331787109375,4.169464111328125,3.7746429443359375,14.413903279001772
1784817095.632698,-0.012695308774709702,-0.08251953125,0.9794921278953552,0.9830439829995278,-13.332366943359375,4.5318603515625,3.4694671630859375,14.50265385900724
1784817095.640696,-0.0014648400247097015,-0.07373046875,0.9746093153953552,0.9773953373296783,-13.334274291992188,4.4727325439453125,3.3435821533203125,14.456408576121296
1784817095.648694,-0.010742183774709702,-0.08251953125,0.9775390028953552,0.9810745994732586,-13.395309448242188,4.8389434814453125,3.2215118408203125,14.602322684125769
1784817095.656692,-0.0039062462747097015,-0.08740234375,0.9775390028953552,0.9814463462841956,-13.883590698242188,4.8389434814453125,3.3435821533203125,15.078096906073432
1784817095.667379,0.0019531287252902985,-0.0966796875,0.9648436903953552,0.9696773296218919,-14.371871948242188,5.3272247314453125,2.7370452880859375,15.569889002334818
1784817095.678066,-0.011230465024709702,-0.09716796875,0.9731444716453552,0.9780480050537345,-14.493942260742188,5.4492950439453125,2.9201507568359375,15.757425525013431
1784817095.688753,-0.0268554650247097,-0.09423828125,0.9643554091453552,0.9693211154217951,-14.982223510742188,5.3882598876953125,3.1032562255859375,16.22129973660619
1784817095.69942,-0.01904296875,-0.09326171875,0.9794921278953552,0.9841063008902994,-15.407562255859375,5.3253173828125,3.7746429443359375,16.73319781909879
1784817095.710087,-0.0244140587747097,-0.09814453125,0.9790038466453552,0.984213862443798,-15.527725219726562,5.0830841064453125,4.0798187255859375,16.840217200682744
1784817095.720754,-0.0253906212747097,-0.10400390625,0.9848632216453552,0.9906649592640504,-15.468597412109375,4.5318603515625,4.1408538818359375,16.642173386150525
1784817095.728766,-0.0253906212747097,-0.109375,0.9814452528953552,0.9878473357278156,-15.653610229492188,4.0454864501953125,4.5680999755859375,16.800863407055143
1784817095.736778,-0.0209960900247097,-0.12548828125,0.9760741591453552,0.9843317066308069,-15.710830688476562,3.8013458251953125,4.6291351318359375,16.813962146784572
1784817095.744792,-0.0229492150247097,-0.11865234375,0.9790038466453552,0.9864347808618777,-15.102386474609375,3.498077392578125,4.9915313720703125,16.286006512073257
1784817095.752805,-0.025390617549419403,-0.115234375,0.9775390028953552,0.9846350322951275,-15.224456787109375,3.2501220703125,4.9915313720703125,16.348173089763126
1784817095.763426,-0.0288085900247097,-0.126953125,0.9746093153953552,0.9832651465713002,-15.470504760742188,3.1299591064453125,5.2394866943359375,16.630856333342848
1784817095.774046,-0.0219726525247097,-0.13037109375,0.9750975966453552,0.9840196860470276,-15.468597412109375,2.5787353515625,5.3005218505859375,16.553637479413823
1784817095.784668,-0.012695308774709702,-0.12744140625,0.9702147841453552,0.9786312943422977,-15.590667724609375,3.009796142578125,5.1174163818359375,16.682797827227226
1784817095.795337,-0.015136715024709702,-0.1279296875,0.9887694716453552,0.9971259665375393,-15.775680541992188,2.8247833251953125,5.3615570068359375,16.899638781194227
1784817095.80601,-0.0253906212747097,-0.142578125,0.9931640028953552,1.0036672466631342,-15.712738037109375,2.9449462890625,5.4798126220703125,16.899443530521587
1784817095.816681,-0.013183590024709702,-0.1455078125,0.9941405653953552,1.004819284403455,-15.224456787109375,2.521514892578125,5.4798126220703125,16.375911217060718
1784817095.824669,-0.012207027524709702,-0.1513671875,0.9926757216453552,1.0042241409749,-14.616012573242188,3.1299591064453125,5.7277679443359375,16.007241897758526
1784817095.832658,-0.008300777524709702,-0.14599609375,0.9877929091453552,0.9985582575171152,-14.005661010742188,3.6182403564453125,5.5446624755859375,15.491723131821203
1784817095.840647,-0.0058593712747097015,-0.15185546875,0.9887694716453552,1.0003796697648608,-13.822555541992188,3.9234161376953125,5.6056976318359375,15.423361560974897
1784817095.848636,0.0048828125,-0.1494140625,0.9999999403953552,1.0111123996477236,-13.088226318359375,4.169464111328125,5.3005218505859375,14.723506071068371
1784817095.859343,-0.011718746274709702,-0.15283203125,1.00439453125,1.0160232936282314,-12.479782104492188,4.7779083251953125,4.9343109130859375,14.24502697528415
1784817095.870049,-0.0039062462747097015,-0.162109375,1.00927734375,1.022220849342208,-11.564254760742188,5.2051544189453125,4.7512054443359375,13.542509880768103
1784817095.880756,-0.0185546875,-0.1533203125,1.01513671875,1.0268173900006938,-10.644912719726562,5.2661895751953125,4.5032501220703125,12.701424373447981
1784817095.891402,-0.0185546837747097,-0.17236328125,1.00732421875,1.0221327989520461,-8.146286010742188,5.1441192626953125,4.1980743408203125,10.509413253302998
1784817095.90205,-0.0234374962747097,-0.1630859375,0.9951171278953552,1.0086646803931332,-7.1086883544921875,5.0830841064453125,4.1980743408203125,9.695103007474634
1784817095.912698,-0.019531242549419403,-0.1640625,1.009765625,1.0231933301060043,-6.4373016357421875,4.9610137939453125,4.1980743408203125,9.147367839127199
1784817095.92072,-0.0366210900247097,-0.17041015625,1.01416015625,1.029029420431103,-5.458831787109375,5.0201416015625,4.1408538818359375,8.493958856175958
1784817095.928743,-0.0239257775247097,-0.16259765625,0.9990233778953552,1.0124515545099433,-4.3621063232421875,4.8999786376953125,4.1408538818359375,7.757862662863763
1784817095.936766,-0.0307617150247097,-0.1640625,0.9931640028953552,1.007093602235977,-3.5076141357421875,4.4727325439453125,4.1980743408203125,7.066294750856337
1784817095.944788,-0.0312499962747097,-0.15966796875,0.9892577528953552,1.0025474174199882,-2.5882720947265625,4.2896270751953125,3.8967132568359375,6.347001424813914
1784817095.955508,-0.0332031212747097,-0.15625,0.9707030653953552,0.9837585836628427,-1.8596649169921875,3.9234161376953125,4.2629241943359375,6.084740789850811
1784817095.966228,-0.0214843712747097,-0.1591796875,0.9814452528953552,0.9945021546243603,-1.4324188232421875,3.8623809814453125,3.9577484130859375,5.71258111822434
1784817095.976948,-0.0346679650247097,-0.142578125,0.9877929091453552,0.998631674285026,-1.003265380859375,3.4332275390625,3.8318634033203125,5.241828869880586
1784817095.98753,-0.0263671837747097,-0.15576171875,0.9750975966453552,0.9878118567782588,-1.1882781982421875,3.3130645751953125,3.8318634033203125,5.203035565661389
1784817095.998111,-0.0380859375,-0.14990234375,0.9790038466453552,0.9911456921378407,-1.369476318359375,3.3721923828125,3.7097930908203125,5.197086840716049
1784817096.008693,-0.029296867549419403,-0.12890625,0.9711913466453552,0.9801468050940579,-1.4324188232421875,3.8013458251953125,3.5266876220703125,5.379551965691225
1784817096.016983,-0.0229492150247097,-0.14599609375,0.9648436903953552,0.9760967537883922,-1.613616943359375,3.9215087890625,3.2863616943359375,5.3649011182490085
1784817096.025273,-0.0405273400247097,-0.13720703125,0.9687499403953552,0.979257209179448,-1.796722412109375,4.169464111328125,3.1642913818359375,5.534020450901004
1784817096.033563,-0.0400390587747097,-0.14208984375,0.9804686903953552,0.9915197944418694,-1.9207000732421875,4.1675567626953125,3.0384063720703125,5.503592592432461
1784817096.041853,-0.0473632775247097,-0.1435546875,0.9765624403953552,0.9881930116895368,-1.9207000732421875,4.0454864501953125,2.9811859130859375,5.379825168018795
1784817096.049575,-0.0327148400247097,-0.12890625,0.9697265028953552,0.9788036434671462,-2.468109130859375,3.986358642578125,2.9811859130859375,5.556085614663507
1784817096.057297,-0.0356445275247097,-0.1376953125,0.9833983778953552,0.9936311695363367,-2.590179443359375,4.0435791015625,2.9811859130859375,5.6521704634393775
1784817096.065019,-0.0488281212747097,-0.123046875,0.9677733778953552,0.9767855598018786,-3.0193328857421875,4.2896270751953125,2.9201507568359375,6.003711515539569
1784817096.072741,-0.0449218712747097,-0.14599609375,0.9506835341453552,0.9628769474881944,-3.200531005859375,4.3487548828125,3.0384063720703125,6.195722801424404
1784817096.083439,-0.0561523400247097,-0.1474609375,0.9731444716453552,0.9858539324223173,-3.5076141357421875,3.9234161376953125,2.6760101318359375,5.904030939999807
1784817096.094136,-0.0493164025247097,-0.1513671875,0.9833983778953552,0.9962010352618869,-4.0569305419921875,4.1065216064453125,2.9811859130859375,6.496897303723775
1784817096.104835,-0.0444335900247097,-0.16796875,0.9833983778953552,0.9986291676825099,-3.810882568359375,3.8604736328125,2.9811859130859375,6.189794186226867
1784817096.112796,-0.052734375,-0.15869140625,0.9770507216453552,0.9912577815038591,-2.956390380859375,3.314971923828125,3.1032562255859375,5.418439087176718
1784817096.120756,-0.0498046837747097,-0.15673828125,0.9951171278953552,1.0086156322235957,-2.590179443359375,3.0670166015625,3.1642913818359375,5.111590782938581
1784817096.128718,-0.06494140625,-0.150390625,0.9931640028953552,1.006583063130283,-1.7375946044921875,2.8247833251953125,3.2215118408203125,4.6235023936846105
1784817096.136679,-0.0468749962747097,-0.1474609375,0.9785155653953552,0.9906738641374994,-0.7610321044921875,2.5806427001953125,3.1642913818359375,4.153507741572218
1784817096.14733,-0.0498046837747097,-0.13818359375,0.9785155653953552,0.9894786121127407,-0.331878662109375,2.0904541015625,3.2863616943359375,3.909004346774452
1784817096.157981,-0.0351562462747097,-0.15771484375,0.9726561903953552,0.9859868144684393,0.278472900390625,1.7242431640625,3.2215118408203125,3.6645190933618705
1784817096.168632,-0.0507812462747097,-0.1435546875,0.9892577528953552,1.0009083798929865,0.278472900390625,1.7852783203125,3.2215118408203125,3.6936302437812136
1784817096.177384,-0.0581054650247097,-0.15234375,0.9799804091453552,0.9934517932635172,0.339508056640625,1.6021728515625,3.1032562255859375,3.5089062068464707
1784817096.186136,-0.0429687462747097,-0.16162109375,0.9672850966453552,0.98163544622919,0.461578369140625,1.7242431640625,3.0384063720703125,3.523915771058136
1784817096.19489,-0.0390624962747097,-0.1611328125,0.9721679091453552,0.9862049003383747,-0.026702880859375,2.033233642578125,2.7370452880859375,3.4097168501491635
1784817096.203643,-0.0595703087747097,-0.13623046875,0.9848632216453552,0.9960235577801496,-0.4520416259765625,1.9702911376953125,2.4318695068359375,3.1623374420157457
1784817096.212641,-0.0610351525247097,-0.1455078125,0.9770507216453552,0.9897100211728479,-0.5779266357421875,2.2754669189453125,2.2487640380859375,3.2509519520447125
1784817096.22164,-0.0458984337747097,-0.138671875,0.9726561903953552,0.9835632261595553,-0.9441375732421875,2.5806427001953125,1.9435882568359375,3.365805671067413
1784817096.230639,-0.0463867150247097,-0.15625,0.9799804091453552,0.9934421936577293,-1.4324188232421875,2.9468536376953125,1.8787384033203125,3.776960158022214
1784817096.239638,-0.0493164025247097,-0.1435546875,0.9868163466453552,0.9984220339454092,-1.6765594482421875,2.8247833251953125,1.6994476318359375,3.6984286759574547
1784817096.248637,-0.0585937425494194,-0.13330078125,0.9853515028953552,0.9960521618901006,-1.247406005859375,3.8604736328125,1.2111663818359375,4.2339346260404325
1784817096.258264,-0.0624999962747097,-0.12744140625,0.9902343153953552,1.0003557172065465,-1.735687255859375,5.3253173828125,1.0852813720703125,5.705212628325121
1784817096.267891,-0.0585937462747097,-0.142578125,0.9697265028953552,0.981901848072747,-1.7375946044921875,6.7310333251953125,0.7839202880859375,6.995754116070902
1784817096.277518,-0.0576171837747097,-0.13330078125,0.9604491591453552,0.9713657526652918,-2.1648406982421875,7.5855255126953125,0.7190704345703125,7.9210980831189275
1784817096.287145,-0.0527343712747097,-0.13818359375,0.9609374403953552,0.9722532508811584,-2.346038818359375,7.3394775390625,0.4787445068359375,7.720170010205576
1784817096.296772,-0.0473632775247097,-0.146484375,0.9594725966453552,0.9717451393706087,-2.651214599609375,6.0577392578125,0.2956390380859375,6.6191046380658625
1784817096.304754,-0.0424804650247097,-0.1337890625,0.9550780653953552,0.9653383935971256,-3.017425537109375,4.5318603515625,0.4138946533203125,5.4602128074014775
1784817096.312736,-0.0356445275247097,-0.13623046875,0.9667968153953552,0.9769981347049261,-3.749847412109375,3.009796142578125,0.1735687255859375,4.8114815323851206
1784817096.320718,-0.0297851525247097,-0.142578125,0.9501952528953552,0.961294281510248,-4.116058349609375,1.4190673828125,0.0514984130859375,4.354117667323856
1784817096.3287,-0.0419921837747097,-0.14501953125,0.9589843153953552,0.9707960265248498,-4.970550537109375,0.6256103515625,0.1087188720703125,5.010946093013244
1784817096.336681,-0.0390624962747097,-0.13623046875,0.9599608778953552,0.9703656559878228,-5.8269500732421875,0.5054473876953125,-0.2574920654296875,5.85449625344012
1784817096.344664,-0.0244140587747097,-0.1533203125,0.9819335341453552,0.9941310929500898,-6.435394287109375,1.4190673828125,-0.8640289306640625,6.646397359513407
1784817096.354292,-0.0258789025247097,-0.14990234375,0.9819335341453552,0.9936467660777718,-6.496429443359375,1.7242431640625,-1.5392303466796875,6.895349161681556
1784817096.36392,-0.0346679650247097,-0.16259765625,0.9790038466453552,0.9930198373463391,-6.0100555419921875,2.1533966064453125,-1.7795562744140625,6.627571583641149
1784817096.373548,-0.0327148400247097,-0.1630859375,1.00341796875,1.0171110577407327,-5.3386688232421875,2.8247833251953125,-2.5730133056640625,6.56514913080304
1784817096.383176,-0.0375976525247097,-0.158203125,1.0087890625,1.0218107382753243,-4.177093505859375,2.8839111328125,-3.0612945556640625,5.927611486525654
1784817096.392804,-0.033203125,-0.16015625,0.9921874403953552,1.0055786338233896,-2.651214599609375,2.7618408203125,-3.4885406494140625,5.179442000113585
1784817096.400797,-0.0332031212747097,-0.158203125,0.9672850966453552,0.9806993087661289,-1.857757568359375,2.3956298828125,-3.3054351806640625,4.485109525060947
1784817096.408789,-0.03271484375,-0.16455078125,0.9804686903953552,0.9947190927378218,-1.308441162109375,1.7852783203125,-3.3054351806640625,3.978082287893454
1784817096.416783,-0.0419921837747097,-0.17041015625,0.9653319716453552,0.9811568581689817,-1.6117095947265625,1.1768341064453125,-3.5495758056640625,4.072104459856387
1784817096.424776,-0.0395507775247097,-0.158203125,0.9692382216453552,0.9828607343163249,-2.2830963134765625,0.5054473876953125,-3.3054351806640625,4.048939067448404
1784817096.435404,-0.0429687462747097,-0.16162109375,0.9545897841453552,0.9691281376041264,-3.3245086669921875,0.3833770751953125,-3.3054351806640625,4.703747186261518
1784817096.446032,-0.0307617150247097,-0.18701171875,0.9467772841453552,0.9655604029964906,-5.0334930419921875,0.4444122314453125,-3.1871795654296875,5.974250414699282
1784817096.45666,-0.0361328087747097,-0.17919921875,0.9638671278953552,0.9810493260319795,-6.0672760009765625,1.1768341064453125,-3.6754608154296875,7.19067373699281
1784817096.467312,-0.0327148400247097,-0.1767578125,0.9638671278953552,0.9804863207994635,-8.693695068359375,2.7618408203125,-4.5871734619140625,10.210301612981333
1784817096.477963,-0.0400390587747097,-0.177734375,0.9677733778953552,0.9847730425063388,-9.304046630859375,4.2266845703125,-4.7702789306640625,11.277664086257444
1784817096.488616,-0.0390624962747097,-0.17724609375,0.9672850966453552,0.9841658978836137,-9.550094604492188,5.0830841064453125,-5.1403045654296875,11.977678490146788
1784817096.499327,-0.0449218712747097,-0.17578125,0.9721679091453552,0.9889527116816232,-9.731292724609375,5.9967041015625,-5.7468414306640625,12.79393233540528
1784817096.51004,-0.0502929650247097,-0.1953125,0.9824218153953552,1.0029102543856714,-9.548187255859375,6.3629150390625,-6.0520172119140625,12.972335179164435
1784817096.520752,-0.06591796875,-0.17626953125,0.9877929091453552,1.0055600218828633,-9.243011474609375,6.1798095703125,-6.4182281494140625,12.838105780177136
1784817096.528737,-0.0624999962747097,-0.17724609375,0.9746093153953552,0.9925652346014218,-8.571624755859375,4.8370361328125,-6.7882537841796875,11.956172420295086
1784817096.536722,-0.0722656100988388,-0.181640625,0.9677733778953552,0.9873200828588133,-8.510589599609375,3.8604736328125,-7.3337554931640625,11.879282875499424
1784817096.544707,-0.0825195237994194,-0.18701171875,0.9584960341453552,0.9800497447733385,-9.181976318359375,3.1280517578125,-7.7648162841796875,12.425206993749775
1784817096.552692,-0.0693359300494194,-0.17333984375,0.9711913466453552,0.9889726004424546,-9.365081787109375,2.8839111328125,-7.9479217529296875,12.617097942550043
1784817096.563334,-0.07666015625,-0.19482421875,0.9560546278953552,0.9787102264143092,-9.973526000976562,2.8247833251953125,-8.619308471679688,13.48121286295956
1784817096.573976,-0.0869140550494194,-0.18896484375,0.9672850966453552,0.9893948773522175,-10.158538818359375,2.3956298828125,-8.981704711914062,13.769748472341744
1784817096.584617,-0.10009765625,-0.18505859375,0.9658202528953552,0.988471033875206,-10.402679443359375,2.3956298828125,-9.164810180664062,14.069418175046174
1784817096.59267,-0.08154296875,-0.1943359375,0.9746093153953552,0.9971354120739923,-10.158538818359375,2.338409423828125,-9.229660034179688,13.923027469056299
1784817096.600724,-0.0961913913488388,-0.19140625,0.9746093153953552,0.9978739669738314,-10.158538818359375,2.0904541015625,-9.412765502929688,14.005929590284143
1784817096.608778,-0.08056640625,-0.1953125,0.9692382216453552,0.9919983108708103,-10.158538818359375,1.7852783203125,-9.714126586914062,14.168535031953118
1784817096.616832,-0.10009765625,-0.18017578125,0.9736327528953552,0.9952103247285866,-10.221481323242188,1.1768341064453125,-9.836196899414062,14.234268101996836
1784817096.627476,-0.08984375,-0.19970703125,0.9697265028953552,0.994145003589721,-9.973526000976562,0.8716583251953125,-10.263442993164062,14.337687093878369
1784817096.63812,-0.10009765625,-0.181640625,0.9843749403953552,1.0059855270904712,-9.853363037109375,0.8087158203125,-10.324478149414062,14.294671506432929
1784817096.648764,-0.1040038987994194,-0.18798828125,0.9863280653953552,1.0094550299242424,-9.243011474609375,0.2593994140625,-10.324478149414062,13.859848420293238
1784817096.65676,-0.0781249925494194,-0.173828125,0.9697265028953552,0.9882758835059762,-7.5321197509765625,0.0171661376953125,-10.019302368164062,12.534733446070268
1784817096.664757,-0.0537109300494194,-0.18505859375,0.9545897841453552,0.9738445477190787,-7.045745849609375,-0.3509521484375,-10.751724243164062,12.859443074597845
1784817096.672756,-0.0507812462747097,-0.1865234375,0.9604491591453552,0.9797103219896425,-6.6204071044921875,-1.0814666748046875,-11.484146118164062,13.299810993441465
1784817096.680754,-0.0483398362994194,-0.1796875,0.9545897841453552,0.9725564217177225,-6.3152313232421875,-1.3256072998046875,-12.765884399414062,14.304096821489923
1784817096.691422,-0.0615234337747097,-0.19140625,0.9609374403953552,0.9817444931325413,-5.947113037109375,-2.3651123046875,-12.765884399414062,14.280396149587162
1784817096.70209,-0.0537109337747097,-0.201171875,0.9614257216453552,0.9837145957742311,-5.580902099609375,-3.215789794921875,-13.559341430664062,15.011446042399477
1784817096.712758,-0.0751953125,-0.21142578125,0.9838866591453552,1.0091521956788054,-4.726409912109375,-4.192352294921875,-13.254165649414062,14.682904191069632
1784817096.72339,-0.0249023400247097,-0.23974609375,0.9765624403953552,1.005869035211852,-4.360198974609375,-4.5013427734375,-13.742446899414062,15.103915672612114
1784817096.734024,-0.01904296875,-0.22509765625,0.9531249403953552,0.9795298573865454,-3.3855438232421875,-2.4242401123046875,-14.841079711914062,15.414165372039692
1784817096.744658,-0.015624992549419403,-0.2421875,0.9399413466453552,0.9707670475875781,-3.5648345947265625,0.2002716064453125,-15.756607055664062,16.15607688489721
1784817096.755331,-0.013671875,-0.24609375,0.9296874403953552,0.9618044451882853,-5.886077880859375,2.7618408203125,-18.136978149414062,19.267165176242443
1784817096.766004,-0.00048827752470970154,-0.2456054538488388,0.9506835341453552,0.9818968680418214,-6.8035125732421875,3.3130645751953125,-19.357681274414062,20.78422489619181
1784817096.776677,0.01025390625,-0.25390625,0.9565429091453552,0.9897211038563872,-7.534027099609375,4.5928955078125,-21.249771118164062,23.008890152671256
1784817096.78467,-0.013671871274709702,-0.25,0.9951171278953552,1.0261310921587226,-7.1697235107421875,5.9375762939453125,-23.263931274414062,25.05733916056474
1784817096.792661,-0.01220703125,-0.23681640625,1.00048828125,1.0282061188301121,-6.4983367919921875,5.5713653564453125,-24.850845336914062,26.283702306874154
1784817096.800653,-0.012207027524709702,-0.2236328125,0.9999999403953552,1.0247734028254067,-5.214691162109375,4.169464111328125,-26.254653930664062,27.090298778543747
1784817096.808646,0.009765625,-0.22900390625,0.9833983778953552,1.0097576571418587,-3.5648345947265625,3.6792755126953125,-28.329849243164062,28.78932913644363
1784817096.819328,0.01611328125,-0.22900390625,0.9916991591453552,1.0179241863518151,-2.529144287109375,3.0670166015625,-31.137466430664062,31.3902051184762
1784817096.83001,0.0009765625,-0.22705078125,0.9975585341453552,1.0230718645270143,-0.820159912109375,2.9449462890625,-34.37232971191406,34.50800516911148
1784817096.840692,-0.0385742112994194,-0.2373046875,0.9970702528953552,1.025646417482971,0.644683837890625,3.6163330078125,-36.93962097167969,37.12181406135198
1784817096.848938,-0.0595703087747097,-0.21533203125,0.9819335341453552,1.0070302730548635,3.574371337890625,0.873565673828125,-37.97340393066406,38.15126018271215
1784817096.857184,-0.0742187425494194,-0.21337890625,1.0078125,1.0328238061423223,5.6476593017578125,0.1392364501953125,-37.17994689941406,37.60670011874272
1784817096.865431,-0.0830078050494194,-0.22705078125,0.9716796278953552,1.0013009798418324,7.053375244140625,-0.3509521484375,-35.96305847167969,36.64989555759472
1784817096.873677,-0.0922851487994194,-0.22998046875,0.9858397841453552,1.0165075723766948,8.152008056640625,0.568389892578125,-33.82682800292969,34.799893608534305
1784817096.884009,-0.0996093675494194,-0.24853515625,0.9985350966453552,1.0338104706513453,9.555816650390625,1.2359619140625,-31.507492065429688,32.94788748860859
1784817096.894343,-0.1123046800494194,-0.2626953125,1.0087890625,1.0484638958925119,11.264801025390625,1.1138916015625,-29.428482055664062,31.530494013608713
1784817096.904675,-0.1079101487994194,-0.244140625,0.9794921278953552,1.0152113443014092,12.180328369140625,1.2359619140625,-26.559829711914062,29.245727129941187
1784817096.912682,-0.1015624925494194,-0.25732421875,0.9731444716453552,1.0117019601355264,12.790679931640625,1.056671142578125,-23.935317993164062,27.159114390037
1784817096.920688,-0.0937499925494194,-0.244140625,0.9472655653953552,0.9827032905522342,11.995315551757812,0.0782012939453125,-22.470474243164062,25.47186532905113
1784817096.928694,-0.0693359300494194,-0.2275390625,0.9775390028953552,1.0060636154542326,11.936187744140625,0.4425048828125,-21.799087524414062,24.85696291447832
1784817096.9367,-0.0449218675494194,-0.23291015625,0.9716796278953552,1.000213184443888,12.178421020507812,1.8482208251953125,-21.493911743164062,24.773334470643192
1784817096.947364,-0.0380859375,-0.21728515625,0.9414061903953552,0.966906920585708,12.241363525390625,3.9215087890625,-21.558761596679688,25.099988321230935
1784817096.958028,-0.0434570237994194,-0.203125,0.9643554091453552,0.9864733314643679,11.995315551757812,5.5103302001953125,-21.738052368164062,25.432150024378014
1784817096.968692,-0.0498046837747097,-0.18701171875,0.9335936903953552,0.9534416962886332,10.896682739257812,6.1206817626953125,-21.680831909179688,25.0251655785598
1784817096.976717,-0.06689453125,-0.1572265625,0.9941405653953552,1.008717271603555,9.737014770507812,5.9375762939453125,-20.517349243164062,23.47394063325273
1784817096.984742,-0.0927734300494194,-0.189453125,0.9404296278953552,0.9637983611309974,10.593414306640625,5.2032470703125,-18.568038940429688,22.00150624025926
1784817096.992766,-0.10888671875,-0.16259765625,0.8891600966453552,0.9104394503779547,10.225296020507812,4.9610137939453125,-17.221450805664062,20.633630422750038
1784817097.000792,-0.1030273362994194,-0.15576171875,0.8745116591453552,0.894229828978026,7.1125030517578125,4.7168731689453125,-15.333175659179688,17.548300998912712
1784817097.011433,-0.1044921875,-0.19482421875,0.9199218153953552,0.9461137563212835,2.964019775390625,5.2032470703125,-13.196945190429688,14.492016963239712
1784817097.022076,-0.0874023362994194,-0.1982421875,0.9267577528953552,0.9517452736142324,1.1920928955078125,5.5713653564453125,-10.877609252929688,12.279396583950726
1784817097.032717,-0.0893554612994194,-0.2265625,0.9130858778953552,0.9450083519642636,-0.209808349609375,5.146026611328125,-9.229660034179688,10.569400823821416
1784817097.043356,-0.0615234337747097,-0.22412109375,0.9472655653953552,0.9753601637092368,-3.322601318359375,4.3487548828125,-6.9065093994140625,8.811993000209647
1784817097.053996,-0.0722656175494194,-0.22265625,0.9599608778953552,0.9880905890825408,-3.8738250732421875,4.4116973876953125,-6.2351226806640625,8.564248325545499
1784817097.064636,-0.064453125,-0.2255859375,0.9584960341453552,0.9867917044606695,-4.4841766357421875,3.9844512939453125,-5.8116912841796875,8.35221214990189
1784817097.072649,-0.0971679612994194,-0.2275390625,0.9404296278953552,0.9724317573433421,-5.6438446044921875,3.0078887939453125,-5.0754547119140625,8.164595363463398
1784817097.080666,-0.0776367112994194,-0.23388671875,0.9555663466453552,0.9868320520687307,-6.4983367919921875,1.1157989501953125,-3.6754608154296875,7.548668794242819
1784817097.088681,-0.0703125,-0.220703125,0.9394530653953552,0.967587607982732,-7.717132568359375,-0.5340576171875,-2.4509429931640625,8.114584041825493
1784817097.096698,-0.0688476487994194,-0.22265625,0.9418944716453552,0.9702994383824787,-8.205413818359375,-1.6326904296875,-1.2340545654296875,8.456795175488997
1784817097.107355,-0.06884765625,-0.185546875,0.8979491591453552,0.9195000462225297,-8.693695068359375,-2.6702880859375,0.2956390380859375,9.099350242976486
1784817097.118012,-0.0595703087747097,-0.177734375,0.9228515028953552,0.941696886551278,-10.341644287109375,-3.1585693359375,1.5735626220703125,10.927134397297557
1784817097.128669,-0.0439453087747097,-0.18212890625,1.0224609375,1.0394847268567753,-11.869430541992188,-2.9125213623046875,2.3670196533203125,12.44865230120364
1784817097.139347,-0.0434570237994194,-0.22509765625,1.0478515625,1.072637107693202,-6.8035125732421875,-1.4476776123046875,4.9915313720703125,8.561479967960848
1784817097.150025,-0.0444335862994194,-0.2421875,1.0615234375,1.0897069042221832,-3.0765533447265625,-1.3256072998046875,5.1746368408203125,6.164355735242613
1784817097.160705,-0.0068359337747097015,-0.24365234375,1.04345703125,1.0715483053369568,0.3986358642578125,-1.5697479248046875,4.8732757568359375,5.135351565556742
1784817097.171363,-0.0224609337747097,-0.185546875,0.9985350966453552,1.0158762107662755,4.062652587890625,0.4425048828125,4.9343109130859375,6.4069010299993145
1784817097.182021,-0.0034179650247097015,-0.18017578125,0.9252929091453552,0.9426780799130913,5.527496337890625,3.3721923828125,5.7277679443359375,8.64478009299573
1784817097.192679,-0.0078124962747097015,-0.14697265625,0.8959960341453552,0.9080037940380137,4.1828155517578125,4.7168731689453125,4.8122406005859375,7.931109508125008
1784817097.200667,-0.013183590024709702,-0.1611328125,0.9013671278953552,0.9157512159753988,-3.3245086669921875,6.1206817626953125,3.1032562255859375,7.625306703256928
1784817097.208657,-0.0458984337747097,-0.1689453125,0.9448241591453552,0.9609067990931387,-5.275726318359375,7.0343017578125,2.9201507568359375,9.265094162977691
1784817097.216647,-0.0498046837747097,-0.20166015625,0.9252929091453552,0.9483218297916314,-8.325576782226562,7.0362091064453125,3.4084320068359375,11.421071582456596
1784817097.224637,-0.0698242112994194,-0.193359375,0.9379882216453552,0.9602526606729047,-9.670257568359375,5.7525634765625,3.1642913818359375,11.688396294592932
1784817097.235358,-0.0537109300494194,-0.19970703125,0.9580077528953552,0.9800748017090686,-10.770797729492188,4.9610137939453125,3.0384063720703125,12.241472741267172
1784817097.24608,-0.0166015587747097,-0.2314452975988388,1.0400390625,1.0656095856645829,-9.611129760742188,6.1817169189453125,1.9435882568359375,11.591590687041597
1784817097.256803,-0.0175781212747097,-0.2460937350988388,1.06884765625,1.0969532483536224,-5.8269500732421875,8.562088012695312,1.2111663818359375,10.427349725490531
1784817097.267436,-0.00439453125,-0.22021484375,0.9252929091453552,0.9511471269090912,-3.8127899169921875,8.867263793945312,-1.1692047119140625,9.722796603904287
1784817097.278069,0.015625,-0.22021484375,0.8994140028953552,0.9261124481600941,-4.3621063232421875,7.3413848876953125,-3.1223297119140625,9.092460969091478
1784817097.288702,0.013183597475290298,-0.2373046725988388,0.9165038466453552,0.9468192096674873,-6.679534912109375,7.8277587890625,-4.7092437744140625,11.316667850064825
1784817097.296722,-0.02685546875,-0.24755859375,0.9653319716453552,0.9969314364699152,-8.325576782226562,9.660720825195312,-8.005142211914062,15.05745853230487
1784817097.304745,-0.0473632775247097,-0.2802734375,0.9077147841453552,0.9511795882912952,-9.853363037109375,9.5977783203125,-8.371353149414062,16.10234968503475
1784817097.312768,-0.06689453125,-0.2211913913488388,0.8994140028953552,0.9286258980462684,-11.989593505859375,9.7808837890625,-8.554458618164062,17.68035074258348
1784817097.320791,-0.0869140550494194,-0.2373046875,0.9199218153953552,0.9540040430285881,-13.700485229492188,11.919021606445312,-7.5778961181640625,19.677166492056973
1784817097.331413,-0.1181640550494194,-0.216796875,0.8989257216453552,0.9322183660232781,-16.630172729492188,11.430740356445312,-5.0144195556640625,20.79348151679846
1784817097.342035,-0.13916015625,-0.19873046875,0.8427733778953552,0.8769984690900358,-19.926071166992188,10.271072387695312,-2.3937225341796875,22.5449140099481
1784817097.352657,-0.1552734375,-0.2138671875,0.8540038466453552,0.8939639726338472,-24.440765380859375,9.4757080078125,1.1501312255859375,26.238575732832828
1784817097.363312,-0.2099609375,-0.1982421875,0.82080078125,0.8701134883917583,-31.827926635742188,8.745193481445312,5.2394866943359375,33.4207651584793
1784817097.373966,-0.1650390625,-0.2021484375,1.0322265625,1.0647035076795497,-36.281585693359375,8.4381103515625,10.057449340820312,38.58377189924403
1784817097.384619,-0.2055663913488388,-0.28857421875,1.078125,1.1348507111529502,-34.51347351074219,5.6324005126953125,12.559890747070312,37.15716142132571
1784817097.392634,-0.2192382663488388,-0.25048828125,0.9594725966453552,1.0155774023621262,-25.234222412109375,6.3018798828125,21.532058715820312,33.765503451640306
1784817097.400647,-0.25537109375,-0.07666015625,0.65673828125,0.7087992276650348,-37.075042724609375,8.4381103515625,27.395248413085938,46.8642735455426
1784817097.40866,-0.1132812425494194,-0.41357421875,1.21875,1.2919860048886804,-31.459808349609375,5.6915283203125,30.202865600585938,43.98097459700192
1784817097.416672,-0.2407226413488388,-0.42724609375,1.51318359375,1.5906637617915234,-9.550094604492188,2.6416778564453125,28.676986694335938,30.340605378256786
1784817097.427362,-0.1611328125,-0.39111328125,1.14208984375,1.2179091071304136,3.1490325927734375,4.4116973876953125,34.35325622558594,34.778235915752056
1784817097.438053,-0.14306640625,-0.20703125,0.8945311903953552,0.9292556083575626,3.391265869140625,3.8604736328125,34.78050231933594,35.15803297185682
1784817097.448743,-0.14794921875,-0.25146484375,0.9160155653953552,0.961357402331474,1.804351806640625,0.385284423828125,35.44807434082031,35.496057583930295
1784817097.459465,-0.1235351487994194,-0.31640625,1.04931640625,1.1029228297815636,5.039215087890625,-1.9989013671875,35.26878356933594,35.6829986105208
1784817097.470186,-0.1020507663488388,-0.28369140625,0.9550780653953552,1.0015334661866384,9.922027587890625,-2.1820068359375,35.57395935058594,36.9961399224849
1784817097.480906,-0.1079101487994194,-0.2919921875,0.9311522841453552,0.981808848016792,11.690139770507812,-3.7670135498046875,35.02464294433594,37.11570250334273
1784817097.488851,-0.0976562425494194,-0.28271484375,0.9458007216453552,0.9919694701200903,11.507034301757812,-7.1239471435546875,33.74290466308594,36.35582589390727
1784817097.496795,-0.0825195237994194,-0.27734375,0.9414061903953552,0.9848729069209089,11.816024780273438,-6.6967010498046875,33.13255310058594,35.80824376483211
1784817097.504739,-0.0971679612994194,-0.2744140625,0.9345702528953552,0.9788596671626263,11.995315551757812,-6.5746307373046875,32.15599060058594,34.944543150871574
1784817097.512682,-0.0937499925494194,-0.26708984375,0.9472655653953552,0.9886546905371953,12.302398681640625,-6.7596435546875,31.053543090820312,34.0787959411992
1784817097.523343,-0.0908203125,-0.25,0.9628905653953552,0.9989527366647456,13.521194458007812,-6.6967010498046875,29.653549194335938,33.27163182566521
1784817097.534003,-0.0771484300494194,-0.23974609375,0.9516600966453552,0.9844221702473592,14.743804931640625,-6.816864013671875,29.405593872070312,33.593725155336735
1784817097.544662,-0.0605468712747097,-0.2265624850988388,0.9609374403953552,0.989139650215729,15.905380249023438,-8.344650268554688,28.127670288085938,33.37334482496154
1784817097.552706,-0.0571289025247097,-0.19970703125,0.9550780653953552,0.9774050955636054,16.633987426757812,-9.199142456054688,27.151107788085938,33.14357273681559
1784817097.560749,-0.0541992150247097,-0.220703125,0.9565429091453552,0.9831692434826873,17.002105712890625,-9.441375732421875,26.845932006835938,33.14989049316349
1784817097.568792,-0.0541992112994194,-0.20458984375,0.9492186903953552,0.9725279846189526,17.002105712890625,-9.2620849609375,26.235580444335938,32.60618802845796
1784817097.576835,-0.0673828050494194,-0.2060546875,0.9389647841453552,0.9636668732099201,17.065048217773438,-9.016036987304688,26.174545288085938,32.52094117133513
1784817097.587452,-0.0683593675494194,-0.21337890625,0.9541015028953552,0.9800577730885962,17.244338989257812,-9.382247924804688,25.987625122070312,32.56916429361059
1784817097.598068,-0.0620117150247097,-0.224609375,0.9604491591453552,0.9883103821377252,17.368316650390625,-10.2386474609375,26.418685913085938,33.233045157973166
1784817097.608685,-0.0410156212747097,-0.2197265625,0.9389647841453552,0.9652030404644146,16.939163208007812,-10.663986206054688,26.662826538085938,33.34009854500298
1784817097.619369,-0.0561523400247097,-0.21484375,0.9135741591453552,0.9401748063325542,14.497756958007812,-10.663986206054688,26.052474975585938,31.664443954851315
1784817097.630051,-0.0341796800494194,-0.20458984375,0.9145507216453552,0.9377783731543238,11.936187744140625,-9.929656982421875,25.499343872070312,29.8544335661895
1784817097.640733,-0.030273430049419403,-0.20263671875,0.9101561903953552,0.9329321579127337,9.553909301757812,-8.283615112304688,24.526596069335938,27.59437219839187
1784817097.64872,-0.029296867549419403,-0.21337890625,0.9374999403953552,0.9619225552620903,7.1125030517578125,-5.7201385498046875,23.000717163085938,24.74551827516453
1784817097.656706,-0.0336913987994194,-0.19775390625,0.9531249403953552,0.974006606647945,6.198883056640625,-4.4403076171875,22.329330444335938,23.595369905502803
1784817097.664692,-0.0502929650247097,-0.19873046875,0.9643554091453552,0.9859029042905173,5.4645538330078125,-3.8890838623046875,21.352767944335938,22.38139899037903
1784817097.672678,-0.0478515625,-0.19384765625,0.9702147841453552,0.9905470272740855,5.4645538330078125,-4.0721893310546875,20.738601684570312,21.829651265493425
1784817097.683334,-0.0590820275247097,-0.19091796875,0.9799804091453552,1.0001509681426872,5.9528350830078125,-4.1332244873046875,20.620346069335938,21.856771541266607
1784817097.69399,-0.0532226487994194,-0.1845703125,0.9648436903953552,0.9837795472042007,6.6242218017578125,-5.0487518310546875,20.250320434570312,21.89624824560677
1784817097.704646,-0.0541992150247097,-0.18505859375,0.9716796278953552,0.9906288595114107,7.1125030517578125,-5.6591033935546875,19.887924194335938,21.866473873028983
1784817097.715464,-0.03662109375,-0.1982421875,0.9638671278953552,0.9847237732732325,7.724761962890625,-4.4403076171875,18.239974975585938,20.29987601510355
1784817097.726283,-0.0473632775247097,-0.2060546875,0.9443358778953552,0.967714867395865,7.5435638427734375,-3.4008026123046875,17.324447631835938,19.19914840835611
1784817097.737102,-0.0424804650247097,-0.18701171875,0.9487304091453552,0.9679190886100231,7.4787139892578125,-2.1190643310546875,15.794754028320312,17.603858991352137
1784817097.744996,-0.0478515625,-0.1796875,0.9672850966453552,0.9849963593243153,7.053375244140625,-0.591278076171875,14.211654663085938,15.876738971238067
1784817097.75289,-0.052734375,-0.18310546875,0.9663085341453552,0.9849166006088754,6.7501068115234375,0.5054473876953125,13.418197631835938,15.028887075086788
1784817097.760784,-0.0620117150247097,-0.201171875,0.9614257216453552,0.9842027201408323,6.9293975830078125,0.8106231689453125,12.681961059570312,14.474315082306424
1784817097.768678,-0.0634765550494194,-0.1943359375,0.9721679091453552,0.9934315141050225,6.8073272705078125,0.5664825439453125,11.648178100585938,13.503357364128519
1784817097.779478,-0.07958984375,-0.1875,0.9741210341453552,0.9951897218081414,6.748199462890625,0.568389892578125,11.217117309570312,13.102861664445832
1784817097.790278,-0.07568359375,-0.1806640625,0.9838866591453552,1.0031951295167494,6.9904327392578125,0.3833770751953125,11.098861694335938,13.12241817554487
1784817097.801078,-0.08447265625,-0.18505859375,0.9731444716453552,0.994179297445172,7.358551025390625,-0.102996826171875,10.854721069335938,13.114261360540457
1784817097.811696,-0.0908203125,-0.17041015625,0.9648436903953552,0.9839772850078782,8.029937744140625,0.0762939453125,10.122299194335938,12.92078410625762
1784817097.822314,-0.09326171875,-0.171875,0.9628905653953552,0.982546184531084,8.213043212890625,0.7476806640625,9.752273559570312,12.771841870807668
1784817097.832932,-0.109375,-0.17236328125,0.9809569716453552,1.0019723407199885,8.518218994140625,0.9307861328125,9.935379028320312,13.12014382899674
1784817097.843504,-0.1059570237994194,-0.17822265625,0.9438475966453552,0.966353192050634,8.455276489257812,0.8716583251953125,9.634017944335938,12.847793215080365
1784817097.854078,-0.09521484375,-0.1904296875,0.9506835341453552,0.9742322692493753,8.394241333007812,0.8106231689453125,9.878158569335938,12.988395366624498
1784817097.864651,-0.1079101487994194,-0.16748046875,0.9438475966453552,0.964646356609429,7.846832275390625,0.2593994140625,10.183334350585938,12.858474377232763
1784817097.872658,-0.1347656100988388,-0.18017578125,0.9472655653953552,0.9736206310458618,6.992340087890625,-0.9002685546875,11.281967163085938,13.303611781927145
1784817097.880664,-0.13134765625,-0.1787109375,0.9511718153953552,0.9766870677893676,6.320953369140625,-1.8768310546875,12.258529663085938,13.919356874634957
1784817097.88867,-0.126953125,-0.18359375,0.9521483778953552,0.9779623175332904,5.9528350830078125,-2.6073455810546875,13.170242309570312,14.686380731729992
1784817097.896676,-0.1206054612994194,-0.18408203125,0.9545897841453552,0.9796292806562326,5.405426025390625,-2.9754638671875,13.967514038085938,15.269691029783033
1784817097.907351,-0.1108398362994194,-0.16845703125,0.9418944716453552,0.9632385148054081,5.2814483642578125,-3.2176971435546875,14.513015747070312,15.775769325350582
1784817097.918027,-0.1220703050494194,-0.1748046875,0.9716796278953552,0.9947960280447882,5.1593780517578125,-3.7059783935546875,15.615463256835938,16.858118236032386
1784817097.928704,-0.1166992112994194,-0.17529296875,0.9970702528953552,1.0190659546957217,5.7697296142578125,-4.0111541748046875,15.737533569335938,17.23511243020109
1784817097.936713,-0.1113281175494194,-0.15380859375,0.9829100966453552,1.001081061331115,6.076812744140625,-3.7689208984375,16.592025756835938,18.067311271507336
1784817097.944722,-0.1103515625,-0.1611328125,0.9819335341453552,1.0011666774766024,6.381988525390625,-4.0740966796875,16.775131225585938,18.404702359160463
1784817097.952731,-0.0961913913488388,-0.15576171875,0.9555663466453552,0.972944777281183,6.259918212890625,-4.3182373046875,17.385482788085938,18.976004880546036
1784817097.96074,-0.103515625,-0.162109375,0.9692382216453552,0.9881384844141442,5.527496337890625,-3.9520263671875,18.056869506835938,19.293062601858757
1784817097.971385,-0.1030273362994194,-0.17529296875,0.9594725966453552,0.9807802611347368,5.1593780517578125,-3.2787322998046875,17.930984497070312,18.94437838539229
1784817097.98203,-0.07958984375,-0.1748046875,0.9541015028953552,0.9732424671310318,4.123687744140625,-3.0364990234375,18.114089965820312,18.82406391352156
1784817097.992675,-0.0771484300494194,-0.1630859375,0.9716796278953552,0.9882864982059605,2.964019775390625,-2.6702880859375,17.568588256835938,18.015858154110784
1784817098.003369,-0.095703125,-0.16357421875,0.9667968153953552,0.9851962725432121,0.461578369140625,-0.8392333984375,16.592025756835938,16.619647589627725
1784817098.014061,-0.0834960862994194,-0.16845703125,0.9594725966453552,0.9777203237727362,-0.7610321044921875,-0.3490447998046875,15.977859497070312,15.99978113114234
1784817098.024755,-0.08544921875,-0.1689453125,0.9653319716453552,0.9837224725914403,-1.7375946044921875,0.3833770751953125,14.944076538085938,15.049639084294222
1784817098.032745,-0.0805663987994194,-0.17822265625,0.9746093153953552,0.9940410340985505,-2.1648406982421875,1.8482208251953125,14.272689819335938,14.55376687137825
1784817098.040735,-0.0844726487994194,-0.17919921875,0.9726561903953552,0.9926268448466452,-2.468109130859375,3.1280517578125,13.235092163085938,13.82186438389424
1784817098.048724,-0.095703125,-0.1845703125,0.9599608778953552,0.982216969656264,-3.139495849609375,3.0670166015625,12.075424194335938,12.84830317579439
1784817098.056715,-0.09375,-0.171875,0.9760741591453552,0.995515365163347,-3.444671630859375,3.314971923828125,11.770248413085938,12.704076086279088
1784817098.067384,-0.0888671875,-0.181640625,0.9560546278953552,0.9772057844613267,-3.627777099609375,3.009796142578125,10.305404663085938,11.332299183055563
1784817098.078055,-0.0976562425494194,-0.185546875,0.9575194716453552,0.9802081019411831,-3.8738250732421875,2.4585723876953125,9.569168090820312,10.612260684415519
1784817098.088724,-0.0825195237994194,-0.1796875,0.9726561903953552,0.9925508219626532,-4.1790008544921875,2.2754669189453125,7.6808929443359375,9.035370178548884
1784817098.099381,-0.1025390550494194,-0.18115234375,0.9619140028953552,0.9841793426112496,-4.238128662109375,1.6021728515625,5.4798126220703125,7.110347303464017
1784817098.110041,-0.08837890625,-0.19140625,0.9624022841453552,0.9852234975563696,-4.604339599609375,1.2359619140625,4.4460296630859375,6.518797800713266
1784817098.1207,-0.0869140550494194,-0.1923828125,0.9555663466453552,0.9786072973116923,-4.8503875732421875,0.9326934814453125,2.7980804443359375,5.676744746240402
1784817098.129268,-0.0917968675494194,-0.18359375,0.9521483778953552,0.9740225169161667,-4.7893524169921875,1.1768341064453125,1.4553070068359375,5.142057328772951
1784817098.137835,-0.09130859375,-0.19482421875,0.9619140028953552,0.9856836634896187,-4.909515380859375,0.9307861328125,0.2956390380859375,5.0057073966394805
1784817098.146402,-0.0874023362994194,-0.18017578125,0.9604491591453552,0.9811040046002587,-5.397796630859375,0.568389892578125,-0.8029937744140625,5.486718011694198
1784817098.154969,-0.0981445237994194,-0.1875,0.9560546278953552,0.9791981663953119,-5.702972412109375,0.568389892578125,-1.2912750244140625,5.874891708954398
1784817098.164872,-0.0908203125,-0.18505859375,0.9736327528953552,0.9952164336434126,-5.886077880859375,0.4425048828125,-1.9626617431640625,6.220431215674255
1784817098.174775,-0.0927734300494194,-0.18994140625,0.9653319716453552,0.9882056782937806,-5.886077880859375,0.3204345703125,-2.6340484619140625,6.4565317650504275
1784817098.184678,-0.103515625,-0.17578125,0.9624022841453552,0.9837848794319316,-5.886077880859375,0.3204345703125,-2.8820037841796875,6.561595609714103
1784817098.195415,-0.0986328125,-0.1826171875,0.9550780653953552,0.9773697252684905,-6.1893463134765625,0.3223419189453125,-2.8820037841796875,6.8350462992492815
1784817098.206153,-0.10986328125,-0.181640625,0.9624022841453552,0.9855361047397524,-6.557464599609375,0.385284423828125,-2.4509429931640625,7.0111274141977145
1784817098.216893,-0.0966796800494194,-0.19482421875,0.9628905653953552,0.9871482551640319,-6.1893463134765625,0.3833770751953125,-2.0847320556640625,6.5422544672188145
1784817098.227494,-0.1132812425494194,-0.18896484375,0.9541015028953552,0.9792088796136286,-6.4983367919921875,0.5054473876953125,-1.6574859619140625,6.7254083770303135
1784817098.238094,-0.1074218675494194,-0.19189453125,0.9619140028953552,0.9867327488827092,-6.618499755859375,1.2359619140625,-0.6198883056640625,6.7613905657655
1784817098.248693,-0.1206054612994194,-0.18896484375,0.9711913466453552,0.9967276565178305,-6.862640380859375,1.544952392578125,-0.1926422119140625,7.037032180837723
1784817098.256695,-0.11376953125,-0.19482421875,0.9731444716453552,0.998954526065281,-7.1086883544921875,1.9702911376953125,0.4787445068359375,7.39220492082025
1784817098.264697,-0.1044921875,-0.1953125,0.9721679091453552,0.9970837645237419,-6.923675537109375,2.2735595703125,0.9670257568359375,7.351292054959487
1784817098.272699,-0.10546875,-0.201171875,0.9790038466453552,1.0050086130297493,-6.740570068359375,2.5787353515625,1.3904571533203125,7.349730060014457
1784817098.280701,-0.1093749925494194,-0.1982421875,0.9677733778953552,0.9939055110335976,-6.1321258544921875,2.5196075439453125,1.3332366943359375,6.762315413670194
1784817098.29138,-0.1083984375,-0.1953125,0.9755858778953552,1.0008321532892228,-5.3386688232421875,2.6416778564453125,1.0852813720703125,6.054558807878114
1784817098.302058,-0.09033203125,-0.19677734375,0.9829100966453552,1.0064757607465955,-4.909515380859375,2.4566650390625,0.7190704345703125,5.536750552347456
1784817098.312737,-0.1069335862994194,-0.19873046875,0.9614257216453552,0.9875565853811832,-4.5452117919921875,2.2144317626953125,0.7839202880859375,5.116364850533183
1784817098.323466,-0.09423828125,-0.19140625,0.9833983778953552,1.0062750994828564,-4.360198974609375,2.2125244140625,0.6618499755859375,4.934029263309082
1784817098.334194,-0.0908203125,-0.19970703125,0.9643554091453552,0.9889957445010528,-3.9958953857421875,2.3365020751953125,-0.1316070556640625,4.630738850149971
1784817098.344922,-0.1015624925494194,-0.2080078125,0.9682616591453552,0.9955464984242585,-3.627777099609375,2.4566650390625,-0.4978179931640625,4.409511600270495
1784817098.352849,-0.1015624925494194,-0.20263671875,0.9707030653953552,0.9968154397111617,-3.017425537109375,2.7008056640625,-0.9250640869140625,4.1539079999357265
1784817098.360776,-0.099609375,-0.19921875,0.9648436903953552,0.9902189075326633,-3.200531005859375,2.7008056640625,-1.2912750244140625,4.3823670707934586
1784817098.368702,-0.1025390550494194,-0.1953125,0.9677733778953552,0.9925958600707863,-2.712249755859375,1.9073486328125,-1.6574859619140625,3.7069579521749554
1784817098.37663,-0.1074218675494194,-0.2041015625,0.9570311903953552,0.9844316151121403,-2.3479461669921875,2.3365020751953125,-1.3523101806640625,3.5778255931798824
1784817098.387317,-0.1118163987994194,-0.2021484375,0.9604491591453552,0.9878408197311863,-1.9207000732421875,1.7261505126953125,-1.7223358154296875,3.1040497781032252
1784817098.398005,-0.1069335862994194,-0.201171875,0.9536132216453552,0.980450453448161,-1.7948150634765625,1.6651153564453125,-1.8405914306640625,3.0629637733715294
1784817098.408694,-0.1123046800494194,-0.20166015625,0.9487304091453552,0.9764059345461241,-1.8596649169921875,1.2989044189453125,-1.5392303466796875,2.7413019449135643
1784817098.4171,-0.1103515625,-0.21435546875,0.9545897841453552,0.9845645688952551,-1.9207000732421875,1.4820098876953125,-1.4743804931640625,2.838880046286197
1784817098.425508,-0.10888671875,-0.220703125,0.9584960341453552,0.9895861935057911,-2.101898193359375,1.4190673828125,-1.3523101806640625,2.8741035257863263
1784817098.433915,-0.1005859375,-0.22021484375,0.9594725966453552,0.9895452349154996,-1.8596649169921875,1.6651153564453125,-1.2340545654296875,2.7845741908269233
1784817098.442322,-0.1108398362994194,-0.21484375,0.9531249403953552,0.9833058823319395,-2.4089813232421875,1.5430450439453125,-1.4743804931640625,3.2183810933443815
1784817098.452461,-0.1025390550494194,-0.22412109375,0.9638671278953552,0.9948790693905291,-2.4089813232421875,1.6651153564453125,-1.1692047119140625,3.1532268907203185
1784817098.462601,-0.1079101487994194,-0.21923828125,0.9755858778953552,1.0057225409267796,-2.468109130859375,1.6632080078125,-1.4743804931640625,3.3213884743741957
1784817098.472742,-0.1005859375,-0.220703125,0.9892577528953552,1.018556970361053,-2.040863037109375,1.4190673828125,-1.1081695556640625,2.72156461200213
1784817098.483457,-0.1210937350988388,-0.21044921875,0.9697265028953552,0.9996609709148039,-0.881195068359375,0.6256103515625,-0.7457733154296875,1.3130388031166582
1784817098.494172,-0.1142578050494194,-0.24658203125,0.9799804091453552,1.0169656564795022,0.3414154052734375,0.5054473876953125,-0.5626678466796875,0.8298413380720422
1784817098.504887,-0.119140625,-0.2353515625,0.9853515028953552,1.0200502099184712,1.255035400390625,0.2593994140625,-0.4978179931640625,1.3748544164992595
1784817098.51287,-0.095703125,-0.2221679538488388,0.9912108778953552,1.0203022553685874,1.804351806640625,0.873565673828125,-0.4367828369140625,2.0517265108295426
1784817098.520854,-0.0859375,-0.2255859375,0.9833983778953552,1.0125940147715766,3.0231475830078125,0.8716583251953125,-0.7457733154296875,3.233479145214217
1784817098.528838,-0.0825195237994194,-0.2275390625,0.9829100966453552,1.0122725694489816,3.879547119140625,0.568389892578125,-0.9250640869140625,4.02860974586959
1784817098.536822,-0.0859375,-0.22314453125,0.9868163466453552,1.0153744322857052,4.428863525390625,0.8087158203125,-1.4133453369140625,4.718728477665983
1784817098.547497,-0.0942382737994194,-0.21875,0.9843749403953552,1.012781535192587,5.222320556640625,0.9918212890625,-2.1457672119140625,5.732421686641196
1784817098.558172,-0.0776367112994194,-0.216796875,0.9809569716453552,1.0076234039415626,5.527496337890625,1.2969970703125,-2.5157928466796875,6.210042738435716
1784817098.568847,-0.0737304612994194,-0.212890625,0.9892577528953552,1.0145883405597975,6.4411163330078125,0.8106231689453125,-3.2444000244140625,7.257494130606577
1784817098.579513,-0.0791015625,-0.2109375,0.9868163466453552,1.01220461770468,7.663726806640625,0.6256103515625,-5.2585601806640625,9.3153932849059
1784817098.590178,-0.07666015625,-0.21044921875,0.9741210341453552,0.9995386147584174,8.335113525390625,0.9307861328125,-6.1168670654296875,10.380584906561102
1784817098.600845,-0.0541992112994194,-0.203125,0.9721679091453552,0.9946395144485919,8.577346801757812,0.9326934814453125,-6.9713592529296875,11.092368778640743
1784817098.611476,-0.07421875,-0.19482421875,0.9731444716453552,0.9952261359897197,8.882522583007812,1.1157989501953125,-8.371353149414062,12.256580611537032
1784817098.622107,-0.08056640625,-0.2021484225988388,0.9711913466453552,0.9952726070650479,9.311676025390625,0.9918212890625,-9.653091430664062,13.448910514983439
1784817098.632736,-0.08154296875,-0.1904296875,0.9589843153953552,0.9811032763212083,9.006500244140625,0.7476806640625,-11.240005493164062,14.422683401831865
1784817098.640745,-0.0830078050494194,-0.20556640625,0.9628905653953552,0.9880820229136088,9.433746337890625,0.2593994140625,-13.132095336914062,16.171418798654646
1784817098.648755,-0.0869140550494194,-0.18701171875,0.9780272841453552,0.9995322928488614,9.983062744140625,0.202178955078125,-13.437271118164062,16.741047553434974
1784817098.656764,-0.0961913987994194,-0.1982421875,0.9760741591453552,1.000636554528709,10.776519775390625,-0.102996826171875,-14.173507690429688,17.80540106445952
1784817098.664773,-0.0986328125,-0.171875,0.9833983778953552,1.0031658970349202,11.751174926757812,-1.1425018310546875,-14.596939086914062,18.774079293012065
1784817098.675412,-0.1030273362994194,-0.17822265625,0.9897460341453552,1.0109278704893925,12.912750244140625,-1.2054443359375,-14.661788940429688,19.57448006584859
1784817098.686053,-0.1074218675494194,-0.15625,0.9814452528953552,0.9995940698896891,14.377593994140625,-1.6937255859375,-14.780044555664062,20.688973693448954
1784817098.696692,-0.0917968675494194,-0.166015625,0.9833983778953552,1.0015289423093283,15.415191650390625,-1.9989013671875,-15.150070190429688,21.70595234190297
1784817098.707361,-0.0991210862994194,-0.16845703125,0.9829100966453552,1.0021551871911465,16.208648681640625,-1.6326904296875,-15.638351440429688,22.581939816996076
1784817098.718031,-0.10546875,-0.16357421875,0.9521483778953552,0.971836774255323,16.633987426757812,-1.9969940185546875,-15.390396118164062,22.749545391011214
1784817098.7287,-0.0971679612994194,-0.1591796875,0.9487304091453552,0.9668863298510307,16.756057739257812,-1.8138885498046875,-15.878677368164062,23.15573487485767
1784817098.73669,-0.11376953125,-0.14697265625,0.9487304091453552,0.9667646337982884,15.291213989257812,-1.0814666748046875,-15.024185180664062,21.464317733784892
1784817098.744679,-0.1171874925494194,-0.138671875,0.9365233778953552,0.9539595560979313,14.255523681640625,-1.6326904296875,-14.291763305664062,20.251916745388215
1784817098.752668,-0.11328125,-0.130859375,0.9409179091453552,0.9567044106605864,13.154983520507812,-1.5087127685546875,-13.925552368164062,19.215900041406123
1784817098.760657,-0.1015624925494194,-0.142578125,0.9448241591453552,0.96090382105916,12.056350708007812,-1.7528533935546875,-13.376235961914062,18.09286533201913
1784817098.771328,-0.1298827975988388,-0.1318359375,0.9335936903953552,0.9517601768694797,10.957717895507812,-1.9359588623046875,-13.132095336914062,17.212537469294535
1784817098.782001,-0.13427734375,-0.14404296875,0.9262694716453552,0.946970916128386,9.983062744140625,-1.8768310546875,-12.094497680664062,15.794331600573553
1784817098.792672,-0.12890625,-0.14404296875,0.9326171278953552,0.9524389247501162,8.882522583007812,-1.9969940185546875,-11.240005493164062,14.464609086807195
1784817098.800679,-0.13818359375,-0.134765625,0.9458007216453552,0.9652955424781472,7.2383880615234375,-1.9359588623046875,-9.901046752929688,12.416639048045191
1784817098.808686,-0.13916015625,-0.13037109375,0.9399413466453552,0.9590891023813062,5.9528350830078125,-1.9969940185546875,-8.741378784179688,10.762710331702632
1784817098.816693,-0.12890625,-0.1259765625,0.9160155653953552,0.9335799010448711,4.4307708740234375,-2.4242401123046875,-7.5778961181640625,9.106765629897776
1784817098.835348,-0.1230468675494194,-0.12548828125,0.9340819716453552,0.9504719722841266,0.827789306640625,-2.9754638671875,-5.5637359619140625,6.36347218230918
1784817098.845999,-0.12744140625,-0.13623046875,0.9243163466453552,0.9429532126880097,-0.820159912109375,-3.3416748046875,-4.4651031494140625,5.63707361284398
1784817098.856649,-0.1279296875,-0.14208984375,0.9184569716453552,0.9381464370793634,-3.0193328857421875,-3.2176971435546875,-3.1871795654296875,5.443166317949215
1784817098.864692,-0.1303710788488388,-0.12841796875,0.9223632216453552,0.9403412707852851,-4.909515380859375,-3.3416748046875,-2.2106170654296875,6.336951915956675
1784817098.872735,-0.1240234375,-0.15771484375,0.9355468153953552,0.9568195382541026,-6.9866180419921875,-3.2176971435546875,-1.2340545654296875,7.790333577119057
1784817098.880777,-0.1313476413488388,-0.15185546875,0.9541015028953552,0.9749984431291985,-8.451461791992188,-2.9735565185546875,-0.2574920654296875,8.963009927156286
1784817098.88882,-0.1215820237994194,-0.150390625,0.9516600966453552,0.9711109453332817,-9.304046630859375,-2.9754638671875,0.3566741943359375,9.774757562980746
1784817098.899445,-0.1025390550494194,-0.1591796875,0.9599608778953552,0.9784565998615609,-9.914398193359375,-3.0364990234375,0.9021759033203125,10.408147732250747
1784817098.910069,-0.1069335788488388,-0.16650390625,0.9492186903953552,0.9696259398746523,-10.463714599609375,-2.7923583984375,1.5163421630859375,10.935533009549875
1784817098.920692,-0.1030273362994194,-0.16943359375,0.9667968153953552,0.9869237341226496,-10.892868041992188,-2.5463104248046875,1.8215179443359375,11.3338518863298
1784817098.931359,-0.1118163987994194,-0.16748046875,0.9580077528953552,0.9789440581875956,-11.564254760742188,-2.5463104248046875,2.1266937255859375,12.030731945865304
1784817098.942024,-0.099609375,-0.1728515625,0.9570311903953552,0.9776033907654641,-11.747360229492188,-2.1800994873046875,2.4318695068359375,12.19291988960312
1784817098.952689,-0.08935546875,-0.18505859375,0.9580077528953552,0.9798009683215606,-12.111663818359375,-2.1820068359375,2.4318695068359375,12.544622097907615
1784817098.96068,-0.1113281175494194,-0.1806640625,0.9824218153953552,1.005080134417553,-11.991500854492188,-1.7528533935546875,2.7370452880859375,12.424170180403054
1784817098.96867,-0.10498046875,-0.18505859375,0.9707030653953552,0.9937464581610526,-11.318206787109375,-1.6937255859375,3.4694671630859375,11.95858326190689
1784817098.976661,-0.1059570237994194,-0.18798828125,0.9902343153953552,1.0134744615264204,-11.198043823242188,-1.5697479248046875,3.4694671630859375,11.827827205806344
1784817098.984653,-0.0937499925494194,-0.18994140625,0.9799804091453552,1.0026107924912546,-11.075973510742188,-1.0814666748046875,4.0149688720703125,11.830753755491207
1784817098.995305,-0.0986328050494194,-0.19921875,0.9633788466453552,0.9886937557945908,-10.890960693359375,-1.3885498046875,3.9577484130859375,11.670684122436048
1784817099.005957,-0.0922851487994194,-0.19775390625,0.9736327528953552,0.9977895036713167,-10.463714599609375,-1.0223388671875,4.5680999755859375,11.463072771660697
1784817099.016608,-0.1035156175494194,-0.18994140625,0.9853515028953552,1.0088165369099578,-10.036468505859375,-0.9002685546875,4.3849945068359375,10.989511379704176
1784817099.024627,-0.10986328125,-0.19921875,0.9780272841453552,1.0041391434713212,-9.670257568359375,-0.6561279296875,4.5680999755859375,10.715032556435656
1784817099.032645,-0.0971679612994194,-0.20263671875,0.9760741591453552,1.0016107111249182,-9.611129760742188,-0.3490447998046875,4.6291351318359375,10.673543910946007
1784817099.040663,-0.0966796800494194,-0.20703125,0.9716796278953552,0.9981834492105529,-9.181976318359375,-0.102996826171875,4.3239593505859375,10.149675951607195
1784817099.048681,-0.0947265625,-0.2109375,0.9638671278953552,0.9912152091178572,-9.670257568359375,0.0762939453125,4.2629241943359375,10.568454233763697
1784817099.059358,-0.08984375,-0.2001953125,0.9628905653953552,0.9875769861071196,-9.428024291992188,0.3833770751953125,4.0798187255859375,10.28005548943301
1784817099.070035,-0.0908203125,-0.19921875,0.9750975966453552,0.9993756863650967,-9.122848510742188,0.4444122314453125,3.9577484130859375,9.954277456585858
1784817099.080712,-0.0888671800494194,-0.22216796875,0.9726561903953552,1.0016566511249463,-9.181976318359375,0.9918212890625,3.4694671630859375,9.865576565821257
1784817099.088745,-0.0786132737994194,-0.224609375,0.9707030653953552,0.9994467766335996,-8.693695068359375,1.178741455078125,3.2215118408203125,9.34601005242779
1784817099.096781,-0.08447265625,-0.2211913913488388,0.9770507216453552,1.0053304799559573,-8.268356323242188,1.5430450439453125,2.7980804443359375,8.864308121264651
1784817099.104817,-0.0874023362994194,-0.22265625,0.9785155653953552,1.0073270004202464,-7.472991943359375,1.7242431640625,2.3670196533203125,8.026294606699595
1784817099.112853,-0.0859375,-0.22998046875,0.9838866591453552,1.0140558307888812,-6.923675537109375,1.6021728515625,2.3097991943359375,7.472577407267566
1784817099.123508,-0.0874023362994194,-0.2353515625,0.9868163466453552,1.018251456354605,-6.130218505859375,1.7242431640625,1.6384124755859375,6.575483925807488
1784817099.134165,-0.1010742112994194,-0.244140625,0.9980468153953552,1.0324330906581793,-5.092620849609375,1.4190673828125,1.3332366943359375,5.452160987898491
1784817099.14482,-0.09130859375,-0.22998046875,0.9863280653953552,1.016892977596766,-3.2596588134765625,1.3599395751953125,1.0280609130859375,3.6785486906486544
1784817099.155423,-0.08642578125,-0.2470703125,0.9882811903953552,1.0223565260087994,-0.5168914794921875,1.1768341064453125,-0.0095367431640625,1.2853817585195213
1784817099.166028,-0.10498046875,-0.2368163913488388,0.9926757216453552,1.0259181206970578,0.949859619140625,0.568389892578125,-0.3757476806640625,1.1689682141030902
1784817099.176631,-0.08544921875,-0.2294921875,0.9931640028953552,1.0229090720859042,2.0465850830078125,0.8106231689453125,-0.5626678466796875,2.272050952269379
1784817099.187326,-0.0922851487994194,-0.22900390625,0.9643554091453552,0.9954600408427228,2.780914306640625,1.2969970703125,-1.0509490966796875,3.243482662985817
1784817099.198019,-0.09130859375,-0.2294921875,0.9560546278953552,0.9874433527733446,2.902984619140625,1.2969970703125,-1.5392303466796875,3.5325275879327425
1784817099.208712,-0.1015624925494194,-0.21240234375,0.9628905653953552,0.9912557371590496,3.086090087890625,1.2969970703125,-1.9626617431640625,3.8804889574711807
1784817099.216713,-0.0976562425494194,-0.208984375,0.9516600966453552,0.9792181321084993,2.109527587890625,0.1373291015625,-2.6340484619140625,3.3774512914207127
1784817099.224714,-0.0971679612994194,-0.2158203125,0.9443358778953552,0.9735452071018964,1.7414093017578125,0.3223419189453125,-2.7561187744140625,3.2760649211570354
1784817099.232714,-0.08740234375,-0.21142578125,0.9414061903953552,0.968806299517536,0.8869171142578125,0.5054473876953125,-2.4509429931640625,2.655036833083759
1784817099.240716,-0.1093749925494194,-0.19287109375,0.9394530653953552,0.9652638032580712,0.522613525390625,0.4425048828125,-2.7561187744140625,2.8399165774564215
1784817099.248798,-0.0908203125,-0.2021484225988388,0.9531249403953552,0.9785496747357519,-0.3948211669921875,0.5054473876953125,-2.8171539306640625,2.889241610646134
1784817099.256882,-0.09326171875,-0.20654296875,0.9545897841453552,0.981121502220262,-0.331878662109375,0.5035400390625,-2.6988983154296875,2.7654562253508512
1784817099.264965,-0.1005859375,-0.18505859375,0.9545897841453552,0.9775509551620096,-0.6351470947265625,0.2002716064453125,-2.3937225341796875,2.484638428207896
1784817099.273047,-0.1005859375,-0.21142578125,0.9560546278953552,0.9843062751603552,-1.186370849609375,0.568389892578125,-2.0275115966796875,2.4168876964928385
1784817099.283611,-0.0898437425494194,-0.20361328125,0.9526366591453552,0.978287723895328,-1.308441162109375,0.873565673828125,-1.8405914306640625,2.4213450963930976
1784817099.294174,-0.1010742112994194,-0.2021484375,0.9423827528953552,0.9691053812295747,-1.4324188232421875,0.5054473876953125,-2.1457672119140625,2.6289955638288927
1784817099.304737,-0.1069335862994194,-0.20263671875,0.9624022841453552,0.9893000496274217,-1.6117095947265625,0.6885528564453125,-1.0509490966796875,2.0435769762023916
1784817099.312719,-0.1030273362994194,-0.212890625,0.9638671278953552,0.992460019585215,-1.857757568359375,0.4425048828125,-0.9250640869140625,2.1219842881151574
1784817099.320701,-0.1005859375,-0.2255859375,0.9570311903953552,0.9883902293173777,-1.979827880859375,0.2593994140625,-0.6198883056640625,2.090757758647126
1784817099.328682,-0.1020507737994194,-0.20947265625,0.9580077528953552,0.9859371221112931,-2.0999908447265625,0.3833770751953125,-0.1316070556640625,2.138751960097584
1784817099.336665,-0.1088867112994194,-0.20458984375,0.9716796278953552,0.9989367444088282,-1.8596649169921875,0.0171661376953125,-0.2574920654296875,1.8774851380328368
1784817099.347346,-0.099609375,-0.220703125,0.9785155653953552,1.0080300633878179,-1.9207000732421875,0.1392364501953125,-0.0743865966796875,1.927176412833325
1784817099.358027,-0.103515625,-0.21533203125,0.9741210341453552,1.0029930994108622,-1.4324188232421875,-0.1049041748046875,0.2307891845703125,1.454679421310625
1784817099.368708,-0.10498046875,-0.21630859375,0.9750975966453552,1.0043035544757473,-1.308441162109375,-0.2288818359375,0.1087188720703125,1.3327509004568308
1784817099.376738,-0.0874023362994194,-0.2099609375,0.9853515028953552,1.0112568160089754,-0.6999969482421875,0.2002716064453125,0.0514984130859375,0.7299017265679892
1784817099.384767,-0.0927734300494194,-0.22412109375,0.9799804091453552,1.0095537510680292,-0.3948211669921875,-0.1659393310546875,0.2307891845703125,0.4865010413252779
1784817099.392796,-0.0961913913488388,-0.2109375,0.9794921278953552,1.0065546389962376,0.278472900390625,0.1373291015625,-0.1926422119140625,0.36540041078120444
1784817099.400825,-0.0981445237994194,-0.20751953125,0.9516600966453552,0.9789553835334281,0.827789306640625,-0.0457763671875,-0.1926422119140625,0.8511413712143207
1784817099.411507,-0.07666015625,-0.2070312350988388,0.9565429091453552,0.9816888758150845,0.949859619140625,-0.4119873046875,-0.4978179931640625,1.148820956291945
1784817099.422189,-0.0756835862994194,-0.212890625,0.9658202528953552,0.9918967609337578,0.8869171142578125,-0.3490447998046875,-0.8029937744140625,1.246295808218034
1784817099.432871,-0.0874023362994194,-0.19677734375,0.9575194716453552,0.9814295848321991,0.644683837890625,-0.5340576171875,-0.9250640869140625,1.2476290932049974
1784817099.44351,-0.09033203125,-0.1884765625,0.9555663466453552,0.9781565995906374,0.5817413330078125,-0.5931854248046875,-1.1081695556640625,1.3850385160099736
1784817099.454148,-0.0825195237994194,-0.20947265625,0.9565429091453552,0.9826813331700022,0.5245208740234375,-0.2880096435546875,-1.5964508056640625,1.7049125716505944
1784817099.464786,-0.0893554612994194,-0.19873046875,0.9672850966453552,0.9915234015724697,0.2765655517578125,0.0171661376953125,-1.4133453369140625,1.44025283269265
1784817099.475401,-0.0883788987994194,-0.208984375,0.9672850966453552,0.9935420257539954,0.339508056640625,-0.3509521484375,-1.4133453369140625,1.4953187527726373
1784817099.486019,-0.1127929612994194,-0.20458984375,0.9658202528953552,0.993673999452129,-0.087738037109375,-0.2288818359375,-0.8640289306640625,0.8981263001395795
1784817099.496637,-0.0869140550494194,-0.21044921875,0.9619140028953552,0.988494550113345,-0.5779266357421875,-0.1659393310546875,-0.8640289306640625,1.052654288413648
1784817099.504647,-0.1025390550494194,-0.21484375,0.9624022841453552,0.9914082162523605,-0.392913818359375,0.0762939453125,-0.0743865966796875,0.4071061293012882
1784817099.512656,-0.10302734375,-0.2109375,0.9516600966453552,0.9801868199549908,-0.8831024169921875,-0.1049041748046875,0.2307891845703125,0.9187700542048187
1784817099.520665,-0.1059570237994194,-0.224609375,0.9604491591453552,0.9920377258619458,-0.7610321044921875,-0.2269744873046875,0.1087188720703125,0.8015653904075914
1784817099.528674,-0.0961913913488388,-0.20654296875,0.9702147841453552,0.9966090051188115,-0.820159912109375,-0.1678466796875,0.7839202880859375,1.146893982627041
1784817099.539355,-0.1000976487994194,-0.203125,0.9638671278953552,0.9901106731862923,-0.453948974609375,0.2593994140625,0.7190704345703125,0.8890556886033683
1784817099.550036,-0.0927734300494194,-0.22265625,0.9663085341453552,0.9959592853873808,-0.514984130859375,0.2593994140625,0.4787445068359375,0.7494618161577942
1784817099.560717,-0.0839843675494194,-0.21240234375,0.9736327528953552,1.00006443149117,0.156402587890625,0.5035400390625,0.6618499755859375,0.8462031260997886
1784817099.568737,-0.0854492112994194,-0.212890625,0.9648436903953552,0.9917395488838344,0.461578369140625,0.3204345703125,0.6618499755859375,0.8682040629327772
1784817099.576756,-0.0869140550494194,-0.21533203125,0.9731444716453552,1.0004659411200874,0.156402587890625,0.3204345703125,0.6618499755859375,0.7517881839543284
1784817099.584777,-0.1035156175494194,-0.212890625,0.9624022841453552,0.9910883198876502,0.5245208740234375,0.5054473876953125,0.3566741943359375,0.8110583763943977
1784817099.592797,-0.09033203125,-0.21044921875,0.9497069716453552,0.9769299266242323,0.3986358642578125,-0.0438690185546875,0.2956390380859375,0.49823436644003494
1784817099.60343,-0.0937499925494194,-0.20751953125,0.9633788466453552,0.9899253603767159,0.2765655517578125,0.3223419189453125,0.1735687255859375,0.45882340789237874
1784817099.614063,-0.0927734300494194,-0.21337890625,0.9638671278953552,0.991552977501869,0.156402587890625,0.2593994140625,-0.1316070556640625,0.3302578426251474
1784817099.624696,-0.0825195237994194,-0.20849609375,0.9477538466453552,0.9739186037591433,-0.087738037109375,0.2593994140625,-0.3147125244140625,0.4171690211351345
1784817099.632689,-0.0986328050494194,-0.20458984375,0.9619140028953552,0.9883642968884153,-0.0896453857421875,0.3223419189453125,-0.5626678466796875,0.6546263923654226
1784817099.640682,-0.1005859375,-0.20654296875,0.9531249403953552,0.9804206652077805,-0.331878662109375,0.0152587890625,-0.5626678466796875,0.6534304727316587
1784817099.648677,-0.1064453050494194,-0.22119140625,0.9580077528953552,0.9889565692048992,-0.514984130859375,0.1373291015625,-0.3147125244140625,0.6189603462226164
1784817099.656671,-0.10986328125,-0.2109375,0.9658202528953552,0.994672473920996,-0.1468658447265625,-0.2880096435546875,-0.3757476806640625,0.49568684736652757
1784817099.667353,-0.1005859375,-0.21533203125,0.9667968153953552,0.9955809845329537,-0.331878662109375,0.0152587890625,-0.0095367431640625,0.3323661030811353
1784817099.678035,-0.1064453050494194,-0.22509765625,0.9677733778953552,0.9992921838878223,0.0362396240234375,0.2002716064453125,0.1735687255859375,0.26748482050215994
1784817099.688717,-0.095703125,-0.201171875,0.9409179091453552,0.9669310850191177,0.2765655517578125,-0.1049041748046875,-0.1316070556640625,0.32374960604009906
1784817099.696714,-0.1040038987994194,-0.2177734375,0.9648436903953552,0.9945679604440183,0.339508056640625,-0.102996826171875,0.4787445068359375,0.5958778142798725
1784817099.704714,-0.1030273362994194,-0.216796875,0.9570311903953552,0.9866733078503086,0.278472900390625,-0.3509521484375,0.1087188720703125,0.4610144898906161
1784817099.712713,-0.0986328125,-0.20556640625,0.9648436903953552,0.9914178362203941,0.156402587890625,0.1373291015625,0.2956390380859375,0.36155703903426706
1784817099.720712,-0.0961913987994194,-0.2177734375,0.9604491591453552,0.98951535742836,0.034332275390625,0.1373291015625,0.3566741943359375,0.38373749904674587
1784817099.731347,-0.1044921800494194,-0.21240234375,0.9501952528953552,0.9792366363381435,0.156402587890625,-0.2288818359375,0.2956390380859375,0.40527904604282683
1784817099.741982,-0.0908203125,-0.21484375,0.9638671278953552,0.9916884623277117,0.2155303955078125,0.1392364501953125,0.4138946533203125,0.4869793881653386
1784817099.752617,-0.0888671875,-0.1962890625,0.9658202528953552,0.9895633046824932,-0.209808349609375,0.1373291015625,0.2307891845703125,0.34079682131205824
1784817099.763301,-0.1040038987994194,-0.21826171875,0.9750975966453552,1.0046244630809722,0.3986358642578125,0.1392364501953125,0.4787445068359375,0.6383522884435755
1784817099.773984,-0.10546875,-0.2265624850988388,0.9633788466453552,0.9952653008341338,0.339508056640625,0.1373291015625,-0.0743865966796875,0.37370893543698386
1784817099.784669,-0.0976562425494194,-0.197265625,0.9565429091453552,0.981542054907364,0.522613525390625,-0.2288818359375,-0.0095367431640625,0.5706161066895286
1784817099.795335,-0.0981445237994194,-0.21484375,0.9545897841453552,0.9833777709815049,0.339508056640625,-0.102996826171875,-0.2574920654296875,0.4383790944885713
1784817099.806001,-0.0908203125,-0.2172851413488388,0.9565429091453552,0.9851068464130385,0.2765655517578125,-0.2880096435546875,0.0514984130859375,0.40260420483394266
1784817099.816667,-0.1025390550494194,-0.21826171875,0.9594725966453552,0.9893129431052201,0.156402587890625,0.0152587890625,-0.1316070556640625,0.20497565036633544
1784817099.824683,-0.10498046875,-0.21533203125,0.9682616591453552,0.9974564767808853,0.3986358642578125,-0.3490447998046875,-0.1926422119140625,0.5637852839108255
1784817099.832699,-0.0981445237994194,-0.20947265625,0.9638671278953552,0.9912370965139907,0.5817413330078125,-0.3490447998046875,-0.0743865966796875,0.6824870816110642
1784817099.840714,-0.109375,-0.20654296875,0.9550780653953552,0.9832583585021781,0.644683837890625,-0.4119873046875,0.1087188720703125,0.772768130298667
1784817099.848729,-0.0922851487994194,-0.20751953125,0.9687499403953552,0.995016256930084,0.7038116455078125,-0.5931854248046875,0.0514984130859375,0.9218849532905405
1784817099.859385,-0.1030273362994194,-0.212890625,0.9584960341453552,0.987244497432231,0.9479522705078125,-0.4711151123046875,0.4138946533203125,1.136605358182829
1784817099.870041,-0.1015624925494194,-0.21240234375,0.9570311903953552,0.9855650130320651,0.888824462890625,-0.7171630859375,0.4787445068359375,1.2383570246458777
1784817099.880697,-0.0908203125,-0.19921875,0.9609374403953552,0.9855644087870346,0.7038116455078125,-0.8373260498046875,0.5970001220703125,1.2461440092484917
1784817099.888684,-0.0869140550494194,-0.2080078125,0.9594725966453552,0.9856008151069829,0.522613525390625,-0.4119873046875,0.7839202880859375,1.0282944394567286
1784817099.896672,-0.0878906175494194,-0.21240234375,0.9526366591453552,0.979977612311289,0.461578369140625,-0.4119873046875,0.8449554443359375,1.047252516347004
1784817099.904661,-0.0898437425494194,-0.21826171875,0.9663085341453552,0.9947171754368854,0.0934600830078125,-0.3490447998046875,0.7839202880859375,0.8631906379585339
1784817099.912651,-0.0844726487994194,-0.2021484375,0.9565429091453552,0.9813123642424673,-0.2727508544921875,-0.1659393310546875,0.7190704345703125,0.7867599253204459
1784817099.923671,-0.08837890625,-0.21142578125,0.9560546278953552,0.9831338380745753,-0.392913818359375,-0.2288818359375,0.5970001220703125,0.7504514036443883
1784817099.934693,-0.0859375,-0.20654296875,0.9619140028953552,0.9875848322106202,-0.026702880859375,-0.102996826171875,0.7839202880859375,0.7911083415818649
1784817099.945714,-0.0927734300494194,-0.21240234375,0.9648436903953552,0.9922928055011564,0.156402587890625,-0.3509521484375,0.5397796630859375,0.6625641589106295
1784817099.953456,-0.0893554612994194,-0.2138671875,0.9653319716453552,0.9927685469604187,0.2155303955078125,0.0171661376953125,0.5970001220703125,0.634946591000453
1784817099.961199,-0.095703125,-0.2158203125,0.9633788466453552,0.99188522399827,0.2155303955078125,-0.1049041748046875,0.7190704345703125,0.757971323436675
1784817099.968941,-0.09521484375,-0.208984375,0.9614257216453552,0.9884734461308354,0.7648468017578125,-0.1049041748046875,0.7190704345703125,1.0550155477165941
1784817099.976685,-0.09033203125,-0.2138671875,0.9584960341453552,0.9862117912655908,0.8296966552734375,-0.4711151123046875,0.5970001220703125,1.125502169951598
1784817099.987352,-0.0937499925494194,-0.2197265625,0.9633788466453552,0.9925561069958803,1.132965087890625,-0.2288818359375,1.0852813720703125,1.5855069983333256
1784817099.998019,-0.0986328050494194,-0.20947265625,0.9736327528953552,1.000783673657267,0.949859619140625,-0.1678466796875,0.7839202880859375,1.2429548752987096
1784817100.008686,-0.1020507737994194,-0.2080078125,0.9667968153953552,0.9941718627846475,1.621246337890625,-0.286102294921875,0.8449554443359375,1.850471268135841
1784817100.019354,-0.0947265625,-0.21533203125,0.9541015028953552,0.9826752684139827,0.766754150390625,-0.3509521484375,1.0852813720703125,1.3743780390405569
1784817100.030022,-0.09130859375,-0.20458984375,0.9614257216453552,0.9871847252158757,0.7648468017578125,-0.2880096435546875,0.5397796630859375,0.9794397733504704
1784817100.04069,-0.07861328125,-0.2109375,0.9599608778953552,0.986001807292848,0.949859619140625,-0.4119873046875,0.9670257568359375,1.4167235614903007
1784817100.048682,-0.0874023362994194,-0.21484375,0.9692382216453552,0.9966041017389553,1.132965087890625,-0.4730224609375,1.0280609130859375,1.6013336254339605
1784817100.056676,-0.0908203125,-0.21142578125,0.9711913466453552,0.9980790659755313,1.377105712890625,0.2593994140625,0.6618499755859375,1.5497592040943236
1784817100.064669,-0.0820312425494194,-0.20458984375,0.9667968153953552,0.9916058749213075,1.1920928955078125,0.3223419189453125,0.2307891845703125,1.2562855694244746
1784817100.072661,-0.09130859375,-0.20654296875,0.9580077528953552,0.984264248990216,1.499176025390625,0.8087158203125,0.3566741943359375,1.7403351729005945
1784817100.080725,-0.083984375,-0.2060546875,0.9570311903953552,0.9825581961769053,1.316070556640625,0.8087158203125,-0.1926422119140625,1.5566547497410037
1784817100.088789,-0.0952148362994194,-0.20751953125,0.9511718153953552,0.9781912099912985,1.377105712890625,0.2593994140625,-0.3757476806640625,1.4508254615963931
1784817100.096853,-0.0869140550494194,-0.208984375,0.9697265028953552,0.9957901447478427,1.1920928955078125,0.5054473876953125,-0.0743865966796875,1.2969563982701202
1784817100.104918,-0.0966796800494194,-0.20458984375,0.9545897841453552,0.9810431288657921,1.255035400390625,0.6256103515625,-0.1316070556640625,1.4084823695440334
1784817100.115767,-0.1000976487994194,-0.203125,0.9448241591453552,0.9715822130035623,1.0128021240234375,0.3833770751953125,-0.6198883056640625,1.247801120255452
1784817100.126616,-0.09375,-0.2099609375,0.9589843153953552,0.9861660990675846,0.7038116455078125,0.5054473876953125,-0.5626678466796875,1.0331616522924119
1784817100.137465,-0.0976562425494194,-0.2001953125,0.9501952528953552,0.9759538531512193,0.583648681640625,0.0762939453125,-0.6198883056640625,0.8548263339247619
1784817100.147861,-0.1005859375,-0.2119140475988388,0.9614257216453552,0.9896284720205704,0.339508056640625,0.3204345703125,-0.6198883056640625,0.7760190370566385
1784817100.158256,-0.0937499925494194,-0.19873046875,0.9526366591453552,0.977649970418981,0.156402587890625,0.3204345703125,-0.4978179931640625,0.6123420920271084
1784817100.16865,-0.0869140550494194,-0.2177734375,0.9511718153953552,0.9796464390014367,0.0362396240234375,0.3223419189453125,-0.2574920654296875,0.41414947400419694
1784817100.179339,-0.1142578125,-0.21533203125,0.9570311903953552,0.98758869515051,0.156402587890625,0.2593994140625,-0.1316070556640625,0.3302578426251474
1784817100.190031,-0.1010742112994194,-0.2138671875,0.9633788466453552,0.991994945673966,-0.0286102294921875,0.2002716064453125,-0.0743865966796875,0.21554727403836094
1784817100.200722,-0.1035156175494194,-0.216796875,0.9536132216453552,0.983409652476137,0.278472900390625,0.2593994140625,0.1735687255859375,0.4182837730171489
1784817100.208746,-0.0991210862994194,-0.21435546875,0.9624022841453552,0.990954798797809,0.0934600830078125,-0.1659393310546875,-0.0743865966796875,0.20446030047980188
1784817100.216771,-0.10009765625,-0.20458984375,0.9804686903953552,1.006576076507869,0.278472900390625,-0.3509521484375,0.2956390380859375,0.5367653189106413
1784817100.224795,-0.1113281175494194,-0.20849609375,0.9746093153953552,1.0028598548757992,0.5245208740234375,-0.4711151123046875,0.1735687255859375,0.726083809783482
1784817100.232819,-0.1015624925494194,-0.2119140625,0.9721679091453552,1.000166462820143,0.4596710205078125,-0.7762908935546875,0.3566741943359375,0.9701244659402313
1784817100.243437,-0.083984375,-0.201171875,0.9550780653953552,0.9796415719713464,0.766754150390625,-0.7171630859375,0.2956390380859375,1.0907049370994089
1784817100.254055,-0.1069335862994194,-0.201171875,0.9584960341453552,0.985200265246739,0.8869171142578125,-0.3490447998046875,0.0514984130859375,0.9545188978666006
1784817100.264673,-0.0927734300494194,-0.212890625,0.9614257216453552,0.9890746917080212,0.7038116455078125,-0.6542205810546875,0.2956390380859375,1.005364531833268
1784817100.272681,-0.1000976487994194,-0.20751953125,0.9619140028953552,0.9891220572363943,0.339508056640625,-0.3509521484375,-0.0743865966796875,0.4939296476041678
1784817100.280692,-0.1040038987994194,-0.19775390625,0.9580077528953552,0.9837185944213017,0.0362396240234375,-0.1049041748046875,0.2307891845703125,0.25608952332229895
1784817100.288702,-0.099609375,-0.2197265625,0.9497069716453552,0.9798699514975182,-0.148773193359375,-0.0457763671875,0.1087188720703125,0.1898650362743804
1784817100.296714,-0.1015624850988388,-0.2158203125,0.9458007216453552,0.9754139381472484,-0.3948211669921875,-0.5931854248046875,0.2307891845703125,0.7490102468060235
1784817100.307391,-0.10986328125,-0.22509765625,0.9633788466453552,0.9954083069675451,-0.820159912109375,-0.7171630859375,0.2956390380859375,1.1288877774619734
1784817100.318069,-0.0961913913488388,-0.2109375,0.9755858778953552,1.0027538171578936,-0.148773193359375,-0.3509521484375,0.5970001220703125,0.708314915349953
1784817100.328748,-0.1010742112994194,-0.208984375,0.9604491591453552,0.9881057901292554,-0.148773193359375,-0.3509521484375,0.4787445068359375,0.611961744213499
1784817100.339409,-0.08984375,-0.20654296875,0.9541015028953552,0.9803272796272179,0.2155303955078125,-0.1049041748046875,0.5970001220703125,0.6433252544640032
1784817100.350069,-0.0971679612994194,-0.20849609375,0.9765624403953552,1.003287812047483,0.278472900390625,0.2593994140625,0.3566741943359375,0.5215857486292407
