timestamp,accel_x,accel_y,accel_z,accel_rms,gyro_x,gyro_y,gyro_z,gyro_rms
1781793050.623304,-0.0571289025247097,-0.0732421875,0.9833983778953552,0.9877755307663167,0.4901885986328125,-0.5016326904296875,-0.9708404541015625,1.1976858543280267
1781793050.633706,-0.0634765550494194,-0.060546875,0.9912108778953552,0.9950850222826633,0.1850128173828125,-0.7457733154296875,-0.5435943603515625,0.941223888991848
1781793050.644108,-0.0678710862994194,-0.0732421875,0.9873046278953552,0.992341337770847,0.0019073486328125,-0.5626678466796875,-0.6084442138671875,0.828735847574137
1781793050.654917,-0.0590820275247097,-0.0732421875,0.9838866591453552,0.9883764778921158,0.0629425048828125,-0.8678436279296875,-0.6656646728515625,1.095547250529005
1781793050.665727,-0.0566406212747097,-0.0585937462747097,0.9936522841453552,0.9969885901394118,-0.057220458984375,-0.9307861328125,-0.4253387451171875,1.0249634403530183
1781793050.676537,-0.0512695275247097,-0.0732421875,0.9907225966453552,0.994748332989861,0.3070831298828125,-0.8678436279296875,-0.4253387451171875,1.0140836549785477
1781793050.687128,-0.0576171875,-0.07177734375,0.9833983778953552,0.9876963587147781,0.370025634765625,-0.988006591796875,-0.4825592041015625,1.1601462758121985
1781793050.69772,-0.052734375,-0.0712890625,0.9868163466453552,0.9907923832697016,0.186920166015625,-0.6256103515625,-0.3604888916015625,0.7458416061159278
1781793050.708312,-0.0444335862994194,-0.0595703125,0.9804686903953552,0.9832811492998117,0.6732940673828125,-0.5016326904296875,-0.4825592041015625,0.9684129505245949
1781793050.716264,-0.0512695275247097,-0.07666015625,0.9951171278953552,0.9993815298671385,0.6122589111328125,-0.6847381591796875,-0.7266998291015625,1.1712471825001605
1781793050.724215,-0.0439453050494194,-0.06005859375,0.9804686903953552,0.9832889083909657,0.370025634765625,-0.7476806640625,-1.1539459228515625,1.4239159169917264
1781793050.732166,-0.0595703087747097,-0.0673828125,0.9838866591453552,0.9879888780508275,0.4901885986328125,-0.8678436279296875,-0.9136199951171875,1.3520868759978746
1781793050.740117,-0.0507812462747097,-0.0581054650247097,0.9916991591453552,0.9946970404543058,0.4901885986328125,-0.3795623779296875,-1.1539459228515625,1.3099403245319932
1781793050.750807,-0.0498046800494194,-0.06103515625,0.9907225966453552,0.9938496163690974,0.308990478515625,-0.3204345703125,-1.2798309326171875,1.355035293174481
1781793050.761497,-0.0483398362994194,-0.08056640625,0.9833983778953552,0.9878765384584809,-0.3032684326171875,-0.3795623779296875,-0.6656646728515625,0.8241048462691517
1781793050.772187,-0.0610351525247097,-0.072265625,0.9995116591453552,1.003977672644096,0.3070831298828125,-0.4405975341796875,-0.9136199951171875,1.059777208313981
1781793050.780169,-0.0625,-0.0625,0.9921874403953552,0.9961166683066229,0.247955322265625,-0.499725341796875,-0.4253387451171875,0.7015128702823045
1781793050.78815,-0.0522460900247097,-0.068359375,0.9804686903953552,0.984236511677373,0.3070831298828125,-0.1354217529296875,-0.1773834228515625,0.37961029823716563
1781793050.796131,-0.0561523400247097,-0.0732421875,0.9750975966453552,0.9794553722878769,0.247955322265625,0.0457763671875,0.0057220458984375,0.2522103476108754
1781793050.804112,-0.0585937425494194,-0.060546875,1.00048828125,1.0040298559588716,0.064849853515625,0.1678466796875,0.2498626708984375,0.3079112951673211
1781793050.814907,-0.0502929612994194,-0.0751953125,0.9907225966453552,0.9948441990995136,0.0019073486328125,0.2307891845703125,0.6771087646484375,0.7153625408540554
1781793050.825702,-0.0620117150247097,-0.07958984375,0.9907225966453552,0.9958470060868639,-0.1201629638671875,0.4138946533203125,0.3108978271484375,0.5314182729809998
1781793050.836497,-0.0517578087747097,-0.0581054650247097,0.9897460341453552,0.9928002457399755,-0.3643035888671875,0.4749298095703125,0.6160736083984375,0.8589657268163133
1781793050.844483,-0.06591796875,-0.07666015625,0.9926757216453552,0.9978111276712277,-0.972747802734375,0.5340576171875,0.7991790771484375,1.367531726707784
1781793050.852467,-0.0527343712747097,-0.07373046875,0.9682616591453552,0.9724956228727971,-0.6694793701171875,0.2918243408203125,0.8563995361328125,1.1255150991418164
1781793050.860451,-0.0576171837747097,-0.07421875,0.9990233778953552,1.0034320466773705,-0.8525848388671875,0.2918243408203125,0.8563995361328125,1.2431743718601564
1781793050.868435,-0.0478515625,-0.07177734375,0.9897460341453552,0.9934983498808418,-0.667572021484375,0.3509521484375,0.6771087646484375,1.0135561619986162
1781793050.87902,-0.0502929650247097,-0.0532226525247097,1.00146484375,1.0041383701163673,-0.7915496826171875,0.2918243408203125,0.3681182861328125,0.9204474012847987
1781793050.889605,-0.0541992112994194,-0.080078125,0.9912108778953552,0.9959161937969858,-0.606536865234375,0.3509521484375,0.1277923583984375,0.7123098105784267
1781793050.90019,-0.0556640587747097,-0.07275390625,0.9921874403953552,0.9964073138993886,-0.545501708984375,0.5340576171875,0.1277923583984375,0.7740287719754988
1781793050.910882,-0.0541992150247097,-0.0590820275247097,0.9765624403953552,0.9798481723597064,-0.484466552734375,0.5340576171875,-0.0553131103515625,0.723176962693837
1781793050.921575,-0.0507812425494194,-0.07568359375,0.9799804091453552,0.9842095017151967,-0.423431396484375,0.293731689453125,-0.3032684326171875,0.5979499938454558
1781793050.932268,-0.0585937425494194,-0.07421875,0.9951171278953552,0.9995997937916008,-0.3643035888671875,0.3528594970703125,-0.1773834228515625,0.5373004822599389
1781793050.942986,-0.0488281175494194,-0.0654296875,0.9829100966453552,0.9862948277047533,0.186920166015625,-0.1373291015625,-0.5435943603515625,0.5910103714870802
1781793050.953706,-0.0517578125,-0.0703125,0.9956054091453552,0.9994262601765702,-0.0553131103515625,0.1087188720703125,-0.6656646728515625,0.6767486904335928
1781793050.964426,-0.06640625,-0.0595703087747097,0.9897460341453552,0.9937583327112459,0.431060791015625,-0.011444091796875,-0.2384185791015625,0.49273501159231586
1781793050.972375,-0.0576171875,-0.07666015625,0.9965819716453552,1.0011853704785285,0.5512237548828125,-0.3795623779296875,-0.2384185791015625,0.7104636834825225
1781793050.980326,-0.06396484375,-0.078125,0.9926757216453552,0.9977976273799656,0.4901885986328125,-0.3795623779296875,-0.1201629638671875,0.6314994844452262
1781793050.988277,-0.0541992112994194,-0.07958984375,0.9877929091453552,0.9924751528836742,0.6122589111328125,-0.4405975341796875,-0.1773834228515625,0.7748884049263444
1781793051.004221,-0.0615234337747097,-0.07275390625,0.9868163466453552,0.9914054497452345,0.7953643798828125,-0.6237030029296875,0.2498626708984375,1.041173034110268
1781793051.012216,-0.0507812462747097,-0.06494140625,0.9809569716453552,0.9844149030965381,0.370025634765625,-0.4425048828125,0.0057220458984375,0.5768555135437919
1781793051.020211,-0.0517578125,-0.05078125,0.9721679091453552,0.9748682219040681,0.308990478515625,-0.3204345703125,0.1888275146484375,0.48353827144599143
1781793051.028206,-0.0463867150247097,-0.0654296875,0.9770507216453552,0.9803371277294565,0.1850128173828125,-0.3795623779296875,0.1888275146484375,0.4625507232983975
1781793051.038912,-0.0546874925494194,-0.0703125,0.9853515028953552,0.9893695738983123,0.370025634765625,-0.7476806640625,0.4329681396484375,0.9398972048832115
1781793051.049618,-0.0512695275247097,-0.0634765625,0.9960936903953552,0.9994300768362243,0.3070831298828125,-0.2574920654296875,0.3108978271484375,0.5072077201142452
1781793051.060324,-0.0502929612994194,-0.0654296875,0.9848632216453552,0.9883147228045733,0.3681182861328125,-0.3795623779296875,-0.1773834228515625,0.5577127845293977
1781793051.070947,-0.0512695275247097,-0.064453125,0.9873046278953552,0.9907336665514392,0.431060791015625,-0.2593994140625,-0.2384185791015625,0.556726935245451
1781793051.081569,-0.0615234337747097,-0.0751953125,0.9907225966453552,0.9954751284834388,0.3070831298828125,-0.1354217529296875,0.0057220458984375,0.3356662652612524
1781793051.092191,-0.0610351525247097,-0.06298828125,0.9912108778953552,0.9950838245477737,0.186920166015625,-0.3204345703125,-0.7266998291015625,0.8159105980013407
1781793051.100191,-0.0400390550494194,-0.076171875,0.9882811903953552,0.9920206609539574,0.247955322265625,-0.0762939453125,-0.9708404541015625,1.004904868756901
1781793051.10819,-0.0561523400247097,-0.078125,0.9790038466453552,0.9837200479108132,-0.423431396484375,-0.2593994140625,-0.9708404541015625,1.0904647591118222
1781793051.116189,-0.052734375,-0.06103515625,0.9858397841453552,0.9891341085054458,0.1239776611328125,0.1697540283203125,-1.0967254638671875,1.1166886914828293
1781793051.124188,-0.0576171837747097,-0.06396484375,0.9877929091453552,0.991537226966257,-0.1811981201171875,0.0476837158203125,-0.9708404541015625,0.9887556234017398
1781793051.134923,-0.0537109300494194,-0.06982421875,0.9892577528953552,0.9931722847494231,0.0019073486328125,-0.0743865966796875,-1.1539459228515625,1.1563425948265236
1781793051.145658,-0.0512695275247097,-0.07177734375,0.9833983778953552,0.9873464038399231,-0.3643035888671875,-0.0743865966796875,-0.8487701416015625,0.926639748716531
1781793051.156393,-0.06201171875,-0.07568359375,0.9853515028953552,0.9901974772152166,-0.3032684326171875,0.2307891845703125,-0.9708404541015625,1.0429604869106228
1781793051.167034,-0.0483398400247097,-0.08251953125,0.9882811903953552,0.9928977411901966,-0.423431396484375,-0.194549560546875,-0.9708404541015625,1.0768820113447055
1781793051.177677,-0.0439453050494194,-0.0751953125,0.9926757216453552,0.9964891435444673,-0.2384185791015625,0.1087188720703125,-0.3604888916015625,0.4456629365037798
1781793051.18832,-0.0380859375,-0.064453125,1.00341796875,1.0062069190618277,-0.3643035888671875,0.2918243408203125,-0.7915496826171875,0.918928425291161
1781793051.196269,-0.0415039025247097,-0.07666015625,0.9843749403953552,0.9882273912209751,-0.5435943603515625,0.2918243408203125,-1.0967254638671875,1.2583572694572602
1781793051.204217,-0.0639648362994194,-0.06201171875,0.9887694716453552,0.99277490983756,-0.6694793701171875,0.4138946533203125,-0.8487701416015625,1.157550069903667
1781793051.212165,-0.0512695275247097,-0.0703125,0.9887694716453552,0.9925912956331482,-0.789642333984375,0.5340576171875,-0.9136199951171875,1.3203992008382204
1781793051.220114,-0.0483398362994194,-0.06640625,0.9897460341453552,0.993148398739572,-0.728607177734375,0.5340576171875,-1.2149810791015625,1.5140227807060365
1781793051.2308,-0.0527343712747097,-0.06787109375,0.9956054091453552,0.9993085259318317,-0.545501708984375,0.7171630859375,-1.2149810791015625,1.512638102426046
1781793051.241487,-0.05712890625,-0.07568359375,0.9838866591453552,0.9884455859259248,-0.6694793701171875,0.9632110595703125,-0.9708404541015625,1.5226652158669673
1781793051.252174,-0.06640625,-0.07080078125,0.9868163466453552,0.991579065264671,-0.6694793701171875,0.9632110595703125,-1.3980865478515625,1.824999771938224
1781793051.26284,-0.0439453087747097,-0.072265625,0.9804686903953552,0.9841099346950666,-0.7915496826171875,1.2683868408203125,-0.9708404541015625,1.782662970204304
1781793051.273508,-0.0341796800494194,-0.0546875,0.9853515028953552,0.9874596485136321,-0.5435943603515625,1.4514923095703125,-1.3370513916015625,2.0469565645444114
1781793051.284176,-0.0395507775247097,-0.072265625,0.9799804091453552,0.9834369257192591,-1.0967254638671875,2.0618438720703125,-1.7032623291015625,2.8905206205154594
1781793051.292191,-0.0478515625,-0.08056640625,0.9912108778953552,0.9956303140763706,-1.094818115234375,2.8533935546875,-1.9474029541015625,3.6239287726197116
1781793051.300204,-0.0424804650247097,-0.0673828125,0.9863280653953552,0.9895393301509899,-1.4629364013671875,2.7332305908203125,-2.0084381103515625,3.693853816835973
1781793051.308217,-0.0439453050494194,-0.07080078125,0.9873046278953552,0.9908150022708996,-1.4629364013671875,3.0384063720703125,-2.0732879638671875,3.958613289701231
1781793051.31623,-0.0566406212747097,-0.07861328125,0.9775390028953552,0.9823292269646272,-1.3408660888671875,3.0994415283203125,-2.3136138916015625,4.093564326496198
1781793051.326898,-0.0571289025247097,-0.0576171912252903,1.001953125,1.0052330659730782,-1.4629364013671875,2.9163360595703125,-2.5615692138671875,4.1481123133574185
1781793051.337566,-0.052734375,-0.07666015625,0.9936522841453552,0.9979992763775918,-1.3408660888671875,3.0994415283203125,-2.4356842041015625,4.163774393247118
1781793051.348234,-0.0556640587747097,-0.0634765625,0.9980468153953552,1.0016113054208708,-0.972747802734375,2.9754638671875,-2.3136138916015625,3.892612586949114
1781793051.358887,-0.0581054612994194,-0.05908203125,0.9877929091453552,0.9912627110949389,-0.911712646484375,2.735137939453125,-1.8863677978515625,3.4453712378155683
1781793051.369542,-0.0673828050494194,-0.068359375,0.9916991591453552,0.9963336132121224,-0.545501708984375,2.4871826171875,-1.8253326416015625,3.1329680397732553
1781793051.380197,-0.0751953125,-0.07958984375,0.9995116591453552,1.0054911411930105,-0.1811981201171875,2.3670196533203125,-1.3370513916015625,2.7245772555980663
1781793051.388507,-0.0751953125,-0.0625,1.00048828125,1.0052548860565422,-0.301361083984375,1.8157958984375,-0.7915496826171875,2.003617764887818
1781793051.396816,-0.0874023362994194,-0.0703125,0.9956054091453552,1.0019047593291175,-0.1201629638671875,1.5735626220703125,-0.3604888916015625,1.6187929776318735
1781793051.405125,-0.0786132737994194,-0.0751953125,0.9921874403953552,0.9981334072746597,0.3070831298828125,1.2683868408203125,0.0057220458984375,1.3050432822071538
1781793051.413434,-0.0634765550494194,-0.06591796875,0.9916991591453552,0.9959124830499276,0.0019073486328125,0.7190704345703125,0.0057220458984375,0.7190957305263389
1781793051.423696,-0.0678710862994194,-0.06494140625,0.9926757216453552,0.9971103043020454,0.1239776611328125,0.5359649658203125,0.3108978271484375,0.6318911013555666
1781793051.433958,-0.0610351525247097,-0.07568359375,0.9916991591453552,0.9964539720710808,0.1239776611328125,0.2307891845703125,0.6160736083984375,0.6694630677936338
1781793051.44422,-0.0791015550494194,-0.06689453125,0.9809569716453552,0.9864119395779938,-0.179290771484375,-0.3204345703125,0.5512237548828125,0.6623225215391108
1781793051.454928,-0.06982421875,-0.08349609375,0.9956054091453552,1.001537393168646,-0.118255615234375,-0.7476806640625,0.7381439208984375,1.0572923975451258
1781793051.465639,-0.0678710862994194,-0.07080078125,0.9946288466453552,0.9994527390327884,0.1850128173828125,-1.1730194091796875,0.9822845458984375,1.541131793851223
1781793051.47635,-0.0654296875,-0.0703125,0.9848632216453552,0.9895354753682486,0.1850128173828125,-1.7223358154296875,1.0395050048828125,2.02020817216548
1781793051.484649,-0.0610351525247097,-0.068359375,0.9951171278953552,0.9993279703004444,0.1239776611328125,-1.2950897216796875,0.8563995361328125,1.5575776106341634
1781793051.49295,-0.0532226487994194,-0.06884765625,0.9965819716453552,1.0003740681989353,-0.3032684326171875,-1.5392303466796875,0.5512237548828125,1.662843778082855
1781793051.501251,-0.0488281175494194,-0.07080078125,0.9799804091453552,0.9837471921168203,-0.1201629638671875,-1.3561248779296875,0.4329681396484375,1.4286270445346418
1781793051.509552,-0.0551757775247097,-0.06298828125,0.9926757216453552,0.9962012740126426,-0.5435943603515625,-1.1730194091796875,0.4940032958984375,1.384019009723785
1781793051.51887,-0.0556640587747097,-0.0620117224752903,0.9853515028953552,0.9888688110269036,-0.606536865234375,-1.1138916015625,0.4329681396484375,1.3401876282336151
1781793051.528185,-0.0634765550494194,-0.056640625,0.9999999403953552,1.0036121333623098,-0.545501708984375,-0.988006591796875,0.3681182861328125,1.1871142373522061
1781793051.5375,-0.0507812462747097,-0.07421875,0.9892577528953552,0.993336830832494,-0.7266998291015625,-1.0509490966796875,0.3108978271484375,1.3150072639927548
1781793051.546815,-0.0620117150247097,-0.07763671875,0.9995116591453552,1.0044383852014385,-0.606536865234375,-0.988006591796875,0.0629425048828125,1.161036499531062
1781793051.55613,-0.04736328125,-0.06591796875,0.9907225966453552,0.9940421130508545,-0.8525848388671875,-0.5626678466796875,0.0057220458984375,1.021532552081728
1781793051.566857,-0.0493164025247097,-0.0673828125,0.9960936903953552,0.9995875104380942,-0.545501708984375,-0.2593994140625,0.1888275146484375,0.6328633350172437
1781793051.577584,-0.0595703050494194,-0.07470703125,1.001953125,1.0064987960544884,-0.484466552734375,-0.1373291015625,0.4329681396484375,0.6640997913001639
1781793051.588311,-0.0615234337747097,-0.0791015625,0.9873046278953552,0.992377256065937,-0.3032684326171875,-0.0743865966796875,0.2498626708984375,0.3999205699838069
1781793051.598921,-0.06494140625,-0.07763671875,0.9746093153953552,0.9798510927683844,-0.1201629638671875,0.4138946533203125,0.4329681396484375,0.6109086117277425
1781793051.60953,-0.046875,-0.09033203125,0.9873046278953552,0.992535928698975,-0.2384185791015625,0.1087188720703125,0.5512237548828125,0.6103366611569028
1781793051.620139,-0.0600585900247097,-0.0693359375,0.9926757216453552,0.9969050079164448,0.1239776611328125,-0.2574920654296875,0.1888275146484375,0.3425324138056351
1781793051.628147,-0.06591796875,-0.078125,0.9941405653953552,0.9993818879656178,0.3070831298828125,-0.0133514404296875,0.6160736083984375,0.6884947353358942
1781793051.636155,-0.0522460900247097,-0.07861328125,0.9916991591453552,0.996181170350738,0.1850128173828125,-0.0743865966796875,0.4329681396484375,0.4766807299567933
1781793051.644163,-0.05224609375,-0.06982421875,0.9868163466453552,0.9906621915883675,0.492095947265625,-0.1373291015625,0.1888275146484375,0.5446774584463011
1781793051.652171,-0.0615234337747097,-0.0693359375,0.9755858778953552,0.9799798009557574,0.6122589111328125,-0.0743865966796875,0.5512237548828125,0.827189197205954
1781793051.660167,-0.0566406212747097,-0.0590820275247097,0.9804686903953552,0.983878904540797,0.370025634765625,0.0457763671875,0.6160736083984375,0.7201118920984848
1781793051.668161,-0.06396484375,-0.068359375,1.001953125,1.006317330708171,0.4329681396484375,-0.0743865966796875,0.7381439208984375,0.8589826678551402
1781793051.676157,-0.0644531175494194,-0.0751953125,0.9794921278953552,0.984486347286128,0.6122589111328125,-0.1964569091796875,1.1653900146484375,1.3310109607618783
1781793051.684151,-0.06201171875,-0.0849609375,0.9946288466453552,1.0001751630300952,0.4901885986328125,0.0476837158203125,0.6771087646484375,0.8372782561059172
1781793051.696221,-0.0581054612994194,-0.076171875,0.9868163466453552,0.9914559501966387,0.247955322265625,0.1678466796875,1.4095306396484375,1.4409826417516978
1781793051.708291,-0.0498046837747097,-0.07373046875,0.9848632216453552,0.9888742356324497,0.064849853515625,0.293731689453125,1.4095306396484375,1.4412704232716769
1781793051.720361,-0.0537109300494194,-0.06640625,0.9980468153953552,1.0016946140249763,0.064849853515625,0.5340576171875,1.3446807861328125,1.4483057199955218
1781793051.732431,-0.07080078125,-0.0673828125,0.9946288466453552,0.9994196999384644,0.3070831298828125,0.4749298095703125,0.9822845458984375,1.1334642922421585
1781793051.743053,-0.0620117150247097,-0.0673828125,0.9892577528953552,0.9934871905989949,0.492095947265625,0.6561279296875,1.1653900146484375,1.4250600575672392
1781793051.753675,-0.0566406212747097,-0.0600585900247097,0.9912108778953552,0.9946427492684105,0.675201416015625,0.8392333984375,1.0395050048828125,1.4969236134214987
1781793051.764297,-0.0458984337747097,-0.06982421875,0.9921874403953552,0.9956997562645609,0.431060791015625,0.8392333984375,0.9822845458984375,1.3619871628304254
1781793051.772277,-0.0502929612994194,-0.08154296875,1.00537109375,1.0099255783754066,0.1850128173828125,0.7190704345703125,0.3681182861328125,0.828735847574137
1781793051.780259,-0.0629882737994194,-0.060546875,0.9814452528953552,0.9853264591694084,0.4329681396484375,0.9021759033203125,0.6771087646484375,1.2082462702802703
1781793051.788241,-0.0712890625,-0.07080078125,0.9951171278953552,1.0001764740726709,0.6122589111328125,0.7801055908203125,0.4329681396484375,1.082075374935256
1781793051.796223,-0.0605468712747097,-0.07275390625,0.9780272841453552,0.9825967754010438,0.003814697265625,0.8392333984375,0.5512237548828125,1.0040791188523397
1781793051.806875,-0.06982421875,-0.07275390625,0.9838866591453552,0.9890407021163943,0.064849853515625,0.293731689453125,0.4940032958984375,0.5783796895193539
1781793051.817527,-0.06787109375,-0.072265625,0.9985350966453552,1.0034446398063077,0.3681182861328125,0.5970001220703125,1.0395050048828125,1.2539899814247892
1781793051.828179,-0.064453125,-0.0488281212747097,0.9941405653953552,0.9974236083600989,0.1850128173828125,0.5970001220703125,0.6771087646484375,0.9214744529891358
1781793051.838833,-0.0683593675494194,-0.07080078125,0.9858397841453552,0.9907400434832174,0.431060791015625,0.1678466796875,0.6771087646484375,0.8200379214383123
1781793051.849489,-0.0605468712747097,-0.06884765625,0.9809569716453552,0.9852322079651582,0.003814697265625,0.1678466796875,0.9822845458984375,0.9965289704309886
1781793051.860145,-0.0581054612994194,-0.0615234375,0.9843749403953552,0.988005769858149,0.064849853515625,-0.011444091796875,0.9822845458984375,0.9844894107347996
1781793051.870871,-0.0561523400247097,-0.0732421875,0.9794921278953552,0.9838304386066771,-0.0553131103515625,-0.6847381591796875,0.6771087646484375,0.964573566907825
1781793051.881595,-0.0634765550494194,-0.07666015625,0.9829100966453552,0.9879363899991729,0.247955322265625,-0.5645751953125,0.7991790771484375,1.0094127948237162
1781793051.892319,-0.0629882737994194,-0.076171875,0.9833983778953552,0.988353199430478,0.1850128173828125,-0.5016326904296875,0.3108978271484375,0.6184840803361654
1781793051.900286,-0.0600585862994194,-0.06689453125,0.9843749403953552,0.9884715147022706,0.064849853515625,-0.5645751953125,0.6160736083984375,0.8381511472450639
1781793051.908255,-0.0629882737994194,-0.0732421875,0.9877929091453552,0.9925053007535324,0.2498626708984375,-0.8678436279296875,0.2498626708984375,0.9370246907927046
1781793051.916224,-0.0683593675494194,-0.0595703125,0.9824218153953552,0.9865973082407075,0.1850128173828125,-0.3795623779296875,0.0057220458984375,0.42229146705187953
1781793051.924193,-0.06640625,-0.0712890625,0.9912108778953552,0.9959874120335418,-0.118255615234375,-0.6256103515625,-0.1201629638671875,0.6479288852968066
1781793051.93484,-0.0502929650247097,-0.06396484375,1.00244140625,1.005738363855837,-0.1201629638671875,-0.5626678466796875,-0.0553131103515625,0.5780084633889606
1781793051.945487,-0.0541992112994194,-0.0712890625,0.9843749403953552,0.988440037744307,-0.057220458984375,-0.3204345703125,-0.1201629638671875,0.34697497411641387
1781793051.956134,-0.0517578125,-0.0703125,0.9868163466453552,0.9906710961855711,-0.3032684326171875,-0.5016326904296875,-0.0553131103515625,0.5887840338414218
1781793051.96683,-0.0498046800494194,-0.0751953125,0.9853515028953552,0.989470780485676,-0.1811981201171875,-0.5016326904296875,-0.3032684326171875,0.6135469477259381
1781793051.977525,-0.0581054612994194,-0.07568359375,0.9882811903953552,0.9928766097985156,-0.3032684326171875,-0.2574920654296875,-0.4253387451171875,0.5823975910657563
1781793051.98822,-0.0571289025247097,-0.06396484375,0.9829100966453552,0.9866445514099904,-0.606536865234375,-0.1373291015625,-0.3604888916015625,0.7188174260495004
1781793051.99622,-0.0590820237994194,-0.06103515625,0.9843749403953552,0.9880333997963107,-0.0553131103515625,-0.0743865966796875,-0.1201629638671875,0.15176311748148044
1781793052.004218,-0.0561523400247097,-0.0625,0.9863280653953552,0.989900190866127,-0.545501708984375,-0.011444091796875,-0.4825592041015625,0.7283999363022092
1781793052.012216,-0.0624999962747097,-0.0590820275247097,0.9765624403953552,0.9803423562723896,-0.1811981201171875,0.0476837158203125,-0.6084442138671875,0.6366402884493683
1781793052.020214,-0.0742187425494194,-0.06689453125,0.9946288466453552,0.9996348546523595,-0.3643035888671875,-0.0133514404296875,-0.1201629638671875,0.3838417691033732
1781793052.030869,-0.0678710862994194,-0.07177734375,0.9863280653953552,0.9912625908495756,-0.3032684326171875,-0.0743865966796875,0.0057220458984375,0.3123105022200437
1781793052.041524,-0.0546874925494194,-0.07470703125,0.9863280653953552,0.990663875866116,-0.484466552734375,0.3509521484375,0.2498626708984375,0.6483105779792019
1781793052.052179,-0.0517578087747097,-0.06884765625,0.9921874403953552,0.9959190667009866,-0.3032684326171875,0.4749298095703125,0.3108978271484375,0.6435740246204772
1781793052.062835,-0.0595703050494194,-0.080078125,0.9770507216453552,0.9821350416388298,-0.423431396484375,0.6561279296875,0.2498626708984375,0.8198959458084994
1781793052.073494,-0.0561523400247097,-0.06689453125,0.9902343153953552,0.9940784491114952,-0.7915496826171875,0.4138946533203125,0.0057220458984375,0.8932482442791454
1781793052.084153,-0.0546874925494194,-0.076171875,0.9863280653953552,0.9907754180281738,-0.4863739013671875,0.7801055908203125,0.0057220458984375,0.919324233646384
1781793052.092149,-0.0678710862994194,-0.06640625,0.9746093153953552,0.9792239744052066,-0.667572021484375,0.6561279296875,0.0629425048828125,0.9381460562757074
1781793052.100147,-0.0585937462747097,-0.06298828125,0.9814452528953552,0.9852083714159974,-0.3032684326171875,0.4138946533203125,0.1277923583984375,0.528782954655558
1781793052.108145,-0.0634765625,-0.0830078125,0.9887694716453552,0.9942759370419695,-0.545501708984375,0.1678466796875,-0.1201629638671875,0.5832527413328967
1781793052.116143,-0.0551757775247097,-0.06494140625,0.9926757216453552,0.9963266738451353,-0.3643035888671875,0.4749298095703125,-0.1773834228515625,0.6242918448790936
1781793052.126824,-0.06201171875,-0.07666015625,0.9809569716453552,0.9859000015408408,-0.545501708984375,0.1678466796875,0.0629425048828125,0.5742006455133213
1781793052.137505,-0.0615234337747097,-0.08154296875,0.9990233778953552,1.0042320938097131,-0.118255615234375,0.0457763671875,-0.2384185791015625,0.27004311727602576
1781793052.148186,-0.05712890625,-0.07568359375,0.9902343153953552,0.9947641517861127,-0.1811981201171875,-0.0133514404296875,-0.4825592041015625,0.5156301049770888
1781793052.156189,-0.0703125,-0.0625,0.9897460341453552,0.9942068747311641,-0.118255615234375,0.1678466796875,-0.1773834228515625,0.27133333211958127
1781793052.164193,-0.0615234337747097,-0.07470703125,0.9936522841453552,0.9983542132975156,0.1239776611328125,-0.3185272216796875,0.0629425048828125,0.34755116217884546
1781793052.172197,-0.06689453125,-0.06884765625,0.9873046278953552,0.9919603350668117,0.1239776611328125,-0.3795623779296875,0.1277923583984375,0.41924807222530686
1781793052.180201,-0.07421875,-0.08740234375,0.9912108778953552,0.9978209243158997,0.1239776611328125,-0.2574920654296875,0.3108978271484375,0.42229146705187953
1781793052.190871,-0.0634765550494194,-0.0751953125,0.9750975966453552,0.9800504737239111,0.0019073486328125,-0.2574920654296875,0.4940032958984375,0.5570862214205021
1781793052.201541,-0.0595703087747097,-0.07763671875,0.9765624403953552,0.9814531480293456,0.186920166015625,-0.1373291015625,0.4329681396484375,0.49118208492360665
1781793052.212211,-0.05712890625,-0.076171875,0.9653319716453552,0.9700163307651298,0.1850128173828125,-0.3795623779296875,0.4329681396484375,0.6047799197114548
1781793052.220209,-0.0727538987994194,-0.06640625,0.9999999403953552,1.004839689015264,-0.1201629638671875,-0.3795623779296875,0.5512237548828125,0.6799664437103443
1781793052.228208,-0.0537109300494194,-0.07958984375,0.9941405653953552,0.9987666749544257,0.0019073486328125,-0.6847381591796875,0.9212493896484375,1.147854704456628
1781793052.236207,-0.0512695275247097,-0.080078125,0.9853515028953552,0.9899286109686182,-0.057220458984375,-0.3204345703125,0.6160736083984375,0.696777716164065
1781793052.244206,-0.0556640587747097,-0.07275390625,0.9809569716453552,0.9852249481887547,0.0019073486328125,-0.0743865966796875,0.6771087646484375,0.6811852045575614
1781793052.254886,-0.0478515587747097,-0.06396484375,0.9868163466453552,0.9900443297749941,-0.118255615234375,-0.1373291015625,0.6160736083984375,0.6421762714671847
1781793052.265566,-0.0439453050494194,-0.07080078125,0.9843749403953552,0.9878957251349233,-0.4863739013671875,-0.1964569091796875,0.5512237548828125,0.7609221491339844
1781793052.276246,-0.0610351525247097,-0.0693359375,0.9824218153953552,0.9867549774069669,-0.8525848388671875,0.3528594970703125,0.0057220458984375,0.9227369473193137
1781793052.284248,-0.06201171875,-0.0703125,0.9843749403953552,0.9888292694883876,-0.7266998291015625,0.1087188720703125,0.3681182861328125,0.8218415342058591
1781793052.29225,-0.0629882737994194,-0.06982421875,0.9877929091453552,0.9922589256429606,-0.911712646484375,0.2288818359375,0.1277923583984375,0.9486504790736672
1781793052.300252,-0.0654296800494194,-0.07080078125,0.9907225966453552,0.9954019575833146,-1.338958740234375,0.1678466796875,0.0629425048828125,1.3509051687120994
1781793052.308254,-0.0644531175494194,-0.06640625,0.9858397841453552,0.9901737597031454,-1.399993896484375,0.5340576171875,0.0057220458984375,1.4984102210271915
1781793052.318966,-0.068359375,-0.06787109375,0.9887694716453552,0.9934508329932825,-1.583099365234375,0.0457763671875,0.0629425048828125,1.585011304350631
1781793052.329678,-0.0561523400247097,-0.06982421875,0.9853515028953552,0.9894170460793738,-1.399993896484375,0.476837158203125,0.2498626708984375,1.4999293116494643
1781793052.34039,-0.0576171875,-0.06591796875,0.9936522841453552,0.9975017697662586,-1.461029052734375,0.1678466796875,0.0629425048828125,1.471985108530975
1781793052.348331,-0.0698242112994194,-0.0654296875,0.9931640028953552,0.9977630987048272,-1.399993896484375,0.3509521484375,0.4940032958984375,1.525512889832439
1781793052.356272,-0.0522460900247097,-0.07763671875,0.9877929091453552,0.9922156748303167,-1.033782958984375,0.2288818359375,0.4329681396484375,1.1439211122534803
1781793052.364213,-0.0678710862994194,-0.07666015625,0.9882811903953552,0.9935708204254984,-1.0318756103515625,0.1087188720703125,0.3108978271484375,1.0831641275948305
1781793052.372154,-0.0566406212747097,-0.08251953125,1.009765625,1.0147138761482202,-1.0318756103515625,0.2918243408203125,0.6160736083984375,1.236719617414833
1781793052.382823,-0.0488281175494194,-0.07080078125,0.9858397841453552,0.9895842640689022,-0.911712646484375,-0.0762939453125,0.7991790771484375,1.2147954203085876
1781793052.393492,-0.0629882737994194,-0.068359375,0.9960936903953552,1.0004214945871859,-0.7915496826171875,-0.2574920654296875,0.6771087646484375,1.0730001598202816
1781793052.404161,-0.07080078125,-0.0634765625,0.9863280653953552,0.9909011440093158,-0.4863739013671875,-0.3795623779296875,0.3681182861328125,0.7184276186618501
1781793052.415178,-0.0561523400247097,-0.07470703125,0.9877929091453552,0.9922041408733805,-0.1811981201171875,-0.1354217529296875,0.4329681396484375,0.4885009926818787
1781793052.426198,-0.0541992112994194,-0.07421875,0.9887694716453552,0.9930312409057817,-0.301361083984375,-0.3204345703125,0.7991790771484375,0.9122412039276796
1781793052.437218,-0.0576171837747097,-0.072265625,0.9853515028953552,0.9896765353795676,-0.1811981201171875,-0.1964569091796875,0.4329681396484375,0.5088118373712109
1781793052.444965,-0.0571289025247097,-0.08203125,0.9931640028953552,0.9981821347466431,-0.240325927734375,-0.3204345703125,0.3108978271484375,0.5070427243520651
1781793052.452713,-0.0600585900247097,-0.078125,0.9819335341453552,0.9868657534538037,-0.118255615234375,0.0457763671875,0.3681182861328125,0.38934681058499065
1781793052.460461,-0.0507812462747097,-0.0791015625,0.9912108778953552,0.9956579717057635,-0.2384185791015625,0.1087188720703125,0.3108978271484375,0.4065964472676424
1781793052.46821,-0.0654296875,-0.06494140625,0.9946288466453552,0.9988918724422302,-0.6694793701171875,0.1087188720703125,0.4329681396484375,0.8046637994264287
1781793052.478865,-0.05712890625,-0.07666015625,0.9887694716453552,0.9933808733529303,-0.6694793701171875,0.0476837158203125,0.0629425048828125,0.6741202583277418
1781793052.489522,-0.0541992150247097,-0.07763671875,0.9907225966453552,0.9952367951956341,-0.545501708984375,0.2288818359375,-0.0553131103515625,0.5941536413283677
1781793052.500177,-0.05126953125,-0.0859375,0.9887694716453552,0.9938203493583132,-0.6694793701171875,0.4749298095703125,0.2498626708984375,0.858016494794535
1781793052.510829,-0.06689453125,-0.06640625,0.9882811903953552,0.9927660246198396,0.0019073486328125,0.4749298095703125,-0.1773834228515625,0.506978146175786
1781793052.52148,-0.0629882737994194,-0.0810546875,0.9755858778953552,0.9809715542006323,0.1239776611328125,0.5359649658203125,-0.1773834228515625,0.5780084633889606
1781793052.532131,-0.0615234337747097,-0.0791015625,0.9868163466453552,0.9918914719362488,-0.3643035888671875,0.4749298095703125,-0.3032684326171875,0.6710045984209733
1781793052.540166,-0.0561523400247097,-0.07861328125,0.9814452528953552,0.9861885812104955,-0.240325927734375,0.3509521484375,0.1277923583984375,0.44413381868454893
1781793052.548203,-0.068359375,-0.0732421875,0.9946288466453552,0.9996619252323484,-0.8525848388671875,0.2307891845703125,-0.1201629638671875,0.8914054594101187
1781793052.55624,-0.06591796875,-0.083984375,0.9931640028953552,0.9988860247772975,-0.6084442138671875,0.1087188720703125,-0.1773834228515625,0.643031129289428
1781793052.564277,-0.0732421800494194,-0.06396484375,0.9848632216453552,0.9896522033138822,-0.423431396484375,0.3509521484375,-0.0553131103515625,0.5527396296615334
1781793052.574947,-0.0634765625,-0.0732421875,0.9868163466453552,0.9915645183360927,-0.728607177734375,-0.0762939453125,0.2498626708984375,0.7740287719754988
1781793052.585617,-0.0605468675494194,-0.0810546875,0.9897460341453552,0.9949035117247442,-0.6694793701171875,-0.1354217529296875,0.1888275146484375,0.7086589507424297
1781793052.596287,-0.0551757775247097,-0.07470703125,0.9819335341453552,0.986315858344999,-0.789642333984375,0.0457763671875,0.2498626708984375,0.8294949341145351
1781793052.606923,-0.056640625,-0.0654296875,0.9946288466453552,0.9983865719178158,-0.6694793701171875,-0.3795623779296875,0.3681182861328125,0.8531009895302574
1781793052.617559,-0.0502929650247097,-0.08203125,0.9907225966453552,0.9953842332543018,-0.911712646484375,-0.2593994140625,0.3681182861328125,1.0168672865034407
1781793052.628195,-0.0537109337747097,-0.07275390625,0.9912108778953552,0.9953275841348244,-0.728607177734375,-0.3204345703125,0.1888275146484375,0.8180480203421517
1781793052.638883,-0.0600585900247097,-0.0947265625,0.9853515028953552,0.9917145456919334,-0.606536865234375,-0.2593994140625,0.1277923583984375,0.6719418961259562
1781793052.649571,-0.0537109300494194,-0.07470703125,0.9897460341453552,0.9940136903641824,-0.911712646484375,-0.011444091796875,0.1888275146484375,0.9311319709283449
1781793052.660259,-0.0556640550494194,-0.076171875,0.9858397841453552,0.9903437390973504,-0.850677490234375,0.1678466796875,-0.3604888916015625,0.9390297871961765
1781793052.668227,-0.0605468712747097,-0.0791015625,0.9916991591453552,0.9966896222298606,-0.728607177734375,0.2288818359375,-0.2384185791015625,0.8000617058258568
1781793052.676195,-0.0600585862994194,-0.080078125,0.9863280653953552,0.991394266918235,-0.789642333984375,-0.1373291015625,-0.5435943603515625,0.9684467596942431
1781793052.684163,-0.0629882737994194,-0.07666015625,0.9843749403953552,0.989362585441184,-0.545501708984375,0.2288818359375,-0.1773834228515625,0.617595246119601
1781793052.692131,-0.0561523400247097,-0.07177734375,0.9848632216453552,0.9890705928879517,-0.606536865234375,0.1678466796875,-0.1201629638671875,0.640701658071686
1781793052.702805,-0.0566406212747097,-0.083984375,0.9946288466453552,0.9997740133658182,-0.728607177734375,0.3509521484375,-0.3032684326171875,0.8637172987506003
1781793052.71348,-0.0590820237994194,-0.0947265625,0.9916991591453552,0.9979634409280262,-0.484466552734375,0.1678466796875,-0.2384185791015625,0.5654412148590295
1781793052.724153,-0.0600585862994194,-0.0810546875,0.9897460341453552,0.9948739157604174,-0.606536865234375,0.2288818359375,0.0629425048828125,0.6513337260048692
1781793052.734818,-0.0649413987994194,-0.06689453125,0.9946288466453552,0.9989888919143456,-0.545501708984375,0.1678466796875,-0.2384185791015625,0.6185370168775673
1781793052.745481,-0.07470703125,-0.087890625,0.9956054091453552,1.0022654504673745,-0.6694793701171875,0.5359649658203125,-0.1201629638671875,0.8659677877869487
1781793052.756144,-0.0629882737994194,-0.0791015625,0.9853515028953552,0.9905262056524841,-0.4863739013671875,0.0476837158203125,0.0057220458984375,0.4887392459122091
1781793052.764488,-0.0678710862994194,-0.078125,1.00146484375,1.0067978115032208,-0.7266998291015625,0.2918243408203125,-0.0553131103515625,0.7850564487272327
1781793052.772829,-0.05712890625,-0.0751953125,0.9863280653953552,0.990838583997332,-0.7915496826171875,0.1087188720703125,0.0629425048828125,0.8014564567813613
1781793052.781171,-0.0678710862994194,-0.08349609375,0.9843749403953552,0.9902384083165685,-0.4863739013671875,-0.0743865966796875,0.1277923583984375,0.5083540346665499
1781793052.789513,-0.0610351525247097,-0.0771484375,0.9892577528953552,0.9941368481833744,-0.545501708984375,0.0457763671875,-0.1773834228515625,0.5754411081946569
1781793052.799727,-0.0683593675494194,-0.07958984375,0.9941405653953552,0.9996614477534395,-0.6694793701171875,-0.0743865966796875,-0.1773834228515625,0.6965636162480989
1781793052.809941,-0.06396484375,-0.06884765625,0.9946288466453552,0.9990585786560013,-0.6694793701171875,-0.0743865966796875,-0.1201629638671875,0.6842332428809927
1781793052.820155,-0.0551757737994194,-0.07568359375,0.9868163466453552,0.9912511661449713,-0.789642333984375,-0.4425048828125,0.0629425048828125,0.9073628523661956
1781793052.828144,-0.052734375,-0.0947265625,0.9882811903953552,0.9942101122192267,-1.0318756103515625,-0.0743865966796875,0.2498626708984375,1.0642988280142458
1781793052.836132,-0.0556640550494194,-0.0810546875,0.9960936903953552,1.0009350575515403,-0.7915496826171875,-0.0743865966796875,0.1277923583984375,0.8052422943946694
1781793052.84412,-0.0571289025247097,-0.08203125,0.9814452528953552,0.9865229961389993,-1.094818115234375,-0.194549560546875,0.1888275146484375,1.1278883221501308
1781793052.852108,-0.0585937462747097,-0.0732421875,0.9653319716453552,0.9698780648169125,-1.155853271484375,-0.3204345703125,0.0057220458984375,1.1994614795239373
1781793052.862798,-0.0624999962747097,-0.064453125,0.9790038466453552,0.9831118891575905,-1.216888427734375,-0.1373291015625,0.3681182861328125,1.2787446188645963
1781793052.873488,-0.0698242112994194,-0.08154296875,0.9980468153953552,1.0038038264307223,-0.8525848388671875,-0.0743865966796875,0.1888275146484375,0.8764074985530877
1781793052.884178,-0.0600585900247097,-0.09228515625,0.9833983778953552,0.9895433057461704,-1.033782958984375,0.1678466796875,0.3108978271484375,1.0924912691157893
1781793052.894874,-0.06689453125,-0.07080078125,0.9921874403953552,0.9969571434194422,-1.277923583984375,-0.011444091796875,0.0629425048828125,1.2795239007777262
1781793052.905569,-0.064453125,-0.08251953125,0.9785155653953552,0.984101818960303,-1.2798309326171875,0.2918243408203125,-0.3032684326171875,1.3472566215094568
1781793052.916264,-0.0576171875,-0.0859375,0.9873046278953552,0.9927111475475865,-1.094818115234375,0.1678466796875,0.1277923583984375,1.1149574432203688
1781793052.926888,-0.0737304612994194,-0.0712890625,0.9965819716453552,1.00184526627823,-0.6084442138671875,0.1087188720703125,-0.0553131103515625,0.6205511217534498
1781793052.93751,-0.0532226525247097,-0.07763671875,0.9799804091453552,0.9844905856069577,-1.4629364013671875,-0.0133514404296875,0.0057220458984375,1.4630085157701538
1781793052.948132,-0.0546874925494194,-0.0703125,0.9863280653953552,0.9903421742428911,-0.728607177734375,-0.011444091796875,0.1888275146484375,0.752765047655251
1781793052.956193,-0.0742187425494194,-0.08154296875,1.00537109375,1.0113993838470794,-0.484466552734375,0.1678466796875,0.4329681396484375,0.6710750766874568
1781793052.964254,-0.0722656175494194,-0.0771484300494194,0.9838866591453552,0.9895489668445405,-0.240325927734375,-0.011444091796875,0.3681182861328125,0.43977106699259166
1781793052.972315,-0.0693359375,-0.078125,0.9951171278953552,1.0005843722968617,-0.423431396484375,0.0457763671875,0.6771087646484375,0.799916184662697
1781793052.980376,-0.0561523400247097,-0.0771484375,0.9877929091453552,0.9923909502090323,-0.0553131103515625,0.2918243408203125,0.4940032958984375,0.5764201960640286
1781793052.99097,-0.0629882737994194,-0.08056640625,0.9848632216453552,0.9901585902278174,0.0019073486328125,0.2307891845703125,0.4940032958984375,0.5452582342816622
1781793053.001565,-0.0751953125,-0.0625,0.9995116591453552,1.0042828992816084,-0.118255615234375,0.0457763671875,0.4940032958984375,0.5100187473866667
1781793053.012158,-0.06640625,-0.0771484375,0.9985350966453552,1.003710122834428,0.0019073486328125,-0.4405975341796875,0.6160736083984375,0.7574143622014963
1781793053.020243,-0.0507812462747097,-0.06787109375,0.9882811903953552,0.9919097396584502,0.064849853515625,-0.194549560546875,1.1653900146484375,1.1832957877269172
1781793053.02833,-0.0683593675494194,-0.07373046875,0.9882811903953552,0.9933825529186184,0.1239776611328125,-0.0743865966796875,1.1653900146484375,1.1743243642485812
1781793053.036417,-0.0488281212747097,-0.0732421875,0.9858397841453552,0.9897619327195624,0.064849853515625,-0.011444091796875,1.1043548583984375,1.1063164664806748
1781793053.044504,-0.05224609375,-0.06591796875,0.9916991591453552,0.9952597928007865,-0.1811981201171875,0.1087188720703125,0.6160736083984375,0.6513057982570976
1781793053.055065,-0.0493163987994194,-0.07177734375,0.9873046278953552,0.9911379936870218,-0.423431396484375,0.1678466796875,0.4940032958984375,0.6719418961259562
1781793053.065626,-0.0610351525247097,-0.07861328125,0.9907225966453552,0.9957090947341605,-0.8525848388671875,0.5970001220703125,0.3681182861328125,1.1040023214665426
1781793053.076187,-0.0566406212747097,-0.08349609375,0.9897460341453552,0.9948753538792448,-0.728607177734375,-0.011444091796875,0.0057220458984375,0.7287195129076552
1781793053.086916,-0.06982421875,-0.07470703125,0.9960936903953552,1.0013287182976798,-0.911712646484375,0.4119873046875,0.3681182861328125,1.0660509188442047
1781793053.097646,-0.0615234337747097,-0.08154296875,0.9912108778953552,0.9964604322872411,-1.1577606201171875,0.2307891845703125,0.0629425048828125,1.1822161647218699
1781793053.108376,-0.0649413987994194,-0.0849609375,0.9760741591453552,0.9819147164240978,-1.277923583984375,0.1678466796875,0.3108978271484375,1.3258652470410437
1781793053.116324,-0.06494140625,-0.08203125,0.9882811903953552,0.993803916027478,-1.216888427734375,0.3509521484375,0.1888275146484375,1.2804845513847647
1781793053.124273,-0.06640625,-0.087890625,0.9887694716453552,0.9948867373021856,-0.8525848388671875,0.2307891845703125,0.1277923583984375,0.8924659332690814
1781793053.132222,-0.0517578125,-0.08642578125,1.00927734375,1.0142923855706074,-0.6694793701171875,-0.0133514404296875,0.2498626708984375,0.7147112999544323
1781793053.140171,-0.0634765550494194,-0.1059570237994194,0.9848632216453552,0.9925783240042273,-0.606536865234375,0.3509521484375,0.4329681396484375,0.8237206986180864
1781793053.150979,-0.0703125,-0.08447265625,0.9790038466453552,0.9851537996965666,-0.3032684326171875,0.1087188720703125,0.5512237548828125,0.6384662585551671
1781793053.161788,-0.06982421875,-0.087890625,0.9921874403953552,0.9985169504646504,-0.484466552734375,0.3509521484375,0.1277923583984375,0.6117239067391929
1781793053.172595,-0.0737304612994194,-0.099609375,0.9902343153953552,0.997959021151582,-0.1811981201171875,-0.1354217529296875,0.6160736083984375,0.6562914755393546
1781793053.183124,-0.0590820237994194,-0.08544921875,0.9785155653953552,0.9840147185089317,0.003814697265625,-0.1373291015625,0.0629425048828125,0.15111450285169417
1781793053.193656,-0.0522460900247097,-0.09619140625,0.9833983778953552,0.9894719855591863,0.0019073486328125,0.1087188720703125,0.2498626708984375,0.2724973127051879
1781793053.204188,-0.0698242112994194,-0.080078125,0.9873046278953552,0.9930047103869585,0.2498626708984375,-0.3795623779296875,0.1277923583984375,0.47204855673243457
1781793053.212394,-0.0556640550494194,-0.076171875,0.9819335341453552,0.9864553244038717,0.1239776611328125,-0.1964569091796875,0.4329681396484375,0.49135240670523567
1781793053.220601,-0.0546874925494194,-0.08642578125,0.9804686903953552,0.9857885119799269,0.3681182861328125,-0.1964569091796875,0.2498626708984375,0.48635146145385033
1781793053.228808,-0.05712890625,-0.08154296875,0.9877929091453552,0.9927979648648202,0.186920166015625,0.1678466796875,0.3108978271484375,0.3997112898969039
1781793053.237015,-0.0605468675494194,-0.08056640625,0.9838866591453552,0.9890347956620613,0.4901885986328125,-0.0743865966796875,0.1888275146484375,0.5305412880101726
1781793053.247543,-0.0620117150247097,-0.08935546875,0.9824218153953552,0.9884242388572547,0.003814697265625,-0.1373291015625,0.1888275146484375,0.23351587599025828
1781793053.258071,-0.06494140625,-0.0830078125,0.9833983778953552,0.9890298543668834,0.064849853515625,-0.1373291015625,0.0057220458984375,0.15197870721329776
1781793053.268599,-0.06640625,-0.08837890625,0.9731444716453552,0.9794032794528137,0.247955322265625,-0.0762939453125,0.0629425048828125,0.26695386652401115
1781793053.276505,-0.0673828050494194,-0.0820312425494194,0.9941405653953552,0.9997924939381803,0.1239776611328125,-0.1964569091796875,0.1277923583984375,0.26513518153846194
1781793053.28441,-0.0629882737994194,-0.0751953125,0.9677733778953552,0.9727318071396602,0.3070831298828125,-0.2574920654296875,0.1888275146484375,0.44301020609707925
1781793053.292315,-0.0556640587747097,-0.08349609375,0.9848632216453552,0.9899624490153408,0.1850128173828125,-0.3795623779296875,-0.0553131103515625,0.4258601666184911
1781793053.30022,-0.0595703087747097,-0.08837890625,0.9926757216453552,0.9983809599053797,-0.1811981201171875,-0.0133514404296875,0.0629425048828125,0.1922830689802747
1781793053.310873,-0.0693359375,-0.09228515625,0.9965819716453552,1.0032445606638665,0.064849853515625,-0.2593994140625,-0.1773834228515625,0.3208713733250484
1781793053.321526,-0.06591796875,-0.087890625,0.9775390028953552,0.9836932665971959,0.003814697265625,-0.3204345703125,0.1888275146484375,0.3719525454340792
1781793053.332179,-0.0654296875,-0.07421875,0.9892577528953552,0.9941933255265184,0.6122589111328125,-0.5016326904296875,0.2498626708984375,0.8300166773491752
1781793053.342868,-0.068359375,-0.068359375,0.9726561903953552,0.9774487572324121,0.247955322265625,-0.7476806640625,0.1888275146484375,0.8100395345543925
1781793053.353557,-0.07080078125,-0.080078125,0.9843749403953552,0.9901612393986573,-0.3032684326171875,-0.6847381591796875,0.0629425048828125,0.7515316678489308
1781793053.364246,-0.0556640587747097,-0.07177734375,0.9868163466453552,0.9909878790992178,-0.1811981201171875,-0.6237030029296875,0.3108978271484375,0.7200664229938321
1781793053.374892,-0.0629882737994194,-0.0810546875,0.9853515028953552,0.9906840915549661,-0.1811981201171875,-0.5016326904296875,-0.0553131103515625,0.5362160525557712
1781793053.385537,-0.0551757775247097,-0.08740234375,0.9916991591453552,0.997071089926919,-0.057220458984375,-0.6256103515625,0.3108978271484375,0.7009421886533561
1781793053.396182,-0.0654296875,-0.07177734375,0.9824218153953552,0.9872110485842724,-0.3032684326171875,-0.3795623779296875,0.3681182861328125,0.6095493528395249
1781793053.40687,-0.0590820275247097,-0.08251953125,0.9887694716453552,0.9939643992980761,0.0629425048828125,0.1087188720703125,-0.3604888916015625,0.3817509568203948
1781793053.417558,-0.0629882737994194,-0.0830078125,0.9921874403953552,0.9976440930765602,-0.1201629638671875,0.1087188720703125,0.1277923583984375,0.20637300670054376
1781793053.428246,-0.06494140625,-0.08251953125,0.9912108778953552,0.9967576755368017,-0.057220458984375,0.2288818359375,-0.1201629638671875,0.26476444933912524
1781793053.438891,-0.0610351525247097,-0.0810546875,0.9877929091453552,0.9929904247107729,-0.301361083984375,0.5340576171875,-0.1201629638671875,0.6248801319465797
1781793053.449536,-0.0537109300494194,-0.0751953125,0.9999999403953552,1.0042604641324182,0.186920166015625,0.3509521484375,0.0057220458984375,0.3976673242365654
1781793053.460181,-0.0678710862994194,-0.0810546875,0.9887694716453552,0.9944050556885865,0.1239776611328125,0.3528594970703125,-0.4253387451171875,0.5663862050143349
1781793053.468185,-0.0639648362994194,-0.07958984375,0.9770507216453552,0.9823716996018719,-0.3032684326171875,0.4749298095703125,-0.1773834228515625,0.5907579410749508
1781793053.476188,-0.0576171875,-0.07568359375,0.9843749403953552,0.9889599435450782,0.1239776611328125,0.5970001220703125,-0.0553131103515625,0.6122410851851537
1781793053.484191,-0.06201171875,-0.08984375,0.9882811903953552,0.9942922427363355,0.1239776611328125,0.4138946533203125,-0.1773834228515625,0.4670590146969014
1781793053.492194,-0.0590820275247097,-0.0771484375,0.9970702528953552,1.001794218686617,0.370025634765625,0.5340576171875,0.1888275146484375,0.6766035317288847
1781793053.502875,-0.0703125,-0.08935546875,0.9916991591453552,0.9981961078372259,0.1239776611328125,0.2307891845703125,0.1277923583984375,0.29148755554847783
1781793053.513556,-0.0585937425494194,-0.08154296875,0.9868163466453552,0.9919117825819981,0.4901885986328125,0.0476837158203125,0.4329681396484375,0.6557591089223708
1781793053.524237,-0.07080078125,-0.08740234375,0.9829100966453552,0.9893251125924102,0.431060791015625,-0.011444091796875,0.0057220458984375,0.4312506401123776
1781793053.5349,-0.0517578087747097,-0.080078125,0.9770507216453552,0.9816921561978502,-0.118255615234375,0.0457763671875,-0.0553131103515625,0.13834524387961264
1781793053.545563,-0.06298828125,-0.08740234375,0.9946288466453552,1.0004465182341793,-0.118255615234375,-0.1373291015625,0.2498626708984375,0.30866653038339753
1781793053.556226,-0.0600585900247097,-0.07861328125,0.9829100966453552,0.9878761766092091,-0.118255615234375,-0.2593994140625,0.3108978271484375,0.42181738403727337
1781793053.564249,-0.05712890625,-0.07177734375,0.9848632216453552,0.9891265158486022,0.0019073486328125,-0.0133514404296875,0.3681182861328125,0.36836526916325024
1781793053.572273,-0.0625,-0.07177734375,0.9809569716453552,0.9855631980220405,0.247955322265625,-0.4425048828125,0.1277923583984375,0.5230901452118831
1781793053.580297,-0.0644531175494194,-0.08447265625,0.9960936903953552,1.0017447150153613,0.247955322265625,-0.1373291015625,0.3108978271484375,0.420711995195565
1781793053.588321,-0.0624999962747097,-0.083984375,0.9809569716453552,0.9865273463001953,0.186920166015625,-0.3204345703125,0.2498626708984375,0.4472681708138488
1781793053.598938,-0.0722656175494194,-0.07373046875,0.9877929091453552,0.9931733649568627,-0.240325927734375,-0.499725341796875,0.1277923583984375,0.5690455655221525
1781793053.609555,-0.076171875,-0.07763671875,0.9956054091453552,1.0015287042111036,0.1239776611328125,-0.0743865966796875,0.7991790771484375,0.8121520938699703
1781793053.620172,-0.0532226487994194,-0.06982421875,0.9848632216453552,0.9887687480998488,-0.118255615234375,-0.4425048828125,0.6160736083984375,0.7676859076552313
1781793053.628153,-0.0517578087747097,-0.0791015625,0.9999999403953552,1.0044579676371803,-0.118255615234375,-0.6256103515625,0.6160736083984375,0.8859567672757439
1781793053.636136,-0.0610351525247097,-0.083984375,0.9902343153953552,0.995661922780199,-0.240325927734375,-0.499725341796875,0.4940032958984375,0.7426447502904137
1781793053.644119,-0.0546874962747097,-0.06396484375,0.9838866591453552,0.9874792056185115,-0.118255615234375,-0.3204345703125,0.7991790771484375,0.8691086823508584
1781793053.652102,-0.0571289025247097,-0.08349609375,0.9819335341453552,0.987131589330609,-0.545501708984375,-0.2593994140625,0.3108978271484375,0.6793508883091726
1781793053.66279,-0.0590820275247097,-0.087890625,0.9760741591453552,0.981802532126819,-0.118255615234375,-0.2593994140625,0.3108978271484375,0.42181738403727337
1781793053.673478,-0.0678710862994194,-0.08349609375,0.9848632216453552,0.9907237997427134,-0.3643035888671875,-0.0743865966796875,0.1277923583984375,0.39316835769442837
1781793053.684166,-0.0595703050494194,-0.08642578125,0.9882811903953552,0.9938399006870342,0.0019073486328125,-0.0743865966796875,0.0057220458984375,0.0746307279453806
1781793053.694859,-0.0629882737994194,-0.064453125,1.0048828125,1.008915851206832,0.1239776611328125,0.1087188720703125,-0.1773834228515625,0.24218821669672472
1781793053.70555,-0.052734375,-0.07568359375,0.9873046278953552,0.9916044316828871,0.4119873046875,-0.091552734375,-0.5626678466796875,0.7033566293725869
1781793053.716241,-0.0512695275247097,-0.07275390625,0.9853515028953552,0.9893630676275399,0.2288818359375,0.396728515625,-0.1964569091796875,0.49837308022863
1781793053.726972,-0.0712890625,-0.0751953125,0.9790038466453552,0.9844719382493865,0.1697540283203125,-0.0896453857421875,-0.3185272216796875,0.37190363841567864
1781793053.737702,-0.07666015625,-0.076171875,0.9877929091453552,0.993686955461897,0.4749298095703125,-0.0324249267578125,-0.3795623779296875,0.6088327345284431
1781793053.748432,-0.0776367112994194,-0.0849609375,0.9956054091453552,1.002235476603058,0.8411407470703125,-0.2155303955078125,-0.1354217529296875,0.8788117881186545
1781793053.756369,-0.0610351525247097,-0.07861328125,0.9990233778953552,1.003968648621087,0.9002685546875,0.030517578125,0.2307891845703125,0.9298808745470386
1781793053.764305,-0.0561523400247097,-0.08642578125,0.9916991591453552,0.9970404822295472,0.7781982421875,0.030517578125,0.4749298095703125,0.9121853708193438
1781793053.772241,-0.0556640587747097,-0.08837890625,0.9931640028953552,0.9986411042793831,0.7801055908203125,0.1506805419921875,0.2918243408203125,0.8464223558362445
1781793053.780177,-0.0673828050494194,-0.07763671875,0.9726561903953552,0.9780736001083968,0.7781982421875,-0.274658203125,0.2918243408203125,0.8753234137064875
1781793053.790921,-0.0600585900247097,-0.07958984375,0.9887694716453552,0.9937840034543425,0.4730224609375,-0.457763671875,0.2918243408203125,0.7200411611394596
1781793053.801665,-0.0581054612994194,-0.07421875,0.9936522841453552,0.9981129842215573,0.6580352783203125,-0.3376007080078125,0.5359649658203125,0.9133690985293055
1781793053.812409,-0.0512695275247097,-0.080078125,0.9912108778953552,0.9957610531719964,0.7781982421875,-0.274658203125,0.5970001220703125,1.0185473864477472
1781793053.820365,-0.0673828050494194,-0.06884765625,0.9868163466453552,0.9915074100549789,0.9613037109375,0.030517578125,0.6580352783203125,1.165352553844078
1781793053.828322,-0.0517578087747097,-0.08447265625,0.9804686903953552,0.9854609851580493,0.5340576171875,0.396728515625,0.4749298095703125,0.8174162817099372
1781793053.836279,-0.0624999962747097,-0.078125,0.9897460341453552,0.994789916146016,0.4749298095703125,0.5779266357421875,0.4749298095703125,0.8860676296633737
1781793053.844236,-0.0581054612994194,-0.0751953125,0.9814452528953552,0.9860351738582244,0.1087188720703125,0.7610321044921875,0.1697540283203125,0.7872776431113881
1781793053.854921,-0.0590820237994194,-0.07421875,0.9941405653953552,0.9986563834234446,0.1068115234375,0.335693359375,0.2918243408203125,0.457449646368562
1781793053.865606,-0.0546874962747097,-0.07421875,0.9931640028953552,0.997433647791914,-0.0133514404296875,0.8220672607421875,0.0476837158203125,0.8235572711719225
1781793053.876291,-0.0561523400247097,-0.0859375,0.9916991591453552,0.9969982755482104,-0.2593994140625,0.335693359375,0.0476837158203125,0.42690962076167077
1781793053.886953,-0.0532226525247097,-0.08251953125,0.9868163466453552,0.9916897830400249,-0.6237030029296875,0.6389617919921875,0.2307891845703125,0.92224793586324
1781793053.897613,-0.0532226487994194,-0.0810546875,0.9877929091453552,0.9925408525943872,-0.8068084716796875,0.8869171142578125,0.4138946533203125,1.2684126542985372
1781793053.908273,-0.0561523400247097,-0.080078125,0.9824218153953552,0.9872781850919586,-0.7457733154296875,0.5779266357421875,0.0476837158203125,0.9446961263081921
1781793053.919078,-0.0693359300494194,-0.0751953125,0.9790038466453552,0.9843324326487433,-0.5016326904296875,0.5779266357421875,0.2918243408203125,0.8190213662067796
1781793053.929881,-0.0629882737994194,-0.08935546875,0.9897460341453552,0.9957656022067751,-0.1354217529296875,0.7610321044921875,-0.0133514404296875,0.7731023064225747
1781793053.940684,-0.0688476487994194,-0.095703125,0.9804686903953552,0.9875312348100979,-0.2574920654296875,0.5779266357421875,-0.0743865966796875,0.6370515880406515
1781793053.948556,-0.0654296875,-0.0849609375,0.9916991591453552,0.9974801387280006,0.2288818359375,0.335693359375,-0.0743865966796875,0.41304998743031096
1781793053.956431,-0.0581054612994194,-0.087890625,0.9887694716453552,0.994367172956521,0.354766845703125,0.518798828125,-0.0743865966796875,0.6328863283715368
1781793053.964306,-0.06787109375,-0.0771484375,0.9833983778953552,0.988752110704563,0.3528594970703125,0.4558563232421875,-0.1354217529296875,0.5921603357868112
1781793053.972181,-0.0546874925494194,-0.07666015625,0.9853515028953552,0.9898409395735016,0.5340576171875,0.152587890625,-0.3185272216796875,0.6402813395628191
1781793053.982852,-0.0551757737994194,-0.08642578125,0.9897460341453552,0.9950432120192048,0.4119873046875,-0.152587890625,-0.1964569091796875,0.4812607617014854
1781793053.993523,-0.0610351525247097,-0.08984375,1.00244140625,1.008308465809077,0.6580352783203125,-0.3376007080078125,-0.4405975341796875,0.8608779545828132
1781793054.004194,-0.0615234375,-0.08056640625,0.9941405653953552,0.9992955233275355,0.4119873046875,-0.091552734375,-0.3185272216796875,0.5287485539896928
1781793054.012195,-0.06640625,-0.08251953125,0.9956054091453552,1.001223947873937,0.6580352783203125,-0.2155303955078125,-0.3185272216796875,0.7621832915072503
1781793054.020198,-0.0576171837747097,-0.09326171875,0.9951171278953552,1.001137146589334,0.8411407470703125,-0.5207061767578125,-0.1354217529296875,0.9984947321154434
1781793054.028201,-0.076171875,-0.08056640625,0.9819335341453552,0.9881733480701871,0.6580352783203125,-0.3376007080078125,-0.0743865966796875,0.7433155664501141
1781793054.036204,-0.06494140625,-0.09423828125,1.001953125,1.0084682962770557,0.843048095703125,-0.274658203125,-0.1354217529296875,0.8969427358416302
1781793054.046999,-0.0532226525247097,-0.08251953125,0.9824218153953552,0.9873169436124304,0.9613037109375,-0.457763671875,0.1697540283203125,1.0781784796969678
1781793054.057794,-0.0468749962747097,-0.07861328125,0.9785155653953552,0.9827868665105559,0.4119873046875,-0.457763671875,-0.2574920654296875,0.6675202485853146
1781793054.068589,-0.0600585900247097,-0.08203125,0.9931640028953552,0.9983540939263202,0.8411407470703125,-0.3376007080078125,-0.1354217529296875,0.9164229621719051
1781793054.079126,-0.06640625,-0.07568359375,0.9985350966453552,1.0035985928818985,0.7171630859375,-0.274658203125,-0.6237030029296875,0.9893257584025403
1781793054.089666,-0.0683593675494194,-0.0712890625,0.9868163466453552,0.991746759798272,0.4749298095703125,-0.1544952392578125,-0.1354217529296875,0.5174612585869317
1781793054.100206,-0.0581054612994194,-0.0703125,0.9804686903953552,0.9847024652831186,0.4138946533203125,-0.2155303955078125,-0.4405975341796875,0.6417852620309356
1781793054.110996,-0.0605468712747097,-0.08154296875,0.9868163466453552,0.9920290728502899,0.5340576171875,-0.518798828125,-0.3185272216796875,0.8098329170210633
1781793054.121787,-0.0654296875,-0.07958984375,0.9858397841453552,0.9912091944883571,0.5950927734375,-0.335693359375,-0.5016326904296875,0.8476206678896729
1781793054.132578,-0.06689453125,-0.08154296875,0.9809569716453552,0.9866107207421512,0.4749298095703125,-0.2727508544921875,-0.3795623779296875,0.6663474704569311
1781793054.140475,-0.0639648362994194,-0.0712890625,0.9877929091453552,0.99242554485099,0.2918243408203125,-0.0324249267578125,-0.2574920654296875,0.39053167032867625
1781793054.148372,-0.0620117150247097,-0.07470703125,0.9809569716453552,0.985750056321642,-0.0133514404296875,-0.2155303955078125,-0.3185272216796875,0.3848261988226404
1781793054.156269,-0.06201171875,-0.06689453125,0.9794921278953552,0.983730227340025,0.1068115234375,-0.335693359375,0.0476837158203125,0.3554890572464149
1781793054.164166,-0.06591796875,-0.08056640625,0.9873046278953552,0.9927771918631854,0.1697540283203125,-0.3986358642578125,-0.0133514404296875,0.4334803840603333
1781793054.172474,-0.0727538987994194,-0.0732421875,0.9941405653953552,0.9994863738865567,0.1087188720703125,-0.3986358642578125,0.1697540283203125,0.44670658775955785
1781793054.180782,-0.0537109337747097,-0.0771484375,0.9921874403953552,0.996630655104452,0.4119873046875,-0.030517578125,0.1087188720703125,0.4271822268570257
1781793054.18909,-0.0576171837747097,-0.07421875,0.9960936903953552,1.0005152686306835,0.1697540283203125,-0.0324249267578125,0.0476837158203125,0.1792806257258583
1781793054.197398,-0.0629882737994194,-0.08349609375,0.9804686903953552,0.9860314260475284,0.2918243408203125,-0.0896453857421875,-0.1354217529296875,0.3339712446403505
1781793054.207673,-0.0595703050494194,-0.08447265625,0.9765624403953552,0.9820175410289489,0.0457763671875,0.213623046875,0.1087188720703125,0.24402884069979155
1781793054.217948,-0.0605468712747097,-0.07958984375,0.9921874403953552,0.9972143118345185,0.1087188720703125,-0.0324249267578125,-0.3185272216796875,0.3381283187940212
1781793054.228223,-0.0600585900247097,-0.07275390625,0.9882811903953552,0.9927738294292665,0.354766845703125,0.335693359375,0.1087188720703125,0.5003692031718766
1781793054.238912,-0.0581054612994194,-0.08984375,0.9897460341453552,0.9955126097410014,0.2288818359375,0.030517578125,-0.3795623779296875,0.4442812354088062
1781793054.249602,-0.0722656175494194,-0.0820312425494194,0.9819335341453552,0.9880004603810608,0.2918243408203125,0.5779266357421875,-0.3795623779296875,0.7504853369221359
1781793054.260292,-0.0620117150247097,-0.07373046875,0.9960936903953552,1.000741862254117,0.2288818359375,0.030517578125,-0.3185272216796875,0.3934181088202689
1781793054.270946,-0.0595703087747097,-0.08349609375,0.9965819716453552,1.001846218522367,0.4749298095703125,0.3986358642578125,-0.5016326904296875,0.7975614286052161
1781793054.281601,-0.06689453125,-0.08935546875,0.9873046278953552,0.9935943369254252,0.5340576171875,0.335693359375,-0.3795623779296875,0.7361896282508347
1781793054.292256,-0.0620117150247097,-0.07861328125,0.9868163466453552,0.9918830590325067,0.3528594970703125,0.4558563232421875,-0.2574920654296875,0.6313612087164099
1781793054.300246,-0.07666015625,-0.08447265625,0.9843749403953552,0.9909623769288944,0.4119873046875,0.396728515625,-0.1964569091796875,0.6047498420819329
1781793054.308236,-0.0610351525247097,-0.078125,0.9868163466453552,0.9917839016011505,0.2918243408203125,0.0896453857421875,0.0476837158203125,0.3089845915810493
1781793054.316226,-0.0693359300494194,-0.0703125,0.9887694716453552,0.9936882745156566,0.1697540283203125,0.2155303955078125,-0.0133514404296875,0.274678070621364
1781793054.324216,-0.0654296875,-0.07421875,0.9892577528953552,0.9941933255265184,0.2288818359375,-0.030517578125,-0.0743865966796875,0.24259345243085734
1781793054.334883,-0.0722656175494194,-0.08251953125,0.9765624403953552,0.9827034102456602,0.1697540283203125,-0.2155303955078125,-0.0133514404296875,0.274678070621364
1781793054.34555,-0.0605468675494194,-0.0810546875,0.9882811903953552,0.993446272742029,0.1068115234375,-0.152587890625,-0.2574920654296875,0.3177954210867001
1781793054.356217,-0.07177734375,-0.091796875,0.9868163466453552,0.9936725594188748,0.1697540283203125,-0.2155303955078125,-0.3185272216796875,0.42039192721757673
1781793054.366967,-0.0546874925494194,-0.08056640625,0.9838866591453552,0.988693393171812,0.4749298095703125,-0.3376007080078125,-0.0743865966796875,0.5874231250397417
1781793054.377718,-0.0712890625,-0.0830078125,0.9814452528953552,0.9875258031054135,-0.0762939453125,-0.274658203125,-0.1964569091796875,0.3461982261647747
1781793054.388469,-0.0693359375,-0.0732421875,0.9897460341453552,0.9948713999131987,0.1697540283203125,-0.1544952392578125,0.0476837158203125,0.23443324388561984
1781793054.399032,-0.07080078125,-0.0605468712747097,0.9799804091453552,0.9843984338444797,0.1697540283203125,-0.1544952392578125,0.0476837158203125,0.23443324388561984
1781793054.409595,-0.0551757775247097,-0.072265625,0.9858397841453552,0.9900236194080713,0.2288818359375,-0.335693359375,-0.3185272216796875,0.5162717475337716
1781793054.420158,-0.0620117150247097,-0.0986328125,0.9858397841453552,0.9927003397328554,0.1697540283203125,-0.3376007080078125,-0.0133514404296875,0.3781123234435731
1781793054.428195,-0.0585937425494194,-0.08056640625,0.9804686903953552,0.9855166286408213,0.1068115234375,-0.335693359375,0.0476837158203125,0.3554890572464149
1781793054.436233,-0.0522460900247097,-0.08203125,0.9868163466453552,0.991597338593604,0.3528594970703125,-0.2155303955078125,0.1697540283203125,0.4469671198102176
1781793054.444271,-0.0620117150247097,-0.09228515625,1.0068359375,1.0129563701887148,0.0457763671875,-0.091552734375,-0.0133514404296875,0.1032261591166291
1781793054.452309,-0.0551757775247097,-0.087890625,0.9819335341453552,0.9874019413934401,0.0457763671875,-0.091552734375,0.1087188720703125,0.14932237644996516
1781793054.462937,-0.0654296875,-0.06884765625,0.9819335341453552,0.9865163502226678,-0.0133514404296875,-0.1544952392578125,-0.3795623779296875,0.41001785162906645
1781793054.473565,-0.06494140625,-0.0830078125,0.9838866591453552,0.9895153567408498,0.1087188720703125,-0.2155303955078125,-0.1354217529296875,0.2767890816100671
1781793054.484193,-0.07080078125,-0.07958984375,0.9946288466453552,1.0003168680137455,0.1697540283203125,-0.2155303955078125,-0.1964569091796875,0.3374390295789204
1781793054.494858,-0.0683593675494194,-0.0849609375,0.9902343153953552,0.996220539548921,0.1697540283203125,-0.0896453857421875,-0.4405975341796875,0.4806026554660929
1781793054.505526,-0.0634765550494194,-0.083984375,0.9897460341453552,0.995329021174175,0.1697540283203125,-0.0324249267578125,-0.0743865966796875,0.18815199114495032
1781793054.516194,-0.0683593675494194,-0.08154296875,0.9863280653953552,0.9920510629352021,0.2918243408203125,-0.0896453857421875,-0.5016326904296875,0.5872249119271101
1781793054.52418,-0.06640625,-0.07470703125,0.9863280653953552,0.9913798379752309,-0.0762939453125,-0.030517578125,-0.2574920654296875,0.2702855016925782
1781793054.532167,-0.0551757737994194,-0.0859375,0.9863280653953552,0.9916010652006979,0.2288818359375,-0.091552734375,0.0476837158203125,0.25108272490972433
1781793054.540154,-0.0590820237994194,-0.07421875,0.9829100966453552,0.9874772739031411,0.2918243408203125,-0.0324249267578125,-0.0133514404296875,0.2939236001616864
1781793054.548141,-0.0698242112994194,-0.09130859375,0.9848632216453552,0.9915484078580614,0.2288818359375,0.030517578125,0.1087188720703125,0.25522149310153547
1781793054.559201,-0.0590820237994194,-0.08642578125,0.9999999403953552,1.0054650575686963,0.5340576171875,0.030517578125,-0.1354217529296875,0.551804233598434
1781793054.570261,-0.0678710862994194,-0.0888671875,0.9980468153953552,1.0042914452938616,0.6580352783203125,0.1506805419921875,0.2307891845703125,0.7134274321637627
1781793054.581321,-0.0551757775247097,-0.0771484375,0.9858397841453552,0.9903920071557061,0.4119873046875,0.152587890625,0.0476837158203125,0.44191666674101604
1781793054.591618,-0.0537109337747097,-0.0771484375,0.9853515028953552,0.9898254038333113,0.5340576171875,0.396728515625,0.1697540283203125,0.6866057702328022
1781793054.601914,-0.0454101487994194,-0.07568359375,0.9902343153953552,0.9941599908281404,0.1697540283203125,0.4558563232421875,-0.2574920654296875,0.550384939228996
1781793054.612211,-0.0615234337747097,-0.078125,0.9892577528953552,0.9942432047502254,0.4119873046875,-0.091552734375,0.2918243408203125,0.5131051435041557
1781793054.620587,-0.0639648362994194,-0.08642578125,0.9912108778953552,0.9970255364861851,0.5950927734375,0.152587890625,-0.0743865966796875,0.6188310263137339
1781793054.628965,-0.0537109337747097,-0.08251953125,0.9926757216453552,0.9975467035626943,0.5970001220703125,0.2727508544921875,0.1087188720703125,0.6652984048698956
1781793054.637343,-0.0522460900247097,-0.07373046875,0.9882811903953552,0.9924039234274646,0.6580352783203125,0.4558563232421875,0.1087188720703125,0.8078584084468131
1781793054.645721,-0.0634765625,-0.07763671875,0.9770507216453552,0.9821837133412427,-0.0133514404296875,0.7038116455078125,-0.1354217529296875,0.7168459698432513
1781793054.655021,-0.0493163987994194,-0.076171875,0.9829100966453552,0.9870899248897946,-0.3814697265625,0.335693359375,-0.0133514404296875,0.5083182514662334
1781793054.664321,-0.0698242112994194,-0.07177734375,0.9804686903953552,0.9855690033706288,0.1068115234375,0.640869140625,-0.3185272216796875,0.7235893503192584
1781793054.673621,-0.0595703087747097,-0.07763671875,0.9887694716453552,0.9936000955332159,-0.3185272216796875,0.6389617919921875,-0.0743865966796875,0.7178197046211777
1781793054.682921,-0.0556640587747097,-0.0751953125,0.9921874403953552,0.9965885506765234,-0.3814697265625,0.335693359375,-0.0743865966796875,0.5135587109354955
1781793054.692221,-0.0639648362994194,-0.08056640625,0.9863280653953552,0.9916781225203043,-0.3185272216796875,0.2155303955078125,-0.0133514404296875,0.3848261988226404
1781793054.702959,-0.05712890625,-0.0859375,0.9858397841453552,0.9912260316594455,-0.7476806640625,0.152587890625,-0.1964569091796875,0.787975099189539
1781793054.713696,-0.0688476487994194,-0.0849609375,0.9809569716453552,0.9870334036220422,-0.6847381591796875,0.0896453857421875,0.0476837158203125,0.6922256702666298
1781793054.724433,-0.07421875,-0.09228515625,0.9833983778953552,0.9905035802877571,-0.3185272216796875,0.0896453857421875,-0.1964569091796875,0.3848261988226404
1781793054.732437,-0.0581054612994194,-0.080078125,0.9868163466453552,0.991763708119439,-0.4425048828125,0.518798828125,-0.2574920654296875,0.7288792486660765
1781793054.740441,-0.06298828125,-0.0771484375,0.9887694716453552,0.9937728478084695,-0.4425048828125,0.213623046875,-0.4405975341796875,0.659978457674403
1781793054.748445,-0.07373046875,-0.072265625,0.9921874403953552,0.9975441942375395,-0.1354217529296875,0.2727508544921875,-0.6237030029296875,0.6940731342274225
1781793054.76702,-0.06396484375,-0.07861328125,0.9990233778953552,1.004151013944765,-0.3185272216796875,0.1506805419921875,-0.4405975341796875,0.5641723174804495
1781793054.777591,-0.0629882737994194,-0.09130859375,0.9921874403953552,0.9983690193546271,-0.133514404296875,-0.274658203125,-0.1964569091796875,0.36312331495380346
1781793054.788162,-0.06787109375,-0.08203125,0.9882811903953552,0.9939996592718954,0.0457763671875,-0.152587890625,-0.5016326904296875,0.5263210961627878
1781793054.796158,-0.0595703050494194,-0.08642578125,0.9887694716453552,0.9943254522369367,0.4749298095703125,-0.3986358642578125,-0.0743865966796875,0.6245015949192226
1781793054.804155,-0.0683593675494194,-0.08056640625,0.9970702528953552,1.002652999874136,0.354766845703125,-0.274658203125,0.1087188720703125,0.46164535792991535
1781793054.812152,-0.0571289025247097,-0.08251953125,0.9853515028953552,0.9904497810588545,0.7781982421875,-0.274658203125,0.2307891845703125,0.8569091436098686
1781793054.820149,-0.07568359375,-0.08837890625,0.9838866591453552,0.9907430521972233,0.7171630859375,-0.457763671875,-0.0743865966796875,0.8540514251995995
1781793054.830818,-0.0537109337747097,-0.08740234375,0.9829100966453552,0.9882491043190103,0.7781982421875,-0.152587890625,0.2307891845703125,0.8259171969536242
1781793054.841487,-0.0595703087747097,-0.06787109375,0.9882811903953552,0.9923985179067912,0.9002685546875,-0.030517578125,0.1087188720703125,0.9073227575003157
1781793054.852156,-0.0595703087747097,-0.07373046875,0.9936522841453552,0.9981631457316438,0.7781982421875,-0.274658203125,-0.0743865966796875,0.8285909717424847
1781793054.86015,-0.06494140625,-0.08447265625,0.9853515028953552,0.991095656411526,0.4749298095703125,-0.0896453857421875,-0.5016326904296875,0.6965845069416098
1781793054.868142,-0.0512695275247097,-0.08544921875,0.9873046278953552,0.9923207957617225,0.5950927734375,0.213623046875,-0.0133514404296875,0.6324147975144491
1781793054.876134,-0.0546874925494194,-0.07958984375,0.9946288466453552,0.9993056627721879,0.3528594970703125,0.1506805419921875,-0.1964569091796875,0.4310565711971101
1781793054.884126,-0.0605468712747097,-0.07763671875,0.9941405653953552,0.9990039276619584,0.4749298095703125,-0.2155303955078125,-0.1354217529296875,0.5388420237628063
1781793054.894815,-0.0605468712747097,-0.08447265625,0.9936522841453552,0.9990727776605509,0.5970001220703125,-0.0324249267578125,-0.1354217529296875,0.6130249365187087
1781793054.905504,-0.0576171837747097,-0.0830078125,0.9926757216453552,0.9978051538984405,0.9002685546875,0.152587890625,-0.5016326904296875,1.0418262288079687
1781793054.916193,-0.06396484375,-0.0830078125,0.9858397841453552,0.9913939066666476,0.7171630859375,0.152587890625,-0.3795623779296875,0.8256352432741858
1781793054.926836,-0.05712890625,-0.0751953125,0.9873046278953552,0.9918107053338756,0.3528594970703125,-0.3986358642578125,-0.3185272216796875,0.6203869501337594
1781793054.93748,-0.0634765625,-0.08740234375,0.9916991591453552,0.9975648680308535,0.4119873046875,-0.152587890625,-0.4405975341796875,0.6222079963438905
1781793054.948124,-0.0541992112994194,-0.0908203125,0.9956054091453552,1.0012072784331758,0.1697540283203125,-0.0324249267578125,-0.1964569091796875,0.2616545875207598
1781793054.956134,-0.06689453125,-0.0830078125,0.9985350966453552,1.004209895629266,0.2899169921875,-0.274658203125,-0.6237030029296875,0.7406040958342118
1781793054.964143,-0.0732421800494194,-0.07177734375,0.9931640028953552,0.9984443603232592,0.0457763671875,0.152587890625,-0.1354217529296875,0.20908752072952874
1781793054.972152,-0.0610351525247097,-0.08154296875,0.9824218153953552,0.9876877892132632,-0.1964569091796875,-0.0896453857421875,-0.2574920654296875,0.3360562097455544
1781793054.980161,-0.0654296875,-0.07861328125,0.9897460341453552,0.9950167355887528,0.1697540283203125,-0.1544952392578125,-0.0133514404296875,0.2299205733418601
1781793054.990842,-0.0532226525247097,-0.08203125,0.9858397841453552,0.9906774736119163,0.0457763671875,-0.213623046875,0.1087188720703125,0.24402884069979155
1781793055.001523,-0.0615234337747097,-0.07666015625,0.9936522841453552,0.9985022655192062,0.1068115234375,-0.274658203125,0.2918243408203125,0.41473759894432444
1781793055.012204,-0.0605468712747097,-0.08740234375,0.9858397841453552,0.9915569440621703,0.1697540283203125,-0.0896453857421875,0.2918243408203125,0.34930526937200496
1781793055.022879,-0.0673828050494194,-0.06982421875,0.9882811903953552,0.9930335217049001,0.1087188720703125,-0.0324249267578125,-0.0133514404296875,0.11423410165549504
1781793055.033554,-0.0512695275247097,-0.07666015625,0.9965819716453552,1.0008401321976577,0.2899169921875,-0.274658203125,-0.3795623779296875,0.5509596987462329
1781793055.044229,-0.06298828125,-0.0771484375,0.9716796278953552,0.9767705484147117,0.4749298095703125,-0.0896453857421875,-0.6237030029296875,0.7890500966775612
1781793055.052349,-0.0507812462747097,-0.08544921875,0.9956054091453552,1.0005550632912155,0.171661376953125,0.030517578125,-0.1964569091796875,0.2626675999747482
1781793055.06047,-0.0751953050494194,-0.07568359375,0.9794921278953552,0.9852853235856917,0.2899169921875,0.335693359375,-0.3795623779296875,0.5837889110176372
1781793055.068591,-0.06494140625,-0.07275390625,0.9907225966453552,0.9955108139161908,0.2307891845703125,0.0896453857421875,-0.5016326904296875,0.5594062021529812
1781793055.076712,-0.0571289025247097,-0.08203125,0.9916991591453552,0.9967246659583804,0.5970001220703125,0.4558563232421875,-0.1964569091796875,0.776408043722043
1781793055.087212,-0.0634765550494194,-0.07177734375,0.9931640028953552,0.9977755242357235,0.3528594970703125,0.0896453857421875,-0.3795623779296875,0.5259407938135418
1781793055.097712,-0.0576171837747097,-0.07763671875,0.9951171278953552,0.9998026296200145,0.5340576171875,0.213623046875,-0.5016326904296875,0.7632088185679431
1781793055.108212,-0.0551757737994194,-0.08642578125,0.9892577528953552,0.9945575314392854,0.5340576171875,0.457763671875,-0.3795623779296875,0.799270114857369
1781793055.116215,-0.0654296875,-0.0693359375,0.9858397841453552,0.9904385878181,0.1697540283203125,0.3337860107421875,-0.3185272216796875,0.49161887885753325
1781793055.124217,-0.0610351525247097,-0.08154296875,0.9873046278953552,0.9925446961522004,0.1697540283203125,0.0896453857421875,-0.0743865966796875,0.20587882620955839
1781793055.132219,-0.064453125,-0.0869140625,0.9985350966453552,1.0043807041232267,0.4119873046875,0.030517578125,-0.5016326904296875,0.6498463032948738
1781793055.140221,-0.0722656175494194,-0.0751953125,0.9916991591453552,0.9971679280599512,0.1697540283203125,-0.2727508544921875,-0.3185272216796875,0.4524036358255454
1781793055.150878,-0.0620117150247097,-0.078125,0.9907225966453552,0.9957310038002337,0.5970001220703125,-0.0324249267578125,-0.3185272216796875,0.6774364269643303
1781793055.161535,-0.0620117150247097,-0.07958984375,0.9809569716453552,0.9861321292038311,0.4749298095703125,-0.2727508544921875,-0.3795623779296875,0.6663474704569311
1781793055.172192,-0.0751953050494194,-0.0859375,0.9877929091453552,0.9943713688384079,0.1697540283203125,-0.0896453857421875,-0.5016326904296875,0.5371108651140524
1781793055.180174,-0.0781249925494194,-0.08642578125,0.9794921278953552,0.9863963497167305,0.5340576171875,-0.274658203125,-0.2574920654296875,0.6534193376225489
1781793055.188156,-0.0693359375,-0.07373046875,0.9824218153953552,0.9876215254923335,0.2288818359375,-0.152587890625,-0.3185272216796875,0.42086761592986505
1781793055.196138,-0.0732421800494194,-0.07568359375,0.9829100966453552,0.9885366363411566,0.2918243408203125,-0.0896453857421875,-0.0743865966796875,0.31421506463831744
1781793055.20412,-0.0620117150247097,-0.087890625,0.9853515028953552,0.991205225481248,0.4749298095703125,-0.2155303955078125,-0.2574920654296875,0.5816475214126626
1781793055.212128,-0.0673828050494194,-0.0917968675494194,0.9946288466453552,1.001126190790793,0.354766845703125,-0.274658203125,-0.0743865966796875,0.45478567382843665
1781793055.220136,-0.06591796875,-0.07568359375,0.9873046278953552,0.9923928724203066,0.5340576171875,0.030517578125,-0.2574920654296875,0.5936758583687333
1781793055.228144,-0.06689453125,-0.087890625,0.9965819716453552,1.0026840312294754,0.5950927734375,-0.335693359375,-0.4405975341796875,0.8129893158284612
1781793055.244156,-0.07080078125,-0.078125,0.9936522841453552,0.999230267775097,0.3528594970703125,-0.2155303955078125,-0.1964569091796875,0.4577755926487387
1781793055.252161,-0.0673828050494194,-0.08447265625,0.9770507216453552,0.9830077236410547,0.3528594970703125,-0.0896453857421875,-0.0743865966796875,0.3715904810717922
1781793055.260166,-0.0629882737994194,-0.07958984375,0.9897460341453552,0.9949368210951078,0.0457763671875,-0.152587890625,-0.0743865966796875,0.17581782026819207
1781793055.268171,-0.0610351525247097,-0.09130859375,0.9960936903953552,1.002130325447621,0.3528594970703125,-0.0896453857421875,-0.3795623779296875,0.5259407938135418
1781793055.278917,-0.0541992150247097,-0.0830078125,0.9892577528953552,0.9942126299282752,0.6580352783203125,-0.0324249267578125,-0.3185272216796875,0.7317932729537225
1781793055.289663,-0.0561523400247097,-0.08251953125,0.9868163466453552,0.9918513297538377,0.1087188720703125,-0.0324249267578125,-0.0133514404296875,0.11423410165549504
1781793055.300409,-0.0673828050494194,-0.07421875,0.9824218153953552,0.9875229053711088,0.354766845703125,-0.152587890625,-0.1964569091796875,0.4332873138460989
1781793055.308346,-0.06787109375,-0.091796875,0.9814452528953552,0.988062718686124,-0.1354217529296875,-0.0896453857421875,-0.0133514404296875,0.16295277632787486
1781793055.316284,-0.0615234337747097,-0.0830078125,0.9897460341453552,0.9951244354079166,-0.0152587890625,0.030517578125,-0.5626678466796875,0.5637013916121066
1781793055.324222,-0.0732421800494194,-0.07568359375,0.9921874403953552,0.9977616650180509,0.2288818359375,-0.091552734375,-0.1354217529296875,0.2812611760627643
1781793055.33216,-0.0624999962747097,-0.078125,0.9892577528953552,0.9943041118404904,0.2918243408203125,0.1506805419921875,0.1697540283203125,0.3697059666292157
1781793055.342805,-0.0590820237994194,-0.0849609375,0.9916991591453552,0.9970838824726426,0.354766845703125,0.213623046875,0.1087188720703125,0.428151975483641
1781793055.35345,-0.0615234375,-0.06103515625,0.9921874403953552,0.9959650297769319,0.2288818359375,0.030517578125,-0.0133514404296875,0.231293057306707
1781793055.364095,-0.0693359300494194,-0.0859375,0.9853515028953552,0.9915191926333061,0.4138946533203125,-0.2155303955078125,-0.3795623779296875,0.6015228459290093
1781793055.374829,-0.0727538987994194,-0.0810546875,0.9765624403953552,0.9826175207816978,0.2288818359375,-0.152587890625,-0.0743865966796875,0.2849619710647267
1781793055.385565,-0.0771484300494194,-0.07275390625,0.9794921278953552,0.9852156310893037,0.2288818359375,-0.213623046875,-0.0743865966796875,0.3217997308014188
1781793055.396301,-0.0693359375,-0.083984375,0.9843749403953552,0.9903811744734972,-0.0133514404296875,-0.0324249267578125,-0.1354217529296875,0.13988812674185871
1781793055.40441,-0.0610351525247097,-0.07763671875,0.9799804091453552,0.9849438320283441,0.354766845703125,0.030517578125,-0.1354217529296875,0.38095916913930516
1781793055.412517,-0.0532226487994194,-0.08056640625,0.9843749403953552,0.9890993981595709,0.4119873046875,-0.152587890625,-0.3795623779296875,0.5805895299854251
1781793055.420624,-0.0634765625,-0.07275390625,0.9877929091453552,0.9925004968357921,0.1697540283203125,-0.0324249267578125,-0.4405975341796875,0.47328003669227786
1781793055.428731,-0.0551757775247097,-0.07373046875,0.9941405653953552,0.9983967208540638,0.2918243408203125,-0.0324249267578125,-0.2574920654296875,0.39053167032867625
1781793055.43923,-0.06201171875,-0.0703125,0.9746093153953552,0.9791080729796798,0.0457763671875,-0.335693359375,-0.1964569091796875,0.39163864018479294
1781793055.449729,-0.0600585862994194,-0.08642578125,0.9985350966453552,1.0040661276457374,0.2918243408203125,-0.3376007080078125,-0.7457733154296875,0.8690877527324696
1781793055.460228,-0.0693359300494194,-0.09130859375,0.9780272841453552,0.9847243771843773,0.2918243408203125,-0.3986358642578125,-0.3795623779296875,0.6230085046830597
1781793055.468219,-0.0585937462747097,-0.087890625,0.9824218153953552,0.9880843144337942,0.354766845703125,-0.274658203125,-0.4405975341796875,0.6288265503930472
1781793055.47621,-0.0605468712747097,-0.09228515625,0.9912108778953552,0.9973371938032413,0.5340576171875,0.030517578125,-0.3185272216796875,0.6225820845491673
1781793055.484201,-0.0722656175494194,-0.07763671875,0.9799804091453552,0.9857034959290564,0.2899169921875,0.030517578125,-0.0133514404296875,0.2918243408203125
1781793055.492192,-0.0541992112994194,-0.0810546875,0.9907225966453552,0.9955092568002153,0.4119873046875,0.030517578125,-0.0743865966796875,0.4197597259908017
1781793055.502853,-0.0795898362994194,-0.08544921875,0.9873046278953552,0.9941863705013962,0.2899169921875,0.213623046875,-0.0133514404296875,0.3603677697530023
1781793055.513514,-0.07177734375,-0.07470703125,0.9770507216453552,0.9825279844674673,0.1697540283203125,-0.0324249267578125,0.0476837158203125,0.1792806257258583
1781793055.524175,-0.0595703087747097,-0.068359375,0.9799804091453552,0.9841662604187378,0.4730224609375,0.030517578125,0.1697540283203125,0.5034858501059962
1781793055.534848,-0.0634765625,-0.08740234375,0.9902343153953552,0.9961086502316489,0.4119873046875,-0.091552734375,0.1087188720703125,0.43581559809104037
1781793055.545522,-0.0585937425494194,-0.0810546875,0.9951171278953552,1.0001305851049507,0.4119873046875,-0.030517578125,-0.0743865966796875,0.4197597259908017
1781793055.556196,-0.0678710862994194,-0.08154296875,0.9873046278953552,0.9929885036452398,0.4138946533203125,0.0896453857421875,-0.0133514404296875,0.42370194735634004
1781793055.564222,-0.0703125,-0.08837890625,0.9775390028953552,0.9840412495967035,-0.0762939453125,0.457763671875,-0.2574920654296875,0.5307263976278888
1781793055.572249,-0.0605468712747097,-0.08203125,0.9790038466453552,0.9842985224738077,-0.1354217529296875,0.3986358642578125,-0.2574920654296875,0.4935096424573373
1781793055.580276,-0.06201171875,-0.07666015625,0.9863280653953552,0.9912443116634504,-0.3814697265625,0.335693359375,-0.5016326904296875,0.7140339907314414
1781793055.588303,-0.0625,-0.0810546875,0.9824218153953552,0.9877392043097348,-0.5016326904296875,0.3986358642578125,-0.3185272216796875,0.7155455955641685
1781793055.599088,-0.0595703087747097,-0.072265625,0.9916991591453552,0.9961115221167555,-0.621795654296875,0.396728515625,-0.3795623779296875,0.8295124770322226
1781793055.609873,-0.0776367112994194,-0.07275390625,0.9897460341453552,0.995448543081199,-0.7476806640625,0.396728515625,-0.3795623779296875,0.9276246489084881
1781793055.620658,-0.0678710862994194,-0.09130859375,0.9760741591453552,0.9826823025776835,-1.2359619140625,0.396728515625,-0.1964569091796875,1.3128559270870093
1781793055.628535,-0.0546874962747097,-0.08251953125,0.9858397841453552,0.9907977973785956,-0.621795654296875,0.335693359375,-0.1354217529296875,0.7194851759400614
1781793055.636414,-0.0532226487994194,-0.08154296875,0.9882811903953552,0.9930667738813187,-1.110076904296875,0.396728515625,-0.2574920654296875,1.2066343324813014
1781793055.644293,-0.07177734375,-0.07763671875,0.9946288466453552,1.0002329677395871,-0.8068084716796875,0.1506805419921875,-0.5626678466796875,0.9951078541526687
1781793055.652172,-0.052734375,-0.08935546875,0.9785155653953552,0.9840010293811509,-0.8697509765625,0.396728515625,-0.5016326904296875,1.0795812301300745
1781793055.662827,-0.06982421875,-0.09765625,0.9829100966453552,0.99021433173606,-0.5626678466796875,0.5779266357421875,-0.3185272216796875,0.8672104086889295
1781793055.673482,-0.0683593675494194,-0.083984375,0.9829100966453552,0.9888572376553042,-0.4425048828125,0.213623046875,-0.5016326904296875,0.7021970760240956
1781793055.684137,-0.06298828125,-0.0673828125,0.9907225966453552,0.995007150978803,-0.2593994140625,0.213623046875,-0.8678436279296875,0.9306317342054743
1781793055.694827,-0.0712890625,-0.080078125,0.9838866591453552,0.9897108641314659,-0.0152587890625,0.030517578125,-0.5016326904296875,0.5027917156497271
1781793055.705516,-0.0703125,-0.07958984375,0.9941405653953552,0.9997969067010539,0.1087188720703125,-0.5207061767578125,-0.6847381591796875,0.8670761571481287
1781793055.716205,-0.0541992112994194,-0.09130859375,0.9863280653953552,0.9920271500239425,0.2288818359375,-0.091552734375,-0.0133514404296875,0.24687458142791344
1781793055.724201,-0.064453125,-0.07275390625,0.9814452528953552,0.9862464806668398,0.2288818359375,-0.274658203125,-0.4405975341796875,0.567406565428349
1781793055.732197,-0.0595703087747097,-0.0732421875,0.9951171278953552,0.9995854830618541,0.4119873046875,0.030517578125,-0.0743865966796875,0.4197597259908017
1781793055.740193,-0.0610351525247097,-0.07177734375,0.9931640028953552,0.9976231821517809,0.5340576171875,-0.152587890625,-0.1964569091796875,0.589148470256703
1781793055.748189,-0.0751953125,-0.09228515625,0.9790038466453552,0.9862146910447348,0.4119873046875,-0.274658203125,-0.1354217529296875,0.5133319773149477
1781793055.758832,-0.0639648362994194,-0.0859375,0.9848632216453552,0.9906726601348851,0.7171630859375,-0.152587890625,-0.0133514404296875,0.7333377238069323
1781793055.769475,-0.0654296875,-0.0791015625,0.9868163466453552,0.9921414229850374,0.5340576171875,-0.335693359375,-0.1964569091796875,0.6606836513558506
1781793055.780118,-0.0585937462747097,-0.0830078125,0.9873046278953552,0.9925189934213481,0.2918243408203125,-0.0896453857421875,-0.4405975341796875,0.5360260517972018
1781793055.790802,-0.0600585900247097,-0.08349609375,0.9838866591453552,0.9892479921392175,0.1697540283203125,0.1506805419921875,-0.3185272216796875,0.39112740484017944
1781793055.801485,-0.0581054650247097,-0.091796875,0.9868163466453552,0.9927786325923766,0.0457763671875,0.091552734375,-0.4405975341796875,0.4523312570336534
1781793055.812169,-0.0566406212747097,-0.08154296875,0.9946288466453552,0.9995718875148591,0.2899169921875,-0.152587890625,-0.5626678466796875,0.6510990956924992
1781793055.822846,-0.0639648362994194,-0.06591796875,0.9833983778953552,0.9876786160154291,0.4119873046875,-0.030517578125,-0.7457733154296875,0.8525507021903592
1781793055.833522,-0.0556640587747097,-0.06689453125,0.9824218153953552,0.9862687205397609,0.2918243408203125,0.2727508544921875,-0.7457733154296875,0.8460096409193081
1781793055.844198,-0.052734375,-0.076171875,0.9814452528953552,0.9858082233773889,-0.1354217529296875,0.1506805419921875,-0.6237030029296875,0.6557812994932979
1781793055.852242,-0.06494140625,-0.08349609375,0.9980468153953552,1.003636602380586,0.0457763671875,0.091552734375,-0.4405975341796875,0.4523312570336534
1781793055.860286,-0.08056640625,-0.08935546875,0.9829100966453552,0.9902462338726433,-0.3185272216796875,-0.1544952392578125,-0.3185272216796875,0.4762225959100327
1781793055.868329,-0.0605468712747097,-0.07470703125,0.9780272841453552,0.9827433198308112,-0.1964569091796875,-0.0896453857421875,-0.5016326904296875,0.5461382320045249
1781793055.876373,-0.06787109375,-0.06787109375,0.9809569716453552,0.9856416950156223,-0.5016326904296875,0.0896453857421875,-0.1964569091796875,0.5461382320045249
1781793055.88831,-0.0727538987994194,-0.07568359375,0.9941405653953552,0.9996682449283001,-0.4425048828125,0.152587890625,0.3528594970703125,0.5861769872239998
1781793055.900247,-0.0629882737994194,-0.06884765625,0.9819335341453552,0.9863574341416687,-0.4425048828125,-0.030517578125,0.2918243408203125,0.5309457032340781
1781793055.912184,-0.06591796875,-0.0888671875,0.9921874403953552,0.9983378548850949,-0.6866455078125,-0.274658203125,-0.0133514404296875,0.7396603564505044
1781793055.924121,-0.06787109375,-0.07763671875,1.001953125,1.0072457546013056,-0.4425048828125,-0.152587890625,-0.0133514404296875,0.4682647719398063
1781793055.932165,-0.0566406212747097,-0.07373046875,0.9848632216453552,0.9892420873325942,-0.2593994140625,0.030517578125,-0.0743865966796875,0.27157456500226657
1781793055.940207,-0.0478515587747097,-0.06787109375,0.9780272841453552,0.9815465478400555,-0.640869140625,0.148773193359375,0.1544952392578125,0.6758072931103221
1781793055.948249,-0.0483398362994194,-0.08349609375,0.9809569716453552,0.9856900718098918,-0.457763671875,0.087738037109375,-0.3337860107421875,0.5732875747925054
1781793055.956291,-0.06884765625,-0.07373046875,0.9833983778953552,0.9885588254830507,-0.3376007080078125,0.3337860107421875,-0.0934600830078125,0.4838616807832453
1781793055.966933,-0.0712890625,-0.08984375,0.9882811903953552,0.9949139365470019,-0.518798828125,0.453948974609375,-0.4558563232421875,0.8264544047028015
1781793055.977576,-0.06982421875,-0.08349609375,0.9858397841453552,0.9918301765924029,-0.640869140625,0.637054443359375,-0.2765655517578125,0.9450080018859377
1781793055.988217,-0.0649413987994194,-0.07666015625,0.9970702528953552,1.0021193811333593,-0.457763671875,0.453948974609375,-0.4558563232421875,0.7895709203594515
1781793055.996218,-0.06640625,-0.076171875,0.9819335341453552,0.9871197546697491,-0.4596710205078125,0.5130767822265625,-0.4558563232421875,0.8260449255304114
1781793056.004219,-0.0673828050494194,-0.0810546875,1.00146484375,1.0069965928687459,-0.5207061767578125,0.5130767822265625,-0.0934600830078125,0.7369650562201229
1781793056.01222,-0.07177734375,-0.09716796875,0.9912108778953552,0.9985452446859319,-0.1544952392578125,0.2079010009765625,-0.0934600830078125,0.27536592431928203
1781793056.020221,-0.0571289025247097,-0.0791015625,0.9848632216453552,0.9896849670694646,-0.2765655517578125,0.5130767822265625,-0.0286102294921875,0.5835707618709682
1781793056.030869,-0.0624999962747097,-0.08349609375,0.9726561903953552,0.9782320337835257,-0.213623046875,0.148773193359375,0.0934600830078125,0.27659185876365133
1781793056.041517,-0.0649413987994194,-0.0908203125,0.9907225966453552,0.9969939708665936,-0.640869140625,0.270843505859375,0.0324249267578125,0.6965061636101096
1781793056.052165,-0.0590820275247097,-0.0869140625,0.9985350966453552,1.004050337119227,-0.579833984375,-0.034332275390625,0.1544952392578125,0.6010448681446454
1781793056.062819,-0.0610351525247097,-0.07568359375,0.9868163466453552,0.9915945735093126,-0.457763671875,0.087738037109375,-0.0286102294921875,0.4669733265143571
1781793056.073473,-0.0576171837747097,-0.0888671875,0.9711913466453552,0.9769492047589309,-0.335693359375,0.148773193359375,0.1544952392578125,0.39836198807635703
1781793056.084127,-0.0620117150247097,-0.1044921875,0.9804686903953552,0.9879690900501007,-0.579833984375,-0.034332275390625,0.0934600830078125,0.5883204413289689
1781793056.092148,-0.06689453125,-0.07861328125,0.9882811903953552,0.9936572032594083,-0.6427764892578125,-0.4634857177734375,-0.0934600830078125,0.7979444923291247
1781793056.100171,-0.0615234375,-0.08544921875,0.9848632216453552,0.9904757784501698,-0.5207061767578125,-0.3376007080078125,-0.1506805419921875,0.6386029958402747
1781793056.108194,-0.0634765625,-0.0830078125,0.9707030653953552,0.9763114319164714,-0.579833984375,-0.400543212890625,-0.2765655517578125,0.7570540398465856
1781793056.116217,-0.0595703087747097,-0.07275390625,0.9716796278953552,0.9762187520371671,-0.701904296875,-0.278472900390625,-0.0934600830078125,0.7608886813058677
1781793056.12688,-0.0595703087747097,-0.0927734375,0.9892577528953552,0.9953825566367176,-0.640869140625,-0.156402587890625,-0.2117156982421875,0.6928192850855753
1781793056.137543,-0.0673828050494194,-0.0771484300494194,0.9887694716453552,0.9940610598616431,-0.396728515625,-0.400543212890625,-0.2765655517578125,0.6279465621546659
1781793056.148206,-0.0546874962747097,-0.0927734375,0.9794921278953552,0.9853945715109931,-0.579833984375,0.026702880859375,0.0934600830078125,0.5879245533214317
1781793056.156179,-0.0532226525247097,-0.0927734375,0.9838866591453552,0.9896830399130525,-0.823974609375,-0.217437744140625,0.0324249267578125,0.8527981621385551
1781793056.164155,-0.06591796875,-0.08056640625,0.9814452528953552,0.9869503071842036,-0.579833984375,-0.034332275390625,-0.0286102294921875,0.5815536946845761
1781793056.172131,-0.0673828050494194,-0.0917968675494194,0.9877929091453552,0.9943349227830921,-0.762939453125,-0.095367431640625,-0.1506805419921875,0.7835025091775155
1781793056.180107,-0.06494140625,-0.083984375,0.9775390028953552,0.9832869691354165,-0.274658203125,-0.095367431640625,0.0934600830078125,0.30539623880691497
1781793056.190941,-0.0605468712747097,-0.08642578125,0.9863280653953552,0.9919568498036461,-0.823974609375,-0.217437744140625,-0.2117156982421875,0.8780870494169839
1781793056.201775,-0.06982421875,-0.08447265625,0.9746093153953552,0.9807519405198144,-0.579833984375,-0.095367431640625,-0.1506805419921875,0.6066358233643776
1781793056.212609,-0.0781249925494194,-0.076171875,0.9775390028953552,0.9836097657015752,-0.762939453125,-0.278472900390625,-0.2765655517578125,0.8579698536695473
1781793056.223119,-0.0561523400247097,-0.0849609375,0.9755858778953552,0.9808869717454608,-0.579833984375,0.026702880859375,-0.1506805419921875,0.5996875178102652
1781793056.233629,-0.076171875,-0.0751953125,0.9790038466453552,0.9848375608745792,-0.701904296875,-0.034332275390625,-0.1506805419921875,0.7187161977026434
1781793056.244137,-0.06494140625,-0.08837890625,0.9882811903953552,0.9943479917035757,-0.274658203125,-0.156402587890625,-0.0934600830078125,0.3295962456681897
1781793056.252208,-0.0624999962747097,-0.09912109375,0.9887694716453552,0.9956888614513923,-0.640869140625,0.148773193359375,0.0324249267578125,0.658709415708491
1781793056.260279,-0.0576171875,-0.095703125,0.9794921278953552,0.9858415983509454,-0.701904296875,0.087738037109375,-0.2765655517578125,0.759510440709341
1781793056.26835,-0.0644531175494194,-0.08544921875,0.9941405653953552,0.9998856120134049,-0.6427764892578125,-0.0972747802734375,-0.2765655517578125,0.7064789469184114
1781793056.276421,-0.06591796875,-0.1044921875,0.9887694716453552,0.9964581596386755,-0.518798828125,-0.034332275390625,0.0934600830078125,0.5282667094500639
1781793056.287033,-0.07275390625,-0.09228515625,0.9843749403953552,0.9913645667548744,-0.396728515625,0.087738037109375,-0.2117156982421875,0.4581648340368332
1781793056.297645,-0.06640625,-0.09326171875,0.9956054091453552,1.0021664876370378,-0.152587890625,0.331878662109375,-0.1506805419921875,0.39513432711415375
1781793056.308257,-0.0712890625,-0.0859375,0.9965819716453552,1.0028175360188525,-0.3376007080078125,0.0858306884765625,-0.0934600830078125,0.36066041125630105
1781793056.318885,-0.0595703050494194,-0.09033203125,0.9980468153953552,1.0038953844072809,-0.457763671875,-0.034332275390625,-0.0286102294921875,0.4599400283227978
1781793056.329513,-0.0620117150247097,-0.0966796875,0.9970702528953552,1.003664039399744,-0.579833984375,-0.156402587890625,-0.2117156982421875,0.6367831309144812
1781793056.340141,-0.0698242112994194,-0.09521484375,0.9877929091453552,0.9948246671206775,-0.4596710205078125,0.0247955322265625,-0.2117156982421875,0.5066910324796259
1781793056.350839,-0.0634765550494194,-0.08349609375,0.9833983778953552,0.9889758542854656,-0.3376007080078125,-0.1544952392578125,-0.3337860107421875,0.49925556378260694
1781793056.361537,-0.0629882737994194,-0.0947265625,0.9897460341453552,0.9962619416527742,-0.579833984375,-0.095367431640625,-0.3337860107421875,0.6758072931103221
1781793056.372235,-0.0576171837747097,-0.08837890625,0.9853515028953552,0.9909834283146264,-0.274658203125,-0.034332275390625,-0.1506805419921875,0.3151514864512158
1781793056.380249,-0.0654296800494194,-0.09521484375,0.9824218153953552,0.9891913530083104,-0.8258819580078125,-0.0972747802734375,-0.1506805419921875,0.8451319525228727
1781793056.388261,-0.0576171875,-0.08984375,0.9902343153953552,0.9959696978804027,-0.335693359375,-0.034332275390625,-0.0934600830078125,0.3501478598789343
1781793056.396273,-0.0688476487994194,-0.1005859375,1.00634765625,1.0137026856074862,-0.213623046875,-0.217437744140625,-0.1506805419921875,0.34002735841132214
1781793056.404285,-0.07080078125,-0.10009765625,0.9868163466453552,0.9944037376331806,-0.274658203125,-0.400543212890625,-0.0286102294921875,0.48650851911163273
1781793056.414926,-0.06640625,-0.095703125,0.9858397841453552,0.9926978181589746,-0.0324249267578125,-0.0324249267578125,0.0324249267578125,0.056161620576230836
1781793056.425567,-0.083984375,-0.0830078125,0.9809569716453552,0.9880385885175751,-0.0324249267578125,-0.1544952392578125,0.2117156982421875,0.26409030976307185
1781793056.436208,-0.0566406212747097,-0.07763671875,0.9882811903953552,0.9929427633886618,-0.5207061767578125,-0.2193450927734375,0.2765655517578125,0.6290752710579469
1781793056.444226,-0.068359375,-0.0966796875,0.9892577528953552,0.9963186577541625,-0.335693359375,-0.034332275390625,0.5207061767578125,0.6204866309403523
1781793056.452245,-0.0605468712747097,-0.078125,0.9956054091453552,1.0004996601526892,-0.274658203125,-0.522613525390625,0.5207061767578125,0.7872083256538954
1781793056.460264,-0.0556640587747097,-0.08349609375,0.9829100966453552,0.9880194042619632,-0.396728515625,-0.400543212890625,0.5817413330078125,0.8100934261135977
1781793056.468283,-0.0595703087747097,-0.072265625,0.9819335341453552,0.9863895821242955,-0.457763671875,-0.095367431640625,0.0324249267578125,0.4687151610322216
1781793056.478895,-0.0634765550494194,-0.07568359375,0.9868163466453552,0.9917478416464252,-0.9479522705078125,0.0247955322265625,0.3376007080078125,1.0065796360083448
1781793056.489507,-0.0493164025247097,-0.08837890625,0.9692382216453552,0.9745079111665417,-1.0089874267578125,0.2079010009765625,0.2117156982421875,1.0517138348641164
1781793056.500119,-0.0507812462747097,-0.10009765625,0.9936522841453552,0.99997156836944,-0.9479522705078125,0.5130767822265625,0.0324249267578125,1.0783842856311148
1781793056.508148,-0.0551757737994194,-0.0849609375,0.9770507216453552,0.9822885724587012,-1.1310577392578125,0.3910064697265625,-0.6389617919921875,1.3566317999106796
1781793056.516176,-0.0590820275247097,-0.09814453125,0.9711913466453552,0.9779241620849396,-1.373291015625,0.209808349609375,-0.0934600830078125,1.3923658083556854
1781793056.524204,-0.0673828050494194,-0.0869140550494194,0.9975585341453552,1.003602274024771,-1.3141632080078125,0.0858306884765625,-0.3337860107421875,1.358604042881122
1781793056.532232,-0.0629882737994194,-0.08984375,0.9799804091453552,0.9861039622468774,-1.6193389892578125,0.2079010009765625,-0.2765655517578125,1.6558895170743348
1781793056.542883,-0.0595703087747097,-0.09765625,0.9843749403953552,0.9909991867453454,-1.495361328125,-0.034332275390625,-0.2117156982421875,1.5106646694973171
1781793056.553534,-0.06640625,-0.080078125,0.9897460341453552,0.9951982256058522,-1.373291015625,0.148773193359375,0.0324249267578125,1.3817065725160098
1781793056.564185,-0.06396484375,-0.0869140625,0.9956054091453552,1.0014368108950789,-1.2531280517578125,0.0247955322265625,-0.2765655517578125,1.2835237578400458
1781793056.574857,-0.06298828125,-0.091796875,0.9765624403953552,0.9828877808913521,-0.762939453125,0.148773193359375,-0.1506805419921875,0.7917794503092888
1781793056.585527,-0.06640625,-0.09912109375,0.9956054091453552,1.0027287330004806,-1.0089874267578125,0.5741119384765625,-0.0286102294921875,1.161240151944577
1781793056.596197,-0.0590820275247097,-0.09326171875,0.9877929091453552,0.9939432908966581,-0.396728515625,0.392913818359375,0.0934600830078125,0.5661356470701938
1781793056.606871,-0.0590820237994194,-0.08935546875,0.9868163466453552,0.9926135135782976,-0.640869140625,0.087738037109375,0.2117156982421875,0.6806135140029245
1781793056.617545,-0.0678710862994194,-0.08447265625,0.9814452528953552,0.9874091849077674,-0.5207061767578125,0.0858306884765625,0.0934600830078125,0.5359446022808012
1781793056.628219,-0.0678710862994194,-0.1005859375,1.00146484375,1.0087892983400593,-0.457763671875,-0.095367431640625,0.3376007080078125,0.5767293683813823
1781793056.636203,-0.06689453125,-0.09814453125,0.9916991591453552,0.9987864884824204,-0.152587890625,0.148773193359375,0.1544952392578125,0.26322102192085967
1781793056.644189,-0.0654296875,-0.0869140625,0.9829100966453552,0.9889122086181276,0.030517578125,0.148773193359375,0.2117156982421875,0.260553876423166
1781793056.652175,-0.0654296875,-0.08642578125,0.9970702528953552,1.00294543664141,-0.091552734375,0.026702880859375,0.0324249267578125,0.10072895756920543
1781793056.668168,-0.0595703087747097,-0.09814453125,0.9819335341453552,0.988622494272199,0.091552734375,0.087738037109375,0.2765655517578125,0.30425050656728353
1781793056.676173,-0.06591796875,-0.08837890625,0.9892577528953552,0.9953827963842051,0.091552734375,0.087738037109375,0.1544952392578125,0.19987157196728628
1781793056.684178,-0.0639648362994194,-0.08642578125,0.9838866591453552,0.989744347794769,-0.091552734375,0.148773193359375,-0.0934600830078125,0.198116514580972
1781793056.692183,-0.0556640587747097,-0.10498046875,0.9853515028953552,0.992490287366269,-0.335693359375,-0.217437744140625,-0.2765655517578125,0.48626917291202004
1781793056.701774,-0.06201171875,-0.0849609375,0.9814452528953552,0.9870656505998149,-0.0324249267578125,-0.2193450927734375,-0.3337860107421875,0.4007202846952237
1781793056.711365,-0.07080078125,-0.10205078125,0.9877929091453552,0.9955711646774377,0.091552734375,-0.278472900390625,-0.3948211669921875,0.4917446627352239
1781793056.720956,-0.07177734375,-0.09033203125,0.9887694716453552,0.9954782423555985,0.091552734375,-0.034332275390625,-0.1506805419921875,0.1796252600279159
1781793056.730547,-0.0595703087747097,-0.08740234375,0.9824218153953552,0.9880993951750061,0.396728515625,-0.583648681640625,-0.1506805419921875,0.7216258895202659
1781793056.740138,-0.0610351525247097,-0.0849609375,0.9711913466453552,0.9768092354924844,0.6389617919921875,-0.4024505615234375,-0.1506805419921875,0.7700280850926523
1781793056.749761,-0.0610351525247097,-0.08349609375,0.9809569716453552,0.9863941746253623,0.396728515625,-0.583648681640625,-0.0286102294921875,0.7062986931337557
1781793056.759381,-0.0576171837747097,-0.08837890625,0.9824218153953552,0.9880704399488835,0.518798828125,-0.583648681640625,0.2117156982421875,0.8090868584564267
1781793056.769001,-0.06689453125,-0.0810546875,0.9995116591453552,1.0050215407862564,0.518798828125,-0.339508056640625,-0.2117156982421875,0.6551652321895173
1781793056.778621,-0.0590820237994194,-0.0849609375,0.9716796278953552,0.9771746751241407,0.5168914794921875,-0.4634857177734375,0.1544952392578125,0.7112415842067376
1781793056.788241,-0.0644531175494194,-0.08544921875,0.9780272841453552,0.9838664248156678,0.274658203125,-0.400543212890625,0.2765655517578125,0.558892206383039
1781793056.798868,-0.06689453125,-0.09521484375,0.9863280653953552,0.9931685644280321,0.091552734375,-0.522613525390625,0.0324249267578125,0.5315620151666278
1781793056.809496,-0.0629882737994194,-0.087890625,0.9780272841453552,0.9839866122726775,0.396728515625,-0.400543212890625,0.0934600830078125,0.571457056670567
1781793056.820124,-0.0561523400247097,-0.08642578125,0.9897460341453552,0.9950978409490104,0.274658203125,-0.095367431640625,0.0934600830078125,0.30539623880691497
1781793056.830796,-0.0537109300494194,-0.0859375,0.9941405653953552,0.9992925405894012,0.396728515625,-0.217437744140625,0.1544952392578125,0.4780601077692098
1781793056.841467,-0.06591796875,-0.0859375,0.9755858778953552,0.9815794606954787,0.2765655517578125,0.0247955322265625,-0.1506805419921875,0.3159239601115451
1781793056.852138,-0.0498046800494194,-0.099609375,0.9980468153953552,1.004240996705236,0.335693359375,0.270843505859375,-0.2117156982421875,0.4804890977710599
1781793056.860147,-0.06396484375,-0.103515625,0.9975585341453552,1.0049527426209317,0.579833984375,0.392913818359375,-0.2765655517578125,0.7530452991109067
1781793056.868156,-0.0673828050494194,-0.09033203125,0.9824218153953552,0.9888644708203367,0.274658203125,0.270843505859375,-0.5168914794921875,0.6449574674206614
1781793056.876166,-0.0712890625,-0.09423828125,0.9794921278953552,0.986594046553117,0.3337860107421875,0.3337860107421875,-0.5168914794921875,0.7000021453581338
1781793056.884176,-0.0585937425494194,-0.099609375,0.9863280653953552,0.9930751768322388,-0.0324249267578125,0.3910064697265625,-0.6389617919921875,0.7498063795868546
1781793056.89482,-0.0610351525247097,-0.09423828125,0.9916991591453552,0.9980347517728394,0.091552734375,0.331878662109375,-0.5168914794921875,0.6210492340440252
1781793056.905464,-0.07568359375,-0.08642578125,0.9838866591453552,0.9905707345120773,0.213623046875,0.392913818359375,-0.2765655517578125,0.5258370272555991
1781793056.916108,-0.0590820275247097,-0.087890625,0.9868163466453552,0.9924827202252979,0.396728515625,0.392913818359375,0.0324249267578125,0.5593086443485469
1781793056.924179,-0.0649413987994194,-0.08642578125,0.9824218153953552,0.9883518727191261,0.152587890625,0.270843505859375,0.0324249267578125,0.31255502700617976
1781793056.932252,-0.06689453125,-0.0927734375,0.9916991591453552,0.9982730143935217,0.091552734375,0.576019287109375,-0.1506805419921875,0.602399160049706
1781793056.940325,-0.0620117150247097,-0.07958984375,0.9770507216453552,0.9822464602614583,-0.0324249267578125,0.2079010009765625,0.0934600830078125,0.23023681112744188
1781793056.948398,-0.0546874925494194,-0.09521484375,0.9848632216453552,0.990965263599763,0.396728515625,0.087738037109375,0.0324249267578125,0.4076062488984577
1781793056.958969,-0.0537109337747097,-0.09228515625,0.9829100966453552,0.9886929111500798,0.213623046875,-0.095367431640625,0.3376007080078125,0.410735914209196
1781793056.96954,-0.06689453125,-0.09912109375,0.9902343153953552,0.9974286284861997,0.1506805419921875,0.2079010009765625,0.2765655517578125,0.3773803868263682
1781793056.980111,-0.06689453125,-0.08935546875,0.9985350966453552,1.0047545060059389,0.213623046875,-0.034332275390625,0.0324249267578125,0.21878045425701462
1781793056.988548,-0.0605468712747097,-0.0791015625,0.9926757216453552,0.9976612998183424,0.5168914794921875,-0.4634857177734375,-0.0934600830078125,0.7005216622399397
1781793056.996985,-0.0654296875,-0.09912109375,0.9960936903953552,1.0031493783470047,0.518798828125,-0.400543212890625,-0.0286102294921875,0.656053073072761
1781793057.005422,-0.07080078125,-0.0849609375,0.9897460341453552,0.9959057804998162,0.4558563232421875,-0.4024505615234375,0.0934600830078125,0.6152285989989762
1781793057.013859,-0.06689453125,-0.08251953125,0.9853515028953552,0.9910610150777863,0.5168914794921875,-0.4634857177734375,0.2765655517578125,0.747318082593138
1781793057.023971,-0.0727538987994194,-0.09326171875,0.9814452528953552,0.9885472484436685,0.4558563232421875,-0.3376007080078125,0.2117156982421875,0.6054773012834082
1781793057.034083,-0.0673828050494194,-0.09521484375,0.9858397841453552,0.992716671004585,0.6389617919921875,-0.0972747802734375,0.1544952392578125,0.6645324171599469
1781793057.044195,-0.0581054612994194,-0.08447265625,0.9814452528953552,0.9867860247883412,0.091552734375,-0.095367431640625,-0.0286102294921875,0.1352604724997818
1781793057.05218,-0.07470703125,-0.08837890625,0.9707030653953552,0.9775768065763805,0.030517578125,-0.339508056640625,0.4596710205078125,0.5722713431521825
1781793057.060167,-0.0585937462747097,-0.09814453125,0.9951171278953552,1.0016604586123423,0.213623046875,-0.583648681640625,0.2765655517578125,0.6802713386260671
1781793057.068154,-0.06201171875,-0.08642578125,0.9760741591453552,0.9818531626869235,-0.091552734375,-0.339508056640625,0.2765655517578125,0.4473657654699747
1781793057.076141,-0.0615234337747097,-0.10400390625,0.9921874403953552,0.9995188153791685,0.030517578125,-0.156402587890625,0.0934600830078125,0.18473732484077862
1781793057.084158,-0.0507812462747097,-0.09765625,0.9750975966453552,0.9812903755366313,-0.0324249267578125,-0.0972747802734375,0.3376007080078125,0.35282856573677723
1781793057.092175,-0.0585937425494194,-0.08935546875,0.9936522841453552,0.9993810525764242,-0.091552734375,-0.400543212890625,-0.0286102294921875,0.4118680781462427
1781793057.100192,-0.0581054612994194,-0.0908203125,0.9770507216453552,0.9829815290549082,0.213623046875,0.087738037109375,-0.2117156982421875,0.3132990682944038
1781793057.108209,-0.0673828050494194,-0.08251953125,0.9936522841453552,0.9993471755307709,0.091552734375,0.148773193359375,0.1544952392578125,0.23320408484247016
1781793057.118956,-0.0751953125,-0.08935546875,0.9921874403953552,0.9990368620305216,0.213623046875,0.087738037109375,-0.1506805419921875,0.27574878974716077
1781793057.129704,-0.06591796875,-0.09033203125,0.9902343153953552,0.9965285012785058,0.3337860107421875,-0.1544952392578125,-0.5168914794921875,0.6343963126407143
1781793057.14045,-0.0541992112994194,-0.09033203125,0.9863280653953552,0.9919377414746221,0.1506805419921875,0.0247955322265625,-0.8220672607421875,0.8361303877611563
1781793057.148389,-0.0629882737994194,-0.0888671875,0.9809569716453552,0.9869860585996223,0.091552734375,0.026702880859375,-0.6389617919921875,0.646039564302061
1781793057.156328,-0.0771484300494194,-0.0917968675494194,0.9833983778953552,0.9906820452588164,0.4558563232421875,0.0247955322265625,-0.5168914794921875,0.6896351263022401
1781793057.164267,-0.0585937425494194,-0.09130859375,0.9858397841453552,0.9917915940167625,0.518798828125,-0.095367431640625,-0.4558563232421875,0.6971744104035147
1781793057.172206,-0.0581054612994194,-0.08837890625,0.9985350966453552,1.004121215260047,0.3337860107421875,0.0247955322265625,-0.1506805419921875,0.3670593209831915
1781793057.180251,-0.06689453125,-0.08544921875,0.9746093153953552,0.9806323291384725,0.396728515625,-0.156402587890625,-0.0934600830078125,0.4365662283373827
1781793057.188296,-0.0649413987994194,-0.1005859375,0.9809569716453552,0.9882365588867907,0.762939453125,0.087738037109375,0.3376007080078125,0.8388973777154488
1781793057.196341,-0.06396484375,-0.0732421875,0.9833983778953552,0.9881944590580151,0.6389617919921875,-0.1544952392578125,0.3948211669921875,0.7668276889134019
1781793057.204386,-0.0751953125,-0.08203125,0.9790038466453552,0.9853080699684426,0.4558563232421875,-0.0324249267578125,0.5817413330078125,0.7397833073575274
1781793057.214997,-0.0512695275247097,-0.080078125,0.9833983778953552,0.9879845343948145,0.579833984375,-0.034332275390625,0.5817413330078125,0.8220761115002625
1781793057.225608,-0.0629882737994194,-0.0908203125,0.9843749403953552,0.9905603843669437,0.3337860107421875,-0.2803802490234375,0.8831024169921875,0.9848330132093825
1781793057.236219,-0.0634765550494194,-0.08544921875,0.9921874403953552,0.997881134656936,0.885009765625,-0.339508056640625,0.6427764892578125,1.1452814592571163
1781793057.244412,-0.0629882737994194,-0.0830078125,0.9970702528953552,1.0025003285690601,0.762939453125,-0.583648681640625,0.5207061767578125,1.0926377786024295
1781793057.252605,-0.06591796875,-0.08154296875,0.9902343153953552,0.9957702715703042,0.6389617919921875,-0.4634857177734375,0.5817413330078125,0.980568284585797
1781793057.260798,-0.0698242112994194,-0.08154296875,0.9804686903953552,0.9863283069453762,0.8220672607421875,-0.2803802490234375,0.3948211669921875,0.9540919343185338
1781793057.268991,-0.0561523400247097,-0.08984375,0.9775390028953552,0.983263691430716,0.4558563232421875,0.0858306884765625,0.1544952392578125,0.48891785964267576
1781793057.279366,-0.0483398362994194,-0.09130859375,0.9960936903953552,1.001437286659277,0.274658203125,0.392913818359375,-0.0286102294921875,0.48024675161128716
1781793057.289741,-0.0678710862994194,-0.0859375,0.9858397841453552,0.9919031294766005,0.091552734375,0.026702880859375,-0.0934600830078125,0.13352802752065382
1781793057.300116,-0.0771484300494194,-0.08544921875,0.9921874403953552,0.9988440149104173,-0.0324249267578125,0.2079010009765625,-0.1506805419921875,0.25880268124068095
1781793057.31085,-0.06396484375,-0.08203125,0.9799804091453552,0.9854857835206058,-0.5207061767578125,0.3910064697265625,-0.0286102294921875,0.6517971518143993
1781793057.321586,-0.0639648362994194,-0.076171875,0.9741210341453552,0.9791861130491197,-0.640869140625,0.453948974609375,0.0934600830078125,0.7908967783915649
1781793057.332322,-0.0727538987994194,-0.083984375,0.9897460341453552,0.9959637127632288,-0.701904296875,0.331878662109375,0.3948211669921875,0.8710320558051636
1781793057.340291,-0.06640625,-0.08349609375,0.9843749403953552,0.9901390866887997,-0.335693359375,0.270843505859375,0.2117156982421875,0.4804890977710599
1781793057.348258,-0.0566406212747097,-0.091796875,0.9916991591453552,0.9975480181363479,-0.579833984375,-0.034332275390625,-0.1506805419921875,0.6000756454854211
1781793057.356225,-0.07373046875,-0.09228515625,0.9863280653953552,0.9933759533392812,-0.3376007080078125,0.5130767822265625,-0.0286102294921875,0.614850036788594
1781793057.364192,-0.0732421800494194,-0.08642578125,0.9829100966453552,0.989417045886337,-0.4596710205078125,0.6961822509765625,-0.0286102294921875,0.8347369159807675
1781793057.374854,-0.0634765550494194,-0.08349609375,0.9833983778953552,0.9889758542854656,-0.1544952392578125,0.5130767822265625,-0.2765655517578125,0.6029967394873669
1781793057.385516,-0.0561523400247097,-0.08251953125,0.9853515028953552,0.9903939330317536,0.030517578125,0.392913818359375,-0.4558563232421875,0.6025923818571266
1781793057.396178,-0.0571289025247097,-0.07958984375,0.9965819716453552,1.0013859799999054,-0.091552734375,0.209808349609375,-0.0934600830078125,0.24725742426300618
1781793057.404181,-0.0634765550494194,-0.09423828125,0.9902343153953552,0.9967317222203795,0.4558563232421875,-0.1544952392578125,-0.5168914794921875,0.7062935423496642
1781793057.412184,-0.06494140625,-0.08837890625,0.9892577528953552,0.9953186017448089,0.4558563232421875,-0.2803802490234375,-0.3337860107421875,0.630738592801736
1781793057.420187,-0.0654296875,-0.08447265625,0.9873046278953552,0.9930695352913934,0.579833984375,-0.095367431640625,-0.3948211669921875,0.7079450193051646
1781793057.42819,-0.06640625,-0.0791015625,0.9873046278953552,0.9926919338307276,0.762939453125,-0.339508056640625,-0.1506805419921875,0.8485558057038013
1781793057.438837,-0.080078125,-0.0986328125,0.9843749403953552,0.9925396521467215,0.762939453125,-0.095367431640625,-0.2765655517578125,0.8171046815258781
1781793057.449484,-0.0693359375,-0.0986328125,0.9868163466453552,0.9941541157874618,0.762939453125,-0.339508056640625,-0.2765655517578125,0.8796765508285822
1781793057.460131,-0.0678710862994194,-0.1059570237994194,0.9907225966453552,0.9986814500888705,0.762939453125,-0.278472900390625,-0.3337860107421875,0.8780870494169839
1781793057.47082,-0.07470703125,-0.08203125,0.9936522841453552,0.9998275492713895,0.7648468017578125,-0.4634857177734375,-0.0286102294921875,0.8947782887233623
1781793057.48151,-0.0698242112994194,-0.076171875,0.9887694716453552,0.9941542350573358,0.579833984375,-0.278472900390625,0.1544952392578125,0.6615310912130158
1781793057.4922,-0.0639648362994194,-0.08642578125,0.9716796278953552,0.9776104618989817,0.579833984375,-0.766754150390625,0.2765655517578125,1.0003038943223905
1781793057.502888,-0.0615234337747097,-0.08154296875,0.9843749403953552,0.9896607559837632,0.274658203125,-0.522613525390625,-0.0286102294921875,0.5910842331653474
1781793057.513577,-0.0546874962747097,-0.0771484375,0.9848632216453552,0.9893928284595335,0.518798828125,-0.339508056640625,-0.2117156982421875,0.6551652321895173
1781793057.524266,-0.0546874925494194,-0.08056640625,0.9941405653953552,0.9988979584632153,0.6389617919921875,0.1506805419921875,-0.5168914794921875,0.8355558622453375
1781793057.534905,-0.0546874925494194,-0.08154296875,0.9960936903953552,1.0009208848052598,0.518798828125,-0.217437744140625,-0.2117156982421875,0.6010448681446454
1781793057.545542,-0.0600585900247097,-0.107421875,0.9902343153953552,0.9978529414952785,0.213623046875,-0.278472900390625,-0.3337860107421875,0.484350145427158
1781793057.556179,-0.0512695275247097,-0.076171875,0.9873046278953552,0.9915649990077344,0.3337860107421875,0.0247955322265625,-0.4558563232421875,0.5655377147684033
1781793057.564232,-0.0673828050494194,-0.087890625,0.9765624403953552,0.9828221631455766,0.3337860107421875,0.2079010009765625,-0.5817413330078125,0.7021815332974423
1781793057.572286,-0.06884765625,-0.091796875,0.9746093153953552,0.9813409110427868,0.091552734375,-0.095367431640625,-0.1506805419921875,0.20045317638872168
1781793057.58034,-0.0581054612994194,-0.07666015625,0.9897460341453552,0.9944094912537548,-0.091552734375,0.087738037109375,-0.2117156982421875,0.24678614873919152
1781793057.588394,-0.0625,-0.076171875,0.9829100966453552,0.9878363541743121,-0.0324249267578125,-0.0324249267578125,-0.0934600830078125,0.10410350074001457
