timestamp,accel_x,accel_y,accel_z,accel_rms,gyro_x,gyro_y,gyro_z,gyro_rms
1782416117.021144,-0.07080078125,-0.0307617150247097,0.9799804091453552,0.9830160914479323,-0.1220703125,-0.00762939453125,-0.0019073486328125,0.12232336994036837
1782416117.03178,-0.06591796875,-0.0322265662252903,1.00048828125,1.0031752245213086,-0.1811981201171875,0.0514984130859375,0.1201629638671875,0.2234367542946316
1782416117.042416,-0.0610351525247097,-0.0395507775247097,0.9960936903953552,0.9987453098222596,0.0,-0.31280517578125,0.0553131103515625,0.3176580207901303
1782416117.050413,-0.06591796875,-0.0229492224752903,0.9824218153953552,0.9848982022427758,0.0,-0.25177001953125,0.1201629638671875,0.27897541221425415
1782416117.058412,-0.0732421800494194,-0.03662109375,0.9853515028953552,0.9887482519347243,-0.0591278076171875,-0.1316070556640625,0.1811981201171875,0.23162312809428487
1782416117.066411,-0.0781249925494194,-0.0322265625,0.9750975966453552,0.9787529763811506,-0.1220703125,-0.19073486328125,-0.0629425048828125,0.2350376739709778
1782416117.07441,-0.07568359375,-0.0253906212747097,0.9741210341453552,0.9773865556554617,0.06103515625,0.17547607421875,-0.1239776611328125,0.22335532987069875
1782416117.085071,-0.0644531175494194,-0.02490234375,0.9848632216453552,0.9872841011764296,0.0629425048828125,0.0514984130859375,0.1811981201171875,0.19861169201558967
1782416117.095732,-0.06591796875,-0.0341796837747097,0.9873046278953552,0.9900928530449308,0.18310546875,0.17547607421875,0.3032684326171875,0.395336827947343
1782416117.106393,-0.0722656175494194,-0.0263671875,0.9980468153953552,1.0010069898743312,0.06103515625,0.11444091796875,0.1201629638671875,0.17680823478938726
1782416117.117101,-0.0644531175494194,-0.041015625,0.9863280653953552,0.9892823350502747,0.0,0.17547607421875,0.0553131103515625,0.18398748000879947
1782416117.12781,-0.07421875,-0.0234375037252903,0.9897460341453552,0.9928015670509863,0.18310546875,0.17547607421875,0.1201629638671875,0.2806396322594663
1782416117.138519,-0.0654296800494194,-0.0458984375,0.9824218153953552,0.9856674555655249,-0.1220703125,-0.06866455078125,-0.0629425048828125,0.15355044984877572
1782416117.146628,-0.0639648362994194,-0.0205078125,0.9892577528953552,0.9915356636651625,0.1850128173828125,-0.1316070556640625,0.0553131103515625,0.2336871838018801
1782416117.154739,-0.0737304612994194,-0.05224609375,0.9907225966453552,0.9948352118513267,0.3662109375,-0.06866455078125,0.0553131103515625,0.376676003291136
1782416117.16285,-0.0610351525247097,-0.0297851525247097,0.9868163466453552,0.989150619047029,-0.1220703125,0.17547607421875,0.1811981201171875,0.2802245038376812
1782416117.170961,-0.0605468712747097,-0.0302734337747097,0.9838866591453552,0.9862126355192761,0.0,0.11444091796875,0.0553131103515625,0.1271072927974406
1782416117.18146,-0.0712890625,-0.0444335900247097,0.9838866591453552,0.9874661677236447,0.1239776611328125,-0.1316070556640625,0.1811981201171875,0.25597585099873943
1782416117.191959,-0.0610351525247097,-0.0239257849752903,0.9916991591453552,0.9938636502458489,0.06103515625,0.11444091796875,-0.0019073486328125,0.12971373089538044
1782416117.202458,-0.0776367112994194,-0.03466796875,0.9829100966453552,0.9865807544676827,0.1239776611328125,-0.2536773681640625,-0.0629425048828125,0.2892826066315268
1782416117.213101,-0.0644531175494194,-0.03515625,0.9799804091453552,0.9827267008607223,-0.0591278076171875,-0.0057220458984375,-0.2498626708984375,0.25682716708202785
1782416117.223743,-0.0634765625,-0.0434570275247097,0.9843749403953552,0.9873762254107898,0.06103515625,-0.06866455078125,0.1201629638671875,0.1512588797981784
1782416117.234385,-0.0625,-0.03271484375,0.9897460341453552,0.9922568836284511,0.06103515625,0.17547607421875,-0.0629425048828125,0.19616039825257556
1782416117.242399,-0.0776367112994194,-0.0458984375,0.9921874403953552,0.9962780949035351,0.06103515625,-0.19073486328125,-0.3070831298828125,0.3666130480874942
1782416117.250412,-0.0673828050494194,-0.0380859375,0.9882811903953552,0.9913075669744694,0.06103515625,0.11444091796875,0.0553131103515625,0.14100196516629196
1782416117.258425,-0.0537109300494194,-0.0234375,0.9975585341453552,0.9992783443361781,0.0,0.05340576171875,-0.0019073486328125,0.053439810661780926
1782416117.266438,-0.0629882737994194,-0.029296875,0.9999999403953552,1.0024099512234055,-0.1811981201171875,0.0514984130859375,-0.0629425048828125,0.19861169201558967
1782416117.277204,-0.06640625,-0.0239257849752903,0.9804686903953552,0.9830061475246883,0.06103515625,0.17547607421875,-0.1239776611328125,0.22335532987069875
1782416117.28797,-0.0561523400247097,-0.0307617150247097,0.9946288466453552,0.9966874690596755,0.0629425048828125,-0.1316070556640625,-0.0629425048828125,0.15888340046212945
1782416117.298736,-0.0595703087747097,-0.0288085974752903,0.9877929091453552,0.9900067617616819,0.0,-0.00762939453125,-0.0629425048828125,0.0634032064002787
1782416117.309313,-0.0776367112994194,-0.02685546875,0.9951171278953552,0.9985022650819939,0.0,0.11444091796875,-0.0019073486328125,0.11445681143705366
1782416117.319889,-0.0654296875,-0.0249023400247097,0.9931640028953552,0.995628398144699,0.1239776611328125,-0.0057220458984375,-0.3681182861328125,0.38847686527589453
1782416117.330465,-0.07373046875,-0.0336914025247097,0.9838866591453552,0.9872204671046813,-0.0591278076171875,-0.2536773681640625,-0.0629425048828125,0.26797399812889183
1782416117.338434,-0.0703124925494194,-0.02685546875,0.9799804091453552,0.9828665550922934,-0.125885009765625,-0.316619873046875,0.1354217529296875,0.366652738784889
1782416117.346404,-0.0688476487994194,-0.03173828125,0.9873046278953552,0.9902109601016836,-0.0057220458984375,-0.0133514404296875,-0.1087188720703125,0.10968498491157436
1782416117.354374,-0.06689453125,-0.0302734337747097,0.9980468153953552,1.0007441255508218,-0.064849853515625,-0.011444091796875,0.0743865966796875,0.09934705080494245
1782416117.362344,-0.0703125,-0.0283203162252903,1.00146484375,1.0043294883824543,0.179290771484375,-0.133514404296875,-0.1697540283203125,0.28069148014356476
1782416117.373036,-0.0688476487994194,-0.04248046875,0.9858397841453552,0.9891535113288475,-0.003814697265625,0.232696533203125,0.0743865966796875,0.24432681851480798
1782416117.383728,-0.0712890625,-0.0307617150247097,0.9873046278953552,0.9903528875138277,0.118255615234375,0.049591064453125,0.0095367431640625,0.12858698875948466
1782416117.39442,-0.0615234337747097,-0.0273437537252903,0.9843749403953552,0.9866746358600588,-0.125885009765625,0.049591064453125,0.0743865966796875,0.15440102047224946
1782416117.405069,-0.0522460900247097,-0.0346679650247097,0.9868163466453552,0.988806363110751,0.240325927734375,-0.194549560546875,0.0743865966796875,0.3180242896634732
1782416117.415717,-0.0654296875,-0.0297851525247097,0.9858397841453552,0.9884575252994073,-0.1888275146484375,0.1697540283203125,-0.0476837158203125,0.25835246693947334
1782416117.426365,-0.0615234337747097,-0.0356445275247097,0.9921874403953552,0.9947319147007285,-0.0057220458984375,0.1697540283203125,0.0743865966796875,0.18542528874407552
1782416117.434373,-0.0688476487994194,-0.037109375,0.9824218153953552,0.9855301760082257,-0.1277923583984375,-0.0133514404296875,0.1354217529296875,0.18667672322261156
1782416117.442382,-0.0654296875,-0.0424804724752903,0.9819335341453552,0.9850274615599602,0.057220458984375,0.232696533203125,-0.1697540283203125,0.29366356195842386
1782416117.450391,-0.0732421800494194,-0.0361328125,0.9775390028953552,0.9809446973500581,-0.125885009765625,-0.072479248046875,0.0095367431640625,0.14557206652139423
1782416117.4584,-0.06982421875,-0.0395507775247097,0.9970702528953552,1.0002943440486227,0.3032684326171875,-0.0133514404296875,0.2574920654296875,0.3980605066354606
1782416117.469077,-0.06494140625,-0.0278320349752903,0.9882811903953552,0.9908035727155275,-0.1888275146484375,0.1125335693359375,-0.2956390380859375,0.3684047710822575
1782416117.479754,-0.0678710862994194,-0.0302734375,0.9936522841453552,0.9964275323177353,-0.003814697265625,0.049591064453125,0.0095367431640625,0.050643608273894324
1782416117.490431,-0.0673828050494194,-0.02978515625,0.9809569716453552,0.9837195627661326,0.118255615234375,0.232696533203125,0.0095367431640625,0.26119536092624407
1782416117.49841,-0.06982421875,-0.0488281212747097,0.9843749403953552,0.9880554793277677,0.057220458984375,-0.011444091796875,0.2574920654296875,0.26402142322676075
1782416117.506387,-0.06494140625,-0.0332031287252903,0.9946288466453552,0.9972995420544147,0.240325927734375,0.110626220703125,0.1354217529296875,0.29720996520136045
1782416117.514364,-0.0561523400247097,-0.0258789025247097,0.9956054091453552,0.9975234000291042,-0.3108978271484375,-0.0133514404296875,-0.1697540283203125,0.35447447019234074
1782416117.522341,-0.0810546875,-0.0375976599752903,1.00390625,1.007874597948774,-0.370025634765625,-0.072479248046875,0.0743865966796875,0.3843248333724099
1782416117.533023,-0.07666015625,-0.0351562462747097,0.9965819716453552,1.0001441733155005,-0.0057220458984375,-0.0705718994140625,-0.1087188720703125,0.12974177407609838
1782416117.543705,-0.0644531175494194,-0.03076171875,0.9956054091453552,0.9981636230707787,0.179290771484375,0.049591064453125,-0.0476837158203125,0.1920369526093577
1782416117.554387,-0.04248046875,-0.03515625,0.9897460341453552,0.9912808705133681,-0.064849853515625,0.110626220703125,0.1354217529296875,0.1865012476489202
1782416117.565067,-0.0649413987994194,-0.03076171875,1.00341796875,1.0059877179314145,-0.003814697265625,0.049591064453125,0.3185272216796875,0.3223870601308358
1782416117.575747,-0.0629882737994194,-0.0419921875,0.9941405653953552,0.9970187210939734,0.0553131103515625,-0.1964569091796875,-0.1087188720703125,0.23124586587751378
1782416117.586427,-0.0810546875,-0.0302734337747097,0.9833983778953552,0.9871974031597988,-0.1888275146484375,-0.1354217529296875,0.1926422119140625,0.30183754449371897
1782416117.594422,-0.0751953125,-0.0244140587747097,0.9824218153953552,0.9855977905071283,0.118255615234375,-0.011444091796875,0.0743865966796875,0.1401739046224451
1782416117.602417,-0.0624999962747097,-0.0336914025247097,0.9926757216453552,0.9952117606231086,0.057220458984375,0.049591064453125,0.1354217529296875,0.15515316872860144
1782416117.610412,-0.0693359375,-0.0336914025247097,0.9951171278953552,0.9980985327430286,-0.064849853515625,0.110626220703125,-0.0476837158203125,0.13681155273765028
1782416117.618407,-0.0615234375,-0.03076171875,0.9790038466453552,0.9814173161548928,0.118255615234375,-0.072479248046875,0.0743865966796875,0.15738804814053536
1782416117.629078,-0.06640625,-0.0351562462747097,0.9956054091453552,0.9984367192820388,-0.0057220458984375,-0.1354217529296875,-0.0476837158203125,0.14368552373237004
1782416117.639749,-0.0688476487994194,-0.0341796875,0.9858397841453552,0.9888318005538487,-0.064849853515625,0.354766845703125,0.0095367431640625,0.36077135110942526
1782416117.65042,-0.0742187425494194,-0.03662109375,0.9863280653953552,0.9897942103485994,0.057220458984375,-0.255584716796875,0.0743865966796875,0.2722702593969966
1782416117.661077,-0.068359375,-0.0385742150247097,0.9814452528953552,0.9845789753219347,-0.125885009765625,-0.133514404296875,-0.1087188720703125,0.21329070533589098
1782416117.671735,-0.06591796875,-0.0351562462747097,0.9873046278953552,0.9901270466560541,-0.125885009765625,0.171661376953125,-0.0476837158203125,0.21814765819409268
1782416117.682393,-0.06640625,-0.0424804724752903,0.9887694716453552,0.9919069757989513,-0.125885009765625,0.110626220703125,0.0095367431640625,0.16785751654580536
1782416117.690396,-0.0683593675494194,-0.03662109375,0.9799804091453552,0.983044103765391,0.118255615234375,-0.072479248046875,-0.0476837158203125,0.14666754476138646
1782416117.6984,-0.0634765550494194,-0.0341796875,0.9902343153953552,0.9928552379199334,-0.064849853515625,-0.011444091796875,-0.1087188720703125,0.1271072927974406
1782416117.706404,-0.0610351525247097,-0.0322265662252903,0.9936522841453552,0.9960465366646627,-0.064849853515625,-0.011444091796875,-0.0476837158203125,0.08130318254832121
1782416117.714408,-0.0595703087747097,-0.0341796837747097,0.9843749403953552,0.9867679036880013,0.118255615234375,-0.011444091796875,0.2574920654296875,0.28357983272927273
1782416117.72507,-0.06494140625,-0.0327148474752903,0.9892577528953552,0.9919266853727783,0.1773834228515625,0.2918243408203125,0.0095367431640625,0.3416390991498535
1782416117.735732,-0.0732421800494194,-0.0341796875,0.9946288466453552,0.997907415823261,-0.247955322265625,0.171661376953125,0.0743865966796875,0.31061686358419005
1782416117.746394,-0.0576171837747097,-0.0390624962747097,0.9829100966453552,0.9853719483366278,0.057220458984375,-0.011444091796875,0.1926422119140625,0.2012862885906052
1782416117.757075,-0.0620117150247097,-0.014160159975290298,1.0029296875,1.0049447352962646,0.179290771484375,0.049591064453125,0.0743865966796875,0.2003442541692745
1782416117.767757,-0.06591796875,-0.0322265662252903,0.9892577528953552,0.9919751165419255,-0.003814697265625,0.049591064453125,0.2574920654296875,0.2622517671018993
1782416117.778439,-0.0600585900247097,-0.0346679650247097,0.9882811903953552,0.9907111654382275,0.240325927734375,0.049591064453125,-0.0476837158203125,0.24997912306713604
1782416117.789142,-0.0722656175494194,-0.03466796875,0.9882811903953552,0.9915260454603854,-0.125885009765625,0.354766845703125,-0.0476837158203125,0.3794473445002201
1782416117.799846,-0.06591796875,-0.0190429724752903,0.9956054091453552,0.997966905325177,-0.064849853515625,-0.255584716796875,0.1354217529296875,0.2964255422997252
1782416117.81055,-0.07177734375,-0.04150390625,0.9799804091453552,0.9834816539308257,-0.064849853515625,-0.194549560546875,0.1354217529296875,0.24575208275115296
1782416117.81854,-0.0781249925494194,-0.0263671875,0.9907225966453552,0.9941478796141056,-0.1888275146484375,-0.1354217529296875,0.0095367431640625,0.23256360619201039
1782416117.826529,-0.0742187425494194,-0.0361328125,0.9936522841453552,0.9970751544753579,-0.0057220458984375,-0.1354217529296875,0.0095367431640625,0.13587767456793792
1782416117.834518,-0.0786132737994194,-0.03515625,0.9882811903953552,0.9920260682163474,0.0553131103515625,-0.1964569091796875,-0.1087188720703125,0.23124586587751378
1782416117.842507,-0.0678710862994194,-0.04248046875,0.9936522841453552,0.9968730793676619,0.057220458984375,-0.133514404296875,-0.2956390380859375,0.329397507460986
1782416117.853135,-0.0751953125,-0.0332031287252903,1.0029296875,1.006292572191591,0.1773834228515625,-0.0133514404296875,0.2574920654296875,0.31296214375436876
1782416117.863763,-0.0561523400247097,-0.0356445275247097,0.9907225966453552,0.9929526076990913,0.3032684326171875,0.2918243408203125,0.2574920654296875,0.4933916820098835
1782416117.874391,-0.0698242112994194,-0.01708984375,0.9980468153953552,1.000632264602634,0.118255615234375,0.049591064453125,0.2574920654296875,0.28765574558367685
1782416117.885076,-0.0615234375,-0.03173828125,0.9951171278953552,0.997522205311351,-0.003814697265625,-0.255584716796875,-0.1087188720703125,0.2777730953847189
1782416117.895762,-0.07177734375,-0.0302734337747097,0.9999999403953552,1.0030295851364661,0.240325927734375,-0.072479248046875,0.2574920654296875,0.35959971732201756
1782416117.906448,-0.0625,-0.03271484375,0.9916991591453552,0.9942050760538248,0.240325927734375,0.049591064453125,-0.2307891845703125,0.33686714433083526
1782416117.917102,-0.0678710862994194,-0.0302734375,0.9956054091453552,0.998375228104654,0.057220458984375,-0.011444091796875,0.1354217529296875,0.14745914461296447
1782416117.927757,-0.0751953125,-0.0546874962747097,0.9897460341453552,0.9941037518172978,-0.125885009765625,0.354766845703125,-0.4787445068359375,0.6090179417056787
1782416117.938412,-0.06591796875,-0.0239257849752903,0.9858397841453552,0.9883307653789648,0.118255615234375,0.049591064453125,0.0095367431640625,0.12858698875948466
1782416117.946403,-0.06982421875,-0.0375976599752903,0.9838866591453552,0.9870774861194402,-0.064849853515625,-0.072479248046875,0.0743865966796875,0.12244227482379176
1782416117.954394,-0.0678710862994194,-0.02392578125,0.9814452528953552,0.9840801348440653,-0.0057220458984375,-0.1354217529296875,-0.1087188720703125,0.1737572620642203
1782416117.962385,-0.0683593675494194,-0.0322265625,0.9833983778953552,0.9862980908982532,0.057220458984375,0.232696533203125,-0.2307891845703125,0.3326943119528276
1782416117.970376,-0.06201171875,-0.0322265625,0.9897460341453552,0.9922102683904023,0.057220458984375,0.110626220703125,-0.0476837158203125,0.13336445698862717
1782416117.98106,-0.0610351525247097,-0.0351562462747097,0.9985350966453552,1.0010162789527408,0.118255615234375,0.049591064453125,-0.0476837158203125,0.13681155273765028
1782416117.991744,-0.0688476487994194,-0.03564453125,0.9887694716453552,0.9918042142535367,-0.064849853515625,0.110626220703125,0.1354217529296875,0.1865012476489202
1782416118.002428,-0.0581054612994194,-0.029296875,0.9999999403953552,1.0021149795848268,0.301361083984375,0.049591064453125,0.0095367431640625,0.3055629658253906
1782416118.010435,-0.0512695275247097,-0.0576171912252903,1.0166015625,1.01952294827274,0.118255615234375,0.415802001953125,-0.1087188720703125,0.44575272125577436
1782416118.018442,-0.0810546875,-0.0502929650247097,0.9624022841453552,0.9671180906305581,-0.370025634765625,-0.133514404296875,-0.1697540283203125,0.42844077381760315
1782416118.026449,-0.0346679650247097,0.011718746274709702,0.9511718153953552,0.9518755271650287,-2.994537353515625,-0.316619873046875,-0.1087188720703125,3.0131913146617197
1782416118.034456,-0.0512695275247097,-0.0546874962747097,0.9970702528953552,0.9998841812481138,-3.3016204833984375,-0.1354217529296875,-1.2073516845703125,3.5180584073885774
1782416118.045102,-0.09033203125,-0.0830078125,1.0068359375,1.0142823955128522,-0.064849853515625,-0.011444091796875,-1.0242462158203125,1.0263609410730143
1782416118.055748,-0.0888671800494194,-0.0380859375,0.9892577528953552,0.9939712349906095,1.9474029541015625,-0.3185272216796875,0.6237030029296875,2.069503151110909
1782416118.066394,-0.0600585862994194,-0.02587890625,0.9824218153953552,0.9845960465803661,2.1305084228515625,-0.3795623779296875,1.1692047119140625,2.459710022938301
1782416118.074487,-0.0600585900247097,-0.0541992150247097,0.9936522841453552,0.996940043800194,0.9708404541015625,-0.1354217529296875,1.1119842529296875,1.4823559684671805
1782416118.082578,-0.06982421875,-0.0336914025247097,0.9965819716453552,0.9995929963423481,0.8487701416015625,0.2918243408203125,-0.1697540283203125,0.913448755705825
1782416118.090669,-0.08056640625,-0.009277347475290298,0.9819335341453552,0.9852768547324172,0.728607177734375,-0.255584716796875,-0.4138946533203125,0.876071201988361
1782416118.09876,-0.06689453125,-0.0175781287252903,0.9995116591453552,1.0019019042242314,-0.6771087646484375,-0.1354217529296875,0.3757476806640625,0.7861308096332981
1782416118.10946,-0.0615234375,-0.03076171875,0.9946288466453552,0.9970044931099057,-1.712799072265625,-0.072479248046875,0.0743865966796875,1.7159450076028115
1782416118.12016,-0.0639648362994194,-0.0419921875,0.9897460341453552,0.9926993785634729,-1.8329620361328125,0.4749298095703125,-0.4138946533203125,1.9381994051102638
1782416118.13086,-0.07080078125,-0.0434570275247097,1.005859375,1.00928407603721,-0.8563995361328125,-0.1964569091796875,-0.5359649658203125,1.029210341591893
1782416118.141365,-0.0659179612994194,-0.03125,0.9916991591453552,0.9943786815753224,1.094818115234375,-0.133514404296875,0.3757476806640625,1.1651777208325436
1782416118.151872,-0.0654296875,-0.0195312462747097,0.9897460341453552,0.9920986471585624,0.484466552734375,0.049591064453125,0.5626678466796875,0.744152014093276
1782416118.162379,-0.0625,-0.0263671875,0.9907225966453552,0.9930421653083898,0.240325927734375,0.049591064453125,-0.0476837158203125,0.24997912306713604
1782416118.173105,-0.07177734375,-0.0229492224752903,0.9887694716453552,0.9916368901699154,0.789642333984375,-0.072479248046875,-0.4138946533203125,0.8944814369593554
1782416118.18383,-0.07177734375,-0.0341796837747097,0.9814452528953552,0.9846598510600362,-0.1888275146484375,-0.0133514404296875,-0.0476837158203125,0.1952122639699814
1782416118.194555,-0.0703125,-0.0322265662252903,0.9765624403953552,0.979620640461324,-0.247955322265625,-0.011444091796875,0.3185272216796875,0.403822238154223
1782416118.202512,-0.0727538987994194,-0.03271484375,0.9877929091453552,0.9910086892403855,-0.370025634765625,0.049591064453125,-0.2956390380859375,0.4762149566085426
1782416118.210469,-0.0654296800494194,-0.041015625,0.9853515028953552,0.9883728591901162,0.057220458984375,0.110626220703125,-0.4138946533203125,0.43222809450633903
1782416118.218426,-0.0649413987994194,-0.0166015625,0.9907225966453552,0.9929875430533768,-0.003814697265625,0.232696533203125,-0.0476837158203125,0.23756255015135222
1782416118.226383,-0.0541992112994194,-0.03271484375,1.0009765625,1.0029765172631822,0.240325927734375,0.110626220703125,0.3185272216796875,0.4140704085049128
1782416118.234384,-0.07470703125,-0.0439453087747097,0.9975585341453552,1.0013168128657997,0.1773834228515625,-0.0133514404296875,0.0743865966796875,0.19281209876371921
1782416118.242385,-0.0703125,-0.0302734337747097,0.9897460341453552,0.9927021409039171,0.423431396484375,0.110626220703125,-0.2956390380859375,0.5281427355139355
1782416118.250386,-0.0576171837747097,-0.0336914025247097,0.9838866591453552,0.986147964817866,0.423431396484375,0.049591064453125,-0.1697540283203125,0.4588789070476823
1782416118.258387,-0.0639648362994194,-0.04150390625,0.9926757216453552,0.995599900994846,0.728607177734375,0.232696533203125,0.1926422119140625,0.7887503520265121
1782416118.269043,-0.0727538987994194,-0.0400390625,0.9892577528953552,0.9927372048936026,0.911712646484375,-0.011444091796875,0.6237030029296875,1.1046974033010615
1782416118.279699,-0.0624999962747097,-0.0283203162252903,0.9809569716453552,0.9833538885188106,0.6656646728515625,-0.0133514404296875,0.2574920654296875,0.7138556446532952
1782416118.290355,-0.07080078125,-0.0322265662252903,0.9921874403953552,0.9952322437876346,0.3032684326171875,-0.0133514404296875,-0.1697540283203125,0.3478022905539964
1782416118.30101,-0.0678710862994194,-0.02490234375,0.9926757216453552,0.995304827388993,-0.1888275146484375,-0.2536773681640625,0.0095367431640625,0.3163842392995082
1782416118.311665,-0.080078125,-0.0297851525247097,0.9892577528953552,0.9929403622967512,-0.6771087646484375,0.1125335693359375,-0.1087188720703125,0.6949531470073794
1782416118.32232,-0.06591796875,-0.0302734337747097,0.9829100966453552,0.9855830342918953,-1.041412353515625,0.110626220703125,-0.1087188720703125,1.0528996361981757
1782416118.330323,-0.07080078125,-0.015136715024709702,0.9936522841453552,0.9962864711289777,-1.529693603515625,0.171661376953125,-0.1697540283203125,1.5486273209216717
1782416118.338326,-0.0644531175494194,-0.0400390625,0.9897460341453552,0.9926502621740332,-0.9822845458984375,-0.0133514404296875,-0.7190704345703125,1.217424938115523
1782416118.346329,-0.0532226487994194,-0.048828125,0.9809569716453552,0.9836124319852144,-0.553131103515625,-0.011444091796875,-0.4138946533203125,0.6909368776962264
1782416118.354332,-0.0629882737994194,-0.0322265625,0.9907225966453552,0.9932458595285018,0.728607177734375,-0.194549560546875,0.1354217529296875,0.7661964513893174
1782416118.365021,-0.0712890625,-0.0380859412252903,0.9931640028953552,0.9964473924890718,1.4591217041015625,-0.0133514404296875,0.2574920654296875,1.4817275633870897
1782416118.37571,-0.0532226487994194,-0.03369140625,0.9912108778953552,0.9932103330404943,1.705169677734375,0.110626220703125,0.5626678466796875,1.7990099766980074
1782416118.386399,-0.0786132737994194,-0.0146484375,0.9921874403953552,0.9954047118719804,1.277923583984375,0.110626220703125,0.1926422119140625,1.2970882271540625
1782416118.394383,-0.06640625,-0.0249023400247097,0.9824218153953552,0.9849784464354914,-0.736236572265625,0.171661376953125,0.0743865966796875,0.7596349678921227
1782416118.40237,-0.06494140625,-0.0244140587747097,0.9853515028953552,0.9877909782791691,-1.590728759765625,0.110626220703125,-0.4138946533203125,1.6474115854575266
1782416118.410357,-0.1347656100988388,0.0927734375,0.8237304091453552,0.8398216878133435,1.705169677734375,-11.241912841796875,0.0095367431640625,11.370501260801673
1782416118.418344,0.21923828125,-0.29443359375,1.10498046875,1.1643618000488354,27.338027954101562,-10.755538940429688,16.675949096679688,33.78071444764586
1782416118.429025,-0.28564453125,-0.123046875,0.9736327528953552,1.0221027684097552,34.420013427734375,-7.640838623046875,13.620376586914062,37.797280293669495
1782416118.439706,-0.0561523400247097,0.07568359375,0.8920897841453552,0.8970536631827953,8.541107177734375,9.387969970703125,15.150070190429688,19.76383360503006
1782416118.450387,0.02001953125,0.216796875,0.53076171875,0.5736808073586648,-4.154205322265625,0.843048095703125,16.981124877929688,17.502192836072034
1782416118.458416,-0.095703125,0.17138671875,0.9111327528953552,0.9320382979777846,-4.154205322265625,6.946563720703125,14.596939086914062,16.690799863769513
1782416118.466445,0.0361328162252903,0.0244140587747097,1.1279296875,1.1287723449031135,1.399993896484375,5.115509033203125,14.844894409179688,15.763860745346319
1782416118.474474,-0.0419921837747097,-0.0039062537252902985,0.9843749403953552,0.9852779433209161,2.8018951416015625,12.071609497070312,5.6896209716796875,13.636207648597388
1782416118.482503,-0.2978515625,0.0590820275247097,0.7109375,0.7730707394322799,0.606536865234375,13.294219970703125,-9.634017944335938,16.429195760904335
1782416118.493107,0.1005859375,-0.19677734375,1.099609375,1.1215969112938704,-17.034530639648438,-15.394210815429688,-9.447097778320312,24.827497199197474
1782416118.503711,-0.0380859375,-0.02197265625,1.0029296875,1.0038930691696115,-2.384185791015625,-0.499725341796875,5.2013397216796875,5.743518277470503
1782416118.514315,-0.0893554612994194,-0.04248046875,0.9165038466453552,0.92182877455902,3.047943115234375,-4.222869873046875,-1.2073516845703125,5.346053244088234
1782416118.522475,-0.0400390550494194,-0.04638671875,1.07470703125,1.076452533381677,-0.797271728515625,1.880645751953125,-1.6956329345703125,2.654739479163475
1782416118.530635,-0.0595703087747097,0.0048828087747097015,0.9941405653953552,0.9959357043874073,-0.1888275146484375,1.2073516845703125,-5.9680938720703125,6.091920746888151
1782416118.538795,-0.0937499925494194,-0.04736328125,0.9541015028953552,0.9598656256690091,-0.370025634765625,0.171661376953125,0.2574920654296875,0.48237823591077683
1782416118.546955,-0.0595703087747097,-0.0195312462747097,0.9824218153953552,0.984419988944385,1.277923583984375,-0.621795654296875,4.0988922119140625,4.338275681315758
1782416118.557432,-0.0649413987994194,-0.0361328125,1.00537109375,1.0081140816223413,1.522064208984375,-0.621795654296875,3.0040740966796875,3.424583254983822
1782416118.567909,0.6240234375,0.4492187201976776,1.02197265625,1.2789178313120966,-3.7899017333984375,-0.8068084716796875,2.0885467529296875,4.401854449884018
1782416118.578386,0.81982421875,0.27001953125,0.9770507216453552,1.30370641233877,-4.032135009765625,-2.208709716796875,40.54069519042969,40.80054506833676
1782416118.589098,0.49658203125,-0.9287109375,1.36376953125,1.7230684993807848,-5.680084228515625,-3.246307373046875,38.21754455566406,38.77347779433125
1782416118.599813,0.05517578125,0.126953125,1.14453125,1.1528717383171365,1.5201568603515625,2.4280548095703125,29.127120971679688,29.267652846397063
1782416118.610528,0.22021484375,-0.0590820275247097,1.28125,1.3013788172105258,-2.445220947265625,9.082794189453125,22.653579711914062,24.528777579262986
1782416118.621141,-0.4931640326976776,0.1586913913488388,0.56640625,0.7676000005692606,3.5953521728515625,2.4890899658203125,-19.762039184570312,20.240067164840838
1782416118.631752,-0.7080078125,-0.64404296875,0.8901366591453552,1.307061467610381,-14.835357666015625,31.116485595703125,-1.0242462158203125,34.48728161535541
1782416118.642363,-0.77978515625,0.1010742112994194,0.525390625,0.9456829251580717,-35.89439392089844,22.569656372070312,13.132095336914062,44.38748507901484
1782416118.650357,0.123046875,0.27392578125,0.56005859375,0.6354852441354685,-66.71524047851562,20.679473876953125,-7.9860687255859375,70.30178693051506
1782416118.658354,0.0317382849752903,-0.12646484375,1.38671875,1.392835082498803,-113.71231079101562,21.350860595703125,6.5441131591796875,115.88431425628676
1782416118.666351,-0.0893554612994194,0.03271484375,0.751953125,0.7579499730608112,-125.37002563476562,33.496856689453125,8.619308471679688,130.0537397165707
1782416118.674348,-0.0610351525247097,-0.26123046875,1.37158203125,1.3975707195326237,-112.73384094238281,45.03059387207031,0.9860992431640625,121.39870538770656
1782416118.685028,-0.4858398139476776,-0.17333984375,1.1328125,1.2447293627147382,-104.00962829589844,67.67463684082031,13.437271118164062,124.81353894866902
1782416118.695708,-0.32275390625,-0.3740234375,1.25146484375,1.3454470896104247,-87.71133422851562,87.81814575195312,0.1354217529296875,124.11818244926415
1782416118.706388,-0.2998046875,-0.2060546875,1.30126953125,1.351163860472626,-73.97842407226562,107.41043090820312,4.6520233154296875,130.50459462037782
1782416118.714386,-0.4628905951976776,-0.41796875,1.35693359375,1.493396918754794,-74.03945922851562,127.36892700195312,19.056320190429688,148.55244335816246
1782416118.722384,-0.4057616889476776,-0.35791015625,1.4912109375,1.5863329689205228,-79.65469360351562,134.20486450195312,24.911880493164062,158.03929150297796
1782416118.730382,-0.4589843451976776,-0.439453125,1.6977537870407104,1.8127751100508525,-86.97891235351562,125.35476684570312,34.68132019042969,156.46706597649313
1782416118.73838,-0.52490234375,-0.5107421875,1.8676756620407104,2.0061386869171667,-88.07754516601562,108.93630981445312,40.65895080566406,145.8695439050916
1782416118.749132,-0.53125,-0.52392578125,2.0107421875,2.144716515381627,-74.22447204589844,83.54377746582031,38.21754455566406,118.10764461124026
1782416118.759884,-0.6220703125,-0.5576171875,2.1279296875,2.2860431221727,-53.592681884765625,41.553497314453125,31.080245971679688,74.59792477223519
1782416118.770636,-0.63427734375,-0.59423828125,2.14111328125,2.310799205219409,-24.358749389648438,-11.976242065429688,14.291763305664062,30.67627005068562
1782416118.778573,-0.57666015625,-0.65478515625,2.06591796875,2.24260954922067,24.288177490234375,-126.11007690429688,-32.76252746582031,132.54074946428148
1782416118.786508,-0.4340820014476776,-0.6689453125,1.9658201932907104,2.1214061486302125,35.030364990234375,-171.58126831054688,-60.71662902832031,185.34769258603566
1782416118.794443,-0.38037109375,-0.685546875,1.8364256620407104,1.9967763768095061,38.204193115234375,-207.04269409179688,-88.06037902832031,228.21233074263742
1782416118.802378,-0.3486328125,-0.66796875,1.7480467557907104,1.9035216177807517,37.715911865234375,-236.94992065429688,-113.93928527832031,265.61234089484276
1782416118.813034,-0.3959960639476776,-0.57373046875,1.61767578125,1.7614921137140938,37.288665771484375,-261.0588073730469,-135.6678009033203,296.5601080792864
1782416118.82369,-0.51953125,-0.46728515625,1.4267578125,1.5886805822782422,33.504486083984375,-283.2145690917969,-152.0252227783203,323.17906970347263
1782416118.834346,-0.51953125,-0.404296875,1.30712890625,1.4635418205215898,30.817031860351562,-291.57830810546875,-158.07151794433594,333.0978895093094
1782416118.845026,-0.4726562201976776,-0.23828125,0.9863280653953552,1.119385951841304,24.896621704101562,-298.78045654296875,-162.0960235595703,340.8294644512513
1782416118.855704,-0.42236328125,-0.1806640625,0.8911132216453552,1.0025532497670309,18.795013427734375,-291.7594909667969,-155.8704376220703,331.31925151347434
1782416118.866382,-0.30419921875,-0.09033203125,0.8388671278953552,0.8968807606484062,17.086029052734375,-271.1906433105469,-148.06175231933594,309.4488324551436
1782416118.877041,-0.32568359375,-0.10400390625,0.7587890625,0.8322544425371382,29.781341552734375,-216.56417846679688,-114.67170715332031,246.85334132058273
1782416118.8877,-0.306640625,-0.07080078125,0.6748046875,0.7445821578563199,39.241790771484375,-181.04171752929688,-90.99006652832031,206.386079559012
1782416118.898359,-0.1088867112994194,-0.02734375,0.6435546875,0.653273780558265,45.955657958984375,-136.73019409179688,-61.44905090332031,156.78984128999704
1782416118.906359,0.08544921875,-0.13330078125,0.51611328125,0.5398551531193226,50.10414123535156,-94.37370300292969,-33.80012512207031,112.06814554406103
1782416118.91436,0.0507812537252903,-0.185546875,0.50439453125,0.539833512952915,45.40443420410156,-56.53190612792969,-13.841629028320312,73.81740817726725
1782416118.922361,0.0419921912252903,-0.162109375,0.4711913764476776,0.5000641027162908,44.979095458984375,-24.486541748046875,-1.3904571533203125,51.23127097957351
1782416118.930362,0.0620117224752903,-0.13134765625,0.4355468451976776,0.45912821181928076,42.59681701660156,6.5174102783203125,3.8585662841796875,43.264927949220024
1782416118.941047,0.037109375,-0.1640625,0.4550780951976776,0.4851697459115594,33.321380615234375,31.970977783203125,4.7130584716796875,46.41843110960189
1782416118.951732,-0.0395507737994194,-0.2275390625,0.4868163764476776,0.5388213739720787,20.015716552734375,48.389434814453125,4.1637420654296875,52.5309723760092
1782416118.962417,-0.0205078087747097,-0.2314452975988388,0.50732421875,0.558001217679364,11.226654052734375,57.361602783203125,-1.1463165283203125,58.46114330613843
1782416118.973059,-0.0034179650247097015,-0.1865234375,0.50390625,0.5373306095978425,1.827239990234375,64.80789184570312,-15.306472778320312,66.61598727317434
1782416118.983699,0.13623046875,-0.1552734375,0.59326171875,0.628194275637016,3.658294677734375,73.78005981445312,-23.851394653320312,77.62582929078347
1782416118.994339,0.18408203125,-0.1611328125,0.6728515625,0.715946368558412,9.700775146484375,83.60671997070312,-26.781082153320312,88.3256192959048
1782416119.002363,0.234375,-0.18310546875,0.8461913466453552,0.8969387094158869,21.541595458984375,94.10476684570312,-27.879714965820312,100.48395884208617
1782416119.010389,0.357421875,-0.10009765625,0.8764647841453552,0.9518195497898868,36.128997802734375,107.34939575195312,-27.391433715820312,116.53105977183772
1782416119.018415,0.30322265625,-0.10986328125,0.8979491591453552,0.9541103773883673,48.763275146484375,120.77713012695312,-23.668289184570312,132.38262755225534
1782416119.026441,0.1982421875,-0.1044921875,0.8950194716453552,0.9226475149143638,62.862396240234375,126.94168090820312,-26.174545288085938,144.05199767411196
1782416119.037165,0.03515625,-0.0791015625,0.8588866591453552,0.8632376916943986,72.20077514648438,124.07302856445312,-23.790359497070312,145.50962014213576
1782416119.047889,-0.0620117150247097,-0.0190429724752903,0.8203124403953552,0.8228733726815953,75.31356811523438,114.18533325195312,-19.823074340820312,138.2149707825796
1782416119.058613,-0.1303710788488388,0.0541992150247097,0.77783203125,0.790542119022134,72.20268249511719,99.22981262207031,-15.371322631835938,123.67724379187094
1782416119.066572,-0.2187499850988388,0.123046875,0.69873046875,0.7424394637865114,55.233001708984375,53.455352783203125,-0.5359649658203125,76.86641969941074
1782416119.074533,-0.1923827975988388,0.181640625,0.65869140625,0.7098442266652233,40.706634521484375,29.346466064453125,10.572433471679688,51.28373537536921
1782416119.082494,-0.1206054612994194,0.23388671875,0.65478515625,0.7056856774430272,26.544570922851562,13.597488403320312,25.281906127929688,39.098346689063156
1782416119.090455,-0.0273437462747097,0.19140625,0.6796875,0.7066534728250108,14.339447021484375,4.871368408203125,42.00553894042969,44.65215865696026
1782416119.1011,0.08935546875,0.16455078125,0.72412109375,0.7479389800105446,3.963470458984375,-0.621795654296875,57.75260925292969,57.89179219402802
1782416119.111745,0.19189453125,0.123046875,0.77294921875,0.8058626057444025,-3.726959228515625,-4.161834716796875,70.38688659667969,70.60824950439432
1782416119.12239,0.275390625,0.0361328125,0.79736328125,0.8443540600736266,-9.832382202148438,-8.249282836914062,77.28385925292969,78.34233407372527
1782416119.130378,0.3232421875,0.01318359375,0.81103515625,0.8731765821398396,-16.971588134765625,-14.110565185546875,76.61247253417969,79.72837513377607
1782416119.138367,0.26318359375,-0.0224609375,0.8046874403953552,0.8469309148109853,-22.405624389648438,-23.756027221679688,70.56999206542969,77.75914488831525
1782416119.146356,0.22998046875,-0.0234375037252903,0.8095702528953552,0.8419289322504555,-24.234771728515625,-35.289764404296875,61.28883361816406,74.7597000978404
1782416119.154345,0.2607421875,-0.03857421875,0.8173827528953552,0.8588300317439111,-23.748397827148438,-46.70524597167969,49.99732971191406,72.42305833747602
1782416119.165065,0.2783203125,-0.0444335900247097,0.80078125,0.8489329482498273,-20.206451416015625,-56.529998779296875,37.42790222167969,70.74453551710351
1782416119.175785,0.3173828125,-0.0068359412252902985,0.7993163466453552,0.8600495344904987,-13.433456420898438,-63.85612487792969,24.488449096679688,69.69753636247555
1782416119.186505,0.33154296875,0.02783203125,0.79736328125,0.8639928034288429,-5.619049072265625,-68.92013549804688,12.643814086914062,70.29526886078548
1782416119.19714,0.34521484375,0.0009765625,0.7607421278953552,0.8354057859354377,14.217376708984375,-59.520721435546875,-1.2722015380859375,61.20840283365225
1782416119.207774,0.392578125,0.0458984337747097,0.70556640625,0.8087324675565011,21.297454833984375,-48.595428466796875,-4.8732757568359375,53.28082269334194
1782416119.218408,0.48828125,0.0546874962747097,0.6650390625,0.8268532251864522,23.983001708984375,-33.824920654296875,-6.8836212158203125,42.03205763801623
1782416119.229149,0.45068359375,0.0620117150247097,0.57421875,0.7325901496247976,23.983001708984375,-17.284393310546875,-9.145736694335938,30.944775371117945
1782416119.239893,0.33154296875,0.0551757775247097,0.556640625,0.6502414105187475,20.687103271484375,-2.391815185546875,-9.202957153320312,22.767772003705627
1782416119.250637,0.25634765625,0.0483398362994194,0.55126953125,0.6098761814687613,13.240814208984375,9.449005126953125,-8.287429809570312,18.256077115705434
1782416119.258683,0.23388671875,0.1113281175494194,0.552734375,0.6104197213978096,-8.426666259765625,29.224395751953125,-8.714675903320312,31.638893587168308
1782416119.26673,0.26953125,0.14111328125,0.61572265625,0.6867855868400703,-19.842147827148438,38.98811340332031,-7.1277618408203125,44.32368222523971
1782416119.274777,0.29150390625,0.09375,0.716796875,0.7794622183715991,-27.591705322265625,47.290802001953125,-4.6253204345703125,54.94648073990844
1782416119.282824,0.3115234375,0.07373046875,0.8154296278953552,0.8760185569857916,-32.41539001464844,53.51829528808594,-1.8787384033203125,62.59788413622813
1782416119.293445,0.33984375,0.0703125,0.8808593153953552,0.9467580237785611,-36.563873291015625,56.385040283203125,0.7457733154296875,67.20673906400974
1782416119.304066,0.3056640625,0.1259765625,0.9233397841453552,0.9807430705281132,-39.493560791015625,57.239532470703125,-0.4787445068359375,69.543760451396
1782416119.314687,0.24951171875,0.13134765625,0.9819335341453552,1.0216172326635522,-41.324615478515625,54.370880126953125,-2.3670196533203125,68.33388055910395
1782416119.325276,0.064453125,0.0932617112994194,1.0576171875,1.063675734146536,-40.28892517089844,46.19026184082031,-4.1370391845703125,61.43169274539377
1782416119.335863,-0.4257812201976776,0.5458984375,1.05126953125,1.2587542964663754,-33.145904541015625,37.036895751953125,-5.2967071533203125,49.984374973097324
1782416119.34645,-0.1406249850988388,0.4086913764476776,1.1162109375,1.1969673699025278,-30.765533447265625,17.932891845703125,6.7882537841796875,36.25171785837101
1782416119.357113,-0.1132812425494194,0.62255859375,1.31103515625,1.4557558255040506,-26.556015014648438,-40.41862487792969,68.55583190917969,83.89749256825695
1782416119.367775,-0.4238280951976776,0.3134765625,1.1796875,1.2921147035661957,-9.037017822265625,-50.853729248046875,69.53239440917969,86.617107674104
1782416119.378437,0.2197265625,0.0810546875,1.05810546875,1.0837143570297694,-11.480331420898438,-66.35856628417969,69.46754455566406,96.75224584173077
1782416119.386451,0.31201171875,-0.25146484375,1.0751953125,1.1474453539500318,-13.431549072265625,-82.65304565429688,60.56022644042969,103.34153808090957
1782416119.394468,0.37451171875,-0.15283203125,1.025390625,1.1022897037961348,-5.008697509765625,-79.35714721679688,38.21754455566406,88.22258541324253
1782416119.402485,0.35986328125,-0.18701171875,1.03125,1.1081297426934473,-3.360748291015625,-80.88302612304688,24.549484252929688,84.59335506398769
1782416119.410502,0.37646484375,-0.173828125,1.02978515625,1.1101348853421211,-6.107330322265625,-81.31027221679688,16.427993774414062,83.17775442440762
1782416119.421138,0.49658203125,-0.13134765625,0.9951171278953552,1.1198678577374408,-7.144927978515625,-71.97189331054688,10.324478149414062,73.0588685347689
1782416119.431774,0.51904296875,-0.078125,0.9624022841453552,1.0962332213365962,-10.503768920898438,-59.15641784667969,4.7130584716796875,60.26627459991257
1782416119.44241,0.40771484375,-0.11767578125,0.9658202528953552,1.054934947856849,-15.628814697265625,-44.811248779296875,2.6340484619140625,47.53152719302435
1782416119.453076,0.3603515625,-0.1025390625,0.9916991591453552,1.060110716002897,-16.300201416015625,-14.904022216796875,-8.169174194335938,23.549136957834715
1782416119.463743,0.3603515625,-0.10009765625,1.0048828125,1.0722230440728482,-16.729354858398438,-4.0416717529296875,-12.559890747070312,21.30627325730597
1782416119.47441,0.333984375,-0.12841796875,1.07080078125,1.1290044510840633,-14.530181884765625,5.481719970703125,-16.042709350585938,22.32809805489384
1782416119.482399,0.36767578125,-0.16015625,1.2333984375,1.2969607589126595,-8.731842041015625,10.425567626953125,-22.386550903320312,26.193418774958957
1782416119.490388,0.55029296875,-0.16796875,1.314453125,1.4348598782649533,-1.1043548583984375,25.682449340820312,-24.339675903320312,35.400955168974484
1782416119.498377,0.74365234375,-0.09765625,1.53125,1.7050753983413551,-10.992050170898438,27.273178100585938,-23.550033569335938,37.67300746930989
1782416119.506366,0.56689453125,-0.4111328125,1.7460936307907104,1.8812874757897058,11.898040771484375,29.712677001953125,-24.526596069335938,40.32320006609921
1782416119.51438,0.58447265625,-0.2314453125,1.6279296875,1.7450874723136376,49.434661865234375,39.844512939453125,-32.76252746582031,71.44756266704229
1782416119.522394,0.8544921875,-0.22802734375,1.50390625,1.7446740030118173,87.64076232910156,73.83918762207031,-34.28840637207031,119.61949532517515
1782416119.530408,0.7666015625,-0.0419921875,1.23046875,1.4503429401920909,114.13192749023438,107.95974731445312,-34.83772277832031,160.9194545144116
1782416119.538422,0.69970703125,-0.28369140625,0.78125,1.0864724138517237,123.71444702148438,118.21365356445312,-39.90364074707031,175.70439048515394
1782416119.549121,0.60205078125,-0.32763671875,0.50830078125,0.853335014455848,121.45614624023438,105.76248168945312,-23.550033569335938,162.76333147781767
1782416119.55982,0.66943359375,-0.33251953125,0.171875,0.7669756128644246,115.10848999023438,61.511993408203125,-10.911941528320312,130.96854686832327
1782416119.570519,0.76318359375,-0.46240234375,0.0385742150247097,0.8931702499184748,83.85658264160156,36.54670715332031,8.066177368164062,91.82946952592609
1782416119.578494,0.27392578125,-0.44140625,0.06787109375,0.5239096263090673,43.697357177734375,16.712188720703125,26.441574096679688,53.73930700023115
1782416119.586469,0.115234375,-0.0478515625,0.1201171875,0.17319605061386992,4.024505615234375,-14.415740966796875,31.751632690429688,35.102370455238514
1782416119.594444,0.20849609375,0.322265625,0.30517578125,0.49036518190752215,-29.117584228515625,-44.872283935546875,24.366378784179688,58.779894453385694
1782416119.602419,0.51953125,0.2431640475988388,0.4008788764476776,0.6998180816134756,-39.127349853515625,-56.957244873046875,6.4830780029296875,69.40538560140492
1782416119.613069,0.845703125,0.046875,0.4667968451976776,0.9671144378749964,-35.343170166015625,-67.63839721679688,-16.710281372070312,78.123786128009
1782416119.623719,0.9960936903953552,0.2939453125,0.4819335639476776,1.1449307607211323,-35.099029541015625,-85.27755737304688,-39.96849060058594,100.50713361310984
1782416119.634369,1.10986328125,0.3681640625,0.5634765625,1.2980166087035778,-42.545318603515625,-107.55538940429688,-72.80158996582031,136.6687141467864
1782416119.642376,1.0703125,0.25537109375,0.66650390625,1.2864721917810078,-47.061920166015625,-127.39181518554688,-142.1375274658203,196.58732314184905
1782416119.650385,0.84326171875,0.09033203125,0.74951171875,1.1318206654424252,-47.550201416015625,-126.04904174804688,-173.5095977783203,219.67012337024582
1782416119.658394,0.62744140625,0.0458984337747097,0.767578125,0.9924543125396074,-51.822662353515625,-121.83761596679688,-198.35472106933594,238.48393733828956
1782416119.666403,0.62939453125,-0.09765625,0.8051757216453552,1.0266363337903974,-60.489654541015625,-107.92160034179688,-208.7879180908203,242.69005926804056
1782416119.677059,0.53515625,-0.2490234375,0.8671874403953552,1.049008551498903,-65.43350219726562,-95.89767456054688,-204.6985626220703,235.32829990347904
1782416119.687715,0.44677734375,-0.3916015625,0.9213866591453552,1.0963189108520321,-66.77627563476562,-82.83615112304688,-187.7918243408203,215.83945007756105
1782416119.698371,0.37451171875,-0.56689453125,0.9604491591453552,1.1764739794594932,-66.40815734863281,-70.32585144042969,-159.4104766845703,186.46036796076558
1782416119.709043,0.123046875,-0.45556640625,0.9116210341453552,1.0265155594763542,-71.29287719726562,-59.398651123046875,-128.71360778808594,158.6759809300924
1782416119.719717,0.13525390625,-0.3623046875,0.9687499403953552,1.043089043541519,-80.38711547851562,-53.478240966796875,-101.36985778808594,139.99235214766472
1782416119.730391,0.15673828125,-0.240234375,1.08837890625,1.1255434630927368,-86.91787719726562,-43.651580810546875,-81.04515075683594,126.60369009210164
1782416119.741065,0.22802734375,-0.10693359375,1.20654296875,1.2325490653154683,-75.07514953613281,-35.59684753417969,-66.33567810058594,106.31949878225016
1782416119.751739,0.37060546875,-0.008300784975290298,1.31298828125,1.364315045434317,-57.315826416015625,-34.496307373046875,-70.11604309082031,96.90902269056444
1782416119.762413,0.4697265625,0.09912109375,1.34228515625,1.4255516389922007,-35.89439392089844,-28.455734252929688,-78.96614074707031,91.28958161426804
1782416119.770398,0.5263671875,0.13232421875,1.154296875,1.275528671014189,-20.572662353515625,-18.505096435546875,-92.82112121582031,96.85780079148327
1782416119.778385,0.50146484375,0.1132812425494194,1.05712890625,1.1755088914423717,-16.971588134765625,-4.711151123046875,-108.69026184082031,110.10814124190084
1782416119.786372,0.44775390625,0.0546874962747097,1.02001953125,1.1153089827229044,-21.121978759765625,11.035919189453125,-121.38557434082031,123.70281790296833
1782416119.794359,0.36572265625,-0.0429687537252903,1.0078125,1.0729796877143156,-26.187896728515625,27.454376220703125,-128.89671325683594,134.36484434980116
1782416119.805076,0.22119140625,-0.14453125,0.9755858778953552,1.0107337560278997,-28.385162353515625,44.727325439453125,-128.59153747558594,139.07564342161862
1782416119.815793,0.0859375,-0.17333984375,0.9360350966453552,0.9558209337995291,-29.302597045898438,55.16242980957031,-120.53489685058594,135.7578624423332
1782416119.82651,0.018554694950580597,-0.18310546875,0.9453124403953552,0.9630615241806145,-30.643463134765625,57.239532470703125,-106.31370544433594,124.5712241075821
1782416119.83719,-0.008300777524709702,-0.177734375,0.9521483778953552,0.9686304478452613,-24.908065795898438,53.69758605957031,-72.74055480957031,93.78182555443175
1782416119.847871,-0.0546874962747097,-0.12255859375,0.9360350966453552,0.9456072299335774,-20.511627197265625,49.793243408203125,-59.49592590332031,80.24873294003807
1782416119.858552,-0.09423828125,-0.0488281212747097,0.9614257216453552,0.9672664872316542,-19.901275634765625,43.018341064453125,-50.52375793457031,69.2768977052205
1782416119.866509,0.017578125,0.01904296875,1.14990234375,1.1501943424043923,-18.619537353515625,32.520294189453125,-45.76301574707031,59.148206360752376
1782416119.874468,0.1298828125,0.0439453087747097,1.18310546875,1.1910244688218508,-11.659622192382812,26.170730590820312,-43.62678527832031,52.193393480852244
1782416119.882427,0.22265625,0.0678710862994194,1.15673828125,1.1799261592696086,-2.384185791015625,24.585723876953125,-42.10090637207031,48.81217550765069
1782416119.890386,0.232421875,0.09130859375,1.0966796875,1.1247504275376896,2.376556396484375,24.951934814453125,-42.83332824707031,49.62802716219596
1782416119.901079,0.1962890625,0.0712890625,1.072265625,1.0924125123074608,2.6187896728515625,26.170730590820312,-43.56956481933594,50.89275171922076
1782416119.911772,0.1328125,0.041015625,1.08740234375,1.0962505638964952,0.7266998291015625,28.123855590820312,-44.36302185058594,52.5314863072662
1782416119.922465,0.1259765625,0.0317382775247097,1.08642578125,1.0941656139379563,2.1305084228515625,30.080795288085938,-44.29817199707031,53.58844421687944
1782416119.933151,0.1318359375,0.0380859375,1.056640625,1.0655142718200206,10.618209838867188,36.66877746582031,-40.81916809082031,55.88872967465543
1782416119.943838,0.12255859375,0.03173828125,1.00439453125,1.0123419885609748,10.372161865234375,39.966583251953125,-38.68293762207031,56.57984784061287
1782416119.954525,0.07763671875,0.00927734375,0.9550780653953552,0.9582732596731773,5.672454833984375,42.896270751953125,-35.69602966308594,56.09343385795144
1782416119.962515,-0.0341796800494194,0.00341796875,0.9453124403953552,0.9459363313695476,0.911712646484375,43.689727783203125,-30.565261840820312,53.32784230697935
1782416119.970505,0.0166015625,-0.05126953125,0.9345702528953552,0.9361227132747738,-0.9822845458984375,40.88401794433594,-25.381088256835938,48.131771703347766
1782416119.978495,0.01953125,-0.10888671875,0.9858397841453552,0.9920271504603413,0.545501708984375,38.928985595703125,-17.442703247070312,42.66159148684357
1782416119.986485,0.13623046875,-0.068359375,0.9692382216453552,0.9811495681416194,5.7315826416015625,33.19358825683594,-11.770248413085938,35.68198549194841
1782416119.998462,0.201171875,0.01806640625,0.9101561903953552,0.932298669547904,5.672454833984375,24.585723876953125,-6.3953399658203125,26.02950125676238
1782416120.010439,0.1728515625,0.083984375,0.8994140028953552,0.9197154921534584,2.010345458984375,21.045684814453125,-9.996414184570312,23.385692949391952
1782416120.022416,0.12890625,0.0727538987994194,0.9287108778953552,0.9404327970677863,-0.614166259765625,15.613555908203125,-16.099929809570312,22.43586566563256
1782416120.034393,0.08447265625,0.0849609375,0.9492186903953552,0.9567497649598262,-0.7991790771484375,10.484695434570312,-22.268295288085938,24.626093896321475
1782416120.042412,0.1982421875,0.07958984375,0.9736327528953552,0.9967924787253977,1.766204833984375,7.556915283203125,-27.452468872070312,28.528310417637567
1782416120.050429,0.154296875,0.0498046837747097,0.9824218153953552,0.9957111305621575,3.292083740234375,6.458282470703125,-31.541824340820312,32.364083651036246
1782416120.058446,0.1201171875,-0.01318359375,0.9755858778953552,0.9830410729089228,2.864837646484375,4.199981689453125,-33.37669372558594,33.76167686866314
1782416120.066463,0.060546875,-0.0224609375,0.9985350966453552,1.0006211855733385,2.4967193603515625,0.9632110595703125,-32.03010559082031,32.1417026193189
1782416120.077266,0.060546875,-0.0458984375,1.01318359375,1.0160283388180529,3.963470458984375,-0.804901123046875,-28.612136840820312,28.89656274533272
1782416120.088069,0.0771484375,-0.0478515662252903,1.00390625,1.0080026848118844,7.5626373291015625,-1.9664764404296875,-24.278640747070312,25.505154567020142
1782416120.098872,0.11279296875,-0.01220703125,0.9589843153953552,0.9656718814305795,10.616302490234375,-1.781463623046875,-19.643783569335938,22.399949199123387
1782416120.106751,0.11572265625,0.0039062537252902985,0.9350585341453552,0.9422003259741436,9.395599365234375,3.772735595703125,-13.475418090820312,16.855198427472914
1782416120.114629,0.1142578125,0.01025390625,0.8916015028953552,0.898951183477682,5.733489990234375,7.251739501953125,-12.010574340820312,15.15633627459738
1782416120.122507,0.1181640625,0.0195312462747097,0.8989257216453552,0.9068691572013958,1.6422271728515625,10.972976684570312,-11.770248413085938,16.175347758645803
1782416120.130385,0.1396484375,0.0297851525247097,0.8994140028953552,0.9106779837084883,-1.773834228515625,15.796661376953125,-11.217117309570312,19.455197744177212
1782416120.138557,0.1669921875,0.0185546875,0.9145507216453552,0.9298568113297325,-2.6302337646484375,19.029617309570312,-11.156082153320312,22.214919167465514
1782416120.146729,0.201171875,0.03271484375,0.9062499403953552,0.9288860741550534,-2.262115478515625,22.632598876953125,-10.122299194335938,24.896036619165987
1782416120.154901,0.1943359375,0.011718746274709702,0.9321288466453552,0.952243651785957,-2.140045166015625,24.646759033203125,-9.447097778320312,26.481884007496735
1782416120.163073,0.193359375,0.0185546875,0.9223632216453552,0.9425953728788466,-2.750396728515625,25.440216064453125,-7.8601837158203125,26.768484522227535
1782416120.173609,0.2021484375,0.015136715024709702,0.9453124403953552,0.9668033517172211,-3.116607666015625,24.158477783203125,-6.7615509033203125,25.27971247391034
1782416120.184145,0.21240234375,0.0200195275247097,0.9575194716453552,0.9809990192109297,-1.773834228515625,21.472930908203125,-5.9070587158203125,22.34114124951694
1782416120.194681,0.22216796875,0.0263671875,0.9677733778953552,0.9932971085622605,1.8253326416015625,20.128250122070312,-5.1136016845703125,20.847714848816405
1782416120.205336,0.1474609375,0.12548828125,0.8964843153953552,0.9171565649164469,7.625579833984375,17.566680908203125,-3.6487579345703125,19.494901394984975
1782416120.215992,0.203125,0.0234375,0.8608397841453552,0.8847904927148978,3.170013427734375,19.886016845703125,-5.8498382568359375,20.9695793651362
1782416120.226648,0.1875,0.041015625,0.8520507216453552,0.8734008036122426,-2.262115478515625,17.932891845703125,-5.4798126220703125,18.887406459353457
1782416120.237248,0.212890625,0.03271484375,0.8647460341453552,0.8911668658475793,-9.098052978515625,14.636993408203125,-3.2215118408203125,17.53266330516286
1782416120.247851,0.24853515625,-0.00048828125,0.8881835341453552,0.9223014434758976,-8.977890014648438,11.278152465820312,-0.4787445068359375,14.423190647711708
1782416120.258454,0.2236328125,-0.0029296912252902985,0.9038085341453552,0.9310693230427644,-8.548736572265625,6.641387939453125,2.0275115966796875,11.013615846713371
1782416120.266443,0.22998046875,0.0302734337747097,0.9135741591453552,0.9425631231154359,-7.511138916015625,2.002716064453125,3.1871795654296875,8.401558964430087
1782416120.27443,0.23291015625,0.04296875,0.9189452528953552,0.9489751483468206,-7.8792572021484375,-3.6716461181640625,3.6106109619140625,9.41276743540024
1782416120.282417,0.2568359375,0.0405273400247097,0.9492186903953552,0.9841866115106706,-7.755279541015625,-7.701873779296875,2.3288726806640625,11.175279344797591
1782416120.290404,0.26171875,0.046875,0.9526366591453552,0.9890452841372767,-6.7768096923828125,-10.694503784179688,0.6809234619140625,12.679164702676289
1782416120.301079,0.26904296875,0.0405273400247097,0.9467772841453552,0.9850958380264058,-4.7054290771484375,-12.159347534179688,-1.0242462158203125,13.078221422183441
1782416120.311754,0.25146484375,0.0615234375,0.9355468153953552,0.9707046640458772,-4.337310791015625,-10.753631591796875,-3.0384063720703125,11.986858245253002
1782416120.322429,0.20263671875,0.0595703087747097,0.9350585341453552,0.9586160460535497,-6.2313079833984375,-9.473800659179688,-5.3615570068359375,12.543061494363732
1782416120.333205,0.16259765625,0.0576171875,0.9692382216453552,0.9844696381360138,-9.160995483398438,-5.4454803466796875,-8.474349975585938,13.615862145366876
1782416120.34398,0.13916015625,0.03271484375,1.01611328125,1.0261198811161165,-6.107330322265625,-3.368377685546875,-8.352279663085938,10.881453371133574
1782416120.354755,0.1474609375,0.0244140587747097,1.009765625,1.0207680401471602,-2.567291259765625,-0.804901123046875,-7.7381134033203125,8.192511780461261
1782416120.36538,0.1220703125,0.0361328087747097,0.9682616591453552,0.9765947888631771,-0.614166259765625,0.598907470703125,-7.3108673095703125,7.3610237855370615
1782416120.376007,0.078125,0.02783203125,0.9726561903953552,0.9761855368232549,-0.6771087646484375,2.1839141845703125,-6.7043304443359375,7.083502251822954
1782416120.386634,0.05810546875,0.033203125,0.9741210341453552,0.9764171660580528,-1.2874603271484375,2.9163360595703125,-6.3343048095703125,7.091261349497482
1782416120.394579,0.08251953125,0.0161132775247097,0.9731444716453552,0.976769815997723,-0.003814697265625,2.185821533203125,-3.9539337158203125,4.517900193234719
1782416120.402527,0.087890625,0.017578125,1.00390625,1.0078995541374491,1.094818115234375,-0.560760498046875,-1.6956329345703125,2.0948150492142874
1782416120.410475,0.1083984375,0.0107421875,1.0048828125,1.0107695497504052,2.315521240234375,-1.903533935546875,0.9860992431640625,3.155546192836329
1782416120.418423,0.12255859375,0.011230465024709702,0.9970702528953552,1.0046371591054435,3.231048583984375,-1.476287841796875,2.5768280029296875,4.388524045802565
1782416120.429061,0.130859375,0.0019531212747097015,0.9624022841453552,0.9712600821800005,2.254486083984375,-0.926971435546875,3.5533905029296875,4.309126084429409
1782416120.439699,0.13330078125,0.0551757775247097,0.9570311903953552,0.967844080467958,-0.308990478515625,1.087188720703125,2.3937225341796875,2.6471422328384695
1782416120.450337,0.18310546875,0.052734375,0.9765624403953552,0.9949787570514909,-2.872467041015625,2.368927001953125,0.2574920654296875,3.732182231089866
1782416120.458364,0.1826171875,0.0532226487994194,1.01123046875,1.0289648917450882,-4.032135009765625,3.345489501953125,-2.1839141845703125,5.6762570334881435
1782416120.46639,0.166015625,0.0361328087747097,1.0419921875,1.055753042347085,-3.177642822265625,3.772735595703125,-4.3201446533203125,6.557026582727398
1782416120.474416,0.16650390625,0.0263671837747097,1.033203125,1.0468655485240135,-0.736236572265625,3.345489501953125,-5.4187774658203125,6.410732682159038
1782416120.482442,0.18798828125,0.0400390587747097,1.02734375,1.0451688384079179,1.583099365234375,3.040313720703125,-5.8498382568359375,6.780141499382036
1782416120.493286,0.18212890625,0.0244140587747097,1.02783203125,1.044129143938228,3.1070709228515625,3.8928985595703125,-5.7277679443359375,7.590512139434111
1782416120.50413,0.1982421875,0.0014648400247097015,1.0244140625,1.0434204723450835,3.9615631103515625,4.3811798095703125,-4.9915313720703125,7.7333113372892885
1782416120.514974,0.21142578125,0.0253906212747097,1.0263671875,1.048224760346057,4.0836334228515625,5.7239532470703125,-3.9539337158203125,8.066802001783469
1782416120.522819,0.23876953125,0.010742183774709702,1.02783203125,1.0552558779884125,4.329681396484375,6.458282470703125,-3.0384063720703125,8.347901936911551
1782416120.530664,0.248046875,0.0195312462747097,1.02978515625,1.0594178542063306,5.062103271484375,7.434844970703125,-2.5501251220703125,9.349061311585055
1782416120.538509,0.25732421875,0.03271484375,1.01123046875,1.0439698633031653,6.221771240234375,8.411407470703125,-3.0384063720703125,10.8946833953927
1782416120.546354,0.24267578125,0.04248046875,0.9785155653953552,1.009053436023836,7.503509521484375,10.059356689453125,-4.9915313720703125,13.505876409289925
1782416120.557036,0.20654296875,0.0556640587747097,0.9609374403953552,0.9844588613715226,6.7691802978515625,12.254714965820312,-7.9212188720703125,16.08556959568311
1782416120.567718,0.1611328125,0.0517578087747097,0.9389647841453552,0.9540951314719371,3.4160614013671875,13.231277465820312,-11.400222778320312,17.79610233367881
1782416120.5784,0.123046875,0.010253902524709702,0.9619140028953552,0.9698062821669168,-0.1888275146484375,13.174057006835938,-13.841629028320312,19.10973908789157
1782416120.586461,0.12109375,-0.01123046875,0.9912108778953552,0.9986434920308088,-1.1043548583984375,8.165359497070312,-12.746810913085938,15.178072467333635
1782416120.594525,0.11083984375,-0.0195312462747097,0.9946288466453552,1.0009762650146292,0.9708404541015625,4.5642852783203125,-9.447097778320312,10.536739900099851
1782416120.602589,0.12158203125,-0.0068359375,1.0244140625,1.0316264303574885,2.3136138916015625,0.1697540283203125,-5.2394866943359375,5.730082590126082
1782416120.610653,0.11669921875,-0.015625,1.0244140625,1.0311580963798006,3.170013427734375,-4.039764404296875,-1.4553070068359375,5.33728395894261
1782416120.621245,0.13818359375,-0.0009765625,1.02490234375,1.0341762294117114,4.268646240234375,-6.298065185546875,1.1692047119140625,7.697662337620864
1782416120.631837,0.14892578125,0.03271484375,1.0009765625,1.0125231987450096,5.0601959228515625,-7.0323944091796875,2.3288726806640625,8.971276490369066
1782416120.642429,0.17333984375,0.0488281212747097,1.0048828125,1.020891940273995,4.024505615234375,-6.420135498046875,1.5392303466796875,7.732012371981455
1782416120.65309,0.173828125,0.0703125,0.9755858778953552,0.9934424340877113,1.705169677734375,-5.382537841796875,-0.1087188720703125,5.647223834893067
1782416120.663752,0.16650390625,0.0537109337747097,0.9633788466453552,0.9791359544859921,0.301361083984375,-4.589080810546875,-1.5125274658203125,4.841303597537611
1782416120.674414,0.158203125,0.0361328125,0.9975585341453552,1.0106714787432935,-0.125885009765625,-4.650115966796875,-2.3670196533203125,5.219406822575487
1782416120.682399,0.158203125,0.02783203125,0.9897460341453552,1.002696396138794,2.6798248291015625,-4.4689178466796875,-1.0242462158203125,5.310533696876771
1782416120.690385,0.1767578125,0.0224609375,0.9824218153953552,0.9984490179062071,3.170013427734375,-4.222869873046875,0.3757476806640625,5.293656714996506
1782416120.698371,0.1796875,0.0454101525247097,0.9765624403953552,0.9939939032003663,1.766204833984375,-3.673553466796875,1.1692047119140625,4.240461560651996
1782416120.706357,0.19140625,0.052734375,0.9892577528953552,1.0089837305473617,1.522064208984375,-3.734588623046875,1.4781951904296875,4.295217417159677
1782416120.717046,0.18701171875,0.0478515625,1.01171875,1.0299698947469693,2.6798248291015625,-3.4923553466796875,0.9860992431640625,4.511141618207098
1782416120.727735,-2.05126953125,-0.611328125,1.16552734375,2.437187468226345,0.911712646484375,-6.786346435546875,6.2351226806640625,9.260803028676872
1782416120.738424,-0.011718746274709702,-0.4267578125,1.52490234375,1.5835361434202502,32.283782958984375,-2.208709716796875,16.370773315429688,36.264628216777126
1782416120.749066,0.1826171875,0.05078125,0.9794921278953552,0.9976635711155056,4.207611083984375,6.946563720703125,19.605636596679688,21.22120931806015
1782416120.75971,0.44970703125,0.017578125,1.03125,1.1251764159162794,11.774063110351562,8.165359497070312,26.742935180664062,30.339516145122314
1782416120.770354,0.31884765625,0.1455078125,1.04638671875,1.1035223226428386,-3.543853759765625,12.500762939453125,25.400161743164062,28.530618467146923
1782416120.778383,0.185546875,0.1689452975988388,1.001953125,1.0328989404100923,6.160736083984375,13.416290283203125,3.9196014404296875,15.274645315407366
1782416120.786414,0.25439453125,0.16796875,0.9858397841453552,1.0318963894259106,10.980606079101562,10.118484497070312,-3.5266876220703125,15.342586612612568
1782416120.794445,0.189453125,0.1826171875,0.8955077528953552,0.9333679120466721,9.700775146484375,5.603790283203125,-15.859603881835938,19.417377250017992
1782416120.802476,0.17138671875,0.07568359375,0.8999022841453552,0.9191983108866303,5.9146881103515625,2.3059844970703125,-20.925521850585938,21.867294406551814
1782416120.813167,0.14306640625,-0.00146484375,0.9047850966453552,0.916027408692582,2.8018951416015625,-1.6613006591796875,-18.907546997070312,19.186085314913615
1782416120.823858,0.06396484375,-0.04296875,0.9350585341453552,0.9382282648644651,1.583099365234375,-4.344940185546875,-13.658523559570312,14.420123946884884
1782416120.834549,0.060546875,-0.07666015625,0.9619140028953552,0.9668615477899126,2.0732879638671875,-6.6051483154296875,-4.2591094970703125,8.1281314555053
1782416120.845156,0.22314453125,0.00390625,0.9746093153953552,0.999836015690197,1.766204833984375,-8.678436279296875,3.1871795654296875,9.412377454803783
1782416120.855762,0.1884765625,0.10009765625,0.9433593153953552,0.9671968534593942,1.094818115234375,-10.753631591796875,8.497238159179688,13.749264542198485
1782416120.866368,0.228515625,0.0512695275247097,0.9887694716453552,1.0161264800110184,-0.247955322265625,-12.767791748046875,6.9065093994140625,14.518190660255447
1782416120.874378,0.171875,0.0732421875,1.0283203125,1.0451545812724943,2.498626708984375,-16.857147216796875,-0.0476837158203125,17.04138554978342
1782416120.882387,0.3125,0.0830078125,1.07275390625,1.1204229069019738,6.649017333984375,-16.307830810546875,-3.5266876220703125,17.96085473569425
1782416120.890396,0.18115234375,0.10205078125,1.02099609375,1.041951801693635,7.259368896484375,-13.195037841796875,-8.043289184570312,17.0734285170941
1782416120.898405,0.2509765625,0.0346679612994194,1.0048828125,1.0363303379342343,6.4029693603515625,-8.558273315429688,-8.657455444335938,13.754766211821222
1782416120.907988,0.1640625,0.0810546875,0.9755858778953552,0.9925997035163892,2.559661865234375,-2.391815185546875,-7.1926116943359375,8.000394473502281
1782416120.917571,0.1455078125,0.0185546912252903,0.9755858778953552,0.9865518765953729,-0.736236572265625,0.110626220703125,-4.5032501220703125,4.564377735570838
1782416120.927154,0.099609375,0.024414055049419403,1.0244140625,1.0295349654672252,-0.9822845458984375,3.0422210693359375,-1.2722015380859375,3.4407104960066923
1782416120.936737,0.1904296875,0.0024414025247097015,1.05810546875,1.0751077198710335,3.414154052734375,4.627227783203125,2.6340484619140625,6.325021434996193
1782416120.94632,0.15478515625,0.0463867150247097,1.00732421875,1.020202065086333,6.221771240234375,6.763458251953125,4.1637420654296875,10.089179990422863
1782416120.954377,0.1591796875,0.033203125,0.9589843153953552,0.9726723690928315,6.4029693603515625,7.5550079345703125,4.9533843994140625,11.073038360331815
1782416120.962434,0.173828125,0.0537109337747097,0.9409179091453552,0.9583462804218702,4.1446685791015625,9.325027465820312,5.0792694091796875,11.398832949031386
1782416120.970491,0.2041015625,0.07470703125,0.9140624403953552,0.9395470894397163,0.423431396484375,11.402130126953125,3.7937164306640625,12.024148615839346
1782416120.978548,0.2236328125,0.099609375,0.9125975966453552,0.9448640303331635,-2.0160675048828125,12.071609497070312,1.7833709716796875,12.368051425209726
1782416120.98922,0.203125,0.0917968675494194,0.9345702528953552,0.960785089452253,-3.1185150146484375,10.915756225585938,-0.9670257568359375,11.393595072995618
1782416120.999892,0.1943359375,0.07275390625,0.9448241591453552,0.9673428963833689,-1.9588470458984375,9.141921997070312,-3.2215118408203125,9.888880527657747
1782416121.010564,0.1650390625,0.076171875,0.9331054091453552,0.9506449133447332,-0.553131103515625,5.786895751953125,-4.9304962158203125,7.622592039186405
1782416121.021175,0.16259765625,0.06494140625,0.9321288466453552,0.9484300558354953,-0.0057220458984375,3.0994415283203125,-7.1277618408203125,7.772487336029567
1782416121.031787,0.171875,0.0532226525247097,0.9321288466453552,0.9493354797515818,-1.712799072265625,0.354766845703125,-7.4329376220703125,7.6359741926195905
1782416121.042399,0.14599609375,0.0361328087747097,0.9428710341453552,0.9547911951262119,-4.7664642333984375,-0.7419586181640625,-7.7991485595703125,9.170409049414435
1782416121.050399,0.150390625,0.0317382775247097,0.9633788466453552,0.9755631504479149,-8.731842041015625,-3.063201904296875,-4.3201446533203125,10.21234161009844
1782416121.058402,0.1494140625,0.0200195275247097,0.9985350966453552,1.0098503269235573,-7.450103759765625,-3.734588623046875,-2.0008087158203125,8.570556209019784
1782416121.066405,0.140625,0.0180664025247097,1.00830078125,1.0182201387688936,-5.802154541015625,-3.917694091796875,0.5626678466796875,7.023526138658241
1782416121.074408,0.16064453125,0.0346679650247097,0.9887694716453552,1.0023340766816828,-4.825592041015625,-3.917694091796875,2.1457672119140625,6.575635518407246
1782416121.085097,0.18359375,0.04248046875,0.9829100966453552,1.0008114274685636,-6.046295166015625,-2.208709716796875,2.0275115966796875,6.748843391450676
1782416121.095786,0.22021484375,0.0634765625,0.9516600966453552,0.9788670956476677,-8.304595947265625,1.392364501953125,0.3757476806640625,8.428889551605492
1782416121.106475,0.20556640625,0.0693359375,0.9599608778953552,0.984169653412035,-11.539459228515625,3.894805908203125,-1.8177032470703125,12.313922098322628
1782416121.114462,0.18994140625,0.07568359375,1.01318359375,1.0336086003973204,-13.978958129882812,4.8694610595703125,-4.0149688720703125,15.337630079363043
1782416121.122449,0.20263671875,0.0297851525247097,1.04541015625,1.0652845581755779,-12.638092041015625,3.467559814453125,-5.9680938720703125,14.400121040110596
1782416121.130436,0.2109375,0.0356445275247097,1.005859375,1.0283570603268597,-8.489608764648438,2.9163360595703125,-7.2498321533203125,11.538567469164564
1782416121.138423,0.2333984375,0.0434570275247097,0.9702147841453552,0.9988393620812823,-6.046295166015625,2.185821533203125,-8.531570434570312,10.682845832905793
1782416121.149092,0.25439453125,0.07177734375,0.9814452528953552,1.0164169169374055,-7.8792572021484375,0.8411407470703125,-9.874343872070312,12.660682395427292
1782416121.159761,0.22314453125,0.08056640625,0.9951171278953552,1.0230066108650144,-11.354446411132812,-1.3561248779296875,-12.315750122070312,16.805958141596733
1782416121.17043,0.20947265625,0.0585937462747097,1.0048828125,1.0281544084799938,-12.332916259765625,-3.002166748046875,-15.123367309570312,19.74411475436794
1782416121.178418,0.18359375,0.0483398400247097,0.9760741591453552,0.9943662148946882,-7.3909759521484375,-2.0885467529296875,-20.067214965820312,21.486778947735566
1782416121.186409,0.05029296875,0.16748046875,0.9399413466453552,0.9560694667501374,-12.516021728515625,-2.025604248046875,-18.178939819335938,22.16365776295552
1782416121.1944,0.1025390625,0.07421875,1.02587890625,1.0336586537530839,-14.530181884765625,-0.621795654296875,-20.189285278320312,24.882123211041996
1782416121.202391,0.2431640625,0.0263671837747097,0.9091796278953552,0.9415049577414076,-18.133163452148438,4.3811798095703125,-17.564773559570312,25.622794997913456
1782416121.213123,0.26171875,0.01708984375,0.9086913466453552,0.9457847166924992,-19.414901733398438,5.8460235595703125,-17.198562622070312,26.587684311384525
1782416121.223855,0.1142578125,0.03662109375,0.9311522841453552,0.9388506422716255,-26.556015014648438,2.9163360595703125,-18.785476684570312,32.65916538641363
1782416121.234587,0.20458984375,-0.10546875,0.9511718153953552,0.9786258139834181,-26.493072509765625,1.819610595703125,-21.898269653320312,34.41987924931207
1782416121.245243,0.08984375,0.080078125,0.9438475966453552,0.9514897220731243,-24.173736572265625,3.284454345703125,-18.724441528320312,30.753241955309154
1782416121.2559,0.14892578125,0.009765617549419403,0.9809569716453552,0.9922453506198307,-20.084381103515625,-1.720428466796875,-22.874832153320312,30.48934542529894
1782416121.266557,0.20068359375,0.0405273400247097,1.033203125,1.0532924891024615,-21.123886108398438,-10.206222534179688,-23.733139038085938,33.371356450388774
1782416121.277196,0.16552734375,0.0571289025247097,1.068359375,1.0826147824517265,-9.952545166015625,-19.420623779296875,-28.062820434570312,35.54906010011389
1782416121.287837,0.14208984375,0.02197265625,1.0595703125,1.0692808650915473,-3.360748291015625,-20.763397216796875,-28.245925903320312,35.217121165619346
1782416121.298478,0.10595703125,-0.015136715024709702,1.04052734375,1.046017765482252,-0.9822845458984375,-20.521163940429688,-26.720046997070312,33.7052512811394
1782416121.30647,0.17919921875,-0.0249023400247097,1.02294921875,1.0388251011024676,-1.6536712646484375,-17.770767211914062,-23.550033569335938,29.54892345024457
1782416121.314463,0.16943359375,-0.0229492224752903,1.0390625,1.053036223692951,-2.384185791015625,-12.279510498046875,-18.785476684570312,22.569112836446607
1782416121.322456,0.12353515625,-0.01806640625,1.04052734375,1.0479906883918066,-2.872467041015625,-5.748748779296875,-13.170242309570312,14.654503127775582
1782416121.330449,0.0966796875,-0.0297851525247097,1.056640625,1.0614723395766883,-2.1419525146484375,-0.5016326904296875,-8.104324340820312,8.397598999257411
1782416121.341102,0.14501953125,0.0019531212747097015,1.03466796875,1.0447833673465206,-0.553131103515625,2.490997314453125,-3.3435821533203125,4.206015127682162
1782416121.351755,0.2001953125,0.0561523400247097,0.9960936903953552,1.0175627196800505,1.5201568603515625,7.0056915283203125,-0.7190704345703125,7.204696590414204
1782416121.362408,0.21630859375,0.0732421875,0.9560546278953552,0.9829518183919361,1.644134521484375,10.730743408203125,-0.1697540283203125,10.857294729699587
1782416121.370411,0.18017578125,0.06689453125,0.9301757216453552,0.9498237013249682,-2.323150634765625,12.317657470703125,-4.6863555908203125,13.38221368686785
1782416121.378412,0.15673828125,0.0283203125,0.9663085341453552,0.9793472887956789,-1.590728759765625,11.035919189453125,-6.5784454345703125,12.945959782067307
1782416121.386413,0.17919921875,0.0390624962747097,0.9731444716453552,0.9902769316255629,0.606536865234375,10.181427001953125,-7.4977874755859375,12.65883722124753
1782416121.394414,0.16455078125,0.0444335900247097,0.9458007216453552,0.9610360599880444,1.8253326416015625,7.3719024658203125,-8.169174194335938,11.154021348171607
1782416121.405176,0.1650390625,0.0048828087747097015,0.9301757216453552,0.9447161516089723,1.1539459228515625,3.7136077880859375,-6.2732696533203125,7.380812024423046
1782416121.415938,0.11572265625,-0.0170898474752903,0.9365233778953552,0.9438007381861971,-0.064849853515625,0.232696533203125,-2.6721954345703125,2.6830918024928203
1782416121.4267,0.1240234375,-0.03173828125,0.9287108778953552,0.9374929473159689,-0.1888275146484375,-1.7833709716796875,1.6574859619140625,2.4419925402957814
1782416121.437289,0.15869140625,-0.02587890625,0.9038085341453552,0.9179992083876078,-1.102447509765625,-2.941131591796875,6.2999725341796875,7.03955250591062
1782416121.447878,0.18310546875,-0.0190429724752903,0.9155272841453552,0.9338524805885681,-4.398345947265625,-4.039764404296875,9.473800659179688,11.199019709060499
1782416121.458467,0.1982421875,0.009765621274709702,0.9497069716453552,0.970226089246964,-7.144927978515625,-6.664276123046875,11.060714721679688,14.758115808488895
1782416121.469124,0.25,0.0224609375,0.9648436903953552,0.9969592973683064,-5.435943603515625,-7.152557373046875,8.554458618164062,12.40513289268644
1782416121.479784,0.26318359375,0.06494140625,0.9653319716453552,1.0026708361898242,-5.191802978515625,-8.007049560546875,3.7364959716796875,10.248368796016084
1782416121.490444,0.24658203125,0.0673828050494194,0.9765624403953552,1.009463887686249,-6.351470947265625,-9.777069091796875,-1.7604827880859375,11.791164610286632
1782416121.498441,0.24755859375,0.0234375,1.00439453125,1.0347187773258175,-5.9871673583984375,-10.694503784179688,-6.1511993408203125,13.713345233669779
1782416121.506439,0.220703125,0.0073242150247097015,1.00244140625,1.0264756628751464,-3.849029541015625,-9.838104248046875,-9.202957153320312,14.010629677815999
1782416121.514437,0.20947265625,-0.0166015625,0.9819335341453552,1.004165260837607,-1.224517822265625,-9.960174560546875,-10.484695434570312,14.51321327374854
1782416121.522435,0.1865234375,-0.0444335900247097,0.9882811903953552,1.0067100118448016,-0.6771087646484375,-9.473800659179688,-9.386062622070312,13.35325978008601
1782416121.533083,0.1669921875,-0.05029296875,0.9658202528953552,0.9814400309211825,-1.041412353515625,-8.983612060546875,-6.3953399658203125,11.076560775930261
1782416121.543731,0.17431640625,-0.0517578125,0.9790038466453552,0.9957477654451967,-1.407623291015625,-7.518768310546875,-2.1266937255859375,7.939528099297852
1782416121.554379,0.20947265625,-0.0395507775247097,0.9824218153953552,1.005283880843588,-1.773834228515625,-5.199432373046875,1.2950897216796875,5.644275175728222
1782416121.562398,0.21044921875,0.0029296837747097015,0.9848632216453552,1.0071012968262791,-3.0574798583984375,-0.8678436279296875,5.0182342529296875,5.940034567603717
1782416121.57042,0.212890625,0.017578125,0.9780272841453552,1.0010838012994445,-3.543853759765625,2.185821533203125,3.5533905029296875,5.473874250650111
1782416121.578442,0.20458984375,0.0395507775247097,0.9638671278953552,0.986134427147587,-4.0950775146484375,3.8928985595703125,0.5626678466796875,5.678108325117705
1782416121.586464,0.1650390625,0.0346679650247097,0.9599608778953552,0.9746612986260687,-5.0106048583984375,4.3811798095703125,-2.7370452880859375,7.196687743665555
1782416121.597113,0.18896484375,0.0166015587747097,0.9707030653953552,0.9890640854338769,-4.7664642333984375,3.5305023193359375,-4.3849945068359375,7.376435774822712
1782416121.607762,0.2021484375,0.0068359375,0.9726561903953552,0.9934640333397082,-2.6302337646484375,2.4280548095703125,-4.8084259033203125,5.994542474842929
1782416121.618411,0.22021484375,-0.0185546912252903,0.9799804091453552,1.0045896954891587,-0.0057220458984375,2.0008087158203125,-3.2215118408203125,3.7922825316235698
1782416121.626425,0.22802734375,-0.0292968712747097,0.9575194716453552,0.9847326107853683,0.972747802734375,1.209259033203125,-0.3528594970703125,1.5915575772747352
1782416121.634439,0.20849609375,-0.03515625,0.9306640028953552,0.9543804636036286,-0.858306884765625,1.148223876953125,1.9664764404296875,2.4335444049382686
1782416121.642453,0.20166015625,-0.02197265625,0.9194335341453552,0.941545346731889,-3.6067962646484375,1.3294219970703125,3.5533905029296875,5.234780435442086
1782416121.650467,0.18798828125,0.0078125,0.9223632216453552,0.9413578180944682,-5.5599212646484375,1.7566680908203125,3.7364959716796875,6.925316555708822
1782416121.66112,0.1904296875,0.0234375,0.9365233778953552,0.9559753237569074,-6.778717041015625,0.843048095703125,2.5768280029296875,7.30080662464819
1782416121.671773,0.21728515625,0.0283203125,0.9477538466453552,0.972754970718604,-6.5937042236328125,-0.3795623779296875,0.4978179931640625,6.623354568631422
1782416121.682426,0.21240234375,0.01904296875,0.9663085341453552,0.9895602929844405,-5.313873291015625,-2.819061279296875,-1.6345977783203125,6.233479425352254
1782416121.690422,0.1865234375,-0.0009765625,0.9731444716453552,0.9908592781545977,-3.849029541015625,-4.528045654296875,-3.4656524658203125,6.879605575093254
1782416121.698418,0.19140625,-0.01171875,0.9575194716453552,0.9765332663154006,-2.323150634765625,-5.565643310546875,-4.5032501220703125,7.526797193625812
1782416121.706414,0.20458984375,-0.0322265662252903,0.9394530653953552,0.9620122752943706,-2.140045166015625,-5.016326904296875,-4.8084259033203125,7.270783217170023
1782416121.71441,0.19677734375,-0.00732421875,0.9570311903953552,0.9770791506235071,-3.543853759765625,-4.161834716796875,-3.8318634033203125,6.675548278774277
1782416121.725057,0.16748046875,-0.021484375,0.9672850966453552,0.9819122893487353,-6.107330322265625,-2.758026123046875,-2.1839141845703125,7.04809711384864
1782416121.735704,0.17236328125,-0.046875,0.9907225966453552,1.0066963940791591,-7.6351165771484375,-2.3326873779296875,-0.2956390380859375,7.988982287540743
1782416121.746351,0.17041015625,-0.0244140587747097,1.01025390625,1.024816384877012,-6.4144134521484375,-1.7833709716796875,2.3937225341796875,7.074957210356272
1782416121.757036,0.1884765625,-0.005859375,0.9853515028953552,1.003232441234504,-1.4705657958984375,-1.4781951904296875,5.2013397216796875,5.603709457261216
1782416121.767722,0.2265625,-0.00244140625,0.9790038466453552,1.0048806190872275,-1.2874603271484375,-0.6847381591796875,4.4651031494140625,4.6971870918162635
1782416121.778408,0.224609375,0.0234375,0.9658202528953552,0.991870681413151,-2.933502197265625,0.354766845703125,2.1457672119140625,3.651795665682548
1782416121.786411,0.216796875,0.00341796875,0.9697265028953552,0.9936710008538022,-4.0950775146484375,0.3528594970703125,-1.1463165283203125,4.267108067386186
1782416121.794415,0.2236328125,-0.0166015625,0.9902343153953552,1.0153084487438335,-3.910064697265625,1.575469970703125,-3.2215118408203125,5.3055489919456695
1782416121.802419,0.21923828125,-0.0180664099752903,0.9711913466453552,0.9957933776309561,-2.1419525146484375,2.9773712158203125,-4.7473907470703125,5.999201516633102
1782416121.810423,0.19091796875,-0.0200195275247097,0.9550780653953552,0.9741789174855269,-2.4471282958984375,3.4046173095703125,-5.4187774658203125,6.85149656245222
1782416121.821064,0.17041015625,-0.0600585900247097,0.9682616591453552,0.9849757845550425,-3.543853759765625,2.552032470703125,-5.0563812255859375,6.6812244611737155
1782416121.831705,0.1708984375,-0.06884765625,0.9907225966453552,1.0077090548440928,-4.337310791015625,1.453399658203125,-3.1032562255859375,5.527642776623995
1782416121.842346,0.208984375,-0.0493164025247097,1.0029296875,1.0256580983061399,-3.238677978515625,1.087188720703125,-0.5970001220703125,3.4680575988149505
1782416121.853033,0.23095703125,-0.0322265625,1.00634765625,1.0330127331520402,-0.6771087646484375,-1.4781951904296875,2.6340484619140625,3.095439968709623
1782416121.863722,0.2333984375,-0.0009765625,0.9975585341453552,1.024499298851877,-0.247955322265625,-2.513885498046875,2.3288726806640625,3.4358041419547845
1782416121.874411,0.21826171875,-0.00146484375,0.9877929091453552,1.0116200645483264,0.118255615234375,-2.208709716796875,0.8068084716796875,2.3544262387217625
1782416121.885067,0.18505859375,0.0073242150247097015,0.9663085341453552,0.9838965953841902,-0.2498626708984375,-1.3561248779296875,-1.3294219970703125,1.9154291647416066
1782416121.895724,0.171875,-0.00537109375,0.9702147841453552,0.9853357760922362,-1.041412353515625,-1.476287841796875,-3.6487579345703125,4.071535330435196
1782416121.906381,0.1689453125,-0.0380859412252903,0.9941405653953552,1.0091127396378143,-1.346588134765625,-2.269744873046875,-5.0563812255859375,5.703685868968599
1782416121.91447,0.1669921875,-0.0556640625,0.9858397841453552,1.0014314547405627,1.338958740234375,-2.269744873046875,-3.2825469970703125,4.209473492581694
1782416121.922557,0.1552734375,-0.0429687537252903,0.9814452528953552,0.9945807853666784,1.583099365234375,-1.781463623046875,-0.5359649658203125,2.442759645366598
1782416121.930644,0.185546875,-0.0551757775247097,0.9599608778953552,0.9792838691295507,0.4825592041015625,-1.4781951904296875,2.2106170654296875,2.702730511249976
1782416121.938731,0.20458984375,-0.0600585900247097,0.9682616591453552,0.9914608812113171,-0.736236572265625,-0.011444091796875,4.4078826904296875,4.4689601777335355
1782416121.94929,0.2197265625,-0.008789066225290298,0.9726561903953552,0.9972046302878785,-2.1419525146484375,0.5359649658203125,5.3844451904296875,5.819576361586548
1782416121.959849,0.2119140625,0.00341796875,0.9780272841453552,1.0007280454391039,-2.5691986083984375,-0.1964569091796875,4.4651031494140625,5.1552422776692355
1782416121.970408,0.220703125,-0.009765621274709702,1.00244140625,1.0264959862114047,-1.102447509765625,-0.804901123046875,3.3054351806640625,3.57619323628383
1782416121.978408,0.2265625,0.015625,0.9838866591453552,1.0097562404241225,1.033782958984375,-1.476287841796875,0.6809234619140625,1.9266005707226386
1782416121.986411,0.23486328125,0.0078124962747097015,0.9599608778953552,0.9883049544888359,1.888275146484375,-1.781463623046875,-1.6956329345703125,3.1007042293436204
1782416121.994414,0.21240234375,-0.01611328125,0.9492186903953552,0.9728260459398731,1.583099365234375,-1.598358154296875,-3.8967132568359375,4.499480702882693
1782416122.002417,0.2001953125,-0.0258789025247097,0.9672850966453552,0.9881236455702648,-0.064849853515625,-0.926971435546875,-4.4422149658203125,4.538364832004892
1782416122.013087,0.2119140625,-0.03955078125,0.9770507216453552,1.0005498222729585,-1.285552978515625,-1.232147216796875,-4.3201446533203125,4.672738281783259
1782416122.023757,0.2041015625,-0.02685546875,0.9804686903953552,1.0018470526294454,-0.7991790771484375,-0.6847381591796875,-2.3670196533203125,2.5904315438152823
1782416122.034427,0.201171875,-0.03173828125,0.9755858778953552,0.9966169007881467,0.179290771484375,-0.133514404296875,-0.7190704345703125,0.753016312417832
1782416122.045064,0.18896484375,-0.013671878725290298,0.9453124403953552,0.9641111151768571,-0.736236572265625,0.843048095703125,1.0509490966796875,1.535339827472066
1782416122.055704,0.18212890625,-0.017578125,0.9550780653953552,0.9724474484359921,-2.017974853515625,1.392364501953125,0.1926422119140625,2.4592707125348614
1782416122.066344,0.20703125,-0.005859375,0.9619140028953552,0.9839587489921102,-3.1185150146484375,1.2683868408203125,-0.5359649658203125,3.408988049134324
1782416122.074352,0.19482421875,-0.0239257849752903,0.9868163466453552,1.0061488067898892,-2.872467041015625,0.598907470703125,-1.4553070068359375,3.27531304524176
1782416122.082361,0.22021484375,-0.02099609375,0.9892577528953552,1.013689456897014,-1.4705657958984375,-0.1964569091796875,-2.3059844970703125,2.742029098671176
1782416122.09037,0.2177734375,-0.015625,0.9663085341453552,0.9906672467926411,0.606536865234375,-0.438690185546875,-2.1839141845703125,2.3086396889404175
1782416122.098379,0.22216796875,-0.01708984375,0.9511718153953552,0.9769229711192158,1.216888427734375,0.171661376953125,-2.6149749755859375,2.8893561907165335
1782416122.109101,0.2109375,-0.02197265625,0.9614257216453552,0.9845388995718872,-0.370025634765625,0.171661376953125,-3.2215118408203125,3.247233459310652
1782416122.119823,0.189453125,-0.0190429724752903,0.9580077528953552,0.9767466283435885,-2.384185791015625,0.659942626953125,-3.2215118408203125,4.0617735901322805
1782416122.130545,0.2099609375,-0.012207034975290298,0.9912108778953552,1.0132776576224543,-2.933502197265625,0.720977783203125,-3.3435821533203125,4.5060831906697905
1782416122.141238,0.19091796875,-0.0273437537252903,0.9663085341453552,0.9853677155364694,-1.529693603515625,0.354766845703125,-3.2215118408203125,3.5838471753120613
1782416122.151932,0.18359375,-0.02734375,0.9672850966453552,0.984933908389461,-1.285552978515625,0.049591064453125,-2.9773712158203125,3.2434310677181526
1782416122.162626,0.18896484375,-0.02587890625,0.9633788466453552,0.9820775082069099,-2.079010009765625,-0.316619873046875,-2.9201507568359375,3.59858461167212
1782416122.170573,0.169921875,-0.021484375,0.9760741591453552,0.9909872784874528,-3.238677978515625,-1.781463623046875,-2.8553009033203125,4.670694909460813
1782416122.178521,0.17822265625,-0.04248046875,1.0009765625,1.0176060063208854,-2.4471282958984375,-3.0002593994140625,-2.0008087158203125,4.358122173328984
1782416122.186469,0.19873046875,-0.0288085974752903,0.9956054091453552,1.0156544024507441,-1.1653900146484375,-3.6716461181640625,-0.5970001220703125,3.898144205775805
1782416122.194417,0.212890625,-0.02783203125,0.9819335341453552,1.005132083686308,1.0967254638671875,-3.4923553466796875,1.1692047119140625,3.8427063729797184
1782416122.205087,0.2333984375,-0.00537109375,0.9726561903953552,1.000281832280242,1.6422271728515625,-2.2716522216796875,1.2950897216796875,3.0878101124769097
1782416122.215757,0.216796875,-0.00537109375,0.9663085341453552,0.9903443425495912,0.789642333984375,-0.255584716796875,0.7457733154296875,1.1158119918191498
1782416122.226427,0.22119140625,0.005859375,0.9580077528953552,0.9832287755562543,-1.712799072265625,2.063751220703125,0.0095367431640625,2.681947186724191
1782416122.237123,0.21875,0.0048828087747097015,0.9687499403953552,0.9931524814133702,-3.482818603515625,4.261016845703125,-2.8553009033203125,6.199922034418024
1782416122.24782,0.2236328125,-0.01171875,0.9721679091453552,0.9976268879196643,-2.017974853515625,4.077911376953125,-3.4656524658203125,5.719469444061359
1782416122.258517,0.19921875,-0.013183597475290298,0.9848632216453552,1.0048967523798755,-0.3681182861328125,2.7332305908203125,-4.1980743408203125,5.0229362634056205
1782416122.266493,0.19189453125,-0.02197265625,0.9604491591453552,0.979677955273751,0.728607177734375,0.904083251953125,-4.6253204345703125,4.768838859550812
1782416122.274467,0.19189453125,-0.01220703125,0.9453124403953552,0.9646699605055699,0.545501708984375,-0.438690185546875,-4.5680999755859375,4.621423869366266
1782416122.282441,0.18994140625,-0.014648433774709702,0.9687499403953552,0.9873037837647964,-0.858306884765625,-0.926971435546875,-3.8318634033203125,4.034742109783652
1782416122.290415,0.18408203125,-0.015625,0.9824218153953552,0.9996414148177493,-1.4705657958984375,-1.4781951904296875,-3.1032562255859375,3.738692817377986
1782416122.301065,0.19287109375,-0.02294921875,0.9975585341453552,1.0162917664193618,-1.529693603515625,-2.269744873046875,-2.3059844970703125,3.579003885173613
1782416122.311715,0.197265625,-0.00341796875,0.9931640028953552,1.0125710572419804,-0.797271728515625,-2.574920654296875,-1.0852813720703125,2.9058035449041903
1782416122.322365,0.1826171875,-0.01513671875,0.9960936903953552,1.012808371544373,0.6656646728515625,-2.8209686279296875,-0.4787445068359375,2.9377150575356463
1782416122.333084,0.181640625,-3.725290298461914e-09,0.9765624403953552,0.9933113895658915,0.4825592041015625,-0.8068084716796875,-1.1463165283203125,1.4825130281173182
1782416122.343803,0.18798828125,-0.0107421875,0.9785155653953552,0.9964676112150389,-0.797271728515625,0.049591064453125,-1.6956329345703125,1.8743725701053715
1782416122.354522,0.19287109375,-0.01318359375,0.9716796278953552,0.9907241620225795,-1.1653900146484375,1.2683868408203125,-1.6956329345703125,2.41704574077694
1782416122.365184,0.16796875,-0.01904296875,0.9916991591453552,1.0060036569938404,-0.9822845458984375,1.9397735595703125,-1.7604827880859375,2.7976604580731053
1782416122.375847,0.1826171875,-0.0400390625,0.9785155653953552,0.9962152756393975,-0.431060791015625,2.185821533203125,-0.5970001220703125,2.3065208272021835
1782416122.38651,0.169921875,-0.0263671875,0.9760741591453552,0.9911051590681424,0.545501708984375,2.124786376953125,0.4978179931640625,2.2494692744086007
1782416122.397156,0.197265625,-0.03955078125,0.9829100966453552,1.003289713488336,0.118255615234375,1.148223876953125,2.3288726806640625,2.5992403553506054
1782416122.407802,0.1982421875,-0.0126953125,0.9770507216453552,0.9970402441887525,0.1773834228515625,0.6580352783203125,2.9430389404296875,3.0209193155564624
1782416122.418448,0.1708984375,0.01318359375,0.9975585341453552,1.0121774113910744,0.362396240234375,-0.316619873046875,2.2716522216796875,2.3220643822268343
1782416122.42643,0.1875,-0.0009765625,0.9985350966453552,1.0159869796935712,1.033782958984375,-1.537322998046875,1.1692047119140625,2.1906868477654142
1782416122.43441,0.15673828125,-0.0068359375,0.9853515028953552,0.9977630996929298,2.3136138916015625,-1.3561248779296875,0.4405975341796875,2.7177214925515742
1782416122.44239,0.1376953125,0.0029296875,0.9814452528953552,0.9910617370195199,2.2563934326171875,-1.6613006591796875,0.1926422119140625,2.8086192737286377
1782416122.45037,0.1220703125,-0.0283203162252903,1.00146484375,1.009274509126313,1.9474029541015625,-1.5354156494140625,0.3757476806640625,2.508199713267172
1782416122.461051,0.099609375,-0.0615234375,1.02587890625,1.0325379853731307,1.766204833984375,-2.391815185546875,3.0040740966796875,4.226667786299781
1782416122.471732,0.0703125,-0.0498046875,1.0341796875,1.037762969367678,3.231048583984375,-2.452850341796875,6.6013336181640625,7.748145280621906
1782416122.482413,0.04443359375,-0.05322265625,1.03857421875,1.0408858742648104,4.6329498291015625,-3.3092498779296875,11.484146118164062,12.817994029367176
1782416122.490417,-0.0600585900247097,-0.0288085974752903,1.06494140625,1.0670225715841146,8.905410766601562,-7.5817108154296875,24.305343627929688,26.972919913914563
1782416122.498422,-0.2241210788488388,-0.0444335900247097,1.13037109375,1.1532317249765647,13.484954833984375,-12.706756591796875,32.66716003417969,37.55594513065113
1782416122.506427,-0.4052734076976776,-0.0986328125,1.173828125,1.245731686090373,22.701263427734375,-20.153045654296875,45.85075378417969,54.988946461421065
1782416122.514432,-0.4736327826976776,-0.171875,1.205078125,1.3061708601191733,35.39466857910156,-26.563644409179688,63.60816955566406,77.48812168548088
1782416122.52508,-0.4042968451976776,-0.25,1.2041015625,1.294533318169809,47.969818115234375,-27.355194091796875,86.00807189941406,102.20958137896528
1782416122.535728,-0.28662109375,-0.26318359375,1.13623046875,1.2010149597392432,54.683685302734375,-22.167205810546875,110.36491394042969,125.14833071525197
1782416122.546376,-0.15185546875,-0.26953125,1.0458984375,1.0906927705274232,52.303314208984375,-12.340545654296875,132.9479217529297,143.39831115711456
1782416122.557109,-0.015624996274709702,-0.20458984375,1.0380859375,1.0581699099433362,44.49272155761719,-0.8678436279296875,151.55982971191406,157.95802419146227
1782416122.567841,0.544921875,-0.3232421875,1.05078125,1.2270153205990801,38.265228271484375,9.998321533203125,164.1368865966797,168.83456894191252
1782416122.578573,1.18505859375,-0.06201171875,0.9853515028953552,1.5424418654008298,38.570404052734375,33.313751220703125,168.2262420654297,175.77699112410198
1782416122.586535,1.44189453125,0.41943359375,0.9379882216453552,1.7705384160644788,16.780853271484375,64.56375122070312,127.75993347167969,144.12728960504305
1782416122.594498,1.4013671875,0.38525390625,1.03271484375,1.7829050773903055,3.902435302734375,61.145782470703125,87.35084533691406,106.69679421763361
1782416122.602461,0.9296875,0.2763671875,1.11328125,1.4765137356572313,8.052825927734375,48.389434814453125,48.71940612792969,69.13729775268015
1782416122.610424,0.51611328125,0.380859375,1.103515625,1.27639081680619,23.128509521484375,32.825469970703125,9.347915649414062,41.22890925638812
1782416122.621071,0.38671875,0.3959960639476776,1.06787109375,1.202793809067222,39.730072021484375,13.050079345703125,-26.414871215820312,49.46239597016965
1782416122.631718,0.36279296875,0.26416015625,0.9379882216453552,1.0398178832227685,48.519134521484375,-5.809783935546875,-52.17170715332031,71.48249458002601
1782416122.642365,0.29833984375,0.17919921875,0.8276366591453552,0.8978315331567887,47.48344421386719,-20.826339721679688,-66.88117980957031,84.62568235077532
1782416122.650376,0.26953125,-0.1513671875,0.8857421278953552,0.9381355111639333,41.683197021484375,-31.383514404296875,-69.62776184082031,87.00827034976955
1782416122.658387,0.19580078125,-0.205078125,0.9423827528953552,0.9841139345859574,35.76087951660156,-36.08512878417969,-54.97932434082031,74.85788621210756
1782416122.666398,0.20556640625,-0.310546875,1.02685546875,1.092304473419654,31.063079833984375,-35.472869873046875,-31.911849975585938,56.9350998476942
1782416122.674409,0.146484375,-0.2021484375,1.06787109375,1.096663273648595,23.797988891601562,-32.97233581542969,-2.1266937255859375,40.71906225114603
1782416122.685126,0.22802734375,-0.06591796875,1.17041015625,1.1942368198791042,15.375137329101562,-25.831222534179688,21.741867065429688,37.09926803846487
1782416122.695843,0.37109375,0.07080078125,1.24560546875,1.301636011216108,8.172988891601562,-17.282485961914062,35.59303283691406,40.402302594971516
1782416122.70656,0.4853515625,0.2216796725988388,1.328125,1.4313015168334446,3.719329833984375,-8.739471435546875,39.44206237792969,40.56954596752597
1782416122.71765,0.609375,0.29052734375,1.42626953125,1.577969836170364,6.649017333984375,-3.307342529296875,17.404556274414062,18.9226458304056
1782416122.728743,0.6845703125,0.318359375,1.47412109375,1.6562071740713582,13.605117797851562,-1.4781951904296875,-0.6580352783203125,13.700996377707021
1782416122.739836,0.68017578125,0.31640625,1.51318359375,1.6889276470092718,21.600723266601562,-1.9664764404296875,-19.212722778320312,28.975627547779794
1782416122.747488,0.7001953125,0.19482421875,1.501953125,1.6685602001593427,29.109954833984375,-1.903533935546875,-35.20774841308594,45.72306267300501
1782416122.75514,0.640625,0.1396484375,1.46630859375,1.606226313078669,35.396575927734375,0.537872314453125,-44.42024230957031,56.80109876468465
1782416122.762792,0.58154296875,0.0722656175494194,1.39892578125,1.516709558692199,37.471771240234375,5.908966064453125,-47.89924621582031,61.10145094738006
1782416122.770444,0.4873046875,-0.00146484375,1.3544921875,1.4394850086837374,37.105560302734375,10.791778564453125,-43.99299621582031,58.55483588918363
1782416122.781072,0.42626953125,-0.0307617150247097,1.2998046875,1.368263213724,36.128997802734375,16.773223876953125,-34.53636169433594,52.720070187153304
1782416122.7917,0.3916015625,0.0048828087747097015,1.2490234375,1.308982495298653,36.18812561035156,23.729324340820312,-21.532058715820312,48.33519236957647
1782416122.802328,0.3876953125,0.0400390587747097,1.1689453125,1.2322109905279046,36.556243896484375,30.994415283203125,-8.775711059570312,48.72397614283928
1782416122.81303,0.40380859375,0.08447265625,1.08935546875,1.1648572218670472,32.588958740234375,54.126739501953125,7.6427459716796875,63.640833800890896
1782416122.823732,0.45361328125,0.1298828125,0.9848632216453552,1.0920577453866485,26.119232177734375,71.39968872070312,8.741378784179688,76.5280441538669
1782416122.834434,0.4716796875,0.181640625,0.9038085341453552,1.0355408783068218,15.375137329101562,91.90559387207031,5.3844451904296875,93.3382305535915
1782416122.842427,0.25244140625,0.23388671875,1.02294921875,1.0792843763060571,-0.370025634765625,104.17556762695312,-0.4138946533203125,104.17704698325977
1782416122.850422,0.18310546875,0.130859375,1.2470703125,1.2672159062410775,-10.683059692382812,91.53938293457031,-5.0563812255859375,92.29925992948901
1782416122.858417,0.2197265625,0.0507812462747097,1.37890625,1.3972261604802358,2.0084381103515625,71.58088684082031,-4.3201446533203125,71.73925588119134
1782416122.866412,0.2392578125,0.0927734375,1.22265625,1.249295608417765,34.05189514160156,56.62727355957031,1.9664764404296875,66.10632876749249
1782416122.87708,0.2099609375,0.16259765625,0.9501952528953552,0.9866066144714114,61.153411865234375,43.994903564453125,8.497238159179688,75.81223106292505
1782416122.887748,0.1787109375,0.19580078125,0.75341796875,0.7986952990694356,65.24276733398438,29.651641845703125,11.667251586914062,72.60828680759944
1782416122.898416,0.1376953125,0.17626953125,0.65673828125,0.6937839121735034,52.669525146484375,19.641876220703125,12.460708618164062,57.57735179645171
1782416122.909096,0.13037109375,0.1743163913488388,0.64013671875,0.6761344874139089,33.626556396484375,20.252227783203125,12.220382690429688,41.112477161674924
1782416122.919778,0.09716796875,0.1630859375,0.55126953125,0.5830409361664493,27.889251708984375,23.120880126953125,12.948989868164062,38.471571287612356
1782416122.93046,0.091796875,0.1787109225988388,0.4389648139476776,0.4827570486279957,18.671035766601562,22.630691528320312,14.539718627929688,32.74384206880843
1782416122.941133,0.0483398400247097,0.15771484375,0.3178710639476776,0.3581238966725482,6.587982177734375,19.336700439453125,17.957687377929688,27.199044634375444
1782416122.951806,0.037109375,0.14453125,0.30517578125,0.3397037612405859,-3.4236907958984375,16.344070434570312,21.005630493164062,26.834433279863745
1782416122.962479,0.0161132849752903,0.158203125,0.33056640625,0.3668269560071895,-10.929107666015625,12.866973876953125,24.793624877929688,29.995470419932566
1782416122.970453,0.0161132849752903,0.2026367038488388,0.3984375,0.4472960016651914,-19.842147827148438,-4.7130584716796875,27.601242065429688,34.31839614705688
1782416122.97843,0.0234375037252903,0.1884765475988388,0.525390625,0.5586662996937805,-18.987655639648438,-16.431808471679688,24.854660034179688,35.331140963100616
1782416122.986407,0.072265625,0.205078125,0.6279296875,0.6645111363656774,-13.004302978515625,-25.890350341796875,21.375656127929688,36.004733184367716
1782416123.002404,0.19775390625,0.23876953125,0.66455078125,0.733311146342713,-4.459381103515625,-30.284881591796875,13.685226440429688,33.53126236188231
1782416123.010425,0.1787109375,0.26611328125,0.63134765625,0.708063373358726,0.728607177734375,-27.965545654296875,4.7702789306640625,28.37883319022025
1782416123.018446,0.13818359375,0.25537109375,0.5859375,0.6539356658043559,-2.4471282958984375,-20.948410034179688,-6.8225860595703125,22.16691228829469
1782416123.026467,0.0654296875,0.19970703125,0.56884765625,0.6064252619722849,-12.149810791015625,-10.936737060546875,-18.785476684570312,24.902294152458204
1782416123.037114,-0.0341796800494194,0.13671875,0.55078125,0.5685246278582887,-23.502349853515625,0.293731689453125,-28.310775756835938,36.79601542145949
1782416123.047761,-0.15087890625,0.06591796875,0.55224609375,0.5762684886556405,-32.230377197265625,9.510040283203125,-31.663894653320312,46.17185620139971
1782416123.058408,-0.267578125,-0.0170898474752903,0.56103515625,0.621812320892491,-36.746978759765625,13.843536376953125,-28.612136840820312,48.58640058687737
1782416123.066421,-0.3095703125,-0.07373046875,0.57861328125,0.6603508837295018,-34.305572509765625,5.664825439453125,-5.1136016845703125,35.144152780664704
1782416123.074435,-0.3330078125,-0.056640625,0.58642578125,0.6767551702802858,-30.096054077148438,-3.1261444091796875,8.859634399414062,31.528374071191326
1782416123.082449,-0.2211913913488388,-0.0302734375,0.63916015625,0.6770286684937544,-26.556015014648438,-8.314132690429688,20.399093627929688,34.503184732620646
1782416123.090463,-0.16162109375,0.00390625,0.70458984375,0.7228993599731972,-23.868560791015625,-12.279510498046875,25.526046752929688,37.04151232251194
1782416123.1011,-0.0009765587747097015,0.0502929650247097,0.7333984375,0.735121489364485,-24.784088134765625,-9.349822998046875,23.572921752929688,35.45917165891474
1782416123.111737,0.1318359375,0.1113281175494194,0.76220703125,0.7814948641293427,-28.568267822265625,-3.734588623046875,15.821456909179688,32.86961480268849
1782416123.122374,0.1962890625,0.1806640625,0.8002929091453552,0.8435861781492562,-32.96089172363281,2.4280548095703125,2.7599334716796875,33.16523882234864
1782416123.133051,0.11865234375,0.16015625,0.9096679091453552,0.9312486821576248,-34.793853759765625,8.228302001953125,-11.281967163085938,37.49133228307913
1782416123.14373,0.0556640625,0.1171874925494194,0.9096679091453552,0.9188727339479098,-32.72056579589844,11.278152465820312,-24.583816528320312,42.45228125959926
1782416123.154409,-0.03271484375,0.1064453050494194,0.8979491591453552,0.904827915339984,-29.180526733398438,12.620925903320312,-35.14289855957031,47.390022475874936
1782416123.165083,-0.1103515625,0.0517578087747097,0.8769530653953552,0.8853829775987683,-24.600982666015625,9.387969970703125,-43.50471496582031,50.852753637946634
1782416123.175756,-0.1782226413488388,-0.014160159975290298,0.8686522841453552,0.8868599724707534,-23.014068603515625,7.373809814453125,-39.96849060058594,46.706537719640224
1782416123.186429,-0.25830078125,-0.060546875,0.8930663466453552,0.9316398001250847,-21.123886108398438,5.5408477783203125,-31.118392944335938,38.01675864485559
1782416123.194413,-0.29052734375,-0.1015625,0.9345702528953552,0.9839423948939129,-19.353866577148438,4.5642852783203125,-19.334793090820312,27.73515955340419
1782416123.202397,-0.20654296875,-0.0732421875,0.9399413466453552,0.9651498075963816,-18.619537353515625,5.237579345703125,-6.7615509033203125,20.489948249805106
1782416123.210381,-0.1088867112994194,-0.03125,0.9506835341453552,0.9574090351008319,-19.596099853515625,6.702423095703125,3.9768218994140625,21.088971460041122
1782416123.218365,-0.0351562462747097,-3.725290298461914e-09,0.9697265028953552,0.9703635669530176,-21.671295166015625,8.594512939453125,10.995864868164062,25.776340528436616
1782416123.229039,-0.0024414025247097015,0.064453125,0.9843749403953552,0.9864857774174509,-22.342681884765625,10.547637939453125,14.417648315429688,28.606235034569604
1782416123.239713,0.0419921912252903,0.109375,0.9614257216453552,0.968537894452351,-22.403717041015625,13.050079345703125,11.667251586914062,28.431599810341133
1782416123.250387,0.0107421875,0.13720703125,0.9775390028953552,0.9871796524434491,-22.647857666015625,13.660430908203125,5.8727264404296875,27.09283568218757
1782416123.258393,-0.0009765550494194031,0.1357421875,1.00244140625,1.011590662319264,-21.244049072265625,7.129669189453125,-12.441635131835938,25.630764492882403
1782416123.266397,-0.0185546837747097,0.10546875,1.06884765625,1.0741988855829538,-16.605377197265625,1.941680908203125,-19.643783569335938,25.795094679641366
1782416123.274401,-0.0434570237994194,0.0810546875,1.11767578125,1.1214533103415514,-9.952545166015625,-4.161834716796875,-23.851394653320312,26.177529493822625
1782416123.282405,-0.0747070237994194,0.02734375,1.1474609375,1.1502153812036284,-4.5833587646484375,-9.473800659179688,-24.950027465820312,27.0788468558124
1782416123.293075,-0.1030273362994194,-0.01708984375,1.14013671875,1.1449097921785671,-1.346588134765625,-12.950897216796875,-22.020339965820312,25.581915693220317
1782416123.303745,-0.0883788987994194,-0.04052734375,1.1572265625,1.1613038415074648,0.4825592041015625,-15.027999877929688,-16.160964965820312,22.073749847794083
1782416123.314415,-0.0976562425494194,-0.04345703125,1.1767578125,1.1816023885189635,1.827239990234375,-14.720916748046875,-9.145736694335938,17.426666220679202
1782416123.322424,-0.06494140625,-0.0493164025247097,1.1923828125,1.1951678816589395,3.780364990234375,-10.082244873046875,-2.1839141845703125,10.986915049504896
1782416123.330433,-0.0361328087747097,-0.0024414099752902985,1.1748046875,1.1753627500157515,4.6329498291015625,-4.2858123779296875,3.2482147216796875,7.0981202255191596
1782416123.338442,-0.009765621274709702,0.0400390587747097,1.15380859375,1.1545443969799507,3.353118896484375,2.368927001953125,6.6661834716796875,7.82899888572215
1782416123.346451,0.013671878725290298,0.06298828125,1.1552734375,1.1570700753350138,0.118255615234375,9.815216064453125,7.6427459716796875,12.440418673423304
1782416123.35711,0.0341796875,0.07666015625,1.16259765625,1.1656235845725949,-1.834869384765625,18.543243408203125,6.4830780029296875,19.729392341050183
1782416123.367769,0.0419921912252903,0.0849609375,1.138671875,1.1426090074652815,-0.736236572265625,26.905059814453125,4.7130584716796875,27.32466300006486
1782416123.378428,0.0278320349752903,0.07861328125,1.09619140625,1.0993590265678042,2.071380615234375,33.008575439453125,2.5157928466796875,33.16905008954344
1782416123.389085,-0.00048827752470970154,0.0751953125,1.0537109375,1.056390701040123,3.902435302734375,37.281036376953125,-0.8411407470703125,37.49416211076215
1782416123.399743,-0.0175781212747097,0.0336914025247097,1.025390625,1.0260945545072935,4.0836334228515625,35.69221496582031,-0.9021759033203125,35.93639092144743
1782416123.410401,-0.029296867549419403,0.03662109375,1.01611328125,1.0171949721111957,4.5719146728515625,32.09114074707031,0.1926422119140625,32.41574970976181
1782416123.421076,-0.011718746274709702,0.011230465024709702,0.9829100966453552,0.9830441040188908,4.940032958984375,26.477813720703125,2.9430389404296875,27.09501842163965
1782416123.431752,0.0039062537252902985,-0.0068359412252902985,0.9853515028953552,0.9853829576204052,5.001068115234375,21.350860595703125,6.0558319091796875,22.749572096692308
1782416123.442428,0.0488281212747097,0.0200195275247097,0.9658202528953552,0.9672609409111784,4.6329498291015625,15.855789184570312,9.229660034179688,18.922391474944252
1782416123.450434,0.0556640625,0.041015625,0.9848632216453552,0.9872873617634395,2.132415771484375,5.481719970703125,10.690689086914062,12.20193771549192
1782416123.458443,0.07861328125,0.0546874962747097,0.9750975966453552,0.9797888003142493,1.644134521484375,1.514434814453125,8.554458618164062,8.841688378462889
1782416123.466452,0.09033203125,0.07568359375,0.9721679091453552,0.9792845989827051,0.728607177734375,-0.682830810546875,4.9533843994140625,5.053033083568399
1782416123.474461,0.091796875,0.09912109375,0.9731444716453552,0.9824773891443404,-0.064849853515625,-2.147674560546875,-0.0476837158203125,2.1491824627694234
1782416123.485117,0.1025390625,0.09375,0.9936522841453552,1.003318585308605,-1.224517822265625,-2.941131591796875,-4.7473907470703125,5.717291128032627
1782416123.495773,0.1044921875,0.06494140625,0.9956054091453552,1.0031780172101823,-1.834869384765625,-2.086639404296875,-8.531570434570312,8.97265310500461
1782416123.506429,0.07470703125,0.0595703087747097,1.00146484375,1.0060127213275758,-2.689361572265625,-1.232147216796875,-10.610580444335938,11.015228994258973
1782416123.517201,0.0156250037252903,0.015136715024709702,1.0400390625,1.0402665583440782,-3.482818603515625,-1.049041748046875,-11.522293090820312,12.082787430262327
1782416123.527974,0.0234375037252903,-0.0224609412252903,1.068359375,1.0688524522177931,-3.3016204833984375,-2.2068023681640625,-9.935379028320312,10.69964629999131
1782416123.538747,0.0341796875,-0.0302734375,1.06396484375,1.0649440928009442,-0.736236572265625,-2.696990966796875,-6.7043304443359375,7.263873021479319
1782416123.546659,0.0375976599752903,-0.0039062537252902985,1.03271484375,1.0334064018358753,2.254486083984375,-1.476287841796875,-0.2307891845703125,2.7046990484028175
1782416123.554573,0.0390624962747097,0.0195312462747097,1.03515625,1.0360771255607941,1.888275146484375,0.232696533203125,1.4781951904296875,2.4093135384181115
1782416123.562487,0.0478515662252903,0.0253906212747097,1.0302734375,1.0316965697611848,1.766204833984375,1.697540283203125,0.8068084716796875,2.579159250349081
1782416123.570401,0.0312500037252903,0.0541992150247097,1.0263671875,1.0282722019090011,2.1305084228515625,5.1136016845703125,-0.7839202880859375,5.594865444883776
1782416123.581079,0.0673828125,0.052734375,1.01708984375,1.0206826676232188,2.9239654541015625,9.325027465820312,-3.3435821533203125,10.328855349509192
1782416123.591757,0.0517578162252903,0.06298828125,0.9970702528953552,1.0003976630940556,2.803802490234375,11.402130126953125,-4.9304962158203125,12.734978318412441
1782416123.602435,0.048828125,0.03271484375,0.9765624403953552,0.9783295185077133,1.9474029541015625,12.742996215820312,-6.3953399658203125,14.390159974804757
1782416123.610443,0.0473632849752903,0.0273437462747097,0.9521483778953552,0.9537177227842326,0.850677490234375,13.782501220703125,-6.5784454345703125,15.295650899085452
1782416123.618451,0.0419921875,0.02294921875,0.9379882216453552,0.9392081315649299,-0.0057220458984375,14.268875122070312,-5.6629180908203125,15.35152993334496
1782416123.626459,0.03955078125,0.02685546875,0.9404296278953552,0.9416439696205057,-0.797271728515625,13.294219970703125,-4.8084259033203125,14.159551070081772
1782416123.634467,0.013671878725290298,0.0302734337747097,0.9311522841453552,0.9317445880333854,-1.773834228515625,10.669708251953125,-3.6487579345703125,11.415016273187701
1782416123.645128,0.0273437537252903,0.0366210900247097,0.9609374403953552,0.9620236740621116,-2.567291259765625,6.763458251953125,-2.5501251220703125,7.670625142489751
1782416123.655789,0.03125,0.03662109375,0.9702147841453552,0.9714084590848818,-2.323150634765625,3.162384033203125,-2.7370452880859375,4.784257367063714
1782416123.66645,0.02001953125,0.03662109375,0.9848632216453552,0.9857471539337986,-1.6536712646484375,-0.1964569091796875,-3.2215118408203125,3.626480733332783
1782416123.677095,0.015136722475290298,0.0444335900247097,0.9814452528953552,0.9825671726251624,-0.431060791015625,-5.626678466796875,-4.7473907470703125,7.374485940025615
1782416123.687739,0.0478515662252903,0.0424804650247097,0.9765624403953552,0.9786565088374269,-1.224517822265625,-6.908416748046875,-6.2732696533203125,9.411672434005036
1782416123.698383,0.04345703125,0.04248046875,0.9843749403953552,0.986249018792233,-1.834869384765625,-6.969451904296875,-6.8836212158203125,9.966155053396923
1782416123.709055,0.0190429724752903,0.0258789025247097,0.9951171278953552,0.9956357017640934,-2.201080322265625,-5.504608154296875,-7.3719024658203125,9.459937181767339
1782416123.719728,0.0302734375,0.013671875,1.00439453125,1.0049436678684975,-2.994537353515625,-3.612518310546875,-7.4329376220703125,8.790114003767249
1782416123.730401,0.0400390625,0.0322265625,0.9970702528953552,0.9983940940656916,-3.7899017333984375,-1.1119842529296875,-6.8836212158203125,7.936252589885959
1782416123.738406,0.03125,0.017578125,1.00048828125,1.0011305378905864,-6.656646728515625,4.749298095703125,-6.0901641845703125,10.195924571373117
1782416123.746409,0.029296875,0.02734375,0.9995116591453552,1.0003147226329965,-7.572174072265625,6.458282470703125,-4.9915313720703125,11.133850101849099
1782416123.754412,0.018554694950580597,0.033203125,1.0087890625,1.0095058676570947,-7.8792572021484375,6.7615509033203125,-4.4422149658203125,11.293119076604023
1782416123.762415,0.0029296875,0.0478515625,1.02392578125,1.0250474918807235,-6.4144134521484375,5.4836273193359375,-4.5680999755859375,9.59595778958091
1782416123.773064,-0.0019531212747097015,0.0361328087747097,1.02685546875,1.0274928458410042,-3.9691925048828125,2.7332305908203125,-4.2591094970703125,6.431566862860743
1782416123.783713,0.0175781287252903,0.0468749962747097,1.01953125,1.0207596316527214,-0.6771087646484375,-0.6847381591796875,-4.6863555908203125,4.784273335566575
1782416123.794362,0.01953125,0.0478515625,1.00439453125,1.005723429261326,2.4356842041015625,-2.6378631591796875,-5.1136016845703125,6.24818387830477
1782416123.805106,0.0419921912252903,0.0517578087747097,1.0068359375,1.0090395532061984,3.4160614013671875,-2.8209686279296875,-6.3343048095703125,7.729861377684586
1782416123.815851,0.0224609412252903,0.0541992150247097,0.9804686903953552,0.9822224298169959,2.1305084228515625,-1.9664764404296875,-7.5550079345703125,8.092233351926206
1782416123.826596,0.005859375,0.04736328125,0.9877929091453552,0.9889451168007258,-0.0057220458984375,-0.5588531494140625,-8.775711059570312,8.793489306611113
1782416123.837207,0.00634765625,0.03271484375,0.9892577528953552,0.9898189003070323,-2.323150634765625,3.650665283203125,-7.7381134033203125,8.865821164699971
1782416123.84782,0.01611328125,0.0263671875,0.9897460341453552,0.990228296159911,-2.9926300048828125,4.3811798095703125,-6.4563751220703125,8.356754788002332
1782416123.858433,0.0039062537252902985,0.0297851525247097,0.9868163466453552,0.987273475859436,-3.7899017333984375,4.2018890380859375,-4.6253204345703125,7.308407197170732
1782416123.86644,-0.0053710900247097015,0.0322265587747097,0.9809569716453552,0.9815008812620291,-3.177642822265625,2.857208251953125,-3.1604766845703125,5.3150414649970354
1782416123.874448,0.009765625,0.0493163987994194,0.9907225966453552,0.99199734784217,-2.689361572265625,2.002716064453125,-2.6721954345703125,4.287676030408089
1782416123.882456,0.02099609375,0.0581054612994194,0.9833983778953552,0.9853372266553178,-2.994537353515625,1.209259033203125,-2.5501251220703125,4.114936148860374
1782416123.890464,0.0239257849752903,0.0561523400247097,0.9931640028953552,0.9950378209515754,-3.7899017333984375,0.4177093505859375,-3.6487579345703125,5.277430313653912
1782416123.901108,0.0219726599752903,0.0541992150247097,0.9995116591453552,1.0012212090558137,-4.398345947265625,-0.621795654296875,-4.5032501220703125,6.325451649444228
1782416123.911752,0.02001953125,0.04150390625,1.00244140625,1.0034999396262843,-4.703521728515625,-1.110076904296875,-6.2732696533203125,7.918920351117411
1782416123.922396,0.0073242224752902985,0.0444335900247097,1.0107421875,1.0117449074493217,-4.154205322265625,-1.476287841796875,-6.9446563720703125,8.225879878621747
1782416123.933078,-0.00048827752470970154,0.0322265587747097,1.01953125,1.020040567444238,-3.6067962646484375,-2.2716522216796875,-6.8225860595703125,8.044691644257556
1782416123.943759,0.005859375,0.02392578125,1.0146484375,1.014947401102641,-3.3016204833984375,-2.8209686279296875,-6.7043304443359375,7.987903887942653
1782416123.95444,-0.00048827752470970154,0.015624996274709702,1.025390625,1.0255097818945544,-2.445220947265625,-2.880096435546875,-5.2967071533203125,6.506086967373783
1782416123.96243,-0.0043945275247097015,0.010253902524709702,1.029296875,1.0293573292467089,-1.346588134765625,-2.391815185546875,-4.6253204345703125,5.37844481322974
1782416123.97042,-0.0004882737994194031,0.02294921875,1.0107421875,1.0110028064475507,-0.064849853515625,-1.415252685546875,-3.2215118408203125,3.519273249975642
1782416123.97841,0.008789066225290298,0.0419921837747097,1.009765625,1.0106766093142368,0.118255615234375,0.049591064453125,-2.3059844970703125,2.309547177465028
1782416123.9864,0.012695316225290298,0.0444335900247097,1.00341796875,1.0044815254582435,-0.7381439208984375,2.2449493408203125,-2.3670196533203125,3.3447624773686826
1782416123.997047,-0.0063476525247097015,0.0483398400247097,0.9960936903953552,0.9972861539556371,-1.407623291015625,3.955841064453125,-2.1266937255859375,4.706687588853746
1782416124.007694,-0.015136711299419403,0.03271484375,0.9765624403953552,0.9772274970657961,-2.017974853515625,5.970001220703125,-2.3670196533203125,6.7317099702692795
1782416124.018341,-0.01904296875,0.02734375,0.9916991591453552,0.99225880574197,-2.567291259765625,6.763458251953125,-2.7942657470703125,7.755209410688547
1782416124.026354,-0.0219726525247097,0.0317382775247097,0.9799804091453552,0.9807403927787949,-1.956939697265625,5.786895751953125,-2.0618438720703125,6.447400683647721
1782416124.034368,0.0019531287252902985,0.0068359337747097015,0.9873046278953552,0.9873302248822202,-1.5926361083984375,3.8928985595703125,-1.0852813720703125,4.343844452261378
1782416124.042382,0.02001953125,0.017578125,0.9638671278953552,0.9642352474096901,-1.529693603515625,3.040313720703125,0.1926422119140625,3.4088973382522743
1782416124.050396,0.0229492224752903,0.0214843712747097,0.9765624403953552,0.9770682908641656,-2.689361572265625,1.270294189453125,0.6809234619140625,3.0512243042953164
1782416124.061559,0.008300784975290298,0.0341796837747097,0.9809569716453552,0.9815873542552244,-3.9691925048828125,-0.8678436279296875,1.1692047119140625,4.227845948200821
1782416124.072722,0.0244140625,0.0126953125,1.01171875,1.0120929040897328,-3.7899017333984375,-3.3092498779296875,1.2340545654296875,5.180480728064914
1782416124.083885,0.05712890625,0.0126953125,1.01220703125,1.013897409504893,-2.079010009765625,-5.138397216796875,0.6237030029296875,5.578029581685189
1782416124.094055,0.0498046875,0.0434570237994194,1.021484375,1.0236207052339341,-0.614166259765625,-6.114959716796875,-0.1087188720703125,6.146686288222887
