timestamp,accel_x,accel_y,accel_z,accel_rms,gyro_x,gyro_y,gyro_z,gyro_rms
1781008106.155388,-0.1201171875,-0.10205078125,0.9746093153953552,0.9872719069952556,0.00762939453125,0.17547607421875,-0.1239776611328125,0.21498958287345044
1781008106.163395,-0.13427734375,-0.10693359375,0.9843749403953552,0.9992293139190848,0.06866455078125,0.29754638671875,-0.1239776611328125,0.32957416956329766
1781008106.171402,-0.1225585862994194,-0.0947265625,0.9814452528953552,0.9935937364685862,0.2536773681640625,0.1125335693359375,-0.1850128173828125,0.33353523643246075
1781008106.179409,-0.1220703050494194,-0.10546875,0.9775390028953552,0.9907609796429541,0.37384033203125,0.17547607421875,-0.0629425048828125,0.4177441865512701
1781008106.190063,-0.12451171875,-0.09423828125,0.9785155653953552,0.9908969338331939,0.49591064453125,0.11444091796875,-0.0629425048828125,0.5128214601455879
1781008106.200717,-0.1259765475988388,-0.10302734375,0.9780272841453552,0.9914747060000283,0.49591064453125,0.11444091796875,-0.2498626708984375,0.5669704096100879
1781008106.211371,-0.13525390625,-0.10546875,0.9848632216453552,0.9996863716846971,0.25177001953125,0.29754638671875,0.1201629638671875,0.40787391785881205
1781008106.222031,-0.1201171875,-0.10791015625,0.9648436903953552,0.9782617683680261,0.49591064453125,0.48065185546875,0.2384185791015625,0.7306141200290068
1781008106.23269,-0.12841796875,-0.10791015625,0.9824218153953552,0.9966385502700971,0.49591064453125,0.54168701171875,0.3643035888671875,0.8197983233001284
1781008106.243349,-0.138671875,-0.099609375,0.9804686903953552,0.9952239794887828,0.7419586181640625,0.3566741943359375,0.0553131103515625,0.8250930930203448
1781008106.251367,-0.1362304538488388,-0.1123046875,0.9770507216453552,0.9928742075701447,0.67901611328125,0.23651123046875,0.6084442138671875,0.941915498132331
1781008106.259383,-0.126953125,-0.10791015625,0.9707030653953552,0.9848990501249884,0.86212158203125,-0.06866455078125,0.5435943603515625,1.0215004999235588
1781008106.267399,-0.13720703125,-0.1010742112994194,0.9907225966453552,1.0052726143280504,0.55694580078125,0.11444091796875,0.7915496826171875,0.9745954282494702
1781008106.275415,-0.1445312350988388,-0.09228515625,0.9809569716453552,0.995832520157335,0.9250640869140625,-0.1316070556640625,1.0318756103515625,1.3920600767341622
1781008106.28742,-0.146484375,-0.0917968675494194,0.9697265028953552,0.9850146331038344,0.80108642578125,-0.92315673828125,1.9512176513671875,2.3024352646734583
1781008106.299426,-0.146484375,-0.0986328125,0.9736327528953552,0.9895184896359384,0.49591064453125,-1.16729736328125,2.5005340576171875,2.803779783611087
1781008106.311432,-0.1411132663488388,-0.11181640625,0.9755858778953552,0.9920603145954152,0.2536773681640625,-2.2068023681640625,2.8057098388671875,3.5785942210830917
1781008106.323438,-0.1445312350988388,-0.10595703125,0.9755858778953552,0.9919092577143134,0.6198883056640625,-2.2678375244140625,3.4160614013671875,4.146905357799997
1781008106.33145,-0.130859375,-0.0859375,0.9819335341453552,0.9943354038808173,0.1316070556640625,-2.0847320556640625,3.5381317138671875,4.108747276930845
1781008106.33946,-0.1171874925494194,-0.0917968675494194,0.9716796278953552,0.9830162117527675,-0.11444091796875,-2.51007080078125,3.1681060791015625,4.043568755082623
1781008106.34747,-0.1166992038488388,-0.09228515625,0.9853515028953552,0.9965203653218407,-0.5397796630859375,-2.0236968994140625,3.0498504638671875,3.6997701384451114
1781008106.35548,-0.1206054612994194,-0.099609375,0.9672850966453552,0.9798510922968604,-0.4787445068359375,-2.0847320556640625,2.8629302978515625,3.5737478838182373
1781008106.366115,-0.1064452975988388,-0.091796875,0.9755858778953552,0.9856597145006597,-0.41961669921875,-2.14385986328125,2.9277801513671875,3.6529590611436107
1781008106.37675,-0.119140625,-0.09375,0.9882811903953552,0.999841618614994,-0.049591064453125,-1.83868408203125,1.8863677978515625,2.634691992616983
1781008106.387385,-0.1015624925494194,-0.09912109375,0.9877929091453552,0.9979352496414239,0.19073486328125,-1.83868408203125,1.5201568603515625,2.393327353635507
1781008106.398063,-0.11328125,-0.091796875,0.9946288466453552,1.0052590961739156,-0.11444091796875,-1.35040283203125,0.9746551513671875,1.6693223764600251
1781008106.40874,-0.11474609375,-0.10888671875,0.9687499403953552,0.9815800683423791,0.0705718994140625,-1.2912750244140625,0.3643035888671875,1.3435358895556007
1781008106.419417,-0.1113281100988388,-0.0927734375,0.9780272841453552,0.9887053288702782,0.0705718994140625,-1.0471343994140625,0.4863739013671875,1.1567326464461425
1781008106.430075,-0.11474609375,-0.08984375,0.9692382216453552,0.98013330508824,0.2536773681640625,-0.9822845458984375,0.3032684326171875,1.0588705673743277
1781008106.440733,-0.1103515550494194,-0.095703125,0.9819335341453552,0.9927386460271294,0.4367828369140625,-0.8640289306640625,0.1201629638671875,0.9755841211974121
1781008106.451391,-0.126953125,-0.09423828125,0.9746093153953552,0.9873506303515599,0.49591064453125,-0.67901611328125,-0.1850128173828125,0.8609413406562035
1781008106.459551,-0.1079101487994194,-0.10302734375,0.9799804091453552,0.9912723319465702,-0.0514984130859375,0.0514984130859375,-0.4329681396484375,0.43905077502649803
1781008106.467709,-0.1210937425494194,-0.09326171875,0.9799804091453552,0.9918281327818479,0.06866455078125,0.78582763671875,-0.5512237548828125,0.9623344133470826
1781008106.475867,-0.1166992112994194,-0.1044921875,0.9711913466453552,0.9837428296893758,-0.17547607421875,0.66375732421875,-0.4901885986328125,0.8435938005384224
1781008106.484025,-0.1230468675494194,-0.0947265625,0.9672850966453552,0.9796704096016194,-0.4177093505859375,0.8449554443359375,-0.3070831298828125,0.9913278232444056
1781008106.49193,-0.1240234300494194,-0.10498046875,0.9643554091453552,0.9779489072380512,-0.66375732421875,0.90789794921875,-0.4901885986328125,1.226840386472196
1781008106.499835,-0.146484375,-0.10302734375,0.9877929091453552,1.0038959791916517,-0.6008148193359375,1.2111663818359375,-0.3070831298828125,1.3864351770933452
1781008106.50774,-0.12939453125,-0.10791015625,0.9858397841453552,1.0001338043197356,-0.66375732421875,1.09100341796875,-0.0629425048828125,1.2786023628925658
1781008106.515645,-0.1230468675494194,-0.1142578125,0.9750975966453552,0.9894496967074967,-0.4787445068359375,0.8449554443359375,-0.3681182861328125,1.0385841700718752
1781008106.526254,-0.12890625,-0.1025390625,0.9819335341453552,0.9956528240840925,-0.4787445068359375,0.8449554443359375,-0.2498626708984375,1.0027848024611399
1781008106.536863,-0.12353515625,-0.11083984375,0.9716796278953552,0.9857523548331458,-0.0514984130859375,0.8449554443359375,-0.1239776611328125,0.8555537679908107
1781008106.547472,-0.12646484375,-0.1005859375,0.9912108778953552,1.0042957193902335,-0.6008148193359375,0.7228851318359375,-0.3681182861328125,1.0094812695382194
1781008106.55822,-0.1123046800494194,-0.1064453050494194,0.9833983778953552,0.995497520727843,-0.29754638671875,0.66375732421875,-0.4901885986328125,0.8771502151473368
1781008106.568969,-0.1181640625,-0.09326171875,0.9814452528953552,0.9929225943050827,-0.354766845703125,0.11444091796875,-0.4901885986328125,0.615825544083124
1781008106.579718,-0.1303710788488388,-0.10205078125,0.9819335341453552,0.9957933749694928,-0.354766845703125,0.60272216796875,-0.1850128173828125,0.7234385040672227
1781008106.587951,-0.13134765625,-0.0908203125,0.9790038466453552,0.9919420687274878,-0.5397796630859375,0.4177093505859375,-0.4329681396484375,0.8082726001781346
1781008106.596186,-0.12890625,-0.09619140625,0.9877929091453552,1.000801898121331,-0.17547607421875,0.66375732421875,0.1201629638671875,0.6969969698374635
1781008106.604421,-0.1201171875,-0.11572265625,0.9790038466453552,0.9931104690057738,-0.0514984130859375,0.4825592041015625,-0.1850128173828125,0.5193700170489526
1781008106.612656,-0.1142578125,-0.103515625,0.9970702528953552,1.0089199282129546,-0.1125335693359375,0.5397796630859375,-0.3070831298828125,0.6311306818459064
1781008106.622883,-0.1166992038488388,-0.09228515625,0.9848632216453552,0.9960375593283156,0.2536773681640625,0.9059906005859375,-0.3070831298828125,0.9896823854789664
1781008106.63311,-0.11474609375,-0.09912109375,0.9692382216453552,0.9810272104051604,-0.0514984130859375,0.9059906005859375,-0.3681182861328125,0.9792763284618886
1781008106.643337,-0.12353515625,-0.1015625,0.9770507216453552,0.9900525182553052,-0.11444091796875,0.66375732421875,0.0553131103515625,0.6758180593446206
1781008106.654024,-0.1435546875,-0.09716796875,0.9873046278953552,1.002407098297797,0.06866455078125,0.96893310546875,-0.4901885986328125,1.0880400018551282
1781008106.664714,-0.1196288987994194,-0.10546875,0.9682616591453552,0.981307989993682,0.06866455078125,0.96893310546875,-0.2498626708984375,1.002984315787544
1781008106.675404,-0.1298827975988388,-0.09814453125,0.9790038466453552,0.9924466846500044,0.133514404296875,0.60272216796875,-0.4901885986328125,0.7882797537329626
1781008106.686061,-0.1337890625,-0.0927734375,0.9868163466453552,1.0001564507399237,0.00762939453125,0.60272216796875,-0.2498626708984375,0.6525056120297851
1781008106.696717,-0.1337890625,-0.103515625,0.9731444716453552,0.9877373945324167,0.1316070556640625,0.3566741943359375,-0.3681182861328125,0.5291955882196232
1781008106.707373,-0.130859375,-0.095703125,0.9868163466453552,1.0000448820761207,0.31280517578125,0.60272216796875,-0.7953643798828125,1.0458133612374914
1781008106.71805,-0.13330078125,-0.10595703125,0.9741210341453552,0.9888921983298231,0.1316070556640625,0.5397796630859375,-0.9212493896484375,1.075817335661287
1781008106.728728,-0.1298828125,-0.10986328125,0.9746093153953552,0.989344633181648,0.19073486328125,0.41961669921875,-0.5512237548828125,0.718544076783925
1781008106.739406,-0.13330078125,-0.09375,0.9843749403953552,0.9977736136319799,0.1316070556640625,0.1773834228515625,-0.7953643798828125,0.8254633805260356
1781008106.747436,-0.13330078125,-0.09033203125,0.9746093153953552,0.9878219939882966,0.37384033203125,-0.55694580078125,-0.6732940673828125,0.9504052399024294
1781008106.755467,-0.13037109375,-0.095703125,0.9780272841453552,0.9913087706426673,0.19073486328125,-0.86212158203125,-0.4901885986328125,1.0099100318862977
1781008106.763498,-0.1445312350988388,-0.09423828125,0.9804686903953552,0.9955345219618117,0.1316070556640625,-1.4133453369140625,-0.3681182861328125,1.466416220267168
1781008106.771529,-0.13525390625,-0.0947265625,0.9750975966453552,0.9889803151643101,0.00762939453125,-1.41143798828125,0.0553131103515625,1.4125420144551806
1781008106.782137,-0.140625,-0.09033203125,0.9848632216453552,0.9989448592612202,-0.60272216796875,-1.96075439453125,-0.1239776611328125,2.055043130421968
1781008106.792745,-0.12451171875,-0.0927734375,0.9848632216453552,0.9970284068978745,-0.4177093505859375,-2.0847320556640625,0.1811981201171875,2.1338747864423153
1781008106.803353,-0.12646484375,-0.115234375,0.9770507216453552,0.9919175522965918,-0.48065185546875,-2.02178955078125,0.5435943603515625,2.148058198098884
1781008106.814083,-0.1230468675494194,-0.099609375,0.9868163466453552,0.9994343706357616,-0.7839202880859375,-1.9016265869140625,0.3643035888671875,2.0888829069607224
1781008106.824816,-0.1230468675494194,-0.09912109375,0.9897460341453552,1.002278771074385,-0.7228851318359375,-2.0236968994140625,0.4863739013671875,2.203286551145513
1781008106.835549,-0.11865234375,-0.0986328125,0.9956054091453552,1.0074904173730481,-0.66375732421875,-1.53350830078125,0.2384185791015625,1.6879173299897834
1781008106.84354,-0.1176757737994194,-0.0888671875,0.9804686903953552,0.9914957476454628,-0.17547607421875,-1.04522705078125,0.3032684326171875,1.1023897598082901
1781008106.851531,-0.107421875,-0.09716796875,0.9702147841453552,0.9809677878267639,-0.1125335693359375,-0.6198883056640625,0.2384185791015625,0.6736235852368565
1781008106.859522,-0.1113281175494194,-0.10546875,0.9824218153953552,0.9943189781696642,-0.17547607421875,-0.31280517578125,0.0553131103515625,0.3629028393324129
1781008106.867513,-0.11865234375,-0.1083984375,0.9814452528953552,0.9945166586642163,-0.11444091796875,-0.19073486328125,-0.0019073486328125,0.22244134003205068
1781008106.878131,-0.115234375,-0.109375,0.9833983778953552,0.996149698315397,0.31280517578125,0.29754638671875,-0.2498626708984375,0.49881087052451406
1781008106.888749,-0.11962890625,-0.1044921875,0.9804686903953552,0.9932515015365894,-0.049591064453125,0.29754638671875,-0.4901885986328125,0.5755675357007016
1781008106.899367,-0.1025390550494194,-0.09814453125,0.9804686903953552,0.9906893860692628,0.1316070556640625,0.3566741943359375,-0.2498626708984375,0.45493763563180245
1781008106.907673,-0.1137695237994194,-0.0947265625,0.9887694716453552,0.9997908252461851,0.00762939453125,0.72479248046875,-0.5512237548828125,0.9106206539235006
1781008106.915981,-0.1083984375,-0.1015625,0.9814452528953552,0.9926227617224578,0.00762939453125,0.48065185546875,-0.4329681396484375,0.6469511757289683
1781008106.924289,-0.1249999925494194,-0.095703125,0.9868163466453552,0.9992950456589917,-0.29754638671875,0.90789794921875,-0.4329681396484375,1.0489394398131975
1781008106.932597,-0.14111328125,-0.09912109375,0.9892577528953552,1.004175707251926,-0.2346038818359375,0.9708404541015625,-0.6732940673828125,1.2045310580742656
1781008106.940611,-0.12939453125,-0.11083984375,0.9765624403953552,0.9913135808970154,-0.2956390380859375,1.0280609130859375,-0.6732940673828125,1.2639764962325688
1781008106.948625,-0.12646484375,-0.095703125,0.9746093153953552,0.9874288645238606,-0.17547607421875,0.66375732421875,-0.3681182861328125,0.779022920498889
1781008106.956639,-0.1240234375,-0.09716796875,0.9819335341453552,0.9944932843812998,-0.29754638671875,0.66375732421875,-0.6732940673828125,0.9911773498604122
1781008106.964653,-0.1235351487994194,-0.1005859375,0.9877929091453552,1.00055649274266,-0.3566741943359375,0.7228851318359375,-0.0019073486328125,0.8060912062003021
1781008106.9749,-0.1396484225988388,-0.10400390625,0.9873046278953552,1.002541232425474,-0.6008148193359375,0.4177093505859375,0.1201629638671875,0.7415515400738831
1781008106.985147,-0.1162109300494194,-0.1044921875,0.9667968153953552,0.979346557542368,-0.29754638671875,0.29754638671875,-0.0019073486328125,0.42079845826425616
1781008106.995394,-0.12890625,-0.10009765625,0.9809569716453552,0.9944410200184985,-0.41961669921875,-0.00762939453125,-0.1239776611328125,0.4376149476241812
1781008107.003395,-0.13916015625,-0.0927734375,0.9829100966453552,0.9970379721357018,-0.2346038818359375,0.4177093505859375,0.3032684326171875,0.5670024913186024
1781008107.011396,-0.1206054538488388,-0.10107421875,0.9897460341453552,1.0021770728271855,-0.48065185546875,-0.00762939453125,-0.0019073486328125,0.4807161863358386
1781008107.019397,-0.1303710788488388,-0.09765625,0.9877929091453552,1.0011334540020709,-0.17547607421875,-0.00762939453125,0.4863739013671875,0.5171166524250368
1781008107.027398,-0.1171874925494194,-0.09130859375,0.9819335341453552,0.9931080672221982,-0.48065185546875,0.05340576171875,0.4863739013671875,0.6858847960710681
1781008107.035384,-0.1059570237994194,-0.10546875,0.9848632216453552,0.9961456286450597,-0.049591064453125,-0.19073486328125,0.4253387451171875,0.46877724970648366
1781008107.04337,-0.1142578125,-0.1025390625,0.9697265028953552,0.9818037469236505,-0.11444091796875,-0.00762939453125,0.4253387451171875,0.4405314738634544
1781008107.051356,-0.1166992112994194,-0.1108398362994194,0.9882811903953552,1.0013010968325406,0.00762939453125,0.05340576171875,0.2384185791015625,0.24444590793564408
1781008107.059342,-0.1127929612994194,-0.10791015625,0.9853515028953552,0.9976394329609907,0.3757476806640625,0.0514984130859375,0.3643035888671875,0.5258854541973041
1781008107.068949,-0.1225585862994194,-0.11279296875,0.9794921278953552,0.9935530632453012,0.1926422119140625,-0.1316070556640625,0.0553131103515625,0.23977276552700963
1781008107.078556,-0.1225585862994194,-0.0908203125,0.9843749403953552,0.996123967946093,0.19073486328125,0.11444091796875,-0.1239776611328125,0.25465068669927005
1781008107.088163,-0.1313476413488388,-0.09716796875,0.9916991591453552,1.0050676789592374,0.25177001953125,0.29754638671875,-0.0629425048828125,0.3948211669921875
1781008107.09777,-0.1181640625,-0.09716796875,0.9897460341453552,1.0014996614697198,0.2536773681640625,0.4177093505859375,-0.1239776611328125,0.5041862445024987
1781008107.107377,-0.1191406175494194,-0.10498046875,0.9790038466453552,0.9917983249206609,0.00762939453125,0.66375732421875,-0.3070831298828125,0.7313904851538421
1781008107.115389,-0.1230468675494194,-0.10009765625,0.9824218153953552,0.9951445602349304,-0.4177093505859375,0.5397796630859375,-0.3070831298828125,0.7484271740835698
1781008107.123401,-0.13720703125,-0.11328125,0.9741210341453552,0.9902374463685047,-0.11444091796875,0.60272216796875,-0.3681182861328125,0.7154591588985632
1781008107.131413,-0.126953125,-0.103515625,0.9848632216453552,0.9983927813821944,-0.48065185546875,0.72479248046875,-0.4329681396484375,0.9714997456820174
1781008107.139425,-0.1259765625,-0.10009765625,0.9707030653953552,0.9839482081156502,-0.60272216796875,0.48065185546875,-0.3070831298828125,0.8298194180574028
1781008107.147437,-0.1206054538488388,-0.111328125,0.9892577528953552,1.0027813962064054,-0.2956390380859375,-0.1316070556640625,0.0553131103515625,0.3283022968510976
1781008107.155449,-0.1201171875,-0.1083984375,0.9897460341453552,1.0028836283895606,-0.1125335693359375,0.2346038818359375,-0.4329681396484375,0.5051377985763941
1781008107.167433,-0.11962890625,-0.10400390625,0.9750975966453552,0.987898380760581,-0.1125335693359375,0.2346038818359375,-0.1239776611328125,0.2882242981775466
1781008107.179417,-0.1196288987994194,-0.0908203125,0.9902343153953552,1.0015604834342593,-0.11444091796875,0.60272216796875,-0.2498626708984375,0.6624213838448916
1781008107.191401,-0.13330078125,-0.09912109375,0.9785155653953552,0.9925153909280442,0.0705718994140625,0.6656646728515625,-0.2498626708984375,0.7145076654438266
1781008107.203385,-0.1328125,-0.09716796875,0.9843749403953552,0.9980354691019804,-0.2346038818359375,0.5397796630859375,-0.0629425048828125,0.5919145419522835
1781008107.21141,-0.1298828125,-0.11474609375,0.9804686903953552,0.9956681494651604,0.1316070556640625,0.3566741943359375,-0.4329681396484375,0.5761929433413625
1781008107.219435,-0.1318359375,-0.1083984375,0.9804686903953552,0.9952134386725936,0.00762939453125,0.72479248046875,-0.0629425048828125,0.7275603798489028
1781008107.22746,-0.13037109375,-0.1005859375,0.9770507216453552,0.9908290799002796,-0.11444091796875,0.60272216796875,-0.3070831298828125,0.6860545052144943
1781008107.235485,-0.1171874925494194,-0.10791015625,0.9785155653953552,0.9913981147616286,0.133514404296875,0.48065185546875,-0.1850128173828125,0.5320545506959108
1781008107.246124,-0.13037109375,-0.1005859375,0.9750975966453552,0.9889031681069047,0.19073486328125,0.48065185546875,-0.1239776611328125,0.5317672937445774
1781008107.256763,-0.13671875,-0.1103515625,0.9780272841453552,0.9936834770088981,0.6198883056640625,0.5397796630859375,-0.1239776611328125,0.8312605227244904
1781008107.267402,-0.134765625,-0.099609375,1.00048828125,1.0144262428526336,0.2536773681640625,0.6008148193359375,-0.2498626708984375,0.6983996052123894
1781008107.275394,-0.1103515625,-0.1123046875,0.9726561903953552,0.9853171443221058,0.5588531494140625,0.4177093505859375,0.0553131103515625,0.6998981957068515
1781008107.283387,-0.1240234375,-0.0966796875,0.9672850966453552,0.9799843025358255,0.4367828369140625,0.7228851318359375,-0.2498626708984375,0.8807800603786726
1781008107.29138,-0.1303710788488388,-0.1025390625,0.9838866591453552,0.9977694300702931,0.31280517578125,1.02996826171875,-0.0629425048828125,1.0782594572107425
1781008107.299373,-0.1210937350988388,-0.1064453125,0.9750975966453552,0.988336794932253,0.31280517578125,0.60272216796875,-0.1239776611328125,0.6902836737287441
1781008107.310054,-0.1279296875,-0.1015625,0.9838866591453552,0.9973534500839238,0.31280517578125,0.72479248046875,-0.1239776611328125,0.7990880290678521
1781008107.320735,-0.1230468675494194,-0.09033203125,0.9794921278953552,0.9913149025876925,0.37384033203125,0.60272216796875,-0.2498626708984375,0.7519720473014181
1781008107.331416,-0.1347656100988388,-0.10693359375,0.9838866591453552,0.9988140573609338,0.4367828369140625,0.5397796630859375,-0.0019073486328125,0.6943665957422432
1781008107.339424,-0.12890625,-0.09375,0.9780272841453552,0.9909304982297203,0.6809234619140625,0.5397796630859375,-0.4329681396484375,0.9708142230194348
1781008107.347434,-0.12646484375,-0.0947265625,0.9819335341453552,0.9945652034064765,0.5588531494140625,0.9059906005859375,-0.3681182861328125,1.1263422586165555
1781008107.355444,-0.12744140625,-0.1005859375,0.9921874403953552,1.0053828921003272,0.6198883056640625,0.6656646728515625,-0.4329681396484375,1.0073888912094817
1781008107.363454,-0.1337890625,-0.10498046875,0.9853515028953552,0.9999189948799522,0.19073486328125,0.72479248046875,-0.3681182861328125,0.8349940121942909
1781008107.374171,-0.11962890625,-0.11279296875,0.9887694716453552,1.0023464456303741,0.19073486328125,0.29754638671875,-0.6122589111328125,0.7069473916649232
1781008107.384888,-0.13427734375,-0.11279296875,0.9863280653953552,1.0017962424717604,0.2536773681640625,-0.0705718994140625,-0.6122589111328125,0.6664784875501167
1781008107.395605,-0.13818359375,-0.11328125,0.9804686903953552,0.9966173789518274,0.4367828369140625,-0.0705718994140625,-0.3681182861328125,0.5755612149849608
1781008107.406231,-0.1328125,-0.09912109375,0.9702147841453552,0.9842666705505498,0.4367828369140625,-0.0705718994140625,-0.4329681396484375,0.6190485033987514
1781008107.416858,-0.126953125,-0.10546875,0.9965819716453552,1.010156611314489,0.00762939453125,-0.37384033203125,-0.1850128173828125,0.41718646204074583
1781008107.427485,-0.13525390625,-0.10546875,0.9770507216453552,0.991990619436573,0.06866455078125,-0.19073486328125,-0.1850128173828125,0.2744528214481205
1781008107.435449,-0.13427734375,-0.1015625,0.9780272841453552,0.9924125729672841,0.0705718994140625,-0.2536773681640625,-0.3070831298828125,0.40451532574697113
1781008107.443413,-0.1347656100988388,-0.09814453125,0.9804686903953552,0.9945415886352754,0.0095367431640625,-0.1316070556640625,-0.5512237548828125,0.5667971370056909
1781008107.451377,-0.1357421875,-0.10986328125,0.9814452528953552,0.9968604047032511,0.31280517578125,-0.37384033203125,-0.7381439208984375,0.8845677587432704
1781008107.459341,-0.1357421875,-0.1103515625,0.9775390028953552,0.9930689356711959,0.3757476806640625,-0.2536773681640625,-0.3681182861328125,0.5839945198616394
1781008107.470031,-0.125,-0.09619140625,0.9921874403953552,1.0046460588260122,0.37384033203125,0.29754638671875,-0.4329681396484375,0.6447882257402411
1781008107.480721,-0.12646484375,-0.095703125,0.9877929091453552,1.0004435397349125,0.55694580078125,-0.00762939453125,-0.1239776611328125,0.5706288576025084
1781008107.491411,-0.13671875,-0.1059570237994194,0.9716796278953552,0.9869550175974836,0.6198883056640625,0.1773834228515625,-0.1850128173828125,0.6707876957708186
1781008107.499452,-0.1254882663488388,-0.09716796875,0.9785155653953552,0.9913029964966462,0.9250640869140625,0.1125335693359375,-0.2498626708984375,0.9647998359422204
1781008107.507495,-0.1279296875,-0.10205078125,0.9814452528953552,0.9949950509064911,0.438690185546875,0.29754638671875,-0.0629425048828125,0.5338021075880635
1781008107.515538,-0.1201171875,-0.09228515625,0.9936522841453552,1.0051316085887851,0.5588531494140625,0.5397796630859375,0.0553131103515625,0.7789341868655841
1781008107.523581,-0.13427734375,-0.10546875,0.9736327528953552,0.9884911733453698,0.6198883056640625,0.2346038818359375,0.1811981201171875,0.6871195322544363
1781008107.534193,-0.1279296875,-0.1025390625,0.9731444716453552,0.9868588688237767,0.1316070556640625,0.3566741943359375,0.3032684326171875,0.486321539958739
1781008107.544805,-0.12451171875,-0.08935546875,0.9707030653953552,0.9827268232166814,0.5588531494140625,0.1773834228515625,0.0553131103515625,0.5889323063725719
1781008107.555417,-0.130859375,-0.1044921875,0.9814452528953552,0.9956292370680733,0.31280517578125,0.23651123046875,0.3643035888671875,0.5352585776938971
1781008107.563412,-0.12939453125,-0.10009765625,0.9667968153953552,0.9805399368525236,0.19073486328125,0.17547607421875,-0.1239776611328125,0.28730141168136275
1781008107.571409,-0.1240234375,-0.09912109375,0.9833983778953552,0.996132106661927,0.1926422119140625,0.0514984130859375,-0.3070831298828125,0.3661463601077262
1781008107.579406,-0.1279296875,-0.1005859375,0.9794921278953552,0.9929191127053465,0.31280517578125,0.11444091796875,0.1201629638671875,0.3540945348157973
1781008107.587403,-0.1328125,-0.10400390625,0.9711913466453552,0.9857325217676077,0.3757476806640625,0.0514984130859375,-0.1850128173828125,0.42198121838621927
1781008107.598046,-0.1191406175494194,-0.10498046875,0.9726561903953552,0.9855330792436305,0.19073486328125,0.11444091796875,0.1201629638671875,0.2528154458528875
1781008107.608689,-0.1215820237994194,-0.103515625,0.9790038466453552,0.9919406256811469,0.00762939453125,0.05340576171875,-0.0019073486328125,0.053981673042621255
1781008107.619332,-0.1220703050494194,-0.099609375,0.9848632216453552,0.9973859595524779,-0.1125335693359375,-0.1316070556640625,-0.0019073486328125,0.17317003004809173
1781008107.627364,-0.1215820237994194,-0.0961913987994194,0.9956054091453552,1.0076036445118892,-0.17547607421875,-0.06866455078125,0.4863739013671875,0.5215996981290861
1781008107.635396,-0.1206054538488388,-0.09765625,0.9731444716453552,0.9854402982200721,-0.11444091796875,-0.06866455078125,0.1811981201171875,0.22504289140855735
1781008107.643428,-0.11474609375,-0.10107421875,0.9624022841453552,0.9744746380768479,0.00762939453125,-0.37384033203125,0.1201629638671875,0.3927517528916908
1781008107.65146,-0.1225585862994194,-0.09814453125,0.9956054091453552,1.0079102573193135,-0.0514984130859375,-0.1316070556640625,0.1811981201171875,0.22979395637165093
1781008107.659854,-0.1181640550494194,-0.09912109375,0.9829100966453552,0.9949371805392037,0.1316070556640625,0.0514984130859375,0.3032684326171875,0.3345807015848629
1781008107.668248,-0.1240234375,-0.1083984375,0.9794921278953552,0.9932456206350616,-0.1125335693359375,-0.1316070556640625,0.4863739013671875,0.5162787941211497
1781008107.676642,-0.1220703050494194,-0.10986328125,0.9790038466453552,0.9926830469431203,0.00762939453125,-0.00762939453125,0.4863739013671875,0.48649356342398364
1781008107.685036,-0.12451171875,-0.10107421875,0.9843749403953552,0.9973530914778181,-0.0514984130859375,0.0514984130859375,0.1811981201171875,0.19528679380527098
1781008107.695165,-0.1259765475988388,-0.09814453125,0.9775390028953552,0.9904973204107369,0.31280517578125,0.11444091796875,0.3032684326171875,0.4504614788449224
1781008107.705294,-0.1123046800494194,-0.1015624925494194,0.9794921278953552,0.9911266869895211,0.00762939453125,-0.00762939453125,0.0553131103515625,0.05635561638906157
1781008107.715423,-0.12744140625,-0.10791015625,0.9814452528953552,0.9955504498917696,0.55694580078125,0.48065185546875,0.1811981201171875,0.7576592835222324
1781008107.726098,-0.1230468675494194,-0.1005859375,0.9882811903953552,1.0009784082215454,0.6809234619140625,0.5397796630859375,0.1811981201171875,0.8876100519936684
1781008107.736773,-0.115234375,-0.11083984375,0.9790038466453552,0.9919742758209849,0.5588531494140625,-0.0705718994140625,0.3643035888671875,0.6708310819114137
1781008107.747448,-0.1132812425494194,-0.09912109375,0.9765624403953552,0.9880950516679397,0.31280517578125,0.35858154296875,0.2384185791015625,0.5322322987326081
1781008107.755451,-0.1318359375,-0.0966796800494194,0.9809569716453552,0.9944869306182903,0.4367828369140625,0.3566741943359375,0.3032684326171875,0.6402870213817958
1781008107.763454,-0.1162109225988388,-0.111328125,0.9902343153953552,1.0032262602891717,0.49591064453125,0.60272216796875,0.1811981201171875,0.8012703275763758
1781008107.771457,-0.115234375,-0.080078125,0.9804686903953552,0.9904596509352308,0.133514404296875,0.48065185546875,-0.0019073486328125,0.4988546284230594
1781008107.77946,-0.1303710788488388,-0.0927734375,0.9746093153953552,0.9876572515610765,0.06866455078125,0.11444091796875,-0.3681182861328125,0.39156432016321435
1781008107.790126,-0.12451171875,-0.0927734375,0.9741210341453552,0.986418708245166,-0.4177093505859375,0.2346038818359375,-0.1850128173828125,0.513565794748192
1781008107.800792,-0.1162109300494194,-0.0947265625,0.9877929091453552,0.9991060670738925,-0.2346038818359375,0.4825592041015625,0.1201629638671875,0.549855894504161
1781008107.811458,-0.1069335862994194,-0.09814453125,0.9785155653953552,0.9892218419617155,-0.2346038818359375,0.0514984130859375,0.1811981201171875,0.3008717777673125
1781008107.822148,-0.1328125,-0.10302734375,0.9736327528953552,0.9880356932960562,-0.2346038818359375,0.0514984130859375,0.0553131103515625,0.24647638446639167
1781008107.83284,-0.1162109300494194,-0.115234375,0.9848632216453552,0.9983684223743556,-0.2346038818359375,0.1773834228515625,0.2384185791015625,0.3786123068995972
1781008107.843532,-0.12255859375,-0.0927734375,0.9760741591453552,0.9881033770607487,0.06866455078125,0.11444091796875,0.3643035888671875,0.3879802174093852
1781008107.85152,-0.1240234375,-0.1181640625,0.9775390028953552,0.992434915194677,-0.29754638671875,-0.19073486328125,-0.0019073486328125,0.3534363850809763
1781008107.85951,-0.1259765625,-0.095703125,0.9721679091453552,0.9849566619938838,-0.48065185546875,-0.00762939453125,-0.0019073486328125,0.4807161863358386
1781008107.8675,-0.1171874925494194,-0.08984375,0.9863280653953552,0.9973203399162311,-0.29754638671875,0.11444091796875,0.0553131103515625,0.323558520412735
1781008107.87549,-0.1259765475988388,-0.087890625,0.9853515028953552,0.9972524438505771,-0.0514984130859375,-0.0057220458984375,-0.2498626708984375,0.25517872691142296
1781008107.886127,-0.14013671875,-0.09033203125,0.9785155653953552,0.9926181982679742,-0.3566741943359375,-0.0705718994140625,-0.1850128173828125,0.4079541843001792
1781008107.896764,-0.1318359375,-0.10400390625,0.9780272841453552,0.9923380953407474,-0.23651123046875,-0.19073486328125,-0.1850128173828125,0.35573458196341445
1781008107.907401,-0.130859375,-0.10498046875,0.9794921278953552,0.9937554545527442,-0.0514984130859375,0.1125335693359375,0.0553131103515625,0.13555600670800333
1781008107.918042,-0.13916015625,-0.09814453125,0.9697265028953552,0.9845645679788919,0.0705718994140625,0.2346038818359375,-0.0629425048828125,0.25294492143611413
1781008107.928684,-0.1240234375,-0.09326171875,0.9809569716453552,0.9931546412584229,0.0705718994140625,0.0514984130859375,-0.0019073486328125,0.08738488150753256
1781008107.939326,-0.1210937425494194,-0.1103515625,0.9916991591453552,1.0051409772168385,-0.0514984130859375,0.4177093505859375,0.1201629638671875,0.4376897599929001
1781008107.94734,-0.12939453125,-0.09765625,0.9760741591453552,0.9894445169047035,-0.1125335693359375,0.3566741943359375,-0.3070831298828125,0.48392182611585177
1781008107.955355,-0.12841796875,-0.10205078125,0.9731444716453552,0.9868716731903541,0.3757476806640625,0.2346038818359375,-0.1850128173828125,0.4800573335476074
1781008107.96337,-0.1259765625,-0.099609375,0.9663085341453552,0.9795633236546539,0.37384033203125,0.48065185546875,-0.0629425048828125,0.6121638334136624
1781008107.971385,-0.1279296875,-0.0986328125,0.9750975966453552,0.9883874542046027,0.0705718994140625,0.5397796630859375,-0.1239776611328125,0.5583125810225301
1781008107.982144,-0.11962890625,-0.09814453125,0.9921874403953552,1.0041809304618068,0.00762939453125,0.48065185546875,-0.0629425048828125,0.48481560695525105
1781008107.992903,-0.1254882663488388,-0.103515625,0.9794921278953552,0.9929086655978729,0.19073486328125,0.23651123046875,0.3032684326171875,0.4292890546366689
1781008108.003662,-0.12451171875,-0.0966796875,0.9672850966453552,0.9800462174170109,0.6809234619140625,0.0514984130859375,0.6084442138671875,0.9146109604218952
1781008108.014223,-0.12451171875,-0.09765625,0.9677733778953552,0.980624914140533,-0.29754638671875,-0.31280517578125,0.1811981201171875,0.4682026153055164
1781008108.024784,-0.123046875,-0.091796875,1.0029296875,1.0146108405570478,0.0705718994140625,0.0514984130859375,-0.5512237548828125,0.5581040292672912
1781008108.035345,-0.1157226413488388,-0.1064453125,0.9946288466453552,1.0069800776842828,0.37384033203125,0.11444091796875,-0.3681182861328125,0.5369957077520495
1781008108.046062,-0.1220703050494194,-0.1020507737994194,0.9741210341453552,0.9870295380444979,0.4367828369140625,-0.0705718994140625,-0.3070831298828125,0.5385718970278985
1781008108.056778,-0.1220703050494194,-0.09912109375,0.9658202528953552,0.9785371283216097,0.133514404296875,0.29754638671875,-0.2498626708984375,0.41084218711402337
1781008108.067494,-0.1396484225988388,-0.087890625,0.9902343153953552,1.0038876646735642,-0.4177093505859375,-0.0705718994140625,-0.1239776611328125,0.4413977288271845
1781008108.075465,-0.1337890625,-0.10302734375,0.9794921278953552,0.99394113277084,-0.11444091796875,-0.31280517578125,0.1201629638671875,0.3540945348157973
1781008108.083437,-0.126953125,-0.09423828125,0.9638671278953552,0.9767485806682602,0.1316070556640625,-0.0705718994140625,0.3032684326171875,0.3380422345056277
1781008108.091409,-0.1142578125,-0.0927734375,0.9702147841453552,0.9813146721602963,-0.29754638671875,-0.37384033203125,0.1201629638671875,0.4926759421647927
1781008108.099381,-0.1245117112994194,-0.080078125,0.9765624403953552,0.9877195312157988,-0.5397796630859375,0.0514984130859375,0.1811981201171875,0.5717052824362748
1781008108.107682,-0.1215820237994194,-0.0908203125,0.9975585341453552,1.009035949171282,-0.0514984130859375,0.1773834228515625,0.3032684326171875,0.35508971750107277
1781008108.115983,-0.1113281175494194,-0.099609375,0.9887694716453552,0.9999905226565015,-0.11444091796875,-0.06866455078125,0.4253387451171875,0.4457853657730195
1781008108.124284,-0.1162109300494194,-0.0908203125,0.9853515028953552,0.9963287076480752,0.19073486328125,-0.06866455078125,-0.0019073486328125,0.20272702479865648
1781008108.132585,-0.1137695237994194,-0.09423828125,0.9731444716453552,0.9842939199712748,0.00762939453125,-0.06866455078125,-0.1239776611328125,0.1419277585776187
1781008108.141996,-0.1186523362994194,-0.09521484375,0.9697265028953552,0.9815873541347723,0.1316070556640625,-0.1316070556640625,-0.1850128173828125,0.26243204224532724
1781008108.151407,-0.1176757737994194,-0.1010742112994194,0.9570311903953552,0.9695216775908843,0.1926422119140625,0.0514984130859375,-0.4329681396484375,0.4766807299567933
1781008108.160818,-0.1303710788488388,-0.0966796875,0.9936522841453552,1.0068209582456007,0.00762939453125,0.17547607421875,-0.1850128173828125,0.2551074339960787
1781008108.170229,-0.12744140625,-0.1113281175494194,0.9863280653953552,1.0007388842103713,0.2536773681640625,0.4177093505859375,-0.2498626708984375,0.5488758174615382
1781008108.17964,-0.1357421875,-0.09130859375,0.9711913466453552,0.984873510943769,0.37384033203125,0.29754638671875,-0.2498626708984375,0.5391862390780389
1781008108.189192,-0.12939453125,-0.1005859375,0.9711913466453552,0.9849228941084575,0.0705718994140625,0.5397796630859375,-0.0019073486328125,0.5443768140239662
1781008108.198744,-0.12451171875,-0.08349609375,0.9799804091453552,0.9913810408144216,0.1926422119140625,0.3566741943359375,0.1201629638671875,0.42280804226230095
1781008108.208296,-0.1279296875,-0.103515625,0.9716796278953552,0.9855165086541393,0.00762939453125,0.17547607421875,-0.3070831298828125,0.35376561300211473
1781008108.217848,-0.12939453125,-0.09765625,0.9824218153953552,0.9957069404429072,0.1316070556640625,0.3566741943359375,-0.3070831298828125,0.4887094706104825
1781008108.2274,-0.1176757737994194,-0.1113281175494194,0.9711913466453552,0.9846086376297986,0.1316070556640625,0.1773834228515625,-0.4329681396484375,0.4860521636138746
1781008108.237119,-0.1308593600988388,-0.1025390625,0.9580077528953552,0.9723257098685936,0.06866455078125,0.11444091796875,-0.4901885986328125,0.5080318951297463
1781008108.246837,-0.12744140625,-0.1142578125,0.9814452528953552,0.9962584725738047,0.1926422119140625,0.0514984130859375,-0.5512237548828125,0.5861831934716479
1781008108.256555,-0.1254882663488388,-0.10205078125,0.9755858778953552,0.9889031661865703,0.4367828369140625,-0.0705718994140625,-0.5512237548828125,0.706829022859639
1781008108.266273,-0.130859375,-0.103515625,0.9726561903953552,0.9868635799131189,0.0095367431640625,-0.1316070556640625,-0.4901885986328125,0.5076378914150731
1781008108.275991,-0.126953125,-0.10546875,0.9731444716453552,0.9870414965277527,-0.3566741943359375,-0.0705718994140625,-0.3681182861328125,0.5174050120335691
1781008108.285482,-0.1328125,-0.0966796875,0.9868163466453552,1.0003962335683965,-0.2346038818359375,-0.3108978271484375,-0.4329681396484375,0.5823726043082205
1781008108.29497,-0.125,-0.1025390625,0.9838866591453552,0.9970818508941918,0.0705718994140625,-0.1316070556640625,-0.3070831298828125,0.341468679011848
1781008108.304458,-0.1337890625,-0.0947265625,0.9770507216453552,0.9907071956715591,-0.29754638671875,-0.67901611328125,-0.3070831298828125,0.8024317933653823
1781008108.313946,-0.1142578050494194,-0.10009765625,0.9907225966453552,1.0023001797391684,-0.29754638671875,-0.06866455078125,-0.2498626708984375,0.39456308379253585
1781008108.323434,-0.1176757737994194,-0.1044921875,0.9912108778953552,1.0036260306737306,-0.17547607421875,-0.19073486328125,-0.1239776611328125,0.28730141168136275
1781008108.33304,-0.1245117112994194,-0.10546875,0.9799804091453552,0.9934729114505187,-0.29754638671875,-0.25177001953125,-0.1850128173828125,0.4314530537382669
1781008108.342647,-0.126953125,-0.0869140550494194,0.9809569716453552,0.9929490063100045,-0.23651123046875,-0.19073486328125,-0.1239776611328125,0.3281582098145981
1781008108.352254,-0.1196288987994194,-0.10546875,0.9907225966453552,1.0034769524798461,-0.17547607421875,-0.25177001953125,-0.0629425048828125,0.31327584375261547
1781008108.361861,-0.13330078125,-0.1064453125,0.9819335341453552,0.9966409425235703,-0.0514984130859375,0.3566741943359375,0.0553131103515625,0.36459307128951873
1781008108.371468,-0.1201171875,-0.08935546875,0.9794921278953552,0.9908669775188864,0.0705718994140625,0.0514984130859375,0.2384185791015625,0.25392104756811007
1781008108.379454,-0.1337890625,-0.09619140625,0.9824218153953552,0.9961450312307374,0.19073486328125,0.29754638671875,0.3032684326171875,0.4657095474030854
1781008108.387438,-0.1220703050494194,-0.103515625,0.9936522841453552,1.0064598878153468,0.37384033203125,0.41961669921875,-0.0629425048828125,0.5655055499616224
1781008108.395422,-0.1176757737994194,-0.0986328125,0.9887694716453552,1.0006203513315064,0.74005126953125,0.29754638671875,0.2384185791015625,0.8324981397246524
1781008108.403406,-0.1113281175494194,-0.0986328125,0.9746093153953552,0.985893350780986,0.55694580078125,0.11444091796875,0.2384185791015625,0.6165458357447612
1781008108.41139,-0.1206054538488388,-0.087890625,0.9799804091453552,0.9912779830953943,0.31280517578125,0.11444091796875,-0.0019073486328125,0.33308773570919115
1781008108.419374,-0.1113281175494194,-0.10498046875,0.9770507216453552,0.9889605458479,0.1926422119140625,0.5397796630859375,-0.3681182861328125,0.6811638415812087
1781008108.428999,-0.1181640550494194,-0.09423828125,0.9853515028953552,0.996875710315389,0.55694580078125,0.60272216796875,-0.0629425048828125,0.8230579540285974
1781008108.438624,-0.1245117112994194,-0.10498046875,0.9770507216453552,0.9905312603534474,0.1316070556640625,0.7228851318359375,-0.3070831298828125,0.7963563144652328
1781008108.448249,-0.119140625,-0.10400390625,0.9653319716453552,0.978200959170128,0.00762939453125,0.54168701171875,-0.1850128173828125,0.5724620239995214
1781008108.457874,-0.1357421875,-0.0908203125,0.9594725966453552,0.9732738229004535,-0.48065185546875,0.48065185546875,-0.4329681396484375,0.8059242038068674
1781008108.467499,-0.1254882663488388,-0.09765625,0.9707030653953552,0.9836404268447078,-0.537872314453125,0.29754638671875,-0.1239776611328125,0.6270653389914864
1781008108.477111,-0.126953125,-0.1015624925494194,0.9819335341453552,0.995301713712633,-0.4177093505859375,0.1773834228515625,-0.2498626708984375,0.5180514786948907
1781008108.486724,-0.13232421875,-0.0986328125,0.9794921278953552,0.9932990280768571,-0.354766845703125,0.29754638671875,-0.3681182861328125,0.5915272095558142
1781008108.496337,-0.1215820163488388,-0.0869140625,0.9726561903953552,0.9840712909510717,-0.6008148193359375,0.2346038818359375,-0.2498626708984375,0.6916999225203561
1781008108.50595,-0.1176757737994194,-0.09814453125,0.9643554091453552,0.976453425362152,-0.41961669921875,0.11444091796875,-0.0019073486328125,0.4349465897642792
1781008108.515563,-0.12890625,-0.09228515625,0.9785155653953552,0.9912749785373084,-0.29754638671875,0.11444091796875,-0.1239776611328125,0.3420541425196844
1781008108.523511,-0.11767578125,-0.09765625,0.9790038466453552,0.9908747975416786,-0.29754638671875,0.17547607421875,0.2384185791015625,0.4197250573094442
1781008108.531459,-0.1367187350988388,-0.09228515625,0.9897460341453552,1.0033971171463332,-0.1125335693359375,0.0514984130859375,-0.0019073486328125,0.12377208391500566
1781008108.539407,-0.1181640625,-0.1015625,0.9843749403953552,0.9966301773231198,0.00762939453125,0.17547607421875,0.0553131103515625,0.18414559582271267
1781008108.547355,-0.1240234375,-0.10205078125,0.9785155653953552,0.9916092409432475,-0.2956390380859375,0.0514984130859375,0.1811981201171875,0.3505528292921781
1781008108.558027,-0.126953125,-0.0888671875,0.9809569716453552,0.9931218722699908,-0.11444091796875,0.11444091796875,0.4863739013671875,0.5125944004202533
1781008108.568699,-0.1176757737994194,-0.10400390625,0.9731444716453552,0.9857355441235081,-0.11444091796875,-0.31280517578125,-0.0629425048828125,0.33897722729114377
1781008108.579371,-0.1157226413488388,-0.09765625,0.9785155653953552,0.9901622011598938,-0.0514984130859375,-0.0057220458984375,0.1201629638671875,0.13085857344851615
1781008108.590077,-0.1127929612994194,-0.10009765625,0.9707030653953552,0.9823473082741025,0.2536773681640625,0.2346038818359375,-0.1850128173828125,0.3919450613122479
1781008108.600783,-0.11474609375,-0.09326171875,0.9809569716453552,0.9920388069197263,0.19073486328125,0.17547607421875,0.0553131103515625,0.26501166176397883
1781008108.611489,-0.1103515625,-0.09765625,0.9848632216453552,0.9958261775329679,0.4367828369140625,0.2346038818359375,-0.1239776611328125,0.5110662270735071
1781008108.622124,-0.1230468675494194,-0.10498046875,0.9877929091453552,1.0009476818448295,0.31280517578125,0.41961669921875,-0.0629425048828125,0.5271498944130601
1781008108.632761,-0.1210937425494194,-0.1005859375,0.9721679091453552,0.9848307818500753,0.31280517578125,0.41961669921875,-0.0629425048828125,0.5271498944130601
1781008108.643398,-0.13623046875,-0.09033203125,0.9804686903953552,0.9940007390999157,0.37384033203125,0.48065185546875,-0.1850128173828125,0.636405957400395
1781008108.651409,-0.1220703050494194,-0.09375,0.9716796278953552,0.9837944506560882,0.2536773681640625,-0.0057220458984375,0.0553131103515625,0.2597007683944606
1781008108.659421,-0.12890625,-0.08837890625,0.9838866591453552,0.9962231729904787,0.37384033203125,-0.00762939453125,-0.0629425048828125,0.37917879744926614
1781008108.667433,-0.1347656100988388,-0.0888671875,0.9746093153953552,0.9878878804474096,0.00762939453125,0.05340576171875,0.3032684326171875,0.30802942273061995
1781008108.675445,-0.1328125,-0.1015625,0.9824218153953552,0.9965474022479841,0.00762939453125,0.05340576171875,-0.2498626708984375,0.25562029918254586
1781008108.686104,-0.125,-0.09765625,0.9785155653953552,0.9912892892012171,-0.202178955078125,-0.11444091796875,0.2307891845703125,0.32747015329132273
1781008108.696763,-0.11328125,-0.0966796875,0.9853515028953552,0.996542617169379,-0.202178955078125,-0.11444091796875,-0.0743865966796875,0.24393937637781882
1781008108.707422,-0.1220703050494194,-0.10888671875,0.9833983778953552,0.996910149683619,-0.1430511474609375,-0.3566741943359375,-0.0133514404296875,0.38452356580140634
1781008108.715489,-0.11474609375,-0.10595703125,0.9799804091453552,0.9923483061964157,-0.019073486328125,-0.41961669921875,0.2307891845703125,0.47927614154950154
1781008108.723556,-0.125,-0.10986328125,0.9785155653953552,0.9925661954187279,0.1659393310546875,0.0057220458984375,0.0476837158203125,0.17274935645198022
1781008108.731623,-0.11865234375,-0.0966796875,0.9736327528953552,0.985589203554429,-0.1430511474609375,-0.3566741943359375,0.2918243408203125,0.4825365867893241
1781008108.73969,-0.12353515625,-0.09619140625,0.9794921278953552,0.9919266858367283,-0.1430511474609375,-0.5397796630859375,0.2918243408203125,0.6300691718900941
1781008108.750241,-0.1142578050494194,-0.09130859375,0.9863280653953552,0.9971134127539644,-0.568389892578125,-0.41961669921875,0.4138946533203125,0.8188125721405071
1781008108.760792,-0.1215820237994194,-0.10302734375,0.9790038466453552,0.9918897891488476,-0.6313323974609375,-0.6046295166015625,0.1087188720703125,0.8808957041408791
1781008108.771343,-0.1108398362994194,-0.10546875,0.9711913466453552,0.9831692419600315,-0.507354736328125,-0.48065185546875,0.0476837158203125,0.700506082339451
1781008108.782027,-0.1215820163488388,-0.107421875,0.9736327528953552,0.987057436747504,-0.751495361328125,-0.54168701171875,-0.3185272216796875,0.9796069046885384
1781008108.792712,-0.1162109300494194,-0.1044921875,0.9916991591453552,1.0039376573080077,-0.4482269287109375,-0.2994537353515625,-0.2574920654296875,0.5973960855219006
1781008108.803397,-0.1298827975988388,-0.10888671875,0.9863280653953552,1.0007841481652209,-0.1430511474609375,0.0057220458984375,-0.2574920654296875,0.2946159132810059
1781008108.81404,-0.1127929612994194,-0.0810546875,0.9780272841453552,0.9878408186631864,0.3452301025390625,-0.1163482666015625,0.1087188720703125,0.3801848707991427
1781008108.824685,-0.119140625,-0.09423828125,0.9868163466453552,0.9984397048319095,0.102996826171875,-0.05340576171875,-0.2574920654296875,0.28242288389131254
1781008108.83533,-0.1279296875,-0.09375,0.9707030653953552,0.9835748617221706,0.164031982421875,0.37384033203125,-0.0743865966796875,0.41496560203958116
1781008108.846011,-0.12744140625,-0.10009765625,0.9785155653953552,0.99184351816943,0.225067138671875,0.61798095703125,0.3528594970703125,0.7463682099580062
1781008108.856693,-0.1435546875,-0.1064453125,0.9868163466453552,1.0028684135333663,0.3452301025390625,0.2498626708984375,0.5359649658203125,0.6847434721079138
1781008108.867375,-0.12353515625,-0.10205078125,0.9785155653953552,0.9915482885389088,0.5893707275390625,0.4940032958984375,0.9632110595703125,1.2325472226722216
1781008108.875398,-0.1171874925494194,-0.0849609375,0.9697265028953552,0.9804696628292762,0.4062652587890625,0.3108978271484375,1.0852813720703125,1.1998102249886786
1781008108.883422,-0.1171874925494194,-0.08544921875,0.9838866591453552,0.9945186953693801,0.408172607421875,0.12969970703125,0.9021759033203125,0.9986732458544116
1781008108.891446,-0.10986328125,-0.0986328125,0.9755858778953552,0.9866945714949118,0.164031982421875,0.12969970703125,0.6580352783203125,0.6904628395325367
1781008108.89947,-0.11865234375,-0.09326171875,0.9912108778953552,1.002634096427831,0.469207763671875,0.25177001953125,0.3528594970703125,0.6387909618157116
1781008108.907488,-0.125,-0.10302734375,0.9863280653953552,0.9995412378420035,0.102996826171875,0.06866455078125,0.1087188720703125,0.16475120600381435
1781008108.915506,-0.126953125,-0.11474609375,0.9785155653953552,0.9933662334200519,0.164031982421875,0.12969970703125,0.0476837158203125,0.21448133255757879
1781008108.923524,-0.1337890625,-0.09619140625,0.9814452528953552,0.9951819352820916,0.2841949462890625,-0.1773834228515625,-0.0133514404296875,0.3352758672501301
1781008108.931542,-0.1337890625,-0.1064453125,0.9882811903953552,1.0029605321681965,0.530242919921875,-0.05340576171875,0.5359649658203125,0.7558228457110863
1781008108.942194,-0.14013671875,-0.099609375,0.9741210341453552,0.9891774950403611,0.225067138671875,-0.35858154296875,0.0476837158203125,0.4260395247183374
1781008108.952846,-0.1196288987994194,-0.1005859375,0.9677733778953552,0.9803131720086707,0.286102294921875,-0.29754638671875,0.2307891845703125,0.47291862209430624
1781008108.963498,-0.1279296875,-0.0830078125,0.9628905653953552,0.9748920672604069,0.102996826171875,-0.29754638671875,1.0242462158203125,1.0715514495688452
1781008108.974148,-0.1083984375,-0.08349609375,0.9750975966453552,0.9846507715466931,-0.690460205078125,-0.78582763671875,0.3528594970703125,1.1039792543794544
1781008108.984797,-0.12451171875,-0.0986328125,0.9843749403953552,0.9971086315372555,-0.5702972412109375,-0.4825592041015625,-0.2574920654296875,0.7901926933066302
1781008108.995446,-0.1162109300494194,-0.10498046875,0.9897460341453552,1.0020594249785686,-0.263214111328125,-0.54168701171875,-0.2574920654296875,0.6549875195958242
1781008109.003539,-0.1176757737994194,-0.09326171875,0.9736327528953552,0.9851426665382451,-0.263214111328125,-0.54168701171875,-0.4405975341796875,0.746212217932851
1781008109.011632,-0.1103515625,-0.0986328125,0.9799804091453552,0.9910940930893238,-0.324249267578125,-0.60272216796875,-0.8068084716796875,1.0579940969873196
1781008109.019725,-0.1240234375,-0.103515625,0.9785155653953552,0.9917610646670139,-0.324249267578125,-0.78582763671875,-1.2950897216796875,1.5491675343087643
1781008109.027818,-0.12841796875,-0.0830078125,0.9829100966453552,0.9947329941855214,-0.3223419189453125,-0.4825592041015625,-1.1119842529296875,1.2543032635435798
1781008109.038333,-0.1181640625,-0.091796875,0.9755858778953552,0.9869940309217278,-0.507354736328125,-0.35858154296875,-0.6847381591796875,0.924584175761849
1781008109.048848,-0.1298827975988388,-0.091796875,0.9711913466453552,0.98412846680232,-0.385284423828125,-0.41961669921875,-0.6237030029296875,0.8447056868349585
1781008109.059363,-0.12646484375,-0.1015624925494194,0.9882811903953552,1.001502874627339,-0.446319580078125,-0.54168701171875,-0.3795623779296875,0.7979308146484518
1781008109.067734,-0.140625,-0.10888671875,0.9863280653953552,1.002234883014798,-0.080108642578125,-0.05340576171875,0.2918243408203125,0.30729629984052786
1781008109.076106,-0.12646484375,-0.0849609375,0.9711913466453552,0.9830688426577303,-0.019073486328125,0.06866455078125,0.4749298095703125,0.48024675161128716
1781008109.084478,-0.1166992112994194,-0.09326171875,0.9736327528953552,0.9850264928481357,-0.080108642578125,-0.29754638671875,0.4138946533203125,0.5160039059079257
1781008109.09285,-0.1337890625,-0.1015625,0.9809569716453552,0.9952341608237255,-0.0820159912109375,0.0057220458984375,0.1697540283203125,0.1886154679620679
1781008109.103103,-0.1215820237994194,-0.0966796800494194,0.9838866591453552,0.996073344232155,0.0400543212890625,0.1888275146484375,-0.0743865966796875,0.2068660066512133
1781008109.113356,-0.1225585862994194,-0.11279296875,0.9746093153953552,0.988739691997117,-0.1430511474609375,0.3108978271484375,-0.0743865966796875,0.35022058117862964
1781008109.123609,-0.10986328125,-0.11328125,0.9868163466453552,0.9993543336450115,-0.263214111328125,0.12969970703125,-0.3185272216796875,0.43308575750909595
1781008109.131554,-0.1328125,-0.1015625,0.9863280653953552,1.0003984976743239,-0.080108642578125,0.86212158203125,-0.8678436279296875,1.2258970508806752
1781008109.139499,-0.1240234375,-0.10400390625,0.9794921278953552,0.9927756313354725,0.0400543212890625,0.3719329833984375,-0.4405975341796875,0.5779832868853655
1781008109.147444,-0.13427734375,-0.09423828125,0.9677733778953552,0.9815786110447272,-0.446319580078125,0.25177001953125,-0.3185272216796875,0.6033646503126121
1781008109.155389,-0.1347656100988388,-0.1025390625,0.9760741591453552,0.990654729537493,-0.568389892578125,0.12969970703125,0.2918243408203125,0.6519589940204633
1781008109.163384,-0.1259765625,-0.09375,0.9697265028953552,0.9823587161607372,-0.6313323974609375,-0.0514984130859375,0.2307891845703125,0.6741634299995624
1781008109.171379,-0.138671875,-0.09228515625,0.9829100966453552,0.9969246195512899,-0.690460205078125,0.06866455078125,0.9021759033203125,1.1381438730944076
1781008109.179374,-0.1328125,-0.09375,0.9804686903953552,0.9938546551190637,-0.5702972412109375,0.0057220458984375,0.9632110595703125,1.1193959221029144
1781008109.187369,-0.1142578050494194,-0.10009765625,0.9853515028953552,0.9969914598729467,-0.568389892578125,0.12969970703125,1.6345977783203125,1.735453537516538
1781008109.198032,-0.115234375,-0.09375,0.9697265028953552,0.9810389972367541,-0.812530517578125,-0.11444091796875,0.9021759033203125,1.21951790730318
1781008109.208695,-0.1127929612994194,-0.09814453125,0.9770507216453552,0.9884243591700297,-0.751495361328125,-0.05340576171875,0.9021759033203125,1.1753802848500867
1781008109.219358,-0.1142578050494194,-0.10498046875,0.9804686903953552,0.992670437597123,-0.690460205078125,-0.05340576171875,0.3528594970703125,0.7772369618423973
1781008109.230444,-0.11865234375,-0.0830078125,0.9829100966453552,0.9935194682042143,-0.507354736328125,-0.23651123046875,0.5359649658203125,0.7749869903418974
1781008109.241529,-0.1181640625,-0.0771484375,0.9736327528953552,0.9838065686839985,-0.385284423828125,0.12969970703125,0.3528594970703125,0.5383083929508031
1781008109.252614,-0.1347656100988388,-0.09765625,0.9941405653953552,1.0079751864971536,-0.4482269287109375,0.0057220458984375,-0.0133514404296875,0.4484622418804633
1781008109.262881,-0.1118163987994194,-0.109375,0.9750975966453552,0.9875632236211607,0.0400543212890625,-0.1773834228515625,0.1697540283203125,0.24876828071005583
1781008109.273148,-0.1303710788488388,-0.0966796875,0.9692382216453552,0.9827340995780897,-0.263214111328125,-0.11444091796875,-0.0743865966796875,0.2964991701057041
1781008109.283415,-0.1181640625,-0.10205078125,0.9785155653953552,0.9908934449986189,-0.019073486328125,0.19073486328125,0.4138946533203125,0.45612758083541494
1781008109.291396,-0.1201171875,-0.083984375,0.9843749403953552,0.9952263748793085,0.1010894775390625,0.0057220458984375,0.2307891845703125,0.25202276086301056
1781008109.299378,-0.13623046875,-0.09423828125,0.9858397841453552,0.9996597792612042,-0.202178955078125,0.19073486328125,0.0476837158203125,0.28201038048595295
1781008109.30736,-0.12744140625,-0.09521484375,0.9770507216453552,0.9899168102244874,0.102996826171875,0.37384033203125,0.1087188720703125,0.4027216572261239
1781008109.315342,-0.12744140625,-0.07861328125,0.9746093153953552,0.9860449673677525,-0.1430511474609375,0.6771087646484375,0.6580352783203125,0.9549609088688998
1781008109.326026,-0.1259765625,-0.09423828125,0.9819335341453552,0.9944568434233122,-0.1430511474609375,0.7381439208984375,0.5359649658203125,0.9233517874223119
1781008109.33671,-0.1308593600988388,-0.10302734375,0.9814452528953552,0.9954765643230814,-0.324249267578125,0.37384033203125,0.8411407470703125,0.9759159481021863
1781008109.347394,-0.12841796875,-0.095703125,0.9790038466453552,0.9920175374352229,-0.1430511474609375,-0.0514984130859375,0.7190704345703125,0.7349680314227272
1781008109.355412,-0.1240234375,-0.111328125,0.9824218153953552,0.9964579207523203,-0.263214111328125,-0.05340576171875,0.5359649658203125,0.5994933597411928
1781008109.363429,-0.10400390625,-0.087890625,0.9741210341453552,0.9835920717668305,-0.690460205078125,-0.54168701171875,0.0476837158203125,0.8788821594592463
1781008109.371446,-0.11279296875,-0.11181640625,0.9760741591453552,0.988911485754623,-0.873565673828125,-0.23651123046875,-0.3795623779296875,0.981387867954494
1781008109.379463,-0.1230468675494194,-0.1083984375,0.9970702528953552,1.0104651612376219,-0.1430511474609375,-0.4215240478515625,-0.8068084716796875,0.9214586608639426
1781008109.390077,-0.1220703050494194,-0.1025390625,0.9897460341453552,1.0025031824486623,-0.080108642578125,-0.05340576171875,-0.7457733154296875,0.7519623714039538
1781008109.400691,-0.12841796875,-0.08984375,0.9736327528953552,0.9861662190637673,-0.751495361328125,-0.35858154296875,-1.2340545654296875,1.488696299287868
1781008109.411305,-0.13427734375,-0.09228515625,0.9741210341453552,0.9876531497813688,-0.690460205078125,-0.41961669921875,-0.7457733154296875,1.099541407618082
1781008109.41933,-0.1171874925494194,-0.1005859375,0.9814452528953552,0.9935216271745683,-0.812530517578125,-0.41961669921875,-0.8678436279296875,1.260728590457588
1781008109.427355,-0.12890625,-0.1025390625,0.9790038466453552,0.9927636236153315,-0.873565673828125,0.25177001953125,-0.7457733154296875,1.175875404637983
1781008109.43538,-0.1362304538488388,-0.1015625,0.9741210341453552,0.9888303530568461,-0.690460205078125,0.00762939453125,-0.1964569091796875,0.7179058570745024
1781008109.443405,-0.1240234300494194,-0.099609375,1.00341796875,1.0159485512561597,-0.507354736328125,0.25177001953125,0.1087188720703125,0.5767293683813823
1781008109.454052,-0.1206054538488388,-0.10302734375,0.9877929091453552,1.0004474700933124,-0.202178955078125,0.25177001953125,0.1697540283203125,0.3648025530916991
1781008109.464699,-0.12353515625,-0.0986328125,0.9721679091453552,0.9849364497790828,-0.507354736328125,0.43487548828125,0.3528594970703125,0.7556688054003227
1781008109.475346,-0.119140625,-0.0986328125,0.9833983778953552,0.9954874634440489,-0.6313323974609375,0.4940032958984375,0.4138946533203125,0.9021799357608414
1781008109.486021,-0.12451171875,-0.1171875,0.9731444716453552,0.9880517400198466,-0.507354736328125,0.67901611328125,-0.0743865966796875,0.8508848784270073
1781008109.496697,-0.1171874925494194,-0.09814453125,0.9921874403953552,1.0038930093902383,-0.324249267578125,1.16729736328125,-0.3795623779296875,1.2695622554990944
1781008109.507373,-0.1171874925494194,-0.09375,0.9726561903953552,0.9841656545645279,-0.019073486328125,0.86212158203125,0.0476837158203125,0.8636499040926288
1781008109.515395,-0.1069335862994194,-0.1005859375,0.9746093153953552,0.9856042006591754,0.102996826171875,0.67901611328125,-0.6237030029296875,0.9277266106782561
1781008109.523416,-0.1279296875,-0.10888671875,0.9921874403953552,1.0063092165643102,0.408172607421875,0.61798095703125,-0.8678436279296875,1.140902232113249
1781008109.531437,-0.1230468675494194,-0.1059570237994194,0.9731444716453552,0.9865989991886636,0.041961669921875,0.92315673828125,-0.9288787841796875,1.3102652177615963
1781008109.539458,-0.1201171875,-0.103515625,0.9746093153953552,0.9874243976160675,0.408172607421875,0.55694580078125,-1.0509490966796875,1.257492547202285
1781008109.547418,-0.13037109375,-0.10888671875,0.9853515028953552,0.9998852553487566,0.530242919921875,0.25177001953125,-1.2950897216796875,1.421901221626317
1781008109.555378,-0.1298828125,-0.10546875,0.9755858778953552,0.9898287767883512,0.286102294921875,0.55694580078125,-0.6847381591796875,0.927852086705752
1781008109.563338,-0.1313476413488388,-0.1025390625,0.9863280653953552,1.0003047109820218,-0.019073486328125,0.55694580078125,-0.9899139404296875,1.1359938522481572
1781008109.571298,-0.12939453125,-0.1025390625,0.9726561903953552,0.9865684308603188,0.2231597900390625,0.8602142333984375,-0.5626678466796875,1.0518383549380086
1781008109.582324,-0.1206054612994194,-0.099609375,0.9843749403953552,0.9967255029151685,0.3452301025390625,0.6771087646484375,-0.7457733154296875,1.064818266592874
1781008109.59335,-0.12744140625,-0.09130859375,0.9809569716453552,0.9934058342586912,0.3452301025390625,0.4367828369140625,-0.9288787841796875,1.0829491520939303
1781008109.604376,-0.13671875,-0.08935546875,0.9677733778953552,0.981458978949238,0.102996826171875,0.43487548828125,-0.9899139404296875,1.0861190754085694
1781008109.614687,-0.13134765625,-0.1113281175494194,0.9829100966453552,0.9978769536605437,-0.019073486328125,0.37384033203125,-0.5626678466796875,0.6758072931103221
1781008109.625001,-0.13720703125,-0.09375,0.9628905653953552,0.977124901356948,0.225067138671875,0.25177001953125,-0.6237030029296875,0.7092593288129673
1781008109.635315,-0.1259765625,-0.0888671875,0.9824218153953552,0.9944446161944777,0.4711151123046875,0.3108978271484375,-0.8068084716796875,0.9846556849689089
1781008109.645997,-0.13232421875,-0.10400390625,0.9736327528953552,0.9880724917199367,-0.019073486328125,-0.05340576171875,-0.4405975341796875,0.4442321019362401
1781008109.656682,-0.1118163987994194,-0.1010742112994194,0.9882811903953552,0.9997092649963443,0.164031982421875,-0.54168701171875,-0.5626678466796875,0.798076697823709
1781008109.667367,-0.1191406175494194,-0.109375,0.9707030653953552,0.984084253782671,-0.019073486328125,-0.35858154296875,-0.5016326904296875,0.6169115633105651
1781008109.675362,-0.12451171875,-0.1015625,0.9829100966453552,0.9959570109195028,-0.568389892578125,-0.72479248046875,-0.9288787841796875,1.3081311117117238
1781008109.683357,-0.1152343675494194,-0.1103515625,0.9931640028953552,1.005898187421486,-0.690460205078125,-0.84686279296875,-1.0509490966796875,1.516049434788724
1781008109.691352,-0.1201171875,-0.1123046875,0.9887694716453552,1.0023500135308114,-0.1430511474609375,-0.5397796630859375,-1.2950897216796875,1.4103485748819082
1781008109.699347,-0.13427734375,-0.1181640625,0.9721679091453552,0.9884855053480103,0.225067138671875,-0.54168701171875,-1.4171600341796875,1.53376093249597
1781008109.710191,-0.12353515625,-0.091796875,0.9667968153953552,0.9789707265021146,0.0400543212890625,-0.3566741943359375,-0.9899139404296875,1.0529721928978697
1781008109.721035,-0.1313476413488388,-0.0869140625,0.9877929091453552,1.0002705076658018,0.164031982421875,-0.35858154296875,-0.8678436279296875,0.9532259840946751
1781008109.731879,-0.13623046875,-0.10302734375,0.9809569716453552,0.9957158000130618,0.3452301025390625,0.0667572021484375,-0.7457733154296875,0.8245108766685901
1781008109.742375,-0.13720703125,-0.1181640625,0.9868163466453552,1.0032920896216755,1.140594482421875,0.49591064453125,0.5359649658203125,1.3543048346946833
1781008109.752871,-0.1220703050494194,-0.10986328125,0.9677733778953552,0.9816090927170861,0.896453857421875,0.55694580078125,0.5970001220703125,1.21252929418072
1781008109.763367,-0.1162109300494194,-0.07861328125,0.9536132216453552,0.963879248012258,0.774383544921875,0.25177001953125,0.9632110595703125,1.2612825070772604
1781008109.774077,-0.125,-0.11669921875,0.9716796278953552,0.9866128961876164,0.5283355712890625,0.1316070556640625,0.9632110595703125,1.1064512814708418
1781008109.784787,-0.1118163987994194,-0.0966796800494194,0.9775390028953552,0.9886517939884468,0.896453857421875,0.12969970703125,0.6580352783203125,1.1195811538270206
1781008109.795497,-0.1142578050494194,-0.0947265625,0.9750975966453552,0.9863281860726304,0.835418701171875,0.06866455078125,0.5359649658203125,0.9949360137156872
1781008109.803473,-0.11474609375,-0.10107421875,0.9716796278953552,0.9836381260370415,0.102996826171875,0.19073486328125,-0.7457733154296875,0.7766376067892828
1781008109.811447,-0.1215820237994194,-0.09521484375,0.9887694716453552,1.0007562755433186,0.286102294921875,0.55694580078125,-0.9899139404296875,1.1713124082090407
1781008109.819421,-0.1279296875,-0.1044921875,0.9926757216453552,1.006324853383096,0.530242919921875,0.43487548828125,-0.7457733154296875,1.0131397151637673
1781008109.827395,-0.12890625,-0.119140625,0.9721679091453552,0.9878875206148242,0.591278076171875,0.55694580078125,-0.9288787841796875,1.2339425367773476
1781008109.838253,-0.12255859375,-0.09765625,0.9775390028953552,0.9900201282033034,0.469207763671875,0.43487548828125,-0.7457733154296875,0.9825733834196843
1781008109.849111,-0.1347656100988388,-0.0791015625,0.9638671278953552,0.9764520813089062,-0.080108642578125,0.25177001953125,-0.1354217529296875,0.29689154335720835
1781008109.859969,-0.1259765625,-0.07080078125,0.9536132216453552,0.964500399907517,-0.6313323974609375,-0.2994537353515625,0.4749298095703125,0.8448736353551767
1781008109.867843,-0.1328125,-0.10791015625,0.9809569716453552,0.9957712298503988,-0.812530517578125,-0.05340576171875,0.2307891845703125,0.8463578823967822
1781008109.875717,-0.1142578125,-0.0966796875,0.9804686903953552,0.9918269317466459,-0.4482269287109375,-0.3566741943359375,0.6580352783203125,0.8724301049602318
1781008109.883591,-0.1157226413488388,-0.10205078125,0.9814452528953552,0.9934993085580458,-0.385284423828125,-0.48065185546875,0.7190704345703125,0.9468540453962587
1781008109.891465,-0.1157226487994194,-0.109375,0.9897460341453552,1.002472859571077,-0.324249267578125,0.06866455078125,0.1697540283203125,0.3723826502267725
1781008109.902201,-0.1147460862994194,-0.095703125,0.9892577528953552,1.0004782127159826,-0.3871917724609375,-0.1773834228515625,-0.1354217529296875,0.446902001036612
1781008109.912937,-0.1337890625,-0.11669921875,0.9892577528953552,1.0050617506228445,0.2841949462890625,-0.1773834228515625,-0.1354217529296875,0.36134567572523774
1781008109.923673,-0.1254882663488388,-0.10302734375,0.9682616591453552,0.9817803110280496,-0.1430511474609375,0.1316070556640625,-0.1354217529296875,0.23690314277570032
1781008109.934256,-0.138671875,-0.0908203125,0.9755858778953552,0.9895686046088287,-0.019073486328125,0.25177001953125,0.5970001220703125,0.6481983387570839
1781008109.944839,-0.126953125,-0.0986328125,0.9677733778953552,0.9810355949770181,-0.202178955078125,0.12969970703125,0.7190704345703125,0.7581296945467924
1781008109.955422,-0.1347656100988388,-0.09326171875,0.9863280653953552,0.9998512741583423,-0.1430511474609375,-0.1163482666015625,0.8411407470703125,0.8611145721174869
1781008109.963435,-0.1201171800494194,-0.0908203125,0.9638671278953552,0.9755594837542523,0.164031982421875,-0.05340576171875,1.2073516845703125,1.219613363684074
1781008109.971449,-0.109375,-0.0927734375,0.9741210341453552,0.9846225624547625,0.102996826171875,-0.05340576171875,1.3294219970703125,1.3344749408964776
1781008109.979463,-0.1210937350988388,-0.10302734375,0.9995116591453552,1.0120780024325542,-0.324249267578125,0.19073486328125,0.9632110595703125,1.0340662072006954
1781008109.987477,-0.1225585862994194,-0.109375,1.015625,1.028823424269545,0.041961669921875,-0.05340576171875,0.7190704345703125,0.7222708958559318
1781008109.998128,-0.1220703050494194,-0.1157226487994194,0.9887694716453552,1.0029745554488643,0.591278076171875,-0.05340576171875,-0.0743865966796875,0.5983270882317296
1781008110.008779,-0.12841796875,-0.08740234375,0.9619140028953552,0.9743761559875296,1.262664794921875,0.25177001953125,-0.1964569091796875,1.3024230665318788
1781008110.01943,-0.1337890625,-0.09375,0.9638671278953552,0.9776136332835533,0.652313232421875,0.43487548828125,-0.4405975341796875,0.8993083067701263
1781008110.027408,-0.1298828125,-0.099609375,0.9858397841453552,0.9993356055773063,-0.1430511474609375,0.2498626708984375,-0.0133514404296875,0.2882242981775466
1781008110.035386,-0.13232421875,-0.11962890625,1.0048828125,1.0205930829357406,0.591278076171875,0.25177001953125,0.1087188720703125,0.6517804072235683
1781008110.043364,-0.1396484375,-0.099609375,0.9858397841453552,1.000651684497579,0.774383544921875,0.43487548828125,0.3528594970703125,0.955665417197012
1781008110.051342,-0.12548828125,-0.08544921875,0.9565429091453552,0.9685159858011244,0.164031982421875,0.12969970703125,0.6580352783203125,0.6904628395325367
1781008110.062033,-0.12841796875,-0.08154296875,0.9624022841453552,0.9743503409855392,-0.507354736328125,0.25177001953125,0.3528594970703125,0.6673131168215272
1781008110.072724,-0.13623046875,-0.095703125,0.9936522841453552,1.0075031962916505,-0.4482269287109375,0.0057220458984375,-0.0743865966796875,0.4543935378022999
1781008110.083415,-0.11962890625,-0.10302734375,0.9990233778953552,1.0114214840274047,0.286102294921875,0.00762939453125,-0.1354217529296875,0.316625618020757
1781008110.09141,-0.1210937425494194,-0.09423828125,0.9643554091453552,0.9764865095255973,0.5283355712890625,0.1316070556640625,0.0476837158203125,0.5465643875558817
1781008110.099406,-0.1352538913488388,-0.0888671875,0.9770507216453552,0.9903631176527492,0.0400543212890625,-0.1163482666015625,-0.3185272216796875,0.341468679011848
1781008110.107402,-0.1352538913488388,-0.08349609375,0.9882811903953552,1.0009819799006237,-0.6313323974609375,-0.1773834228515625,-0.5626678466796875,0.8640836652046303
1781008110.115398,-0.12548828125,-0.10009765625,0.9926757216453552,1.005570453952357,-0.385284423828125,-0.41961669921875,0.0476837158203125,0.5716607370304886
1781008110.127407,-0.1455078125,-0.099609375,0.9838866591453552,0.9995636593687438,-0.019073486328125,-0.29754638671875,0.2307891845703125,0.37704283290459567
1781008110.139414,-0.13916015625,-0.09814453125,0.9721679091453552,0.986969270886312,-0.385284423828125,-0.48065185546875,0.1697540283203125,0.6389731790467389
1781008110.151421,-0.1259765625,-0.09130859375,0.9843749403953552,0.996594891051664,-0.202178955078125,-0.35858154296875,0.2307891845703125,0.4719329407330683
1781008110.163428,-0.115234375,-0.09521484375,0.9736327528953552,0.9850408951726651,-0.1430511474609375,-0.4825592041015625,0.2307891845703125,0.553706297569076
1781008110.171414,-0.1215820237994194,-0.10546875,0.9848632216453552,0.997928560112092,-0.202178955078125,-0.54168701171875,0.0476837158203125,0.5801507435966139
1781008110.1794,-0.126953125,-0.09375,0.9770507216453552,0.989714237098252,0.3452301025390625,-0.2384185791015625,-0.0743865966796875,0.42609929397445157
1781008110.187386,-0.1235351487994194,-0.09130859375,0.9760741591453552,0.9880885367378823,-0.080108642578125,-0.23651123046875,-0.0743865966796875,0.260553876423166
1781008110.195372,-0.1245117112994194,-0.10498046875,0.9667968153953552,0.9804183532188084,-0.2040863037109375,0.3108978271484375,0.1697540283203125,0.40880937907414283
1781008110.20604,-0.130859375,-0.09521484375,0.9750975966453552,0.9884358175821409,-0.263214111328125,0.06866455078125,0.2307891845703125,0.3567353874384699
1781008110.216708,-0.119140625,-0.0986328125,0.9892577528953552,1.001276096733872,-0.1430511474609375,0.1316070556640625,0.4138946533203125,0.4572666967291585
1781008110.227376,-0.12353515625,-0.09765625,0.9946288466453552,1.0070174877194755,0.164031982421875,0.12969970703125,0.2307891845703125,0.3114356321551408
1781008110.238099,-0.1127929612994194,-0.099609375,0.9814452528953552,0.9929144294134368,0.041961669921875,-0.05340576171875,0.0476837158203125,0.08298610655901753
1781008110.24882,-0.1259765625,-0.1103515625,0.9775390028953552,0.991781258053989,0.225067138671875,0.06866455078125,-0.1354217529296875,0.2714941778574362
1781008110.259541,-0.1240234300494194,-0.0947265625,0.9765624403953552,0.9889535544378317,0.102996826171875,0.25177001953125,-0.4405975341796875,0.517805635409143
1781008110.26752,-0.1186523362994194,-0.1142578125,0.9736327528953552,0.9874684613379728,0.225067138671875,0.43487548828125,-0.6237030029296875,0.792954817805725
1781008110.2755,-0.12890625,-0.1044921875,0.9863280653953552,1.0001892276585176,0.102996826171875,0.67901611328125,-0.3185272216796875,0.7570540398465856
1781008110.28348,-0.130859375,-0.09033203125,0.9697265028953552,0.9826767231967983,0.0400543212890625,0.4940032958984375,-0.3795623779296875,0.624268534968795
1781008110.29146,-0.12841796875,-0.0947265625,0.9809569716453552,0.9938515364784464,0.4062652587890625,0.3108978271484375,-0.2574920654296875,0.5727225184884999
1781008110.299503,-0.1328125,-0.09228515625,0.9877929091453552,1.000944824442477,-0.263214111328125,0.25177001953125,-0.0743865966796875,0.3717568787562741
1781008110.307546,-0.13134765625,-0.1044921875,0.9848632216453552,0.9990627554866468,-0.0171661376953125,0.3108978271484375,-0.3795623779296875,0.4909376069814097
1781008110.315589,-0.13720703125,-0.08447265625,0.9897460341453552,1.0027754540199056,-0.019073486328125,0.19073486328125,-0.0743865966796875,0.20561359808439908
1781008110.323632,-0.1220703050494194,-0.09521484375,0.9746093153953552,0.9868284265770814,0.102996826171875,-0.29754638671875,-0.0133514404296875,0.3151514864512158
1781008110.332753,-0.12939453125,-0.09716796875,0.9863280653953552,0.9995136874775414,-0.080108642578125,-0.23651123046875,0.2307891845703125,0.34002735841132214
1781008110.341874,-0.13623046875,-0.095703125,0.9790038466453552,0.9930590921475985,-0.385284423828125,-0.29754638671875,-0.1354217529296875,0.5052890169600993
1781008110.350995,-0.1298827975988388,-0.0986328125,0.9746093153953552,0.9881605590536207,-0.446319580078125,-0.41961669921875,-0.0133514404296875,0.6127459528923062
1781008110.360116,-0.1225585862994194,-0.11279296875,0.9770507216453552,0.9911462927049972,-0.080108642578125,-0.23651123046875,-0.1354217529296875,0.28406690747093594
1781008110.369237,-0.134765625,-0.095703125,0.9794921278953552,0.9933406718872319,-0.263214111328125,-0.23651123046875,-0.0743865966796875,0.3615972847045222
1781008110.378358,-0.12890625,-0.10302734375,0.9804686903953552,0.9942586724262585,-0.4482269287109375,-0.6656646728515625,-0.1964569091796875,0.8262034576716885
1781008110.388671,-0.1166992112994194,-0.0947265625,0.9775390028953552,0.9890269610797363,-0.507354736328125,-0.60272216796875,-0.0743865966796875,0.7913382374188156
1781008110.398984,-0.1103515625,-0.10009765625,0.9877929091453552,0.9989653845308047,-0.1430511474609375,-0.5397796630859375,-0.2574920654296875,0.614921034955144
1781008110.409297,-0.10498046875,-0.09765625,0.9843749403953552,0.9947621149105907,-0.1430511474609375,-0.5397796630859375,-0.3185272216796875,0.6428726984575095
1781008110.41961,-0.12646484375,-0.1005859375,0.9707030653953552,0.984060632631651,-0.0820159912109375,-0.1773834228515625,-0.1354217529296875,0.23776154584666992
1781008110.427534,-0.125,-0.09765625,0.9814452528953552,0.9941813353683976,0.0400543212890625,-0.1773834228515625,-0.3185272216796875,0.366781703888627
1781008110.435457,-0.1352538913488388,-0.09326171875,0.9819335341453552,0.9955826579387546,-0.019073486328125,0.06866455078125,-0.4405975341796875,0.4463236555907842
1781008110.44338,-0.125,-0.0947265625,0.9873046278953552,0.9996842250964313,0.102996826171875,-0.23651123046875,-0.1354217529296875,0.2913502351223883
1781008110.451303,-0.125,-0.09912109375,0.9746093153953552,0.9875795202825944,-0.080108642578125,0.06866455078125,-0.0133514404296875,0.10635072219429512
1781008110.462043,-0.1181640625,-0.09765625,0.9770507216453552,0.98900333745558,0.3452301025390625,0.3108978271484375,-0.0743865966796875,0.47050467414292263
1781008110.472783,-0.1083984375,-0.10302734375,0.9931640028953552,1.004360289666884,0.286102294921875,0.67901611328125,0.2307891845703125,0.772127614432853
1781008110.483523,-0.1201171875,-0.1044921875,0.9677733778953552,0.9807813553205583,0.5283355712890625,0.6198883056640625,0.3528594970703125,0.8876428403705604
1781008110.491503,-0.12744140625,-0.08984375,0.9741210341453552,0.9865216675803204,0.2841949462890625,0.3108978271484375,0.8411407470703125,0.9407135498141111
1781008110.499484,-0.1215820237994194,-0.0966796800494194,0.9804686903953552,0.9926973364984937,0.1659393310546875,0.3108978271484375,0.5970001220703125,0.6932549792597705
1781008110.507465,-0.1142578050494194,-0.09033203125,0.9946288466453552,1.0052369195684825,0.102996826171875,0.19073486328125,0.1697540283203125,0.27532628716373964
1781008110.515446,-0.1040038987994194,-0.10009765625,0.9868163466453552,0.9973178298610272,0.102996826171875,0.06866455078125,-0.8068084716796875,0.8162493961465352
1781008110.526087,-0.11474609375,-0.09375,0.9775390028953552,0.9887053305775837,-0.1430511474609375,0.5550384521484375,-0.7457733154296875,0.9405897895258126
1781008110.536728,-0.1171874925494194,-0.1044921875,0.9794921278953552,0.9919961462967113,-0.324249267578125,0.92315673828125,-1.2340545654296875,1.5748798752339437
1781008110.547369,-0.1240234300494194,-0.0947265625,0.9594725966453552,0.9720815791679576,0.1010894775390625,0.9822845458984375,-1.1119842529296875,1.4871486107123306
1781008110.558044,-0.138671875,-0.103515625,1.0048828125,1.0196738892376653,-0.3223419189453125,0.7991790771484375,-0.5016326904296875,0.9971092548807785
1781008110.568717,-0.1591796725988388,-0.1025390625,0.9633788466453552,0.9818101800606812,0.225067138671875,0.74005126953125,-0.0743865966796875,0.7770871664172214
1781008110.57939,-0.13818359375,-0.08984375,0.9438475966453552,0.9581309360880383,0.591278076171875,0.92315673828125,0.5359649658203125,1.2202813492725186
1781008110.59007,-0.1308593600988388,-0.0830078125,0.9580077528953552,0.9704603668718886,-0.873565673828125,0.19073486328125,0.9632110595703125,1.3142573263407236
1781008110.600751,-0.12548828125,-0.08447265625,0.9775390028953552,0.9891741204493044,-1.117706298828125,0.25177001953125,0.9021759033203125,1.4582787366298164
1781008110.611432,-0.12939453125,-0.1201171875,1.00634765625,1.0217175190287116,-0.4482269287109375,0.4940032958984375,0.5970001220703125,0.8951847751900872
1781008110.619442,-0.11328125,-0.111328125,0.9589843153953552,0.9720481007603874,0.225067138671875,0.06866455078125,0.2307891845703125,0.3295962456681897
1781008110.627454,-0.11279296875,-0.09716796875,0.9711913466453552,0.9825357498581199,-0.2651214599609375,-0.1773834228515625,-0.1964569091796875,0.3746325992206113
1781008110.635466,-0.1166992038488388,-0.09716796875,0.9765624403953552,0.9882988001211402,-0.6313323974609375,-0.1773834228515625,-0.5626678466796875,0.8640836652046303
1781008110.643478,-0.1298827975988388,-0.11376953125,1.00439453125,1.0191277749908756,-0.812530517578125,-0.35858154296875,-1.1119842529296875,1.4231287867642972
1781008110.654159,-0.12890625,-0.11328125,0.9858397841453552,1.0006645506334206,-0.324249267578125,-0.29754638671875,-1.0509490966796875,1.139370634862153
1781008110.66484,-0.13623046875,-0.1064453050494194,0.9809569716453552,0.9960752601096641,-0.263214111328125,-0.60272216796875,-1.1119842529296875,1.2919228533185718
1781008110.675521,-0.12744140625,-0.08984375,0.9594725966453552,0.9720601191049968,0.164031982421875,-0.29754638671875,-0.6847381591796875,0.7643995618414634
1781008110.683477,-0.1249999925494194,-0.0810546875,0.9736327528953552,0.9849647699352831,0.0400543212890625,0.0667572021484375,-0.5016326904296875,0.5076378914150731
1781008110.691433,-0.125,-0.087890625,0.9863280653953552,0.9980945919848653,0.041961669921875,-0.23651123046875,-0.3185272216796875,0.3989460299732977
1781008110.699389,-0.11865234375,-0.10107421875,0.9785155653953552,0.9908516983354687,0.2231597900390625,0.0057220458984375,-0.0133514404296875,0.2236320519538507
1781008110.707345,-0.12841796875,-0.09228515625,0.9838866591453552,0.9965142662331389,0.286102294921875,0.61798095703125,0.4138946533203125,0.7969088846662239
1781008110.718036,-0.1225585862994194,-0.09814453125,0.9682616591453552,0.9809095761898292,0.0400543212890625,0.6198883056640625,0.3528594970703125,0.7144058264220019
1781008110.728727,-0.1249999925494194,-0.095703125,0.9848632216453552,0.9973663577752102,-0.080108642578125,0.61798095703125,0.5359649658203125,0.8219344879342503
1781008110.739418,-0.1215820237994194,-0.09814453125,0.9882811903953552,1.000556969299952,-0.080108642578125,0.06866455078125,0.6580352783203125,0.6664402768919296
1781008110.747418,-0.1308593600988388,-0.10205078125,0.9731444716453552,0.987192330183501,0.408172607421875,0.06866455078125,-0.0133514404296875,0.4141231205150353
1781008110.755416,-0.12939453125,-0.095703125,0.9829100966453552,0.9959991420375593,0.408172607421875,-0.05340576171875,0.1087188720703125,0.42576618698362245
1781008110.763414,-0.1181640625,-0.09765625,0.9653319716453552,0.9774279023596959,0.3452301025390625,0.1888275146484375,-0.0133514404296875,0.3937231450511704
1781008110.771412,-0.1279296875,-0.0927734375,0.9819335341453552,0.9945684396403304,0.225067138671875,0.25177001953125,0.0476837158203125,0.3410529231646363
1781008110.782181,-0.1337890625,-0.0966796875,0.9707030653953552,0.9846374542884634,0.408172607421875,0.06866455078125,0.2918243408203125,0.5064396744714743
1781008110.79295,-0.14013671875,-0.09521484375,0.9746093153953552,0.989225699255613,0.2231597900390625,0.0057220458984375,0.4749298095703125,0.5247774363652038
1781008110.803719,-0.1328125,-0.09326171875,0.9897460341453552,1.0029626715122117,0.102996826171875,-0.35858154296875,0.6580352783203125,0.7564386932682781
1781008110.814283,-0.1357421875,-0.08642578125,0.9770507216453552,0.9902138505391992,0.0400543212890625,-0.6046295166015625,0.5359649658203125,0.8089744406262384
1781008110.824848,-0.12744140625,-0.1025390625,0.9731444716453552,0.9867956901300664,-0.6313323974609375,-0.6046295166015625,0.3528594970703125,0.9426915047364797
1781008110.835413,-0.11962890625,-0.09912109375,0.9868163466453552,0.998970754548527,-0.202178955078125,-0.78582763671875,0.4138946533203125,0.9108842893335025
1781008110.843469,-0.1162109300494194,-0.099609375,0.9877929091453552,0.9995808317533333,0.102996826171875,-0.48065185546875,0.1697540283203125,0.5200490193222221
1781008110.851523,-0.1279296875,-0.1025390625,0.9707030653953552,0.9844514744009305,-0.080108642578125,-0.72479248046875,0.1087188720703125,0.7372661171544466
1781008110.859577,-0.1225585862994194,-0.09912109375,0.9819335341453552,0.9945044312526193,-0.263214111328125,-0.35858154296875,0.2307891845703125,0.5011247739582766
1781008110.87563,-0.109375,-0.09228515625,0.9755858778953552,0.9860259863907938,-0.1430511474609375,-0.6046295166015625,0.2307891845703125,0.6628002194103135
1781008110.883627,-0.1254882663488388,-0.09619140625,0.9702147841453552,0.9830141499499424,-0.1430511474609375,-0.0514984130859375,-0.0743865966796875,0.16926040028857087
1781008110.891624,-0.1093749925494194,-0.0908203125,0.9550780653953552,0.9656010196541414,-0.3871917724609375,-0.1773834228515625,-0.0133514404296875,0.42609929397445157
1781008110.899621,-0.126953125,-0.1005859375,0.9858397841453552,0.9990569086762676,-0.751495361328125,-0.23651123046875,-0.0743865966796875,0.7913382374188156
1781008110.910241,-0.13623046875,-0.103515625,0.9985350966453552,1.013087639085353,-0.6313323974609375,0.1888275146484375,-0.3185272216796875,0.731912574917976
1781008110.920861,-0.1259765625,-0.095703125,0.9721679091453552,0.9849566619938838,0.164031982421875,0.25177001953125,-0.5016326904296875,0.5847478004231764
1781008110.931481,-0.11474609375,-0.0849609375,0.9746093153953552,0.9850118499729664,0.2899169921875,0.3509521484375,-0.0438690185546875,0.45732238480189824
1781008110.939474,-0.1215820237994194,-0.0961913987994194,0.9746093153953552,0.9868628533740413,0.2880096435546875,0.0438690185546875,-0.2269744873046875,0.36931214907808735
1781008110.947467,-0.13134765625,-0.1015624925494194,0.9721679091453552,0.9862441838952819,0.2899169921875,0.4730224609375,0.0782012939453125,0.5602834579792061
1781008110.95546,-0.12744140625,-0.09228515625,0.9726561903953552,0.9853009321042328,0.1068115234375,0.4730224609375,0.0782012939453125,0.49119689785780357
1781008110.963453,-0.11767578125,-0.10693359375,0.9638671278953552,0.9768941719563736,0.1678466796875,0.2899169921875,0.0782012939453125,0.3440055415482232
1781008110.974143,-0.12939453125,-0.0859375,0.9770507216453552,0.9893211365837519,-0.5035400390625,-0.0152587890625,-0.2880096435546875,0.5802886836422162
1781008110.984833,-0.13525390625,-0.10498046875,0.9985350966453552,1.0131075249979158,-0.1983642578125,0.1678466796875,-0.4100799560546875,0.4854754957950366
1781008110.995523,-0.13427734375,-0.1083984375,0.9926757216453552,1.0075642483936813,0.2899169921875,0.3509521484375,-0.4100799560546875,0.6126865782843284
1781008111.006303,-0.1240234375,-0.09326171875,0.9716796278953552,0.9839923071347543,-0.0171661376953125,-0.0782012939453125,-0.5321502685546875,0.5381394122166873
1781008111.017085,-0.1328125,-0.10498046875,0.9716796278953552,0.9863170678043018,0.2288818359375,0.1068115234375,-0.2880096435546875,0.38307329734876905
1781008111.027867,-0.12890625,-0.11181640625,1.00537109375,1.0197503450079333,-0.0762939453125,-0.1373291015625,-0.5321502685546875,0.5548548968425314
1781008111.03576,-0.115234375,-0.099609375,0.9648436903953552,0.9767928826856077,0.6561279296875,-0.5035400390625,0.2613067626953125,0.8673739996595318
1781008111.043653,-0.1308593600988388,-0.0732421875,0.9506835341453552,0.9624384511491452,0.1049041748046875,-0.3833770751953125,0.2613067626953125,0.4756722526142019
1781008111.051546,-0.12744140625,-0.08349609375,0.9829100966453552,0.9946482633503503,-0.4425048828125,-0.6256103515625,0.2613067626953125,0.8096172598983816
1781008111.059439,-0.1279296875,-0.0927734375,0.9887694716453552,1.0013181231293324,-0.2593994140625,-0.3814697265625,0.6275177001953125,0.7788361010880601
1781008111.070219,-0.12841796875,-0.11474609375,1.00146484375,1.016164196375749,-0.0762939453125,-0.1373291015625,0.3833770751953125,0.41431634050882243
1781008111.080999,-0.1157226487994194,-0.10498046875,0.9697265028953552,0.982233231305976,0.0457763671875,-0.3814697265625,0.6275177001953125,0.7357941914251345
1781008111.091779,-0.1166992112994194,-0.09326171875,0.9877929091453552,0.9990251675808546,0.1659393310546875,-0.2613067626953125,0.3833770751953125,0.49274239477286086
1781008111.099753,-0.1303710788488388,-0.10693359375,0.9760741591453552,0.990531259387513,-0.0762939453125,-0.5035400390625,0.5054473876953125,0.7175307650257418
1781008111.107727,-0.1357421725988388,-0.0927734375,0.9755858778953552,0.9893435466390178,0.1068115234375,-0.3204345703125,0.2613067626953125,0.42704594556171643
1781008111.115701,-0.1210937425494194,-0.099609375,0.9750975966453552,0.9876239390861602,-0.0171661376953125,0.0438690185546875,0.7495880126953125,0.7510668118408867
1781008111.123675,-0.12939453125,-0.10302734375,0.9672850966453552,0.9813246335794298,0.0457763671875,-0.0762939453125,0.2613067626953125,0.27603888514942226
1781008111.134323,-0.11767578125,-0.0927734375,0.9838866591453552,0.9952323639445075,-0.5664825439453125,-0.0171661376953125,0.2002716064453125,0.6010872359535789
1781008111.144971,-0.1181640550494194,-0.10986328125,0.9760741591453552,0.9893196897990311,-0.3833770751953125,-0.2613067626953125,-0.1049041748046875,0.4756722526142019
1781008111.155619,-0.12646484375,-0.0961913987994194,0.9838866591453552,0.9966338846095437,0.1049041748046875,-0.5664825439453125,-0.0438690185546875,0.5777818353627577
1781008111.166203,-0.12890625,-0.07861328125,0.9819335341453552,0.9934738722065828,-0.0762939453125,-0.0762939453125,-0.8983612060546875,0.9048173234010974
1781008111.176787,-0.1303710788488388,-0.09619140625,0.9936522841453552,1.0067741884970256,0.0457763671875,0.2288818359375,-0.9593963623046875,0.987382271776475
1781008111.187371,-0.1357421725988388,-0.09326171875,0.9858397841453552,0.9995017586827036,0.1678466796875,0.3509521484375,-0.7152557373046875,0.8142055564304922
1781008111.195379,-0.12744140625,-0.1083984375,0.9736327528953552,0.9879029662826238,0.5931854248046875,0.2880096435546875,-0.7152557373046875,0.9728356863974963
1781008111.203387,-0.12744140625,-0.09765625,0.9775390028953552,0.9906364405636839,0.6561279296875,0.5950927734375,-0.4100799560546875,0.9761172262957739
1781008111.211395,-0.138671875,-0.0830078125,0.9775390028953552,0.9908091077668272,0.7190704345703125,0.5321502685546875,-0.2269744873046875,0.9229104052307514
1781008111.219403,-0.12646484375,-0.08642578125,0.9731444716453552,0.9851258473227176,0.1049041748046875,0.4100799560546875,0.2613067626953125,0.4974451532375918
1781008111.2301,-0.1352538913488388,-0.09326171875,0.9824218153953552,0.9960642482661011,-0.0762939453125,0.2899169921875,0.2613067626953125,0.3976856204097629
1781008111.240797,-0.1308593600988388,-0.0927734375,0.9936522841453552,1.0065167383696734,-0.0171661376953125,0.5321502685546875,0.1392364501953125,0.5503320576426493
1781008111.251494,-0.1259765625,-0.103515625,0.9697265028953552,0.9833387358057815,-0.3223419189453125,0.5321502685546875,0.3223419189453125,0.7007085940257325
1781008111.262116,-0.1367187350988388,-0.09228515625,0.9804686903953552,0.9942471601350925,-0.2002716064453125,0.0438690185546875,0.2613067626953125,0.33213616389583656
1781008111.272737,-0.1215820237994194,-0.09423828125,0.9697265028953552,0.9818515837853357,-0.0743865966796875,0.0438690185546875,0.1392364501953125,0.16384335695269964
1781008111.283358,-0.13232421875,-0.095703125,0.9853515028953552,0.9987924565497572,-0.3204345703125,0.1068115234375,0.0782012939453125,0.34670226097491386
1781008111.29139,-0.12548828125,-0.095703125,0.9780272841453552,0.9906784369302605,0.2307891845703125,-0.4444122314453125,-0.1049041748046875,0.5116353829283938
1781008111.299422,-0.14111328125,-0.0859375,0.9804686903953552,0.9942922432046699,0.3509521484375,-0.0762939453125,0.3223419189453125,0.4825893588689976
1781008111.307454,-0.12890625,-0.1005859375,0.9956054091453552,1.0089422594139401,-0.4425048828125,-0.3204345703125,0.2002716064453125,0.581891400101812
1781008111.315486,-0.1279296875,-0.10791015625,0.9624022841453552,0.9768463355584358,0.2307891845703125,-0.4444122314453125,0.3833770751953125,0.6306693753133603
1781008111.326151,-0.1210937425494194,-0.0859375,0.9746093153953552,0.9858561081853061,0.1678466796875,-0.5645751953125,0.3833770751953125,0.7027770918503092
1781008111.336816,-0.1254882663488388,-0.0771484375,0.9721679091453552,0.9832647812120499,-0.2002716064453125,-0.7495880126953125,0.8716583251953125,1.1669529300734418
1781008111.347481,-0.1181640625,-0.09228515625,0.9873046278953552,0.9986239151923895,-0.7476806640625,-0.7476806640625,0.5664825439453125,1.1995645974355174
1781008111.358119,-0.1230468675494194,-0.10986328125,0.9946288466453552,1.0082147661881422,0.3509521484375,-0.5035400390625,-0.0438690185546875,0.6153409398219108
1781008111.368756,-0.12890625,-0.10498046875,0.9887694716453552,1.0026478884263743,0.2899169921875,-0.0152587890625,-0.2880096435546875,0.40894284170675854
1781008111.379393,-0.12353515625,-0.09716796875,0.9848632216453552,0.9973254806382824,0.5340576171875,-0.0152587890625,-0.2269744873046875,0.5804892651952057
1781008111.39005,-0.12744140625,-0.11279296875,0.9824218153953552,0.9970537544140343,0.0457763671875,-0.0152587890625,-0.1049041748046875,0.11546944326526878
1781008111.400707,-0.13427734375,-0.099609375,0.9799804091453552,0.994139846772648,0.2880096435546875,0.4100799560546875,-0.0438690185546875,0.5030304324066925
1781008111.411364,-0.126953125,-0.08837890625,0.9770507216453552,0.9892199147231728,0.4711151123046875,0.4100799560546875,0.3833770751953125,0.7328662914781829
1781008111.422033,-0.1191406175494194,-0.0859375,0.9711913466453552,0.9822384498965236,-0.1373291015625,0.4730224609375,0.2613067626953125,0.5575757840129326
1781008111.432701,-0.115234375,-0.0849609375,0.9770507216453552,0.9874843972186239,-0.0152587890625,0.1678466796875,0.2613067626953125,0.31094462972702464
1781008111.443369,-0.12744140625,-0.09912109375,0.9819335341453552,0.9951179672442666,0.1068115234375,0.4730224609375,0.0171661376953125,0.48523564004902064
1781008111.451376,-0.14111328125,-0.09375,0.9746093153953552,0.989224614685939,0.4711151123046875,0.2269744873046875,0.2613067626953125,0.5845922434991662
1781008111.459384,-0.13330078125,-0.08154296875,0.9731444716453552,0.985610732859754,0.7762908935546875,0.1049041748046875,0.3223419189453125,0.847075409876083
1781008111.467392,-0.1328125,-0.08056640625,0.9873046278953552,0.9994501159316936,0.2899169921875,-0.1373291015625,0.5664825439453125,0.6510096904730093
1781008111.4754,-0.125,-0.10791015625,0.9790038466453552,0.9928333866104129,-0.0762939453125,-0.1373291015625,0.0171661376953125,0.158033934680766
1781008111.486069,-0.1206054612994194,-0.1005859375,0.9750975966453552,0.987663166824372,0.4119873046875,-0.0762939453125,0.3833770751953125,0.5679192610753134
1781008111.496738,-0.1279296875,-0.08154296875,0.9628905653953552,0.9747684348725075,-0.0171661376953125,0.0438690185546875,0.3833770751953125,0.386260467635038
1781008111.507407,-0.12646484375,-0.09326171875,0.9702147841453552,0.9828569744693957,-0.7457733154296875,-0.2613067626953125,0.1392364501953125,0.8024000568919997
1781008111.518066,-0.1215820237994194,-0.1010742112994194,0.9887694716453552,1.001330740943669,-0.9918212890625,-0.3814697265625,-0.3490447998046875,1.1185083343417528
1781008111.528727,-0.13671875,-0.1215820237994194,0.9838866591453552,1.0007532978496416,-0.4425048828125,-0.8087158203125,-0.5931854248046875,1.0962211444491214
1781008111.539388,-0.123046875,-0.087890625,0.9804686903953552,0.9920605567482961,-0.5054473876953125,-0.7495880126953125,-0.7152557373046875,1.1528009456327644
1781008111.547408,-0.1396484225988388,-0.09423828125,0.9873046278953552,1.0015752412329708,-0.6256103515625,-0.6256103515625,-0.7762908935546875,1.177031934732548
1781008111.555429,-0.123046875,-0.11279296875,0.9892577528953552,1.0032415905006489,-0.3833770751953125,-0.2002716064453125,-0.3490447998046875,0.555804795233176
1781008111.56345,-0.1376953125,-0.10546875,0.9951171278953552,1.010119673376247,-0.1373291015625,-0.2593994140625,-0.3490447998046875,0.45604781593888394
1781008111.571471,-0.126953125,-0.09423828125,0.9667968153953552,0.9796397459570637,-0.1373291015625,-0.3814697265625,0.0171661376953125,0.4057993478346243
1781008111.58212,-0.12255859375,-0.09716796875,0.9702147841453552,0.9827405305711151,-0.2593994140625,-0.3204345703125,0.3833770751953125,0.5629781093902649
1781008111.592769,-0.1303710788488388,-0.0966796875,0.9824218153953552,0.9957390238109648,-0.6866455078125,-0.1373291015625,0.3833770751953125,0.7983228152322603
1781008111.603418,-0.1201171875,-0.1181640625,0.9833983778953552,0.9977290484127592,-0.6866455078125,-0.1373291015625,0.5664825439453125,0.900690739449342
1781008111.611409,-0.12841796875,-0.09814453125,0.9892577528953552,1.0023743938148688,0.1678466796875,-0.0762939453125,0.3833770751953125,0.42540716467729744
1781008111.619402,-0.1206054612994194,-0.0849609375,0.9667968153953552,0.9779877915673207,-0.1392364501953125,0.0438690185546875,0.2613067626953125,0.2993200696282286
1781008111.627395,-0.1123046800494194,-0.083984375,0.9731444716453552,0.9831967651996525,-0.2593994140625,0.1068115234375,0.1392364501953125,0.3131829283629612
1781008111.635388,-0.1206054538488388,-0.0927734375,0.9873046278953552,0.9989609674392872,-0.2593994140625,-0.0152587890625,-0.0438690185546875,0.26352490859228794
1781008111.646051,-0.1245117112994194,-0.10498046875,0.9790038466453552,0.9924578564433262,0.6561279296875,0.2899169921875,-0.1659393310546875,0.7362686901301243
1781008111.656714,-0.1181640550494194,-0.109375,0.9677733778953552,0.9810764218416974,0.3509521484375,0.4730224609375,0.1392364501953125,0.6052309047853204
1781008111.667377,-0.12841796875,-0.07470703125,0.9545897841453552,0.9660817621768565,-0.2002716064453125,0.2269744873046875,-0.4100799560546875,0.5096976599840599
1781008111.678148,-0.12451171875,-0.11572265625,0.9916991591453552,1.0061620761712495,-0.5035400390625,0.1678466796875,-0.1659393310546875,0.5561123451354586
1781008111.688918,-0.14208984375,-0.109375,0.9750975966453552,0.9914472942650291,-0.0152587890625,-0.1373291015625,-0.1659393310546875,0.21593511611244356
1781008111.699688,-0.1142578125,-0.09228515625,0.9814452528953552,0.9923740132692914,-0.1983642578125,-0.0152587890625,-0.1049041748046875,0.22491352852287536
1781008111.707822,-0.11865234375,-0.10302734375,0.9760741591453552,0.9886423905482007,-0.5664825439453125,-0.0782012939453125,-0.5931854248046875,0.8239459103425367
1781008111.715955,-0.1279296875,-0.09814453125,0.9775390028953552,0.9907476248469007,-0.3833770751953125,-0.0782012939453125,-0.5321502685546875,0.6605129313517333
1781008111.724088,-0.126953125,-0.1069335862994194,0.9916991591453552,1.0054944604898257,-0.1392364501953125,0.0438690185546875,-0.2269744873046875,0.26986792647361596
1781008111.732221,-0.1376953125,-0.1064453125,0.9785155653953552,0.9938728869220083,-0.3204345703125,0.1068115234375,-0.6542205810546875,0.7362686901301243
1781008111.742857,-0.1318359375,-0.10986328125,0.9814452528953552,0.9963360072858696,-0.0762939453125,-0.1373291015625,0.0171661376953125,0.158033934680766
1781008111.753493,-0.14697265625,-0.1113281175494194,0.9526366591453552,0.9703151631247972,-0.1983642578125,-0.0152587890625,0.3833770751953125,0.43192498330898865
1781008111.764129,-0.1337890625,-0.08984375,0.9653319716453552,0.9786915898991879,-0.3833770751953125,-0.3833770751953125,0.6275177001953125,0.8292975507193052
1781008111.774711,-0.125,-0.08935546875,0.9702147841453552,0.9823065342192072,-0.6866455078125,-0.6256103515625,0.9937286376953125,1.3602819453175958
1781008111.785294,-0.12939453125,-0.1025390625,0.9897460341453552,1.0034213552452653,-0.6885528564453125,-0.4444122314453125,1.0547637939453125,1.335714763186778
1781008111.795877,-0.1279296875,-0.1059570237994194,0.9775390028953552,0.9915520147818386,-0.7457733154296875,-0.4444122314453125,0.9326934814453125,1.274204536091348
1781008111.803743,-0.1123046800494194,-0.1108398362994194,0.9877929091453552,1.0003162709012228,-0.6256103515625,-0.2593994140625,0.6275177001953125,0.9232848054942404
1781008111.811609,-0.1147460862994194,-0.095703125,0.9707030653953552,0.9821355271161606,-0.5054473876953125,-0.5664825439453125,0.6275177001953125,0.9849659884387798
1781008111.819475,-0.1074218675494194,-0.09375,0.9887694716453552,0.9989962903763157,-0.2593994140625,-0.2593994140625,-0.1049041748046875,0.3815507802683531
1781008111.827341,-0.1020507737994194,-0.107421875,0.9824218153953552,0.9935323059801736,-0.4405975341796875,0.0438690185546875,0.0782012939453125,0.4496288695011627
1781008111.838081,-0.1201171800494194,-0.095703125,0.9697265028953552,0.9818129737864771,-0.2593994140625,-0.0762939453125,-0.4100799560546875,0.49119689785780357
1781008111.848821,-0.1157226487994194,-0.080078125,0.9716796278953552,0.9818174661389587,-0.3204345703125,-0.0152587890625,-0.3490447998046875,0.4740711093978463
1781008111.859561,-0.1259765625,-0.08837890625,0.9853515028953552,0.9972955979183895,-0.4425048828125,-0.0152587890625,-0.1049041748046875,0.4550255903221385
1781008111.87017,-0.12548828125,-0.0888671875,0.9907225966453552,1.0025846344568394,-0.1983642578125,0.1678466796875,-0.5321502685546875,0.5922033392192653
1781008111.880779,-0.1337890625,-0.103515625,0.9721679091453552,0.986775274029412,-0.3204345703125,0.4730224609375,-0.5321502685546875,0.7807768379796824
1781008111.891388,-0.11328125,-0.10693359375,0.9858397841453552,0.9980718987515945,-0.6256103515625,0.4730224609375,-0.7762908935546875,1.103524404781996
1781008111.899393,-0.1206054538488388,-0.0966796875,0.9916991591453552,1.0036731837220654,-0.0171661376953125,0.5321502685546875,-1.0204315185546875,1.1509817846803772
1781008111.907401,-0.12646484375,-0.1108398362994194,0.9858397841453552,1.0000794498535377,0.4119873046875,0.7781982421875,-0.9593963623046875,1.30221635044675
1781008111.915409,-0.13427734375,-0.10400390625,0.9775390028953552,0.9921843174236629,0.2880096435546875,1.0814666748046875,-0.7762908935546875,1.362037912434724
1781008111.923417,-0.11865234375,-0.11181640625,0.9843749403953552,0.9977852026675843,0.2288818359375,0.9613037109375,-0.7762908935546875,1.2566301249374314
1781008111.93416,-0.1357421875,-0.1083984375,0.9799804091453552,0.9952576375132343,-0.2593994140625,1.3275146484375,-0.4100799560546875,1.4134174076294383
1781008111.944903,-0.13134765625,-0.1064453050494194,0.9746093153953552,0.989164358145215,-0.3204345703125,1.0223388671875,-0.1659393310546875,1.084154479216156
1781008111.955646,-0.1406249850988388,-0.10595703125,0.9677733778953552,0.9836603020699515,-0.6866455078125,0.4730224609375,-0.3490447998046875,0.9039162429236179
1781008111.963599,-0.1328125,-0.1064453125,0.9711913466453552,0.9859931016535011,-0.8716583251953125,0.1049041748046875,-0.1049041748046875,0.8841934220888561
1781008111.97155,-0.1279296875,-0.10400390625,0.9736327528953552,0.9874935721156337,-0.8087158203125,-0.0762939453125,0.0171661376953125,0.81248798169477
1781008111.979501,-0.13916015625,-0.1064453125,0.9819335341453552,0.99744153669272,-1.1138916015625,-0.1373291015625,0.1392364501953125,1.1309290743589655
1781008111.987452,-0.12890625,-0.1064453125,0.9643554091453552,0.978738361867047,-0.4425048828125,-0.3814697265625,0.3833770751953125,0.6987901726426075
1781008111.998093,-0.125,-0.103515625,0.9765624403953552,0.9899569104814978,-0.2593994140625,-0.5035400390625,0.3223419189453125,0.6517245888136942
1781008112.008734,-0.12841796875,-0.107421875,0.9624022841453552,0.9768565864314929,-0.0743865966796875,-0.9326934814453125,0.6275177001953125,1.1266006214069733
1781008112.019375,-0.1318359375,-0.109375,0.9785155653953552,0.9933963543130685,-0.5035400390625,-0.6866455078125,0.3833770751953125,0.9338161522074151
1781008112.030104,-0.1113281175494194,-0.1162109300494194,0.9746093153953552,0.9878067866113551,-0.5035400390625,-0.8087158203125,0.4444122314453125,1.0512259892244797
1781008112.040834,-0.1245117112994194,-0.1005859375,0.9711913466453552,0.9842933144506684,-0.3833770751953125,-0.6237030029296875,0.3223419189453125,0.7999298283963215
1781008112.051564,-0.1201171875,-0.10595703125,0.9936522841453552,1.0064789580470648,-0.6256103515625,-0.5035400390625,0.1392364501953125,0.8150629865134416
1781008112.062152,-0.1225585862994194,-0.08935546875,0.9848632216453552,0.996474070019342,-0.0743865966796875,-0.7495880126953125,-0.1049041748046875,0.7605395719050698
1781008112.072741,-0.1201171875,-0.0927734375,0.9760741591453552,0.9878035298528695,-0.1983642578125,-0.3204345703125,0.2002716064453125,0.42677325241519837
1781008112.08333,-0.123046875,-0.10302734375,0.9687499403953552,0.9819529591703722,-0.2002716064453125,-0.2613067626953125,0.0782012939453125,0.33838644026203485
1781008112.091465,-0.12548828125,-0.10546875,0.9907225966453552,1.0041923269281423,0.4119873046875,0.2899169921875,-0.1049041748046875,0.5145777759233003
1781008112.099598,-0.13671875,-0.1059570237994194,0.9790038466453552,0.9941667059605221,0.9002685546875,0.4119873046875,0.3833770751953125,1.0616943965040522
1781008112.107731,-0.1328125,-0.10009765625,0.9775390028953552,0.9915851971084676,0.6561279296875,0.5950927734375,0.7495880126953125,1.1603971121517187
1781008112.115864,-0.1328125,-0.0869140625,0.9575194716453552,0.9705857782785117,0.5340576171875,0.9613037109375,0.7495880126953125,1.3308660909027274
1781008112.124067,-0.13037109375,-0.09423828125,0.9833983778953552,0.9964686876092702,0.3509521484375,0.3509521484375,0.6275177001953125,0.8000708000197284
1781008112.13227,-0.12451171875,-0.107421875,0.9848632216453552,0.9984979682925063,0.1678466796875,0.2899169921875,0.5664825439453125,0.6581237291238768
1781008112.140473,-0.1206054538488388,-0.09814453125,0.9741210341453552,0.9864531482421164,0.1678466796875,0.2899169921875,0.1392364501953125,0.3627825234271311
1781008112.148676,-0.1103515625,-0.09033203125,0.9907225966453552,1.0009338673057564,0.3509521484375,0.2288818359375,-0.0438690185546875,0.4212823235123558
1781008112.158915,-0.1259765475988388,-0.10693359375,0.9809569716453552,0.9947770927382872,0.0457763671875,0.0457763671875,-0.7152557373046875,0.7181794492555755
1781008112.169154,-0.13232421875,-0.099609375,0.9687499403953552,0.9828062746399683,0.1678466796875,-0.0762939453125,-1.0814666748046875,1.0970703909442514
1781008112.179393,-0.1259765625,-0.10400390625,0.9794921278953552,0.9930215181070077,0.1678466796875,0.1068115234375,-1.3256072998046875,1.3404536257240056
1781008112.187408,-0.12646484375,-0.10546875,0.9702147841453552,0.9840903115596112,0.5950927734375,0.1678466796875,-1.0814666748046875,1.245743988784518
1781008112.195423,-0.1308593600988388,-0.09716796875,0.9736327528953552,0.9871810997922653,0.5340576171875,-0.4425048828125,-0.8983612060546875,1.1349365472716646
1781008112.203438,-0.13671875,-0.1059570237994194,0.9726561903953552,0.9879164803810081,0.4138946533203125,-0.4444122314453125,-0.5931854248046875,0.848928715326594
1781008112.211453,-0.1279296875,-0.0966796875,0.9697265028953552,0.982894937079544,-0.1373291015625,-0.6866455078125,-0.2269744873046875,0.736110557879912
1781008112.219428,-0.1166992112994194,-0.0888671875,0.9750975966453552,0.9860686618667153,-0.5054473876953125,-0.4444122314453125,0.2002716064453125,0.7022022568565297
1781008112.227403,-0.1352538913488388,-0.11328125,0.9814452528953552,0.9971765346002651,-0.5664825439453125,-0.6237030029296875,0.0171661376953125,0.8427351806716255
1781008112.235378,-0.12646484375,-0.1005859375,0.9975585341453552,1.0105611889310293,-0.1373291015625,-0.5035400390625,0.2613067626953125,0.5836891958100062
1781008112.243353,-0.1166992112994194,-0.1103515625,0.9946288466453552,1.0075131343278694,0.1678466796875,-0.0762939453125,0.3223419189453125,0.37134564314505075
1781008112.254048,-0.1201171875,-0.1171875,0.9916991591453552,1.0057973310457553,0.4138946533203125,0.0438690185546875,0.5054473876953125,0.6547597548445603
1781008112.264743,-0.126953125,-0.10400390625,0.9877929091453552,1.0013334808246295,0.7171630859375,0.2899169921875,0.8106231689453125,1.1204841258230236
1781008112.275438,-0.12841796875,-0.099609375,0.9755858778953552,0.9890303369637443,0.8392333984375,-0.0152587890625,0.8716583251953125,1.2100965926647784
1781008112.283474,-0.13427734375,-0.08154296875,0.9628905653953552,0.9756218026082166,0.4730224609375,0.2899169921875,1.0547637939453125,1.1917754704340602
1781008112.29151,-0.1166992112994194,-0.09375,0.9824218153953552,0.9937607316565753,0.2899169921875,0.1678466796875,1.3599395751953125,1.4005927382446235
1781008112.299546,-0.1259765475988388,-0.09716796875,0.9853515028953552,0.9981128638355778,0.2899169921875,0.3509521484375,1.3599395751953125,1.4341042225146508
1781008112.307582,-0.13427734375,-0.09521484375,0.9843749403953552,0.9980432329279387,0.4730224609375,0.2899169921875,1.2378692626953125,1.35651112138318
1781008112.318175,-0.140625,-0.09521484375,0.9848632216453552,0.9993982301590317,0.3509521484375,0.4730224609375,1.4820098876953125,1.5947636082726928
1781008112.328768,-0.1328125,-0.1083984375,0.9755858778953552,0.9905337887005886,0.4730224609375,0.1678466796875,1.0547637939453125,1.168096493210812
1781008112.339361,-0.125,-0.09912109375,0.9941405653953552,1.0068592031613919,0.4138946533203125,0.0438690185546875,0.7495880126953125,0.8573887470760281
1781008112.350064,-0.12744140625,-0.087890625,0.9746093153953552,0.986827944296913,0.5931854248046875,-0.0782012939453125,0.1392364501953125,0.6143054449037795
1781008112.360767,-0.125,-0.10498046875,0.9614257216453552,0.9751847604737586,0.4138946533203125,0.0438690185546875,-0.1049041748046875,0.4292297295476463
1781008112.37147,-0.1240234375,-0.08740234375,0.9760741591453552,0.9877964096379486,0.7171630859375,0.3509521484375,-0.4711151123046875,0.927059734518846
1781008112.382296,-0.1264648288488388,-0.1025390625,0.9829100966453552,0.9963031016520658,0.4119873046875,0.1678466796875,-1.1425018310546875,1.2260572911039282
1781008112.393123,-0.13330078125,-0.1005859375,0.9858397841453552,0.9998833477503137,0.4119873046875,0.1068115234375,-1.0814666748046875,1.1622015356536999
1781008112.40395,-0.13916015625,-0.10009765625,0.9746093153953552,0.9895698093260882,-0.0171661376953125,-0.0782012939453125,-1.1425018310546875,1.1453036944939143
1781008112.414447,-0.1357421875,-0.09912109375,0.9897460341453552,1.003916403292595,0.1659393310546875,0.2269744873046875,-0.9593963623046875,0.999747297811587
1781008112.424944,-0.1240234375,-0.107421875,0.9794921278953552,0.9931395173321838,0.1049041748046875,0.1049041748046875,-0.8373260498046875,0.8503673826437764
1781008112.435441,-0.12890625,-0.10400390625,0.9833983778953552,0.9972492183258592,0.2899169921875,0.1678466796875,-0.7762908935546875,0.8454891611706802
1781008112.443505,-0.1396484225988388,-0.0986328125,0.9829100966453552,0.9976684678405876,-0.0171661376953125,-0.0782012939453125,-0.5931854248046875,0.598564171045021
1781008112.451572,-0.142578125,-0.10205078125,0.9829100966453552,0.9984263326703842,0.2307891845703125,0.0438690185546875,-0.2880096435546875,0.37166879514438583
1781008112.459639,-0.13134765625,-0.10498046875,0.9658202528953552,0.9803478293565941,-0.0171661376953125,-0.2613067626953125,-0.0438690185546875,0.26551909781149513
1781008112.467706,-0.13330078125,-0.09326171875,0.9824218153953552,0.9958009187738128,0.0457763671875,-0.2593994140625,0.2002716064453125,0.3308961289544489
1781008112.476064,-0.126953125,-0.08642578125,0.9794921278953552,0.9914591974564104,0.2880096435546875,-0.4444122314453125,-0.0438690185546875,0.5313908891086219
1781008112.484422,-0.13525390625,-0.09521484375,0.9863280653953552,1.0001012639791858,0.1678466796875,-0.8697509765625,-0.1659393310546875,0.9012075957871293
1781008112.49278,-0.12890625,-0.1181640625,0.9702147841453552,0.9858480077221765,0.3509521484375,-0.8087158203125,0.0782012939453125,0.8850447055891233
1781008112.501138,-0.1181640625,-0.0927734375,0.9750975966453552,0.986602746476827,0.1049041748046875,-0.3833770751953125,-0.0438690185546875,0.39988418131468545
1781008112.51123,-0.1240234375,-0.11376953125,0.9775390028953552,0.9919212778601971,0.4138946533203125,-0.4444122314453125,0.0782012939453125,0.6123123858620408
1781008112.521322,-0.11962890625,-0.1083984375,0.9707030653953552,0.9840354351500519,0.2899169921875,-0.6866455078125,-0.1049041748046875,0.7526877185457361
1781008112.531414,-0.1328125,-0.11474609375,0.9750975966453552,0.9907679592975752,0.5340576171875,-0.5645751953125,0.0171661376953125,0.7773399294526895
1781008112.542067,-0.11767578125,-0.1015625,0.9707030653953552,0.9830701765728564,0.3509521484375,-0.5035400390625,0.3833770751953125,0.7236697887968472
1781008112.552721,-0.1318359375,-0.09130859375,0.9814452528953552,0.9944610390256293,0.4730224609375,-0.6866455078125,0.2002716064453125,0.8575202728207892
1781008112.563375,-0.1230468675494194,-0.10986328125,0.9804686903953552,0.9942481204540061,0.4730224609375,-0.1373291015625,0.5054473876953125,0.7057525008211786
1781008112.572015,-0.115234375,-0.09375,0.9721679091453552,0.9834523207831136,0.7762908935546875,0.1049041748046875,0.4444122314453125,0.9006301509307745
1781008112.580656,-0.1088867112994194,-0.095703125,0.9819335341453552,0.9925768834259421,0.5931854248046875,-0.2613067626953125,0.2613067626953125,0.6988786709160083
1781008112.589297,-0.1201171875,-0.09814453125,0.9853515028953552,0.9974858755918941,0.6561279296875,-0.0762939453125,-0.0438690185546875,0.6620038647895519
1781008112.597938,-0.1162109225988388,-0.1025390625,0.9799804091453552,0.9921596848180992,0.4730224609375,0.1678466796875,0.2002716064453125,0.5403993641573546
1781008112.605486,-0.1064453050494194,-0.08935546875,0.9770507216453552,0.9868855634927007,0.2880096435546875,0.2269744873046875,-0.1049041748046875,0.3814077326945225
1781008112.613034,-0.125,-0.09765625,0.9765624403953552,0.9893613814754416,0.4730224609375,0.3509521484375,-0.0438690185546875,0.5906286056679081
1781008112.620582,-0.1210937425494194,-0.103515625,0.9760741591453552,0.9889893544700458,-0.0762939453125,0.4730224609375,-0.2269744873046875,0.5301777367354661
1781008112.635939,-0.1337890625,-0.0986328125,0.9643554091453552,0.9785751376844777,-0.1983642578125,0.4730224609375,-0.2880096435546875,0.5882586013900442
1781008112.643747,-0.1240234375,-0.10302734375,0.9731444716453552,0.9864109738356598,-0.0743865966796875,0.4100799560546875,-0.3490447998046875,0.5436278215784172
1781008112.651555,-0.1259765625,-0.0947265625,0.9775390028953552,0.9901644904378404,-0.3833770751953125,0.5321502685546875,-0.2269744873046875,0.694031201024395
1781008112.659363,-0.1357421875,-0.08349609375,0.9741210341453552,0.9870710857396291,-0.3204345703125,0.3509521484375,-0.2269744873046875,0.5266527719774
1781008112.670064,-0.1259765625,-0.09375,0.9790038466453552,0.9915178710168157,-0.2002716064453125,0.1049041748046875,0.1392364501953125,0.26551909781149513
1781008112.680765,-0.12841796875,-0.10205078125,0.9785155653953552,0.9921684576585788,-0.0762939453125,0.1678466796875,0.0782012939453125,0.2002716064453125
1781008112.691466,-0.115234375,-0.1044921875,0.9838866591453552,0.9961076932111227,-0.0762939453125,-0.3814697265625,0.2613067626953125,0.4686375386216085
1781008112.702121,-0.1210937425494194,-0.11474609375,0.9775390028953552,0.9916717514869293,-0.2002716064453125,-0.0782012939453125,0.4444122314453125,0.49368653028121934
1781008112.712776,-0.1240234375,-0.10302734375,0.9726561903953552,0.9859292628398361,0.1049041748046875,-0.0782012939453125,0.2613067626953125,0.29223544017876746
1781008112.723431,-0.14404296875,-0.10107421875,0.9838866591453552,0.9994985405624386,-0.0152587890625,-0.1373291015625,0.5054473876953125,0.5239934870851286
1781008112.734102,-0.13037109375,-0.09912109375,0.9687499403953552,0.9824958322190338,0.2288818359375,-0.2593994140625,0.5054473876953125,0.6124965408605215
1781008112.744774,-0.1259765625,-0.10009765625,0.9799804091453552,0.9931018262971615,0.2288818359375,-0.2593994140625,0.6275177001953125,0.7165566376055023
1781008112.755446,-0.1376953125,-0.08544921875,0.9853515028953552,0.9985885801107447,0.3509521484375,-0.0762939453125,0.5054473876953125,0.6200526093100966
1781008112.763466,-0.1279296875,-0.1015625,0.9667968153953552,0.9804983572697602,0.1678466796875,-0.3814697265625,0.5664825439453125,0.7032738675370639
1781008112.771485,-0.12744140625,-0.09375,0.9843749403953552,0.9970077220389704,0.3509521484375,-0.6256103515625,0.6275177001953125,0.953065677974748
1781008112.779504,-0.1318359375,-0.08642578125,0.9833983778953552,0.9959530610065881,0.4711151123046875,-0.4444122314453125,0.7495880126953125,0.9906229702952422
1781008112.787523,-0.13134765625,-0.0986328125,0.9775390028953552,0.9912432298309399,0.4119873046875,-0.3204345703125,0.7495880126953125,0.9133969793312957
1781008112.798177,-0.13623046875,-0.08837890625,0.9633788466453552,0.9769689728182395,0.3509521484375,-0.1983642578125,0.6275177001953125,0.7458513614178197
1781008112.808831,-0.1357421875,-0.10400390625,0.9697265028953552,0.9846889074221357,0.2288818359375,-0.2593994140625,0.6885528564453125,0.7705712082326254
1781008112.819485,-0.13232421875,-0.0986328125,0.9863280653953552,1.0000405907541965,0.1049041748046875,-0.3833770751953125,0.8716583251953125,0.9580037074871172
1781008112.830147,-0.1142578125,-0.0927734375,0.9838866591453552,0.994834014530595,0.4138946533203125,-0.4444122314453125,0.5664825439453125,0.8304899084878133
1781008112.840808,-0.1303710788488388,-0.091796875,0.9863280653953552,0.9991327924988349,0.2288818359375,-0.5035400390625,0.5664825439453125,0.7917335021053091
1781008112.851469,-0.1240234300494194,-0.1005859375,0.9848632216453552,0.9977248655684818,0.0457763671875,-0.6256103515625,0.7495880126953125,0.977428246241916
1781008112.859455,-0.1279296875,-0.08837890625,0.9794921278953552,0.9917568576131777,0.0457763671875,-0.0152587890625,0.0171661376953125,0.05121506340827008
1781008112.867441,-0.1206054612994194,-0.09423828125,0.9780272841453552,0.9899312599776507,0.0457763671875,-0.0762939453125,-0.0438690185546875,0.0992004671016376
1781008112.875427,-0.1215820237994194,-0.1010742112994194,0.9775390028953552,0.9902427413935472,0.1049041748046875,-0.1354217529296875,-0.0438690185546875,0.17682880943713122
1781008112.883413,-0.1230468675494194,-0.1044921875,0.9814452528953552,0.9946325619509384,-0.2593994140625,0.1678466796875,0.0171661376953125,0.3094434361583082
1781008112.894097,-0.1206054612994194,-0.10400390625,0.9790038466453552,0.9918724825081633,-0.1983642578125,-0.0152587890625,-0.4711151123046875,0.5114006828925985
1781008112.904781,-0.1298827975988388,-0.103515625,0.9765624403953552,0.9905852945214628,0.0457763671875,-0.1983642578125,-0.2269744873046875,0.304895510720664
1781008112.915465,-0.1279296875,-0.0927734375,0.9824218153953552,0.9950505208350576,-0.0762939453125,0.1678466796875,0.0782012939453125,0.2002716064453125
1781008112.92611,-0.126953125,-0.0961913987994194,0.9824218153953552,0.9952499708691078,-0.2002716064453125,-0.0782012939453125,0.2002716064453125,0.29382456512533706
1781008112.936755,-0.1396484225988388,-0.09814453125,0.9711913466453552,0.9860763980277819,-0.3204345703125,0.1678466796875,0.2613067626953125,0.4462421382655151
1781008112.9474,-0.1108398288488388,-0.1064453125,0.9755858778953552,0.9876152476350867,-0.1983642578125,0.3509521484375,0.3833770751953125,0.5563216435262188
1781008112.958152,-0.1166992112994194,-0.1044921875,0.9785155653953552,0.990974285684262,-0.2593994140625,-0.1983642578125,0.0171661376953125,0.3270032279303168
1781008112.968907,-0.1240234375,-0.0986328125,0.9741210341453552,0.9869255462877596,-0.0762939453125,0.1068115234375,0.1392364501953125,0.19135374752896295
1781008112.979662,-0.1235351487994194,-0.10888671875,0.9755858778953552,0.9893862014693187,-0.0762939453125,-0.0762939453125,-0.2269744873046875,0.25131444461056995
1781008112.98759,-0.13427734375,-0.10009765625,0.9702147841453552,0.984564204714714,0.6561279296875,0.2899169921875,-0.4711151123046875,0.8581987948703437
1781008112.99552,-0.1357421875,-0.08544921875,0.9775390028953552,0.99061092898974,0.1049041748046875,0.0438690185546875,-0.3490447998046875,0.3670989634296157
1781008113.00345,-0.12646484375,-0.08642578125,0.9824218153953552,0.9942914038319401,0.1049041748046875,0.4100799560546875,-0.2269744873046875,0.4802997752825756
1781008113.01138,-0.12939453125,-0.08251953125,0.9858397841453552,0.997713635147324,0.2288818359375,0.1068115234375,-0.1049041748046875,0.2734967682672187
1781008113.022264,-0.12939453125,-0.09814453125,0.9702147841453552,0.9837133836163395,-0.1392364501953125,0.0438690185546875,0.0171661376953125,0.14698964635414863
1781008113.033148,-0.13330078125,-0.0888671875,0.9848632216453552,0.9978086192480443,-0.0762939453125,0.2899169921875,0.3833770751953125,0.48667300134248864
1781008113.044032,-0.12451171875,-0.111328125,0.9746093153953552,0.9888176966344695,0.2288818359375,-0.0762939453125,0.3223419189453125,0.4026313122731686
1781008113.054493,-0.12744140625,-0.10888671875,0.9770507216453552,0.9913252454239369,0.1068115234375,-0.0152587890625,0.0171661376953125,0.10925295632644413
1781008113.064956,-0.13037109375,-0.10400390625,0.9760741591453552,0.9902192680170097,0.1068115234375,-0.0152587890625,0.0171661376953125,0.10925295632644413
1781008113.075419,-0.1162109300494194,-0.1083984375,0.9687499403953552,0.9816983490519869,-0.0762939453125,-0.1373291015625,-0.2269744873046875,0.27603888514942226
1781008113.083406,-0.1337890625,-0.09521484375,0.9858397841453552,0.9994225631427012,0.1049041748046875,-0.1354217529296875,-0.5321502685546875,0.5590418994859221
1781008113.091392,-0.115234375,-0.091796875,0.9868163466453552,0.997753541435906,0.0457763671875,-0.2593994140625,-0.8373260498046875,0.8777804084680719
1781008113.099378,-0.13427734375,-0.1015625,0.9750975966453552,0.9895254769000915,0.2288818359375,0.1068115234375,-0.4711151123046875,0.5345512561046121
1781008113.107364,-0.13330078125,-0.0869140625,0.9721679091453552,0.9851058806616505,0.4730224609375,-0.3204345703125,-0.5321502685546875,0.7807768379796824
1781008113.118018,-0.146484375,-0.099609375,0.9765624403953552,0.9924988159680408,0.5931854248046875,0.1049041748046875,-0.5321502685546875,0.8037771721161258
1781008113.128672,-0.1235351487994194,-0.0888671875,0.9741210341453552,0.9859361536973229,0.4119873046875,-0.1373291015625,-0.3490447998046875,0.5571580508530132
1781008113.139326,-0.13818359375,-0.09716796875,0.9838866591453552,0.9982831651274474,0.0457763671875,-0.1983642578125,0.2002716064453125,0.28557410757730634
