timestamp,accel_x,accel_y,accel_z,accel_rms,gyro_x,gyro_y,gyro_z,gyro_rms
1785335493.805577,-0.0400390587747097,0.0307617150247097,1.00732421875,1.0085888612408547,-5.069732666015625,-0.67901611328125,-1.9550323486328125,5.475892956510582
1785335493.816242,-0.0502929650247097,0.0200195275247097,1.01025390625,1.011703078430956,-4.40216064453125,-1.59454345703125,-2.1381378173828125,5.14715654538926
1785335493.826907,-0.0419921837747097,0.0297851525247097,0.9999999403953552,1.0013243128975762,-3.8509368896484375,-1.5926361083984375,-2.8095245361328125,5.025896220671692
1785335493.835123,-0.0556640550494194,0.0234375,0.9902343153953552,0.9920744945906546,-2.9354095458984375,-1.7757415771484375,-3.4809112548828125,4.887395064380935
1785335493.843338,-0.0449218675494194,0.0234375,0.9946288466453552,0.9959185876212208,-3.1795501708984375,-1.7147064208984375,-3.3626556396484375,4.935302457802364
1785335493.851553,-0.0400390550494194,0.0234375,0.9814452528953552,0.9825412086860928,-3.6067962646484375,-1.7147064208984375,-3.2978057861328125,5.1792586735558315
1785335493.859768,-0.0561523400247097,0.0258789025247097,0.9941405653953552,0.9960613769495987,-3.3016204833984375,-1.3484954833984375,-3.2367706298828125,4.816204106515223
1785335493.870151,-0.06640625,0.0292968712747097,0.9785155653953552,0.9812037547963935,-3.4847259521484375,-1.3484954833984375,-3.3626556396484375,5.0268487127804296
1785335493.880534,-0.04736328125,0.01904296875,0.9750975966453552,0.9764329152855961,-3.73077392578125,-1.41143798828125,-2.7484893798828125,4.844071134013339
1785335493.890917,-0.0634765625,0.0249023400247097,0.9887694716453552,0.9911177874417135,-4.0340423583984375,-1.2264251708984375,-2.5691986083984375,4.9374485251557365
1785335493.901581,-0.0551757775247097,0.0195312462747097,0.9780272841453552,0.9797771198284021,-4.5223236083984375,-0.8602142333984375,-2.1991729736328125,5.1017390284466835
1785335493.912247,-0.0561523400247097,0.013183590024709702,0.9897460341453552,0.9914252893903044,-4.89044189453125,-0.858306884765625,-1.6498565673828125,5.232125698524326
1785335493.922913,-0.0620117150247097,0.0214843712747097,0.9809569716453552,0.9831498416970842,-5.13458251953125,-0.98419189453125,-1.5277862548828125,5.446714805802277
1785335493.933579,-0.0478515625,0.0224609375,0.9941405653953552,0.9955449409803994,-4.9495697021484375,-0.8602142333984375,-0.1850128173828125,5.027170029585528
1785335493.944245,-0.0590820237994194,0.013671875,0.9916991591453552,0.993551623194213,-4.9495697021484375,-1.0433197021484375,-0.2498626708984375,5.064502699340319
1785335493.954911,-0.0683593675494194,0.04150390625,1.015625,1.0187687264491216,-4.1561126708984375,-0.7381439208984375,0.1201629638671875,4.222862550338006
1785335493.965591,-0.0615234337747097,-0.0039062537252902985,1.02099609375,1.0228555201856986,-1.8978118896484375,-0.0667572021484375,0.1201629638671875,1.9027836530764626
1785335493.976273,-0.0517578087747097,0.0258789025247097,1.0029296875,1.004597703776935,-0.1277923583984375,-0.2498626708984375,0.6084442138671875,0.6700497015610076
1785335493.986955,-0.0541992112994194,0.01806640625,0.9780272841453552,0.9796945024205294,-0.12969970703125,-0.67901611328125,0.7915496826171875,1.050921403412709
1785335493.997605,-0.0434570237994194,0.02294921875,0.9907225966453552,0.9919407457416264,-0.5550384521484375,-0.5550384521484375,0.2384185791015625,0.8203528421279923
1785335494.008255,-0.0483398400247097,0.0297851525247097,0.9770507216453552,0.978699140753809,-0.7991790771484375,-0.6160736083984375,0.3643035888671875,1.072823840701917
1785335494.018905,-0.0395507737994194,0.03173828125,0.9829100966453552,0.9842173745124694,-0.7991790771484375,-0.9212493896484375,-0.1239776611328125,1.2258703421403951
1785335494.026913,-0.0493163987994194,0.03662109375,0.9848632216453552,0.9867769641857564,-1.28936767578125,-1.16729736328125,-0.0629425048828125,1.7404062447008812
1785335494.034923,-0.0532226487994194,0.02685546875,0.9672850966453552,0.9691203871239231,-1.4095306396484375,-0.8602142333984375,-0.0629425048828125,1.6524850711488797
1785335494.042933,-0.046875,0.01806640625,0.9868163466453552,0.9880942073842331,-1.10626220703125,-0.92315673828125,-0.1239776611328125,1.4461690408108214
1785335494.050943,-0.0532226487994194,0.0263671875,1.00390625,1.005661790917279,-1.1653900146484375,-1.2264251708984375,-0.3681182861328125,1.7314051110704582
1785335494.061635,-0.0498046800494194,0.0087890625,0.9990233778953552,1.0003026858685824,-1.0433197021484375,-1.1043548583984375,-0.5512237548828125,1.6161569484757488
1785335494.072327,-0.0454101525247097,0.0258789025247097,0.9868163466453552,0.9881995251742872,-0.1277923583984375,-1.2264251708984375,-0.4901885986328125,1.3269266931175576
1785335494.083019,-0.0454101525247097,0.0170898400247097,0.9916991591453552,0.9928853744687712,0.1773834228515625,-1.1043548583984375,-0.1239776611328125,1.1253599390553815
1785335494.091041,-0.056640625,0.02392578125,0.9926757216453552,0.9945781476349358,0.4215240478515625,-0.2498626708984375,-0.3681182861328125,0.6128824926615432
1785335494.099061,-0.0512695275247097,0.0312499962747097,0.9863280653953552,0.988153924905589,0.1163482666015625,0.2994537353515625,-0.3070831298828125,0.44442041741555505
1785335494.107081,-0.0468749962747097,0.0224609337747097,0.9814452528953552,0.9828207075823208,-0.0667572021484375,0.5435943603515625,-0.4901885986328125,0.7350076291266046
1785335494.115101,-0.0571289025247097,0.0205078087747097,0.9824218153953552,0.9842951310908346,-0.6771087646484375,0.4825592041015625,0.1201629638671875,0.8401064233251723
1785335494.126087,-0.0419921837747097,0.0312499962747097,0.9941405653953552,0.9955176389848323,-0.4329681396484375,0.1163482666015625,-0.0019073486328125,0.44833242919804966
1785335494.137073,-0.0527343712747097,0.0292968712747097,0.9814452528953552,0.9832975160199753,-0.3108978271484375,0.2384185791015625,-0.0629425048828125,0.3968156205435348
1785335494.148059,-0.0449218712747097,0.0244140587747097,0.9726561903953552,0.9739990171961582,-0.8602142333984375,0.0553131103515625,0.2384185791015625,0.8943553468162605
1785335494.155785,-0.0556640587747097,0.0317382775247097,0.9960936903953552,0.9981525162744156,-0.8602142333984375,-0.0667572021484375,0.4253387451171875,0.9619449565738222
1785335494.163511,-0.0493163987994194,0.02734375,0.9975585341453552,0.9991510480907457,-0.74005126953125,-0.00762939453125,-0.0629425048828125,0.7427623092999881
1785335494.171237,-0.0434570237994194,0.02783203125,0.9814452528953552,0.9828010578503831,-0.7381439208984375,0.2384185791015625,-0.0629425048828125,0.7782426522242595
1785335494.186955,-0.0551757775247097,0.0336914025247097,0.9897460341453552,0.9918551754848068,-1.4705657958984375,0.3604888916015625,0.0553131103515625,1.5151156857518477
1785335494.194947,-0.0488281175494194,0.033203125,0.9931640028953552,0.9949177700796737,-1.4095306396484375,0.1163482666015625,0.1811981201171875,1.4258843929235372
1785335494.202939,-0.0439453050494194,0.0283203125,0.9921874403953552,0.9935638614675308,-1.1653900146484375,-0.0667572021484375,-0.2498626708984375,1.1937427547798871
1785335494.210931,-0.0483398400247097,0.0302734337747097,0.9960936903953552,0.9977253434545822,-1.22833251953125,-0.49591064453125,-0.0629425048828125,1.3261560635228085
1785335494.218928,-0.0473632775247097,0.0307617150247097,0.9882811903953552,0.9898935672376119,-1.04522705078125,-0.19073486328125,0.5435943603515625,1.1934714928986832
1785335494.226925,-0.0488281212747097,0.0385742150247097,0.9916991591453552,0.9936495246019066,-0.6771087646484375,-0.2498626708984375,0.2384185791015625,0.7600993700385773
1785335494.234922,-0.0454101525247097,0.0322265587747097,0.9916991591453552,0.9932612220822787,-0.492095947265625,-0.67901611328125,0.1201629638671875,0.8471484175138233
1785335494.242919,-0.0468749962747097,0.0341796837747097,0.9887694716453552,0.9904698804691277,-0.4940032958984375,-0.4940032958984375,0.4253387451171875,0.8179190429467346
1785335494.253568,-0.0439453050494194,0.02880859375,0.9965819716453552,0.9979663076067662,-0.2498626708984375,-0.4329681396484375,0.6084442138671875,0.7874624598338574
1785335494.264217,-0.052734375,0.03662109375,0.9863280653953552,0.9884154346228265,-0.2498626708984375,-0.4329681396484375,0.3032684326171875,0.5846918046981806
1785335494.274866,-0.0434570237994194,0.0336913987994194,1.00146484375,1.0029733079886904,0.41961669921875,-0.49591064453125,0.1201629638671875,0.6606395988040572
1785335494.285559,-0.0429687462747097,0.0307617150247097,0.9916991591453552,0.9931061466516489,0.35858154296875,-0.25177001953125,0.2384185791015625,0.49881087052451406
1785335494.296252,-0.0434570237994194,0.03564453125,0.9946288466453552,0.9962156333367816,-0.003814697265625,-0.19073486328125,0.4253387451171875,0.46616240526667235
1785335494.306945,-0.0434570237994194,0.0234375,0.9999999403953552,1.0012181131574016,-0.12969970703125,-0.31280517578125,0.3032684326171875,0.45457764377674403
1785335494.314927,-0.0390624962747097,0.0297851525247097,0.9975585341453552,0.9987672716766213,0.54168701171875,-0.12969970703125,0.1201629638671875,0.5698122239423513
1785335494.322909,-0.0410156212747097,0.0297851525247097,0.9916991591453552,0.9929937858562233,0.41961669921875,-0.19073486328125,0.0553131103515625,0.4642386266898955
1785335494.330891,-0.0483398400247097,0.0244140587747097,0.9892577528953552,0.9907389606061917,0.54168701171875,-0.31280517578125,0.2384185791015625,0.6694141584408981
1785335494.338873,-0.0512695275247097,0.0390624962747097,0.9926757216453552,0.9947660686874806,0.667572021484375,-0.49591064453125,0.1201629638671875,0.8402493136643919
1785335494.349579,-0.0385742112994194,0.037109375,0.9936522841453552,0.9950929289657044,0.9708404541015625,-0.1277923583984375,-0.3070831298828125,1.0262368746268022
1785335494.360285,-0.04736328125,0.02880859375,0.9863280653953552,0.9878847443255531,0.60272216796875,0.48065185546875,-0.1850128173828125,0.7927988146575574
1785335494.370991,-0.0375976525247097,0.0317382775247097,0.9794921278953552,0.9807271436768614,0.35858154296875,0.118255615234375,-0.5512237548828125,0.6681412585968756
1785335494.378978,-0.0488281212747097,0.0395507775247097,0.9877929091453552,0.9897895133753797,0.7266998291015625,0.5435943603515625,-0.5512237548828125,1.0618074675615026
1785335494.386967,-0.0532226487994194,0.01416015625,0.9882811903953552,0.9898145642793458,0.35858154296875,0.66375732421875,-0.2498626708984375,0.7947237650406493
1785335494.394956,-0.0522460900247097,0.0205078087747097,0.9897460341453552,0.9913361872997821,0.4215240478515625,0.2384185791015625,-0.3070831298828125,0.573433510039829
1785335494.402945,-0.0449218712747097,0.0268554650247097,0.9912108778953552,0.9925916557067139,0.2384185791015625,0.1163482666015625,-0.3070831298828125,0.40580831270517437
1785335494.41358,-0.0541992112994194,0.0283203125,0.9829100966453552,0.9848105669076456,0.1163482666015625,-0.0667572021484375,-0.2498626708984375,0.283592661203312
1785335494.424215,-0.046875,0.033203125,0.9765624403953552,0.9782504347689794,0.4215240478515625,0.1163482666015625,-0.1850128173828125,0.4748148951478676
1785335494.43485,-0.0551757737994194,0.02783203125,0.9780272841453552,0.9799777326605973,-0.0057220458984375,-0.0057220458984375,-0.3681182861328125,0.3682072191088693
1785335494.442894,-0.0561523400247097,0.0175781212747097,0.9956054091453552,0.9973425722174348,0.05340576171875,-0.19073486328125,-0.2498626708984375,0.31884685628711773
1785335494.450941,-0.0429687462747097,0.0297851525247097,0.9960936903953552,0.9974648407401527,-0.0057220458984375,0.0553131103515625,-0.1239776611328125,0.13587767456793792
1785335494.458988,-0.0581054612994194,0.02783203125,0.9907225966453552,0.9928152547679928,-0.0057220458984375,-0.0667572021484375,-0.0019073486328125,0.06702912670442802
1785335494.467035,-0.0556640587747097,0.0273437462747097,0.9848632216453552,0.9868139304090099,-0.1888275146484375,-0.0057220458984375,0.0553131103515625,0.19684540196391134
1785335494.477731,-0.0449218675494194,0.02294921875,0.9721679091453552,0.973475774941223,-0.12969970703125,-0.19073486328125,-0.1850128173828125,0.29568825588926445
1785335494.488427,-0.0483398362994194,0.02783203125,0.9892577528953552,0.9908290788024559,-0.43487548828125,-0.00762939453125,0.1201629638671875,0.4512361198464902
1785335494.499123,-0.0541992150247097,0.010742183774709702,0.9921874403953552,0.9937247437292839,-0.37384033203125,-0.19073486328125,0.1201629638671875,0.4365495616874439
1785335494.509741,-0.0522460900247097,0.0166015587747097,0.9921874403953552,0.9937007510085251,-0.25177001953125,-0.19073486328125,0.1201629638671875,0.33794536347023635
1785335494.52036,-0.0380859337747097,0.0297851525247097,0.9794921278953552,0.980684721136912,-0.3719329833984375,-0.2498626708984375,-0.0629425048828125,0.4524679628096183
1785335494.530979,-0.0346679612994194,0.0322265625,0.9921874403953552,0.9933158288024565,0.1163482666015625,0.1163482666015625,0.0553131103515625,0.17358968419563606
1785335494.539047,-0.0419921837747097,0.0317382775247097,0.9931640028953552,0.9945578909271846,0.35858154296875,-0.00762939453125,-0.0019073486328125,0.35866776910892073
1785335494.547115,-0.0415039025247097,0.0224609337747097,0.9873046278953552,0.9884318366657351,0.1163482666015625,-0.3108978271484375,-0.1239776611328125,0.3543512925428246
1785335494.555183,-0.0336914025247097,0.0356445275247097,0.9887694716453552,0.9899852074674533,0.1163482666015625,-0.3719329833984375,-0.1239776611328125,0.4089517376669442
1785335494.563251,-0.0507812462747097,0.0356445275247097,0.9882811903953552,0.990226730908095,0.35858154296875,-0.12969970703125,-0.1239776611328125,0.4009653319450499
1785335494.573863,-0.0341796800494194,0.01318359375,0.9824218153953552,0.9831046134756724,0.4215240478515625,0.1163482666015625,-0.1850128173828125,0.4748148951478676
1785335494.584475,-0.037109375,0.0224609375,0.9916991591453552,0.9926473803299307,0.2994537353515625,-0.0057220458984375,-0.3070831298828125,0.42895842465662304
1785335494.595087,-0.0395507775247097,0.0249023400247097,0.9921874403953552,0.9932876257257018,0.6656646728515625,0.0553131103515625,-0.4329681396484375,0.7960090494523104
1785335494.60572,-0.0493164025247097,0.0292968712747097,0.9863280653953552,0.9879946694243903,0.72479248046875,-0.19073486328125,-0.4901885986328125,0.8955382683305951
1785335494.616353,-0.0493163987994194,0.02392578125,0.9848632216453552,0.9863874064223621,0.72479248046875,-0.19073486328125,-0.3681182861328125,0.8349940121942909
1785335494.626986,-0.0458984337747097,0.0214843712747097,0.9931640028953552,0.9944561232549006,0.54168701171875,-0.12969970703125,-0.3681182861328125,0.6676510355373835
1785335494.637654,-0.0527343712747097,0.0214843712747097,0.9912108778953552,0.992845152368127,0.6656646728515625,-0.0667572021484375,-0.0629425048828125,0.6719581383108534
1785335494.648321,-0.0561523400247097,0.0273437462747097,0.9995116591453552,1.0014610938614077,0.7877349853515625,0.0553131103515625,0.1201629638671875,0.7987647245647103
1785335494.658988,-0.0541992112994194,0.0224609375,0.9848632216453552,0.9866091493436122,0.6046295166015625,0.1773834228515625,0.1201629638671875,0.6414677458249342
1785335494.667007,-0.0454101525247097,0.0244140587747097,0.9858397841453552,0.9871870178552455,0.6046295166015625,-0.1277923583984375,0.6694793701171875,0.9111039272351865
1785335494.675028,-0.0483398362994194,0.02587890625,0.9941405653953552,0.9956515059631796,0.9098052978515625,-0.1277923583984375,0.6084442138671875,1.1019441584092475
1785335494.683049,-0.0439453087747097,0.0253906212747097,0.9877929091453552,0.9890959029183491,0.3604888916015625,-0.0667572021484375,0.6694793701171875,0.7632898479734396
1785335494.69107,-0.0400390550494194,0.013671875,0.9814452528953552,0.9823567735431429,0.6046295166015625,-0.2498626708984375,0.6694793701171875,0.9360613407607677
1785335494.700645,-0.0439453087747097,0.0351562462747097,0.9902343153953552,0.9918322192800254,0.41961669921875,-0.00762939453125,0.5435943603515625,0.6867541121319746
1785335494.710222,-0.0566406212747097,0.0361328087747097,0.9829100966453552,0.9852035312237347,0.41961669921875,-0.49591064453125,0.7266998291015625,0.9747298001184117
1785335494.719799,-0.0551757775247097,0.0292968712747097,0.9921874403953552,0.9941521965827113,0.54168701171875,0.05340576171875,0.7915496826171875,0.960639315300451
1785335494.729376,-0.0356445237994194,0.0283203125,0.9863280653953552,0.9873781569204015,0.54168701171875,-0.31280517578125,0.8525848388671875,1.057436903141987
1785335494.738953,-0.0498046837747097,0.0263671837747097,0.9838866591453552,0.9854992100201382,0.1163482666015625,-0.2498626708984375,0.9136199951171875,0.9542901911513179
1785335494.749649,-0.046875,0.0283203125,0.9956054091453552,0.997110543743565,0.23651123046875,-0.19073486328125,0.7266998291015625,0.7876610894445653
1785335494.760345,-0.0532226487994194,0.021484375,0.9868163466453552,0.9884840568875417,0.2384185791015625,-0.3719329833984375,0.6084442138671875,0.7519188283245275
1785335494.771041,-0.04736328125,0.0322265625,0.9990233778953552,1.000664549848139,0.54168701171875,-0.12969970703125,0.6084442138671875,0.8248946563393662
1785335494.779021,-0.0498046837747097,0.0244140587747097,0.9838866591453552,0.9854488879875821,0.3604888916015625,-0.0667572021484375,0.6694793701171875,0.7632898479734396
1785335494.787004,-0.0522460900247097,0.0268554650247097,0.9873046278953552,0.9890507055698152,0.4215240478515625,-0.0667572021484375,0.6694793701171875,0.7939405985137427
1785335494.794987,-0.0488281175494194,0.01904296875,0.9882811903953552,0.9896699101273584,0.2994537353515625,-0.0667572021484375,0.8525848388671875,0.9061070417565902
1785335494.80297,-0.0512695275247097,0.0410156212747097,0.9819335341453552,0.9841261662613919,0.84686279296875,-0.49591064453125,0.7915496826171875,1.2608151559707719
1785335494.813906,-0.0395507737994194,0.02783203125,0.9848632216453552,0.9860499231891364,0.6046295166015625,-0.3108978271484375,0.6694793701171875,0.9541681918215283
1785335494.824842,-0.0478515587747097,0.0244140587747097,0.9780272841453552,0.9795014989655523,0.6046295166015625,-0.3108978271484375,0.6084442138671875,0.9123807717504346
1785335494.835778,-0.0502929650247097,0.0307617150247097,0.9760741591453552,0.9778529693126418,0.90789794921875,-0.19073486328125,0.6694793701171875,1.1440546758258694
1785335494.846159,-0.0541992150247097,0.0302734337747097,0.9912108778953552,0.993153079922671,0.4825592041015625,-0.2498626708984375,0.5435943603515625,0.7686283681842992
1785335494.856541,-0.056640625,0.02783203125,0.9790038466453552,0.9810358373221102,0.6046295166015625,-0.3108978271484375,0.6084442138671875,0.9123807717504346
1785335494.866923,-0.0576171875,0.02734375,0.9970702528953552,0.9991078571246852,0.84686279296875,-0.49591064453125,0.6694793701171875,1.1879842526257398
1785335494.8776,-0.0532226525247097,0.0390624962747097,0.9755858778953552,0.9778171273330349,1.02996826171875,-0.31280517578125,0.9136199951171875,1.4118722299207573
1785335494.888278,-0.0395507775247097,0.0405273400247097,0.9873046278953552,0.9889272761714449,0.4825592041015625,-0.3719329833984375,0.9746551513671875,1.1494129778671334
1785335494.898956,-0.0502929650247097,0.0371093712747097,0.9794921278953552,0.9814842415323599,0.1773834228515625,-0.2498626708984375,0.9136199951171875,0.9636377579199389
1785335494.906993,-0.0488281175494194,0.03271484375,0.9853515028953552,0.9871028468823003,-0.3108978271484375,0.2384185791015625,0.9136199951171875,0.994083685242021
1785335494.915031,-0.0527343712747097,0.0410156212747097,0.9960936903953552,0.9983315256705696,-0.5550384521484375,0.4215240478515625,0.6694793701171875,0.9664123515834252
1785335494.923069,-0.0424804650247097,0.0390624962747097,0.9833983778953552,0.9850902690470266,-0.3719329833984375,0.6046295166015625,0.6084442138671875,0.9349413660085649
1785335494.931107,-0.0502929650247097,0.0258789025247097,0.9912108778953552,0.9928232996787197,-0.6771087646484375,0.4215240478515625,0.6694793701171875,1.0413267638418815
1785335494.940713,-0.0473632775247097,0.0307617150247097,0.9868163466453552,0.9884311130147766,-0.8602142333984375,0.4825592041015625,0.3032684326171875,1.0318932381920527
1785335494.950319,-0.0478515587747097,0.0307617150247097,0.9848632216453552,0.9865047491715886,-0.7991790771484375,0.0553131103515625,0.2384185791015625,0.835817059163906
1785335494.959925,-0.0375976525247097,0.0258789025247097,0.9877929091453552,0.988846870060828,-0.8602142333984375,-0.0057220458984375,0.2384185791015625,0.8926615752967826
1785335494.969531,-0.0507812462747097,0.0273437462747097,0.9902343153953552,0.9919125036111079,-0.9822845458984375,-0.1277923583984375,-0.1239776611328125,0.9982906773259463
1785335494.979137,-0.0483398362994194,0.0263671875,0.9843749403953552,0.9859137850889772,-0.86212158203125,-0.19073486328125,-0.1239776611328125,0.8916298956040813
1785335494.988721,-0.0517578125,0.03271484375,0.9931640028953552,0.9950496815754967,-0.9822845458984375,0.1773834228515625,-0.5512237548828125,1.1402611261288103
1785335494.998305,-0.0639648362994194,0.01806640625,1.00390625,1.006104196446205,-0.9822845458984375,0.0553131103515625,-0.1850128173828125,1.0010855167684676
1785335495.007889,-0.05712890625,0.017578125,0.9916991591453552,0.9934988297212239,-0.9822845458984375,-0.1277923583984375,-0.2498626708984375,1.0215895312132144
1785335495.017473,-0.0561523400247097,0.0371093712747097,0.9858397841453552,0.9881347432058117,-0.6771087646484375,-0.0057220458984375,-0.0629425048828125,0.6800520420481949
1785335495.027057,-0.0493163987994194,0.01904296875,0.9873046278953552,0.9887189540576952,-0.3108978271484375,-0.1277923583984375,-0.0019073486328125,0.3361428026441463
1785335495.03556,-0.0590820237994194,0.02197265625,0.9931640028953552,0.9951624087585106,0.0553131103515625,-0.2498626708984375,0.3643035888671875,0.4452055697616302
1785335495.044064,-0.0556640587747097,0.0239257849752903,0.9946288466453552,0.9964725150273979,0.0553131103515625,-0.2498626708984375,0.4863739013671875,0.5495911811668776
1785335495.052568,-0.0419921837747097,0.010742183774709702,0.9882811903953552,0.9892312415707861,0.2994537353515625,-0.2498626708984375,0.4863739013671875,0.6234287977432893
1785335495.061072,-0.046875,0.0234375,0.9848632216453552,0.9862566336308811,0.1163482666015625,-0.1277923583984375,0.5435943603515625,0.5704056754733839
1785335495.071063,-0.0478515587747097,0.0302734337747097,0.9882811903953552,0.989901997047658,0.4215240478515625,0.2994537353515625,1.0318756103515625,1.1541760427991823
1785335495.081054,-0.0410156212747097,0.0239257849752903,0.9960936903953552,0.9972248314300401,0.54168701171875,0.05340576171875,0.5435943603515625,0.7692670684850441
1785335495.091045,-0.0439453050494194,0.0126953125,0.9824218153953552,0.9834861382653365,0.41961669921875,-0.00762939453125,0.7915496826171875,0.8959281678658857
1785335495.101679,-0.0419921875,0.01904296875,0.9897460341453552,0.9908194540764262,0.35858154296875,0.118255615234375,0.4253387451171875,0.568751405791822
1785335495.112313,-0.04296875,0.01708984375,0.9829100966453552,0.983997273534507,0.35858154296875,0.301361083984375,0.6694793701171875,0.8170690625097692
1785335495.122947,-0.0419921837747097,0.015136715024709702,0.9926757216453552,0.993678797189532,0.1163482666015625,-0.0667572021484375,0.3643035888671875,0.3882145644374878
1785335495.133582,-0.0571289025247097,0.0161132775247097,0.9819335341453552,0.9837259855749738,0.23651123046875,0.17547607421875,0.4863739013671875,0.5685850742784276
1785335495.144219,-0.0454101525247097,0.0273437462747097,0.9672850966453552,0.9687364040877514,0.41961669921875,0.17547607421875,0.3032684326171875,0.546664219707627
1785335495.154856,-0.0336913987994194,0.01904296875,0.9814452528953552,0.982207986855484,0.1773834228515625,0.6046295166015625,0.4253387451171875,0.760233371502619
1785335495.162897,-0.0483398400247097,0.0341796837747097,0.9877929091453552,0.989565471444107,0.2994537353515625,0.4215240478515625,0.3032684326171875,0.5994387414534162
1785335495.170939,-0.0395507737994194,0.02734375,0.9804686903953552,0.9816469819735495,0.2384185791015625,0.7266998291015625,-0.0019073486328125,0.7648135056704054
1785335495.178981,-0.0546874962747097,0.0292968712747097,0.9897460341453552,0.9916885806651915,0.1163482666015625,0.7266998291015625,0.1201629638671875,0.7457001398972481
1785335495.187023,-0.0454101525247097,0.0341796837747097,0.9873046278953552,0.9889392099612808,-0.0057220458984375,0.6046295166015625,0.1201629638671875,0.6164809259340065
1785335495.19768,-0.04296875,0.0224609375,0.9824218153953552,0.9836175224926845,0.1163482666015625,0.1773834228515625,0.2384185791015625,0.3191319738047764
1785335495.208337,-0.0473632775247097,0.0366210900247097,0.9868163466453552,0.9886308139538067,-0.12969970703125,0.118255615234375,0.4253387451171875,0.460129821502928
1785335495.218994,-0.0419921837747097,0.0385742150247097,0.9912108778953552,0.9928495948637046,-0.2498626708984375,0.1163482666015625,0.2384185791015625,0.36443338528529073
1785335495.229672,-0.0678710862994194,0.033203125,0.9741210341453552,0.977046939010427,-0.6160736083984375,-0.2498626708984375,0.4863739013671875,0.8237339480710448
1785335495.240352,-0.04296875,0.0185546875,0.9838866591453552,0.9849992629179951,-0.308990478515625,0.17547607421875,0.6084442138671875,0.7046072166994878
1785335495.251032,-0.06689453125,0.033203125,1.0068359375,1.0096018675014555,-0.5550384521484375,0.2994537353515625,0.7915496826171875,1.0120726866340715
1785335495.25902,-0.056640625,0.02294921875,1.00244140625,1.0043025440603561,-0.675201416015625,-0.19073486328125,0.9746551513671875,1.2009285592186645
1785335495.26701,-0.0488281212747097,0.0302734337747097,0.9975585341453552,0.9992115367958675,-0.6771087646484375,0.2994537353515625,0.9136199951171875,1.175946560970211
1785335495.275,-0.0434570237994194,0.0385742112994194,0.9877929091453552,0.9895005376717688,-0.308990478515625,0.17547607421875,0.9746551513671875,1.0374100599681566
1785335495.28299,-0.0458984337747097,0.0312499962747097,0.9941405653953552,0.9956900583287639,-0.6160736083984375,-0.0667572021484375,1.0318756103515625,1.2036488234706035
1785335495.293634,-0.0444335900247097,0.0249023400247097,0.9843749403953552,0.9856918858038496,-0.5550384521484375,0.2994537353515625,1.0967254638671875,1.2651272529172843
1785335495.304278,-0.0454101525247097,0.0312499962747097,0.9907225966453552,0.9922549610474124,-0.6771087646484375,0.5435943603515625,1.0318756103515625,1.3486060888962972
1785335495.314922,-0.0537109300494194,0.0263671875,0.9848632216453552,0.9866791058561551,-0.43487548828125,0.66375732421875,0.8525848388671875,1.1647280297254283
1785335495.322947,-0.0498046800494194,0.037109375,0.9736327528953552,0.9756117821030573,-0.2498626708984375,0.5435943603515625,0.6694793701171875,0.8978467630542705
1785335495.330974,-0.0395507737994194,0.017578125,0.9921874403953552,0.9931309939101362,-0.43487548828125,0.48065185546875,0.5435943603515625,0.8459537369616805
1785335495.339001,-0.0390624962747097,0.0292968712747097,0.9873046278953552,0.9885113117942983,-0.6160736083984375,0.9098052978515625,0.4863739013671875,1.2016039043274536
1785335495.347028,-0.0561523400247097,0.0410156212747097,0.9887694716453552,0.9912115992746634,-0.492095947265625,0.48065185546875,0.2384185791015625,0.728030250979733
1785335495.3581,-0.0478515625,0.04736328125,0.9902343153953552,0.9925205548657247,-0.5550384521484375,0.7266998291015625,-0.0629425048828125,0.9165817387993808
1785335495.369172,-0.0551757775247097,0.0351562462747097,0.9897460341453552,0.9919060137856021,-0.4940032958984375,0.6046295166015625,-0.0629425048828125,0.7833121137996535
1785335495.380244,-0.0502929650247097,0.0371093712747097,0.9877929091453552,0.9897683158826741,-0.308990478515625,0.66375732421875,0.1201629638671875,0.7419488116795503
1785335495.390471,-0.0600585862994194,0.013671875,0.9858397841453552,0.9877621343005921,-0.61798095703125,0.84686279296875,0.0553131103515625,1.0498269350444651
1785335495.4007,-0.0502929612994194,0.0185546875,0.9926757216453552,0.9941220985012929,-0.6771087646484375,0.4825592041015625,-0.0019073486328125,0.8314705662894349
1785335495.410929,-0.0541992112994194,0.033203125,0.9858397841453552,0.9878866746844018,-0.6771087646484375,0.4215240478515625,0.3032684326171875,0.8533056570203815
1785335495.419043,-0.0429687462747097,0.0244140587747097,0.9770507216453552,0.9782997864100681,-0.43487548828125,0.48065185546875,0.4863739013671875,0.8103718087424725
1785335495.427158,-0.0498046837747097,0.0205078087747097,0.9873046278953552,0.9887727266719206,-0.3108978271484375,0.0553131103515625,0.3032684326171875,0.43782272819540724
1785335495.435273,-0.0312499962747097,0.0200195275247097,0.9912108778953552,0.991905412933896,-0.3719329833984375,0.1773834228515625,0.5435943603515625,0.6821245131559363
1785335495.443388,-0.0488281175494194,0.03125,0.9941405653953552,0.9958294087483139,-0.5550384521484375,0.0553131103515625,0.6084442138671875,0.8254281222060206
1785335495.454186,-0.0493163987994194,0.0322265625,0.9863280653953552,0.9880858824553935,-0.4940032958984375,0.0553131103515625,0.5435943603515625,0.7366095472781409
1785335495.464984,-0.0415039025247097,0.0175781212747097,0.9863280653953552,0.9873573906437695,-0.4329681396484375,0.0553131103515625,0.9746551513671875,1.067929592348666
1785335495.475782,-0.0415039025247097,0.0292968712747097,0.9916991591453552,0.992999548258141,-0.5550384521484375,0.3604888916015625,0.6694793701171875,0.9413939405710887
1785335495.484195,-0.0527343712747097,0.0244140587747097,0.9868163466453552,0.9885259036495098,-0.6771087646484375,0.1773834228515625,0.4863739013671875,0.8523501216034453
1785335495.492609,-0.0654296800494194,0.02880859375,0.9858397841453552,0.988428580176121,-0.74005126953125,0.17547607421875,0.4863739013671875,0.9027886275807742
1785335495.501023,-0.0541992150247097,0.015624996274709702,0.9868163466453552,0.9884271330879001,-0.61798095703125,0.301361083984375,0.3032684326171875,0.7514590530531805
1785335495.509437,-0.0449218675494194,0.0224609375,0.9956054091453552,0.9968714052559621,-0.2498626708984375,0.2384185791015625,0.3032684326171875,0.4596156170012008
1785335495.51944,-0.0581054612994194,0.0283203125,1.00146484375,1.0035487621436876,-0.3108978271484375,-0.2498626708984375,0.3032684326171875,0.5010594330578022
1785335495.529443,-0.0532226487994194,0.02685546875,0.9838866591453552,0.9856910391148014,-0.3108978271484375,0.0553131103515625,0.0553131103515625,0.32058780276103455
1785335495.539446,-0.0634765550494194,0.01904296875,0.9921874403953552,0.994398222332503,-0.2498626708984375,0.1163482666015625,-0.1850128173828125,0.33196086523205576
1785335495.547537,-0.0390624925494194,0.021484375,0.9907225966453552,0.9917251233063672,-0.7991790771484375,0.2384185791015625,0.1201629638671875,0.8425970294856155
1785335495.555628,-0.0507812462747097,0.0258789025247097,0.9780272841453552,0.9796865933051424,-0.7991790771484375,0.7877349853515625,0.1201629638671875,1.128562245684305
1785335495.563719,-0.0419921837747097,0.0219726525247097,0.9916991591453552,0.9928309842096716,-0.980377197265625,0.48065185546875,0.1201629638671875,1.0984556399642642
1785335495.57181,-0.0556640587747097,0.0322265587747097,0.9790038466453552,0.9811144531990834,-0.6771087646484375,0.6046295166015625,0.2384185791015625,0.9385608932671232
1785335495.582214,-0.0566406212747097,0.014648433774709702,0.9843749403953552,0.9861119408407933,-0.6771087646484375,0.6046295166015625,-0.1850128173828125,0.92643557471931
1785335495.592618,-0.0512695275247097,0.0312499962747097,0.9912108778953552,0.993027759520275,-0.4329681396484375,0.7266998291015625,0.0553131103515625,0.8477107948726577
1785335495.603022,-0.0561523400247097,0.0263671837747097,0.9975585341453552,0.9994855390232966,-0.5550384521484375,0.2384185791015625,0.1201629638671875,0.6159141499506959
1785335495.61101,-0.0493163987994194,0.01416015625,0.9921874403953552,0.9935132279410548,-0.06866455078125,-0.00762939453125,0.1811981201171875,0.1939221156261117
1785335495.618998,-0.05224609375,0.01806640625,0.9980468153953552,0.9995766579246107,0.179290771484375,-0.19073486328125,0.0553131103515625,0.2675528153227763
1785335495.626986,-0.0502929612994194,0.033203125,0.9809569716453552,0.982806394813168,-0.25177001953125,-0.31280517578125,-0.1239776611328125,0.4202447872255731
1785335495.634974,-0.0537109300494194,0.01708984375,0.9907225966453552,0.9923246395559713,0.41961669921875,-0.00762939453125,0.0553131103515625,0.4233153931773761
1785335495.645633,-0.0624999962747097,0.0263671837747097,1.00439453125,1.0066825976043567,0.54168701171875,-0.12969970703125,0.2384185791015625,0.6058797335524513
1785335495.656292,-0.0483398362994194,0.0185546875,0.9931640028953552,0.9945128218624446,0.6046295166015625,0.0553131103515625,0.3643035888671875,0.7080632015463846
1785335495.666951,-0.0449218712747097,0.0244140587747097,0.9853515028953552,0.9866770520503716,0.7877349853515625,-0.4329681396484375,0.0553131103515625,0.9005816771810424
1785335495.674963,-0.0546874962747097,0.0249023400247097,0.9746093153953552,0.9764600178414401,0.9708404541015625,-0.4329681396484375,0.2384185791015625,1.0894200365935836
1785335495.682975,-0.04248046875,0.0322265625,0.9838866591453552,0.9853304519804483,0.5435943603515625,-0.2498626708984375,0.0553131103515625,0.6008208743804507
1785335495.690987,-0.0517578125,0.03271484375,0.9736327528953552,0.975556184782281,-0.1888275146484375,0.1773834228515625,0.2384185791015625,0.3520853985209414
1785335495.706986,-0.0468749962747097,0.0249023400247097,0.9785155653953552,0.9799541333835232,-0.61798095703125,-0.00762939453125,0.2384185791015625,0.6624213838448916
1785335495.714973,-0.0581054612994194,0.02587890625,0.9916991591453552,0.993736979623441,-0.797271728515625,0.17547607421875,0.4253387451171875,0.920514589678719
1785335495.72296,-0.0541992150247097,0.0346679650247097,1.0029296875,1.0049912341792324,-0.5550384521484375,-0.0667572021484375,0.1811981201171875,0.5876707974163966
1785335495.730947,-0.0507812462747097,0.0297851525247097,0.9882811903953552,0.9900331315533806,-0.7381439208984375,-0.2498626708984375,0.4863739013671875,0.9186116558148815
1785335495.741612,-0.0283203125,0.03759765625,0.9848632216453552,0.9859874183808123,-0.9212493896484375,-0.3719329833984375,0.4863739013671875,1.1061619022541047
1785335495.752277,-0.0439453050494194,0.01708984375,0.9868163466453552,0.9879421818111482,-0.9212493896484375,-0.3719329833984375,0.1811981201171875,1.009884815610812
1785335495.762942,-0.0400390587747097,0.0292968712747097,0.9892577528953552,0.9905010522748672,-0.7991790771484375,-0.3719329833984375,0.1811981201171875,0.8999189409193993
1785335495.773771,-0.0581054650247097,0.0341796837747097,0.9995116591453552,1.0017824377658942,-0.6771087646484375,-0.5550384521484375,0.4253387451171875,0.9733740342874009
1785335495.784599,-0.0537109300494194,0.0185546875,0.9863280653953552,0.9879636597676761,-0.9822845458984375,-0.6160736083984375,0.6694793701171875,1.338892171568897
1785335495.795427,-0.0502929650247097,0.0175781212747097,0.9868163466453552,0.9882534465839271,-0.92315673828125,-1.10626220703125,1.0967254638671875,1.8107570729488884
1785335495.803356,-0.0620117150247097,0.0244140587747097,0.9877929091453552,0.9900385499686387,-1.0433197021484375,-1.5316009521484375,1.4629364013671875,2.3610379903674317
1785335495.811286,-0.05126953125,0.0185546875,0.9916991591453552,0.9931968906075079,-0.6771087646484375,-2.3250579833984375,1.7681121826171875,2.998431522587744
1785335495.819216,-0.0419921837747097,0.0258789025247097,0.9999999403953552,1.0012157319403079,-0.55694580078125,-2.44903564453125,2.1915435791015625,3.3332907872392035
1785335495.827146,-0.0468749962747097,0.014648433774709702,0.9951171278953552,0.9963282291085136,-0.4940032958984375,-3.4847259521484375,2.3746490478515625,4.245740491174383
1785335495.837763,-0.0532226487994194,0.01220703125,0.9838866591453552,0.9854007408163306,-0.12969970703125,-3.73077392578125,2.8629302978515625,4.704451720407987
1785335495.84838,-0.0556640550494194,0.0087890625,0.9907225966453552,0.9923240388844204,-0.2498626708984375,-4.7054290771484375,3.2939910888671875,5.749249642163657
1785335495.858997,-0.0551757775247097,0.012207027524709702,0.9814452528953552,0.9830707819772049,0.1773834228515625,-5.3157806396484375,3.3512115478515625,6.2864622424713055
1785335495.869641,-0.0361328087747097,0.0273437462747097,0.9755858778953552,0.9766376326351225,-0.0057220458984375,-6.3533782958984375,3.2329559326171875,7.128636094993717
1785335495.880287,-0.0537109337747097,0.0249023400247097,0.9892577528953552,0.9910276951777005,-0.2498626708984375,-6.5975189208984375,3.4770965576171875,7.46189572005095
1785335495.890933,-0.0400390587747097,0.0214843712747097,0.9804686903953552,0.9815210427098429,-0.5550384521484375,-7.3299407958984375,3.2939910888671875,8.055214276993256
1785335495.901613,-0.0278320275247097,0.0336914025247097,0.9936522841453552,0.9946127860366063,-0.6771087646484375,-6.7806243896484375,2.8057098388671875,7.369352148769599
1785335495.912293,-0.0463867150247097,0.0224609337747097,0.9814452528953552,0.982797540344726,-0.3719329833984375,-5.8650970458984375,2.9277801513671875,6.5657896795957384
1785335495.922973,-0.0341796837747097,0.0209960900247097,0.9882811903953552,0.9890949387538717,-0.4329681396484375,-5.8040618896484375,2.8629302978515625,6.486213511685879
1785335495.930956,-0.0415039025247097,0.0302734337747097,0.9785155653953552,0.9798631365850458,-0.4940032958984375,-5.5599212646484375,2.4394989013671875,6.091626926792228
1785335495.938939,-0.037109375,0.0224609375,0.9765624403953552,0.9775253446418672,-0.4940032958984375,-4.9495697021484375,2.6798248291015625,5.650109787203565
1785335495.946922,-0.0214843712747097,0.0190429724752903,0.9946288466453552,0.9950430923275805,-0.8602142333984375,-4.3392181396484375,2.3746490478515625,5.020731091311069
1785335495.954905,-0.0341796837747097,0.011230465024709702,0.9824218153953552,0.9830803616654723,-0.6771087646484375,-3.9730072021484375,2.3174285888671875,4.649057729474442
1785335495.965575,-0.0336914025247097,0.0195312462747097,0.9951171278953552,0.9958788472579514,-0.4940032958984375,-3.3626556396484375,2.0732879638671875,3.981207754982715
1785335495.976245,-0.0195312462747097,0.0249023400247097,0.9819335341453552,0.9824434139424708,-0.7381439208984375,-2.5691986083984375,2.1343231201171875,3.4206685192258184
1785335495.986915,-0.0200195275247097,0.0214843712747097,0.9809569716453552,0.9813964234248097,-0.1888275146484375,-2.0809173583984375,1.5201568603515625,2.5839407429053316
1785335495.994925,-0.0229492150247097,0.0214843712747097,0.9960936903953552,0.9965896270405175,-0.4940032958984375,-0.8602142333984375,0.7266998291015625,1.2296749266842928
1785335496.002937,-0.012695308774709702,0.0209960900247097,0.9877929091453552,0.988097585271341,-0.1277923583984375,-0.7381439208984375,0.3643035888671875,0.833009267466975
1785335496.010949,-0.0209960900247097,0.0244140587747097,0.9990233778953552,0.9995421910272855,-0.5550384521484375,-0.4329681396484375,0.1201629638671875,0.714120599898441
1785335496.018961,-0.0253906212747097,0.0292968712747097,0.9887694716453552,0.9895292104698262,-0.3108978271484375,-0.2498626708984375,-0.5512237548828125,0.6803943277109441
1785335496.028667,-0.0063476525247097015,0.0170898400247097,0.9990233778953552,0.9991897041633737,-0.0667572021484375,-0.0667572021484375,-0.6122589111328125,0.619494973618763
1785335496.038373,-0.0214843712747097,0.015136715024709702,0.9848632216453552,0.9852138162350733,-0.0057220458984375,0.1163482666015625,-0.9784698486328125,0.9853795743945432
1785335496.048079,-0.0385742150247097,0.0249023400247097,0.9868163466453552,0.9878838993575939,0.0553131103515625,0.7266998291015625,-0.9784698486328125,1.220063697712756
1785335496.057785,-0.0322265587747097,0.0195312462747097,0.9902343153953552,0.990951068447888,-0.0057220458984375,0.8487701416015625,-1.1043548583984375,1.3928543169879013
1785335496.067491,-0.0307617150247097,0.0019531212747097015,1.00341796875,1.0038912878416424,0.05340576171875,1.45721435546875,-1.3446807861328125,1.9835554617312123
1785335496.077003,-0.0346679650247097,0.0195312462747097,0.9877929091453552,0.9885940363657075,0.1773834228515625,1.3980865478515625,-1.4095306396484375,1.9932103496855942
1785335496.086513,-0.0410156212747097,0.0292968712747097,0.9985350966453552,0.9998064448119877,0.0553131103515625,2.1915435791015625,-1.2836456298828125,2.540407231605849
1785335496.096023,-0.0366210900247097,0.0258789025247097,0.9838866591453552,0.9849080057927693,0.1163482666015625,2.1305084228515625,-1.1043548583984375,2.4025408866970137
1785335496.105533,-0.0458984337747097,0.0205078087747097,0.9892577528953552,0.9905342690221672,0.2384185791015625,2.2525787353515625,-1.2264251708984375,2.57586355959164
1785335496.115043,-0.0410156212747097,0.0244140587747097,0.9882811903953552,0.9894331906418269,0.1773834228515625,2.4967193603515625,-0.7953643798828125,2.626342883144397
1785335496.1231,-0.0351562425494194,0.013671875,1.00146484375,1.0021749921163574,0.54168701171875,2.49481201171875,-0.4329681396484375,2.5893963007681102
1785335496.131157,-0.033203125,0.0185546875,1.00146484375,1.0021868873644277,0.6656646728515625,2.8018951416015625,-0.5512237548828125,2.932161910461311
1785335496.139214,-0.0405273400247097,0.0405273400247097,0.9980468153953552,0.9996911404527736,0.35858154296875,2.67791748046875,-0.4329681396484375,2.736290219459291
1785335496.147271,-0.033203125,0.02294921875,0.9926757216453552,0.993495949913802,0.54168701171875,2.31170654296875,-0.1850128173828125,2.381520880039737
1785335496.157833,-0.02880859375,0.0336913987994194,0.9921874403953552,0.9931772058928863,0.23651123046875,2.43377685546875,-0.4329681396484375,2.483277824630951
1785335496.168395,-0.0283203087747097,0.0195312462747097,0.9877929091453552,0.9883917952047063,0.35858154296875,2.31170654296875,-0.5512237548828125,2.4034174609729133
1785335496.178957,-0.0478515587747097,0.0205078087747097,0.9946288466453552,0.9959904038076768,0.54168701171875,2.12860107421875,-0.3681182861328125,2.2270784504402545
1785335496.186986,-0.0390624925494194,0.01806640625,0.9843749403953552,0.9853153285305789,0.4825592041015625,2.1915435791015625,-0.6732940673828125,2.3428724988221856
1785335496.195015,-0.0361328087747097,0.0253906212747097,0.9809569716453552,0.9819505301889152,0.4825592041015625,2.1915435791015625,-0.6122589111328125,2.3260669850255726
1785335496.203044,-0.0356445275247097,0.0244140587747097,0.9990233778953552,0.9999571431765266,0.35858154296875,2.12860107421875,-1.1043548583984375,2.4246902708163156
1785335496.211073,-0.0400390587747097,0.0205078087747097,0.9882811903953552,0.989304507084429,0.9098052978515625,2.3746490478515625,-1.0395050048828125,2.747230320820866
1785335496.221701,-0.0366210900247097,0.0297851525247097,0.9912108778953552,0.9923342501413518,0.4825592041015625,2.3136138916015625,-0.8563995361328125,2.5137805772110173
1785335496.232329,-0.0317382775247097,0.0356445275247097,0.9965819716453552,0.9977241486559493,0.6656646728515625,2.0694732666015625,-1.1615753173828125,2.4647690106405715
1785335496.242957,-0.0454101525247097,0.012207027524709702,0.9848632216453552,0.9859851209947209,0.35858154296875,1.94549560546875,-0.9212493896484375,2.1822544104168253
1785335496.250962,-0.0463867150247097,0.0268554650247097,0.9873046278953552,0.988758500138463,0.5435943603515625,1.7032623291015625,-0.9784698486328125,2.038136559464557
1785335496.258967,-0.0356445275247097,0.0166015587747097,0.9882811903953552,0.9890631200208965,0.7877349853515625,1.5811920166015625,-0.9212493896484375,1.9923340679813115
1785335496.266972,-0.0551757737994194,0.0234375,0.9843749403953552,0.9861986137178321,0.90789794921875,1.64031982421875,-0.6732940673828125,1.9920473671811958
1785335496.274977,-0.0512695275247097,0.0200195275247097,0.9995116591453552,1.001025925090065,0.84686279296875,1.45721435546875,-0.6122589111328125,1.7931846648241707
1785335496.285623,-0.0405273400247097,0.0200195275247097,0.9970702528953552,0.9980943522436136,0.4825592041015625,1.0318756103515625,-0.3681182861328125,1.1971389782673114
1785335496.296269,-0.0581054612994194,0.013671875,0.9897460341453552,0.9915444402069393,0.35858154296875,1.277923583984375,-0.6732940673828125,1.4882856952326764
1785335496.306915,-0.0434570237994194,0.0224609375,0.9916991591453552,0.9929049445342121,0.54168701171875,1.277923583984375,-0.1850128173828125,1.4002654204700569
1785335496.316555,-0.04296875,0.0234375,0.9819335341453552,0.9831526307557743,0.23651123046875,0.96893310546875,-0.3070831298828125,1.0435846748921633
1785335496.326197,-0.0361328087747097,0.0185546912252903,0.9882811903953552,0.9891155482175356,0.23651123046875,0.48065185546875,-0.0629425048828125,0.5393751266273938
1785335496.335839,-0.0454101525247097,0.015624996274709702,0.9946288466453552,0.995787509983918,0.35858154296875,0.66375732421875,-0.1850128173828125,0.7767781221222765
1785335496.345481,-0.0478515625,0.0322265625,0.9887694716453552,0.990451105013313,0.4215240478515625,0.1163482666015625,-0.4329681396484375,0.6153704997877161
1785335496.355123,-0.0483398400247097,0.0297851525247097,0.9873046278953552,0.9889359553116271,0.41961669921875,-0.19073486328125,-0.0019073486328125,0.46093557067443075
1785335496.363065,-0.0444335862994194,0.02685546875,0.9990233778953552,1.0003715656568093,0.667572021484375,-0.19073486328125,-0.0629425048828125,0.6971326637452694
1785335496.371007,-0.0439453087747097,0.0400390587747097,0.9843749403953552,0.9861685148438011,0.1773834228515625,0.0553131103515625,-0.5512237548828125,0.5816975561461534
1785335496.378949,-0.0507812462747097,0.0249023400247097,0.9892577528953552,0.9908732326465816,0.1773834228515625,-0.6160736083984375,-0.4329681396484375,0.7736103538721779
1785335496.386891,-0.0371093712747097,0.0205078087747097,0.9833983778953552,0.9843119654379704,0.7877349853515625,-0.5550384521484375,-0.1239776611328125,0.9715783812797206
1785335496.39762,-0.0371093712747097,0.014648433774709702,0.9956054091453552,0.9964044423666257,0.6046295166015625,-0.2498626708984375,-0.1239776611328125,0.6658668538937064
1785335496.408349,-0.0395507737994194,0.033203125,0.9912108778953552,0.9925551449042915,1.1539459228515625,-0.2498626708984375,-0.1850128173828125,1.1950950965384182
1785335496.419078,-0.0566406212747097,0.0317382775247097,0.9868163466453552,0.9889499381895458,0.84686279296875,-0.31280517578125,0.3032684326171875,0.9523630664470647
1785335496.429691,-0.0351562425494194,0.0126953125,0.9868163466453552,0.9875239917876183,0.3604888916015625,-0.0667572021484375,0.0553131103515625,0.37076718460993086
1785335496.440305,-0.0395507775247097,0.0214843712747097,0.9785155653953552,0.979550179384839,0.2994537353515625,-0.0667572021484375,0.4253387451171875,0.5244445745286672
1785335496.450919,-0.0424804650247097,0.0366210900247097,0.9936522841453552,0.995233920207001,-0.2498626708984375,0.4215240478515625,0.4863739013671875,0.6904154178151048
1785335496.45893,-0.0483398362994194,0.0224609375,0.9946288466453552,0.9960561109023442,-0.3108978271484375,0.7266998291015625,-0.0019073486328125,0.7904136502621061
1785335496.466942,-0.0385742112994194,0.01708984375,0.9824218153953552,0.9833273391406735,-0.1888275146484375,0.7266998291015625,0.2384185791015625,0.7877765487531055
1785335496.474954,-0.0415039025247097,0.0356445275247097,0.9853515028953552,0.9868691354609159,-0.2498626708984375,0.7266998291015625,0.1201629638671875,0.7777937604597301
1785335496.482966,-0.0512695275247097,0.0244140587747097,0.9721679091453552,0.973824960806876,-0.0667572021484375,0.5435943603515625,0.2384185791015625,0.5973230043330993
1785335496.493608,-0.0424804650247097,0.0253906212747097,0.9833983778953552,0.9846429013630511,0.1163482666015625,0.4215240478515625,0.0553131103515625,0.440770895403858
1785335496.50425,-0.0429687462747097,0.0297851525247097,0.9824218153953552,0.9838120205771252,-0.0057220458984375,0.6046295166015625,-0.1850128173828125,0.6323285038261591
1785335496.514892,-0.0424804650247097,0.0200195275247097,0.9824218153953552,0.983543590673913,-0.4329681396484375,0.6046295166015625,-0.4329681396484375,0.8605229062884363
1785335496.522888,-0.0341796837747097,0.0244140587747097,0.9951171278953552,0.9960032104764999,-0.2498626708984375,0.6046295166015625,-0.3681182861328125,0.7506792119405593
1785335496.530885,-0.0380859375,0.01171875,0.9916991591453552,0.9924994156101156,-0.2498626708984375,0.6046295166015625,-0.2498626708984375,0.7003139017346728
1785335496.538882,-0.0517578087747097,0.0200195275247097,0.9995116591453552,1.001051052154171,-0.2498626708984375,0.6046295166015625,-0.4901885986328125,0.8174919381155636
1785335496.546879,-0.0439453050494194,0.01708984375,0.9916991591453552,0.9928194573258979,-0.1888275146484375,0.4215240478515625,-0.3681182861328125,0.5906347651390252
1785335496.557575,-0.04736328125,0.01806640625,0.9863280653953552,0.987629853757014,0.1163482666015625,0.2994537353515625,-0.3681182861328125,0.48859035125813843
1785335496.568271,-0.0371093712747097,0.0166015587747097,0.9873046278953552,0.9881412578441101,0.2384185791015625,0.0553131103515625,-0.1850128173828125,0.3068105305127223
1785335496.578967,-0.0380859337747097,0.014648433774709702,0.9833983778953552,0.9842446264068498,0.4825592041015625,0.2384185791015625,0.0553131103515625,0.5410788708688462
1785335496.589614,-0.05224609375,0.03271484375,0.9790038466453552,0.9809426318904296,0.5435943603515625,0.2384185791015625,0.2384185791015625,0.6396730933278657
1785335496.600264,-0.0351562462747097,0.0297851525247097,0.9853515028953552,0.9864282544722568,0.6656646728515625,0.1163482666015625,0.3032684326171875,0.7406875981450287
1785335496.610914,-0.0541992112994194,0.02880859375,0.9746093153953552,0.9765402230500977,0.6656646728515625,0.0553131103515625,0.4863739013671875,0.8262739066377931
1785335496.617877,-0.037109375,0.0224609375,0.9848632216453552,0.9858180180824134,0.54168701171875,0.301361083984375,0.1201629638671875,0.6314130656633372
1785335496.624839,-0.0395507737994194,0.02294921875,0.9951171278953552,0.9961671689932714,0.3604888916015625,0.4215240478515625,0.0553131103515625,0.5573995910135328
1785335496.631801,-0.0439453050494194,0.02392578125,0.9824218153953552,0.9836952049334259,0.2994537353515625,0.6656646728515625,0.1811981201171875,0.7520736367089224
1785335496.638763,-0.0419921837747097,0.0292968712747097,0.9912108778953552,0.9925324451234512,0.2994537353515625,0.2994537353515625,0.4253387451171875,0.6002150675631786
1785335496.645725,-0.0380859337747097,0.0292968712747097,1.00146484375,1.002616915020483,0.3604888916015625,-0.0667572021484375,-0.1850128173828125,0.4106561914822865
1785335496.657967,-0.0424804650247097,0.0351562462747097,0.9975585341453552,0.9990813683614931,0.41961669921875,-0.19073486328125,-0.3070831298828125,0.553857392288647
1785335496.670208,-0.0322265587747097,0.015136715024709702,0.9990233778953552,0.9996576317988298,0.1773834228515625,-0.0667572021484375,-0.0629425048828125,0.19970769054331997
1785335496.682449,-0.0390624925494194,0.03271484375,0.9824218153953552,0.9837422237001244,0.1163482666015625,0.0553131103515625,-0.3070831298828125,0.33301127304728995
1785335496.69469,-0.0405273362994194,0.0283203125,0.9794921278953552,0.9807391772008472,0.4825592041015625,-0.2498626708984375,-0.1239776611328125,0.5573734836100448
1785335496.706931,-0.0380859337747097,0.0200195275247097,0.9848632216453552,0.9858026603653859,-0.12969970703125,0.35858154296875,-0.3070831298828125,0.4895945114280448
1785335496.71653,-0.0581054612994194,0.0234375,0.9882811903953552,0.9902652535196459,0.179290771484375,0.48065185546875,-0.2498626708984375,0.5706161066895286
1785335496.726129,-0.0537109300494194,0.01220703125,0.9975585341453552,0.9990780273156556,0.2384185791015625,0.2384185791015625,-0.3070831298828125,0.4560557930563324
1785335496.735728,-0.0292968712747097,0.014648433774709702,0.9882811903953552,0.988823844053024,0.1163482666015625,0.1773834228515625,-0.4901885986328125,0.5341223268815161
1785335496.745327,-0.0473632775247097,0.0307617150247097,0.9980468153953552,0.9996434408777733,-0.0057220458984375,0.3604888916015625,-0.4329681396484375,0.5634238127094167
1785335496.754926,-0.0502929650247097,0.011718746274709702,0.9824218153953552,0.983778092208773,-0.308990478515625,0.17547607421875,-0.3681182861328125,0.5116424933700272
1785335496.765656,-0.0454101487994194,0.00830078125,0.9931640028953552,0.9942362502094112,0.05340576171875,-0.19073486328125,-0.6122589111328125,0.6435005343565879
1785335496.776387,-0.0429687462747097,0.0249023400247097,0.9882811903953552,0.989528246683432,-0.0057220458984375,-0.0057220458984375,-0.3681182861328125,0.3682072191088693
1785335496.787118,-0.0429687462747097,0.0302734337747097,0.9838866591453552,0.9852896792279622,0.1163482666015625,-0.0667572021484375,-0.0019073486328125,0.13415320032963324
1785335496.795077,-0.0439453050494194,0.02783203125,0.9931640028953552,0.9945252879874461,-0.0057220458984375,-0.3719329833984375,0.1811981201171875,0.41376278793884896
1785335496.803036,-0.0488281212747097,0.0253906212747097,0.9868163466453552,0.9883498222200575,-0.2498626708984375,0.0553131103515625,-0.3681182861328125,0.44833242919804966
1785335496.810995,-0.0415039025247097,0.0209960900247097,0.9921874403953552,0.99327706436794,0.11444091796875,-0.19073486328125,0.3032684326171875,0.3760960701716157
1785335496.818954,-0.0463867150247097,0.0200195275247097,0.9921874403953552,0.9934729114029143,-0.0057220458984375,0.0553131103515625,-0.3070831298828125,0.31207744334484067
1785335496.829763,-0.0390624962747097,0.0297851525247097,0.9877929091453552,0.9890135819512166,-0.06866455078125,-0.00762939453125,0.2384185791015625,0.2482266042464271
1785335496.840572,-0.0439453050494194,0.03125,0.9902343153953552,0.9917014428356925,-0.3108978271484375,0.0553131103515625,0.3643035888671875,0.48211420220098955
1785335496.851381,-0.0410156212747097,0.0161132775247097,0.9897460341453552,0.9907265672260926,-0.12969970703125,0.118255615234375,0.4253387451171875,0.460129821502928
1785335496.861958,-0.0444335862994194,0.03271484375,0.9936522841453552,0.9951831320818779,-0.0057220458984375,-0.0057220458984375,0.1811981201171875,0.18137872629536894
1785335496.872538,-0.0395507775247097,0.0068359337747097015,0.9916991591453552,0.9925110660556817,-0.12969970703125,0.118255615234375,-0.1239776611328125,0.2148880289788501
1785335496.883118,-0.0385742150247097,0.0302734337747097,0.9829100966453552,0.9841324651410834,-0.3108978271484375,0.3604888916015625,-0.1239776611328125,0.4919147897285721
1785335496.891085,-0.0385742112994194,0.033203125,0.9912108778953552,0.9925167110659743,-0.2498626708984375,0.0553131103515625,-0.0019073486328125,0.25591899590314143
1785335496.899053,-0.0541992150247097,0.0195312462747097,0.9956054091453552,0.9972708534845628,-0.4329681396484375,0.0553131103515625,-0.2498626708984375,0.5029436394228421
1785335496.907021,-0.0458984337747097,0.0224609337747097,0.9975585341453552,0.9988664519420167,-0.3719329833984375,0.4215240478515625,-0.1239776611328125,0.5756623381087139
1785335496.914989,-0.0415039025247097,0.0258789025247097,0.9941405653953552,0.9953430339763576,-0.61798095703125,0.05340576171875,0.0553131103515625,0.6227456774757925
1785335496.925638,-0.03759765625,0.02880859375,0.9990233778953552,1.0001456036051908,-0.25177001953125,-0.19073486328125,-0.0629425048828125,0.3220709389662563
1785335496.936287,-0.0522460900247097,0.0258789025247097,0.9868163466453552,0.9885372393214327,-0.0057220458984375,0.1773834228515625,-0.4901885986328125,0.5213276155560921
1785335496.946936,-0.0341796837747097,0.0258789025247097,0.9921874403953552,0.9931132288199112,-0.4329681396484375,0.2384185791015625,0.0553131103515625,0.4973573855772135
1785335496.957623,-0.0434570237994194,0.0224609375,0.9824218153953552,0.9836389734021256,-0.003814697265625,0.48065185546875,0.1201629638671875,0.49545927780810356
1785335496.968308,-0.0322265625,0.03759765625,0.9995116591453552,1.000737573919137,0.1773834228515625,0.3604888916015625,0.1201629638671875,0.4193521879709301
1785335496.978993,-0.0473632775247097,0.0351562462747097,0.9848632216453552,0.9866279983153118,0.0553131103515625,-0.0667572021484375,-0.0629425048828125,0.10713460288988966
1785335496.986999,-0.0488281212747097,0.0302734337747097,0.9921874403953552,0.9938493764640677,0.1163482666015625,0.3604888916015625,-0.0629425048828125,0.3839933840969584
1785335496.995006,-0.0317382775247097,0.0307617150247097,0.9819335341453552,0.9829278034783046,0.0553131103515625,0.2384185791015625,0.0553131103515625,0.2509232934869465
1785335497.003013,-0.0405273400247097,0.0249023400247097,0.9907225966453552,0.9918638290268982,0.179290771484375,-0.00762939453125,0.2384185791015625,0.29840711663964026
1785335497.01102,-0.0483398362994194,0.01904296875,0.9863280653953552,0.9876955133130919,0.05340576171875,0.05340576171875,0.1201629638671875,0.1419277585776187
1785335497.021656,-0.0517578125,0.01904296875,0.9863280653953552,0.9878686949185822,0.0553131103515625,0.1163482666015625,0.5435943603515625,0.5586513115745606
1785335497.032292,-0.0317382775247097,0.0239257849752903,0.9858397841453552,0.9866406850777439,0.35858154296875,0.118255615234375,0.3643035888671875,0.5246734397259145
1785335497.042928,-0.0463867150247097,0.010742183774709702,0.9824218153953552,0.9835749819956476,0.23651123046875,0.17547607421875,0.2384185791015625,0.3789100600695031
1785335497.05094,-0.0434570237994194,0.013671875,0.9790038466453552,0.9800632453214033,0.05340576171875,0.301361083984375,0.3032684326171875,0.4308624148693908
1785335497.058951,-0.0419921875,0.01318359375,0.9882811903953552,0.9892607655438785,-0.3108978271484375,0.6046295166015625,0.3643035888671875,0.7713309381406735
1785335497.066962,-0.0405273400247097,0.0195312462747097,0.9946288466453552,0.9956457590175289,-0.12969970703125,0.48065185546875,0.4253387451171875,0.6547986471178816
1785335497.074973,-0.05224609375,0.02392578125,0.9897460341453552,0.9914127845791657,-0.1888275146484375,0.4215240478515625,0.1201629638671875,0.4772604017628314
1785335497.085618,-0.0439453087747097,0.0258789025247097,0.9931640028953552,0.9944725458283467,-0.1888275146484375,0.3604888916015625,0.1201629638671875,0.4243197015715579
1785335497.096263,-0.0493164025247097,0.0263671837747097,0.9902343153953552,0.9918121471955746,-0.1888275146484375,0.5435943603515625,0.4253387451171875,0.7155862680293649
1785335497.106908,-0.0634765550494194,0.02587890625,0.9946288466453552,0.9969882313290903,0.1773834228515625,0.3604888916015625,0.0553131103515625,0.40555722142186473
1785335497.118381,-0.0527343712747097,0.0214843712747097,0.9819335341453552,0.983583223526101,0.2384185791015625,-0.0667572021484375,0.2384185791015625,0.3437198885143299
1785335497.129854,-0.0576171875,0.0185546875,0.9853515028953552,0.9872089955940272,0.35858154296875,0.17547607421875,0.1811981201171875,0.4384122880520988
1785335497.141327,-0.046875,0.0029296875,0.9843749403953552,0.9854947346242936,0.4825592041015625,0.0553131103515625,-0.0629425048828125,0.4897802410886136
1785335497.148815,-0.0400390587747097,0.0195312462747097,0.9804686903953552,0.9814802334505728,0.11444091796875,-0.19073486328125,-0.0019073486328125,0.22244134003205068
1785335497.156302,-0.0390624962747097,0.0346679650247097,0.9882811903953552,0.9896602738836325,0.4825592041015625,-0.2498626708984375,0.1811981201171875,0.5728241427398439
1785335497.163789,-0.0410156212747097,0.0249023400247097,0.9829100966453552,0.9840806195706926,0.7266998291015625,-0.3719329833984375,0.6694793701171875,1.0557601113739847
1785335497.171276,-0.0444335900247097,0.015136715024709702,0.9965819716453552,0.99768686985084,0.4215240478515625,-0.7381439208984375,0.7915496826171875,1.1615032806358556
1785335497.181819,-0.0444335900247097,0.0312499962747097,0.9809569716453552,0.9824599159300493,0.54168701171875,-0.19073486328125,0.7266998291015625,0.9262274279851286
1785335497.192362,-0.0541992112994194,0.03173828125,0.9785155653953552,0.9805292370567922,0.4215240478515625,0.2384185791015625,0.8525848388671875,0.9805237627126445
1785335497.202905,-0.0478515625,0.0283203125,0.9931640028953552,0.994719331661406,-0.0057220458984375,0.4215240478515625,1.0967254638671875,1.174956172723531
1785335497.210916,-0.0449218675494194,0.0224609375,0.9921874403953552,0.9934577921460946,-0.0667572021484375,0.7877349853515625,0.8525848388671875,1.1627053963286236
1785335497.218927,-0.0498046837747097,0.0268554650247097,0.9833983778953552,0.9850249195704686,-0.1277923583984375,0.9098052978515625,0.4253387451171875,1.0124177077479772
1785335497.226938,-0.0473632775247097,0.015136715024709702,0.9887694716453552,0.9900189231815,-0.12969970703125,0.66375732421875,0.6694793701171875,0.9516293535145567
1785335497.234949,-0.0395507775247097,0.0258789025247097,0.9868163466453552,0.987947611771585,0.1163482666015625,0.6046295166015625,0.4253387451171875,0.7483493967291557
1785335497.245663,-0.0375976525247097,0.0307617150247097,0.9848632216453552,0.9860605620023033,-0.4940032958984375,0.2384185791015625,0.1201629638671875,0.5615352287298404
1785335497.256377,-0.0361328087747097,0.0175781212747097,0.9877929091453552,0.9886098328336321,-0.43487548828125,-0.00762939453125,0.1811981201171875,0.471176884728837
1785335497.267091,-0.0258789025247097,0.0297851525247097,0.9965819716453552,0.9973627720721018,-0.3108978271484375,-0.2498626708984375,-0.1850128173828125,0.439680060760147
1785335497.275884,-0.0317382775247097,0.0239257849752903,0.9985350966453552,0.9993258230824761,-0.1888275146484375,0.1773834228515625,-0.3681182861328125,0.4501464001591053
1785335497.284679,-0.0537109300494194,0.01708984375,0.9868163466453552,0.988424720842543,-0.4940032958984375,-0.0667572021484375,-0.6732940673828125,0.8377473852958884
1785335497.293474,-0.0546874925494194,0.02392578125,0.9838866591453552,0.9856957557451356,-0.12969970703125,-0.19073486328125,-0.3681182861328125,0.43441095135858215
1785335497.302269,-0.0449218675494194,0.01416015625,0.9824218153953552,0.9835502567606077,-0.25177001953125,-0.19073486328125,-0.7381439208984375,0.8028850345877683
1785335497.311851,-0.0634765625,0.009765621274709702,0.9995116591453552,1.001572862108992,-0.1888275146484375,-0.6160736083984375,-0.5512237548828125,0.8479682477548816
1785335497.321436,-0.0532226525247097,0.015136715024709702,0.9897460341453552,0.9912915731458448,-0.3719329833984375,-0.7381439208984375,-0.0019073486328125,0.826555642457172
1785335497.331021,-0.03271484375,0.0224609375,0.9985350966453552,0.9993233180245094,-0.003814697265625,-1.16729736328125,0.3032684326171875,1.2060553173302926
1785335497.339001,-0.0473632775247097,0.010742183774709702,0.9926757216453552,0.9938630503818215,0.2384185791015625,-1.0433197021484375,0.2384185791015625,1.0964501076714437
1785335497.346981,-0.03759765625,0.03271484375,0.9775390028953552,0.9788086365264281,-0.0057220458984375,-0.7991790771484375,0.1811981201171875,0.8194831895134242
1785335497.354961,-0.0385742112994194,0.0234375,0.9921874403953552,0.993213573740265,-0.0057220458984375,-0.6160736083984375,0.3643035888671875,0.7157489347780044
1785335497.362941,-0.0439453087747097,0.009765621274709702,0.9848632216453552,0.9858915370728434,0.4215240478515625,-0.2498626708984375,0.0553131103515625,0.49312616783378205
1785335497.373812,-0.0566406212747097,0.0268554650247097,0.9921874403953552,0.9941656264719502,0.5435943603515625,-0.3719329833984375,0.0553131103515625,0.6609754253544158
1785335497.384683,-0.0253906212747097,0.0244140587747097,0.9902343153953552,0.9908606003374433,0.1163482666015625,-0.0667572021484375,-0.1239776611328125,0.18265788688101617
1785335497.395554,-0.0380859375,0.02392578125,0.9902343153953552,0.9912552552345861,0.2384185791015625,-0.3719329833984375,0.0553131103515625,0.4452382543955927
1785335497.40339,-0.0468749962747097,0.0351562462747097,0.9873046278953552,0.9890417863727841,0.1163482666015625,0.1163482666015625,-0.3070831298828125,0.3483875527928643
1785335497.411226,-0.0380859337747097,0.0205078087747097,0.9838866591453552,0.9848370761788166,0.179290771484375,-0.00762939453125,-0.1239776611328125,0.21811430228285886
1785335497.419062,-0.0395507737994194,0.0322265625,0.9887694716453552,0.9900847858120708,0.2994537353515625,0.0553131103515625,-0.4329681396484375,0.5293330612604853
1785335497.426898,-0.0390624925494194,0.01806640625,1.00048828125,1.0014135380937998,0.41961669921875,0.17547607421875,-0.1850128173828125,0.49101911315384567
1785335497.4366,-0.0419921837747097,0.0253906212747097,0.9970702528953552,0.9982770739407434,0.2994537353515625,0.1773834228515625,-0.5512237548828125,0.6519087714286769
1785335497.446301,-0.0478515587747097,0.0258789025247097,0.9887694716453552,0.9902648925064889,0.7266998291015625,0.2994537353515625,-0.5512237548828125,0.9600066714243973
1785335497.456002,-0.0346679650247097,0.014648433774709702,0.9765624403953552,0.977287390894786,0.6046295166015625,0.1773834228515625,-0.7953643798828125,1.0147148505046855
1785335497.465703,-0.0371093712747097,0.0219726525247097,0.9946288466453552,0.9955633809428938,0.7877349853515625,0.7266998291015625,-1.0395050048828125,1.493047120468568
1785335497.475404,-0.0454101525247097,0.0244140587747097,0.9931640028953552,0.994501314662428,0.9708404541015625,1.2760162353515625,-1.1043548583984375,1.9468816793706636
1785335497.483371,-0.0537109337747097,0.0297851525247097,0.9956054091453552,0.9974979450792676,0.84686279296875,1.277923583984375,-1.1615753173828125,1.9234142805363807
1785335497.491338,-0.02880859375,0.01171875,0.9853515028953552,0.9858422026032109,1.21307373046875,1.33514404296875,-1.7719268798828125,2.5286127340262183
1785335497.499305,-0.046875,0.013671875,0.9936522841453552,0.994851269074075,1.1539459228515625,1.7642974853515625,-1.8978118896484375,2.8365519170596127
1785335497.507272,-0.0463867150247097,0.0219726525247097,1.00244140625,1.0037546003651654,1.39617919921875,1.82342529296875,-2.1381378173828125,3.137806476105851
1785335497.517868,-0.0351562462747097,0.015624996274709702,0.9790038466453552,0.9797594775796328,1.5811920166015625,2.0084381103515625,-2.6874542236328125,3.7089623940664205
1785335497.528464,-0.0454101487994194,0.02783203125,0.9848632216453552,0.9863023212621749,1.5811920166015625,2.4967193603515625,-3.0574798583984375,4.252288659325818
1785335497.53906,-0.0400390587747097,0.0268554650247097,0.9970702528953552,0.9982351583860717,1.70135498046875,2.49481201171875,-3.1147003173828125,4.3382085946259625
1785335497.547058,-0.0292968712747097,0.0195312462747097,0.9814452528953552,0.9820766572311747,1.88446044921875,2.92205810546875,-3.4198760986328125,4.877003925198886
1785335497.555056,-0.0502929650247097,0.0273437462747097,0.9873046278953552,0.9889628360332344,1.7032623291015625,2.8629302978515625,-3.6640167236328125,4.952018881542542
1785335497.563054,-0.0483398362994194,0.0336913987994194,0.9936522841453552,0.9953977656765148,1.88446044921875,3.28826904296875,-3.6029815673828125,5.2292810842903314
1785335497.571052,-0.06494140625,0.0263671837747097,0.9916991591453552,0.9941729411302349,1.4591217041015625,2.8629302978515625,-3.4809112548828125,4.737314555959581
1785335497.581727,-0.0463867150247097,0.0224609337747097,0.9853515028953552,0.986698436775366,1.2760162353515625,2.6798248291015625,-2.9315948486328125,4.171801397967123
1785335497.592402,-0.0791015550494194,0.03173828125,0.9829100966453552,0.9865985164165422,1.33514404296875,2.67791748046875,-2.6264190673828125,3.981448073903142
1785335497.603077,-0.0610351525247097,0.0234375037252903,0.9833983778953552,0.9855693664434805,1.2760162353515625,2.4967193603515625,-2.1991729736328125,3.563451524181587
1785335497.613805,-0.0507812462747097,0.0346679650247097,0.9926757216453552,0.9945781473148774,1.0929107666015625,2.8018951416015625,-2.0809173583984375,3.6572239992606397
1785335497.624534,-0.0527343712747097,0.0390624962747097,0.9902343153953552,0.9924065658365318,0.9098052978515625,2.3746490478515625,-1.4667510986328125,2.9356536862855034
1785335497.635263,-0.0600585900247097,0.0400390587747097,0.9829100966453552,0.9855569078194837,0.9708404541015625,2.1915435791015625,-1.4667510986328125,2.8101162310057526
1785335497.645838,-0.0576171875,0.02734375,0.9951171278953552,0.9971587231680689,0.7877349853515625,1.7642974853515625,-1.2836456298828125,2.319702163442953
1785335497.656411,-0.0537109300494194,0.041015625,0.9946288466453552,0.9969221073283427,0.7877349853515625,1.3370513916015625,-1.0395050048828125,1.867833902173027
1785335497.666984,-0.0732421800494194,0.03076171875,0.9907225966453552,0.993902391476427,0.4825592041015625,0.9098052978515625,-0.9784698486328125,1.420567601399322
1785335497.675017,-0.0463867150247097,0.0244140587747097,0.9941405653953552,0.9955215906052641,0.6046295166015625,0.6046295166015625,-1.3446807861328125,1.5935244338529726
1785335497.683051,-0.0541992112994194,0.02880859375,0.9819335341453552,0.9838500673672381,0.23651123046875,0.35858154296875,-1.4667510986328125,1.5283576382628035
1785335497.691085,-0.06640625,0.0356445275247097,0.9775390028953552,0.9804401177854605,0.23651123046875,-0.19073486328125,-1.7147064208984375,1.7414176581392211
1785335497.699119,-0.0537109300494194,0.0478515625,0.9804686903953552,0.9831040071559305,0.05340576171875,-0.49591064453125,-1.5926361083984375,1.6689126150037572
1785335497.710138,-0.0546874962747097,0.0200195275247097,0.9936522841453552,0.9953574059192962,0.3604888916015625,-0.5550384521484375,-1.7719268798828125,1.8914927417208598
1785335497.721157,-0.0429687462747097,0.0351562462747097,0.9877929091453552,0.9893518616581223,0.2994537353515625,-0.8602142333984375,-1.7147064208984375,1.9416125197442446
1785335497.732176,-0.0532226525247097,0.0297851525247097,0.9956054091453552,0.9974717724187369,0.1163482666015625,-0.9212493896484375,-1.6498565673828125,1.8932152677403074
1785335497.742598,-0.0468749962747097,0.0405273400247097,0.9848632216453552,0.9868106687277456,-0.003814697265625,-1.16729736328125,-1.8978118896484375,2.228068144094691
1785335497.75302,-0.0537109300494194,0.0224609375,0.9873046278953552,0.9890196084930462,0.4215240478515625,-0.7991790771484375,-1.6498565673828125,1.8810625755687107
1785335497.763442,-0.0463867150247097,0.0170898400247097,0.9829100966453552,0.9841524516304552,0.4215240478515625,-1.0433197021484375,-1.4667510986328125,1.8486636549542572
1785335497.773944,-0.0590820275247097,0.0307617150247097,1.00146484375,1.003677638664379,0.5435943603515625,-1.0433197021484375,-0.8563995361328125,1.455139510488814
1785335497.784444,-0.0556640550494194,0.0234375,0.9843749403953552,0.9862260525402652,0.7877349853515625,-0.7381439208984375,-0.9212493896484375,1.4191840236677427
1785335497.794944,-0.0405273362994194,0.0234375,0.9765624403953552,0.9776839885078961,0.54168701171875,-0.49591064453125,-0.9212493896484375,1.1781564513899703
1785335497.802946,-0.0410156212747097,0.0356445275247097,0.9716796278953552,0.9731978795691378,0.4215240478515625,-0.2498626708984375,-0.3070831298828125,0.5782853325861651
1785335497.810946,-0.0585937425494194,0.02685546875,0.9902343153953552,0.9923298051828523,0.35858154296875,-0.00762939453125,-0.2498626708984375,0.4371158712827342
1785335497.818946,-0.0478515587747097,0.0249023400247097,0.9916991591453552,0.9931652030077777,0.2994537353515625,0.1773834228515625,-0.0629425048828125,0.3536936205806697
1785335497.826946,-0.05126953125,0.0234375,1.001953125,1.0035377152544445,0.1773834228515625,0.1163482666015625,-0.0019073486328125,0.21214484632564512
1785335497.837636,-0.0458984337747097,0.0395507775247097,0.9824218153953552,0.9842883488035841,0.35858154296875,0.05340576171875,-0.1239776611328125,0.38314926438996577
1785335497.848326,-0.0468749962747097,0.0161132775247097,0.9799804091453552,0.9812331554207899,-0.0057220458984375,0.0553131103515625,0.0553131103515625,0.07843355253201328
1785335497.859016,-0.04296875,0.013671875,0.9882811903953552,0.9893093272237145,0.1163482666015625,0.1163482666015625,-0.1239776611328125,0.20602014159382334
1785335497.869662,-0.0473632775247097,0.0385742150247097,0.9980468153953552,0.9999143442532793,0.2384185791015625,-0.0667572021484375,-0.0019073486328125,0.24759559947281465
1785335497.880308,-0.0507812462747097,0.0244140587747097,0.9770507216453552,0.9786740488573186,0.35858154296875,-0.12969970703125,-0.0629425048828125,0.38647703150739043
1785335497.890954,-0.0498046837747097,0.0395507775247097,0.9892577528953552,0.9912999910179943,0.2994537353515625,0.1163482666015625,0.1811981201171875,0.3688390129734036
1785335497.901601,-0.0415039025247097,0.0249023400247097,0.9956054091453552,0.9967812353686124,-0.12969970703125,-0.19073486328125,0.1201629638671875,0.26007871877617406
1785335497.91225,-0.0610351525247097,0.0268554650247097,0.9912108778953552,0.9934513124977433,0.1163482666015625,-0.2498626708984375,0.4863739013671875,0.5590418994859221
1785335497.922899,-0.0527343712747097,0.0200195275247097,0.9965819716453552,0.9981769991362229,0.1163482666015625,-0.4940032958984375,0.7915496826171875,0.9402803175389123
1785335497.933579,-0.0517578125,0.0185546875,0.9960936903953552,0.9976100378546948,0.1773834228515625,-0.4329681396484375,0.8525848388671875,0.972536475469868
1785335497.94426,-0.0595703087747097,0.015136715024709702,0.9848632216453552,0.9867792596011135,0.6046295166015625,-0.6160736083984375,1.2149810791015625,1.490403490966694
1785335497.954941,-0.0537109337747097,0.0258789025247097,0.9829100966453552,0.9847166293356765,0.2994537353515625,-0.0667572021484375,1.3408660888671875,1.3755184229695652
1785335497.96296,-0.0463867150247097,0.0312499962747097,0.9824218153953552,0.9840126589443138,-0.1888275146484375,0.6656646728515625,1.2798309326171875,1.4548994821136831
1785335497.970977,-0.0576171837747097,0.0336914025247097,0.9853515028953552,0.9876094545559727,-0.25177001953125,1.15203857421875,1.5201568603515625,1.923917331721053
1785335497.978994,-0.0400390587747097,0.0292968712747097,0.9833983778953552,0.9846490758342626,-0.6771087646484375,0.7266998291015625,0.7915496826171875,1.2700865406858477
1785335497.987011,-0.0297851525247097,0.0400390587747097,0.9897460341453552,0.9910032763038392,-0.5550384521484375,0.8487701416015625,1.1577606201171875,1.5391192579302633
1785335497.997661,-0.0351562462747097,0.0307617150247097,1.0009765625,1.0020660274840705,-0.492095947265625,0.48065185546875,1.0318756103515625,1.2401418881399073
1785335498.008311,-0.0478515587747097,0.0361328087747097,0.9829100966453552,0.9847373302736627,-0.1888275146484375,0.5435943603515625,0.6084442138671875,0.8374694145357131
1785335498.018961,-0.0385742150247097,0.0400390587747097,0.9824218153953552,0.9839937599685491,-0.4940032958984375,0.2994537353515625,0.6084442138671875,0.8389971140373385
1785335498.026961,-0.0463867150247097,0.0205078087747097,0.9848632216453552,0.9861682731163033,-0.4940032958984375,0.7266998291015625,0.6694793701171875,1.1046875236858908
1785335498.034961,-0.0556640587747097,0.0288085974752903,0.9985350966453552,1.0005002558521994,-0.43487548828125,0.48065185546875,0.2384185791015625,0.6906419588572763
1785335498.042961,-0.052734375,0.03271484375,0.9873046278953552,0.9892530533548094,-0.5550384521484375,0.4215240478515625,-0.1239776611328125,0.7078987687095254
1785335498.050961,-0.0512695275247097,0.0302734337747097,0.9956054091453552,0.9973841666903525,-0.5550384521484375,0.3604888916015625,-0.1850128173828125,0.6872042396023051
1785335498.0616,-0.06201171875,0.0224609375,0.9765624403953552,0.9787870794849305,-0.9822845458984375,0.5435943603515625,0.0553131103515625,1.1240272674155587
1785335498.072239,-0.0527343712747097,0.0253906212747097,0.9853515028953552,0.9870882340604562,-0.5550384521484375,0.4215240478515625,-0.0629425048828125,0.699794230614559
1785335498.082878,-0.0605468712747097,0.0249023400247097,0.9926757216453552,0.9948322162575904,-0.9212493896484375,0.0553131103515625,0.2384185791015625,0.9532069014464755
1785335498.09139,-0.05224609375,0.03759765625,0.9868163466453552,0.9889134138407228,-0.4940032958984375,0.1163482666015625,0.3643035888671875,0.6247345679256273
1785335498.099903,-0.0605468712747097,0.0297851525247097,0.9897460341453552,0.9920434925135768,-0.5550384521484375,-0.1277923583984375,0.5435943603515625,0.7873330926833906
1785335498.108416,-0.0605468675494194,0.0234375,0.9770507216453552,0.979205469880559,-0.06866455078125,-0.19073486328125,0.8525848388671875,0.8763535337243161
1785335498.116929,-0.0649413987994194,0.02880859375,0.9887694716453552,0.9913185100711641,-0.4329681396484375,-0.3719329833984375,0.9136199951171875,1.077263686182831
1785335498.127411,-0.0541992150247097,0.0297851525247097,0.9980468153953552,0.999961077213021,-0.2498626708984375,-0.1277923583984375,1.3408660888671875,1.3699212055616643
1785335498.137893,-0.0585937462747097,0.0395507775247097,0.9912108778953552,0.9937285824426079,-0.12969970703125,0.05340576171875,1.0967254638671875,1.105658596712136
1785335498.148375,-0.0463867150247097,0.0268554650247097,0.9848632216453552,0.9863206926158171,-0.12969970703125,0.23651123046875,1.1577606201171875,1.1887679460836622
1785335498.158585,-0.0439453050494194,0.03173828125,0.9926757216453552,0.994154714657994,-0.3108978271484375,0.6046295166015625,1.1577606201171875,1.342625772419699
1785335498.168796,-0.0507812425494194,0.0380859375,0.9785155653953552,0.9805722742108858,-0.25177001953125,0.66375732421875,1.0967254638671875,1.306433569410821
1785335498.179007,-0.0478515625,0.03271484375,0.9819335341453552,0.9836429730926083,-0.3719329833984375,0.7877349853515625,0.7266998291015625,1.1344395942062004
1785335498.187007,-0.0512695275247097,0.0263671837747097,0.9965819716453552,0.9982481750753966,-0.2498626708984375,0.1163482666015625,0.7915496826171875,0.8381641685857607
1785335498.195007,-0.0532226487994194,0.033203125,0.9965819716453552,0.998554317032146,0.1773834228515625,0.2384185791015625,0.5435943603515625,0.6195184631384029
1785335498.203007,-0.0576171837747097,0.0356445275247097,0.9858397841453552,0.9881651442002743,0.05340576171875,0.17547607421875,0.3032684326171875,0.3544231513742715
1785335498.211007,-0.0585937425494194,0.0224609375,0.9853515028953552,0.9873476108430413,0.179290771484375,-0.00762939453125,0.2384185791015625,0.29840711663964026
1785335498.221646,-0.0581054612994194,0.033203125,1.0068359375,1.0090576282770414,-0.3719329833984375,0.3604888916015625,0.1811981201171875,0.548743240360907
1785335498.232285,-0.0517578087747097,0.0341796837747097,0.9829100966453552,0.9848651581000721,0.0553131103515625,0.4215240478515625,0.1811981201171875,0.4621415603772649
1785335498.242924,-0.0444335900247097,0.0385742150247097,0.9902343153953552,0.9919810045428109,-0.1888275146484375,0.2994537353515625,0.0553131103515625,0.358312587109459
1785335498.250947,-0.0615234337747097,0.0395507775247097,0.9804686903953552,0.9831928853240463,-0.1888275146484375,0.4825592041015625,-0.0019073486328125,0.5181919082060684
1785335498.258971,-0.0483398400247097,0.0292968712747097,0.9794921278953552,0.9811217434187627,-0.43487548828125,0.17547607421875,0.1811981201171875,0.5027338278503671
1785335498.266995,-0.0551757775247097,0.0249023400247097,0.9877929091453552,0.9896460601255412,-0.4940032958984375,0.3604888916015625,-0.0629425048828125,0.6147790304227733
1785335498.275019,-0.0595703087747097,0.0312499962747097,0.9936522841453552,0.9959267270949029,-0.5550384521484375,0.1773834228515625,-0.1850128173828125,0.6113610264498347
1785335498.28567,-0.0478515587747097,0.0302734337747097,0.9853515028953552,0.986977120670898,-0.4329681396484375,-0.0667572021484375,-0.0019073486328125,0.4380885435253053
1785335498.296321,-0.0488281175494194,0.0263671875,0.9838866591453552,0.9854503395322812,-0.4940032958984375,0.0553131103515625,0.0553131103515625,0.5001583116494691
1785335498.306972,-0.0537109337747097,0.015136715024709702,0.9892577528953552,0.9908304023455569,-0.12969970703125,-0.12969970703125,-0.3070831298828125,0.35769271262720526
1785335498.31762,-0.0551757737994194,0.0087890625,0.9824218153953552,0.9840092667239974,-0.4940032958984375,-0.0667572021484375,-0.0019073486328125,0.49849715984748966
1785335498.328268,-0.0551757737994194,0.02880859375,0.9956054091453552,0.9975492127247193,-0.492095947265625,-0.00762939453125,-0.0629425048828125,0.4961636704728482
1785335498.338916,-0.06591796875,0.0263671837747097,0.9868163466453552,0.9893669233357365,-0.308990478515625,0.17547607421875,-0.1850128173828125,0.400620407658503
1785335498.349592,-0.0537109300494194,0.0361328125,0.9892577528953552,0.9913734643460563,-0.1888275146484375,0.2994537353515625,-0.1239776611328125,0.375098427568381
1785335498.360268,-0.0532226525247097,0.0249023400247097,0.9858397841453552,0.9875894173614017,-0.308990478515625,0.66375732421875,-0.6732940673828125,0.994672711217233
1785335498.370944,-0.0600585900247097,0.0258789025247097,0.9868163466453552,0.9889809168220212,-0.06866455078125,0.48065185546875,-0.3070831298828125,0.574492015051704
1785335498.381601,-0.0444335862994194,0.0224609375,0.9868163466453552,0.9880715254025352,-0.1888275146484375,0.0553131103515625,-0.6122589111328125,0.6430990162693512
1785335498.392258,-0.0488281212747097,0.0405273400247097,0.9951171278953552,0.9971382797523104,-0.1277923583984375,0.4215240478515625,-1.2264251708984375,1.3031239808995392
1785335498.402915,-0.0522460900247097,0.0346679650247097,0.9902343153953552,0.9922174767198633,-0.3108978271484375,0.4215240478515625,-0.8563995361328125,1.0038725752461228
1785335498.410948,-0.052734375,0.01220703125,0.9887694716453552,0.9902499654008649,-0.12969970703125,0.35858154296875,-0.7953643798828125,0.8820471834024597
1785335498.41898,-0.0463867150247097,0.0209960900247097,0.9921874403953552,0.9934930699332511,-0.308990478515625,0.17547607421875,-1.0395050048828125,1.0985616157562375
1785335498.427012,-0.0576171837747097,0.0341796837747097,0.9892577528953552,0.9915235208065594,-0.12969970703125,0.23651123046875,-0.7953643798828125,0.8398595554782985
1785335498.435044,-0.0595703087747097,0.0312499962747097,0.9882811903953552,0.9905679659891814,-0.1888275146484375,0.1163482666015625,-0.9784698486328125,1.0032925765264153
1785335498.445684,-0.0620117150247097,0.0307617150247097,0.9877929091453552,0.9902154145787729,-0.0667572021484375,0.2994537353515625,-0.9212493896484375,0.9709940790665562
1785335498.456324,-0.0512695275247097,0.0322265587747097,0.9873046278953552,0.9891600193126755,-0.12969970703125,0.17547607421875,-1.0395050048828125,1.0621603089005127
1785335498.466964,-0.0629882737994194,0.03125,0.9843749403953552,0.9868830267131914,-0.12969970703125,-0.31280517578125,-0.9784698486328125,1.035409260477735
1785335498.477688,-0.0493163987994194,0.02294921875,0.9804686903953552,0.9819763880447236,-0.0057220458984375,-0.3719329833984375,-0.8563995361328125,0.9336953740045104
1785335498.488413,-0.0625,0.02294921875,1.00048828125,1.0027012105107953,-0.12969970703125,-0.43487548828125,-0.9212493896484375,1.0269562513756203
1785335498.499138,-0.0532226487994194,0.02392578125,0.9877929091453552,0.9895149946875454,-0.25177001953125,-0.19073486328125,-1.0395050048828125,1.0864338847726074
1785335498.507113,-0.0590820275247097,0.0341796837747097,0.9892577528953552,0.991609720819102,0.0553131103515625,-0.4329681396484375,-0.9784698486328125,1.0714122431682924
1785335498.515086,-0.0537109300494194,0.017578125,1.01123046875,1.0128084297702276,0.2994537353515625,-0.4329681396484375,-0.6122589111328125,0.8074620262453026
1785335498.523059,-0.0595703050494194,0.033203125,0.9887694716453552,0.9911186290304916,-0.1888275146484375,-0.3719329833984375,-0.8563995361328125,0.9525807786830809
1785335498.531032,-0.0502929612994194,0.0234375,0.9848632216453552,0.9864249914272158,0.05340576171875,-0.61798095703125,-0.3070831298828125,0.6921363213245234
1785335498.541671,-0.0625,0.0322265625,0.9863280653953552,0.9888315599317765,-0.4329681396484375,-0.5550384521484375,-0.3681182861328125,0.7943803660081997
1785335498.55231,-0.0522460900247097,0.0292968712747097,0.9858397841453552,0.9876578560377666,-0.0667572021484375,-0.0667572021484375,-0.3070831298828125,0.3212679516167135
1785335498.562949,-0.0590820275247097,0.0244140587747097,0.9970702528953552,0.999117521341255,-0.1888275146484375,-0.3719329833984375,-0.1239776611328125,0.43515564443993
1785335498.573622,-0.0585937462747097,0.0292968712747097,0.9775390028953552,0.979731614244757,0.1163482666015625,0.1163482666015625,-0.0629425048828125,0.17616922887751824
1785335498.584298,-0.0634765550494194,0.0224609375,0.9770507216453552,0.9793681021056537,-0.12969970703125,0.23651123046875,-0.0019073486328125,0.26974657388119194
1785335498.594974,-0.0424804650247097,0.0307617150247097,0.9873046278953552,0.9886967691277052,-0.43487548828125,0.17547607421875,-0.0019073486328125,0.46894795117356786
1785335498.605634,-0.0458984337747097,0.0400390587747097,0.9902343153953552,0.9921057362181935,-0.3719329833984375,0.1163482666015625,0.0553131103515625,0.3936122501366221
1785335498.616295,-0.0424804650247097,0.0307617150247097,0.9907225966453552,0.9921099417522699,-0.12969970703125,0.301361083984375,0.0553131103515625,0.33271618103271405
1785335498.626956,-0.0463867150247097,0.0297851525247097,0.9921874403953552,0.9937176658991177,0.0553131103515625,0.1163482666015625,-0.0629425048828125,0.14338137340280735
1785335498.635011,-0.05712890625,0.01806640625,0.9838866591453552,0.9857094221971908,0.35858154296875,-0.25177001953125,-0.5512237548828125,0.7041423816528319
1785335498.643068,-0.0546874962747097,0.0336914025247097,0.9863280653953552,0.9884173639912557,0.2994537353515625,0.2384185791015625,0.1201629638671875,0.40119209409229223
1785335498.651125,-0.0571289025247097,0.0297851525247097,0.9873046278953552,0.9894045153920533,-0.0057220458984375,0.1773834228515625,0.1201629638671875,0.2143286224402776
1785335498.659182,-0.0600585900247097,0.0371093712747097,0.9892577528953552,0.9917736845347975,0.2384185791015625,0.1163482666015625,0.3032684326171875,0.4029293737419523
1785335498.669762,-0.0585937462747097,0.0356445275247097,0.9848632216453552,0.9872483602390195,0.6656646728515625,-0.0667572021484375,0.3643035888671875,0.7617631427043303
1785335498.680342,-0.0654296875,0.014648433774709702,0.9926757216453552,0.9949375402318109,0.1163482666015625,0.1773834228515625,0.4863739013671875,0.5306235669237309
1785335498.690922,-0.0615234337747097,0.0346679650247097,0.9892577528953552,0.991775126914339,0.78582763671875,-0.19073486328125,0.7266998291015625,1.087197086235119
1785335498.698922,-0.0624999962747097,0.0390624962747097,0.9921874403953552,0.9949211250284301,0.5435943603515625,-0.2498626708984375,0.7266998291015625,0.9412857294842866
1785335498.70692,-0.0551757737994194,0.0185546875,0.9736327528953552,0.9753714061593025,0.7266998291015625,-0.3719329833984375,1.2149810791015625,1.4637642598214713
1785335498.714918,-0.0512695275247097,0.0478515587747097,0.9956054091453552,0.998072375556636,0.1163482666015625,0.0553131103515625,0.9136199951171875,0.922658092034033
1785335498.722916,-0.0473632775247097,0.0385742150247097,0.9809569716453552,0.9828569734922175,-0.7991790771484375,0.4215240478515625,0.9746551513671875,1.3290306182912377
1785335498.733591,-0.0395507775247097,0.0400390587747097,0.9809569716453552,0.9825700842433581,-0.797271728515625,0.48065185546875,0.9746551513671875,1.3478208632242046
1785335498.744266,-0.052734375,0.02392578125,0.9887694716453552,0.9904637425836942,-1.2264251708984375,0.6046295166015625,0.5435943603515625,1.47145858955158
1785335498.754941,-0.0483398362994194,0.037109375,0.9877929091453552,0.9896709942421215,-0.9822845458984375,0.5435943603515625,0.9136199951171875,1.4474388599159738
1785335498.76293,-0.0537109300494194,0.01611328125,0.9999999403953552,1.0015709573615488,-1.28936767578125,-0.00762939453125,0.4253387451171875,1.3577335007682176
1785335498.770922,-0.0551757775247097,0.0263671837747097,0.9887694716453552,0.9906587015029447,-0.7381439208984375,0.0553131103515625,0.3643035888671875,0.8250049048324475
1785335498.778914,-0.0444335862994194,0.017578125,0.9892577528953552,0.9904111447946813,-1.04522705078125,-0.00762939453125,0.3032684326171875,1.088360940849987
1785335498.786906,-0.0522460900247097,0.0244140587747097,0.9848632216453552,0.9865501839938976,-1.1043548583984375,-0.2498626708984375,-0.2498626708984375,1.1595095350557643
1785335498.797574,-0.0556640587747097,0.0239257849752903,0.9848632216453552,0.9867251369938977,-0.9212493896484375,-0.0667572021484375,0.1811981201171875,0.9412702697420697
1785335498.808242,-0.0541992150247097,0.0258789025247097,0.9814452528953552,0.9832812705101251,-0.7381439208984375,-0.2498626708984375,-0.0019073486328125,0.7792890607769538
1785335498.81891,-0.0629882737994194,0.015625,0.9794921278953552,0.9816396955452654,-0.5550384521484375,0.0553131103515625,0.3032684326171875,0.6349007526867353
1785335498.829607,-0.0576171875,0.01806640625,0.9956054091453552,0.9974348430096526,-0.4940032958984375,-0.2498626708984375,0.2384185791015625,0.6027553645782243
1785335498.840305,-0.0546874962747097,0.009765621274709702,0.9843749403953552,0.9859412319636686,-0.308990478515625,-0.49591064453125,0.4253387451171875,0.7227140037875138
1785335498.851003,-0.0566406212747097,0.0244140587747097,0.9926757216453552,0.9945900133162241,-0.12969970703125,-0.43487548828125,0.7915496826171875,0.9124086827530841
1785335498.861664,-0.0527343712747097,0.015136715024709702,0.9785155653953552,0.9800524199125625,0.35858154296875,-0.43487548828125,0.6084442138671875,0.8293984414346128
1785335498.872326,-0.0644531175494194,0.02880859375,0.9838866591453552,0.9864162901533511,0.35858154296875,-0.43487548828125,0.6084442138671875,0.8293984414346128
1785335498.882988,-0.0615234337747097,0.0307617150247097,0.9765624403953552,0.978981928334545,0.5435943603515625,-0.5550384521484375,0.5435943603515625,0.9481863427488196
1785335498.893714,-0.046875,0.0185546875,0.9819335341453552,0.9832268342210815,0.54168701171875,-0.12969970703125,0.6084442138671875,0.8248946563393662
1785335498.904441,-0.0605468675494194,0.02294921875,0.9887694716453552,0.9908873083600966,0.4215240478515625,-0.2498626708984375,0.7266998291015625,0.8764739122426334
1785335498.915168,-0.0517578087747097,0.0317382775247097,0.9916991591453552,0.9935559427022715,0.05340576171875,-0.12969970703125,0.3643035888671875,0.3903732755328735
1785335498.925772,-0.0576171875,0.02783203125,0.9931640028953552,0.9952231402585233,0.1163482666015625,-0.0667572021484375,0.8525848388671875,0.863072621884198
1785335498.936376,-0.0512695275247097,0.0312499962747097,0.9892577528953552,0.9910782150684899,0.1163482666015625,-0.1277923583984375,0.7266998291015625,0.746967501048381
1785335498.94698,-0.0673828050494194,0.0336913987994194,0.9887694716453552,0.9916353265325033,0.05340576171875,-0.19073486328125,0.9746551513671875,0.9945776126287341
1785335498.955008,-0.0551757737994194,0.0283203125,0.9804686903953552,0.982428246214473,0.1163482666015625,-0.5550384521484375,0.9136199951171875,1.075316743095936
1785335498.963036,-0.0532226487994194,0.0322265625,1.00341796875,1.0053451256589294,-0.0057220458984375,-0.3108978271484375,1.0318756103515625,1.0777093652619398
1785335498.971064,-0.03759765625,0.03271484375,0.9863280653953552,0.9875863999385696,0.1773834228515625,0.1163482666015625,1.1577606201171875,1.177035025535714
1785335498.979092,-0.0463867150247097,0.0239257849752903,1.0009765625,1.0023363952245692,-0.12969970703125,0.118255615234375,1.0318756103515625,1.0466965557299126
1785335498.987173,-0.0551757775247097,0.0214843712747097,0.9921874403953552,0.9939526455082316,-0.2498626708984375,0.7877349853515625,0.9746551513671875,1.2778538357503657
1785335498.995254,-0.0444335862994194,0.0234375,0.9907225966453552,0.9919954251413627,0.0553131103515625,0.4215240478515625,0.9746551513671875,1.0633413032420613
1785335499.003335,-0.0634765625,0.0307617150247097,0.9951171278953552,0.9976139811213447,0.1163482666015625,0.7877349853515625,0.8525848388671875,1.1666037175297372
1785335499.011416,-0.0468749962747097,0.0214843712747097,0.9824218153953552,0.9837740934023059,-0.12969970703125,0.54168701171875,0.9136199951171875,1.0700225830078125
1785335499.021964,-0.0517578125,0.02392578125,1.001953125,1.003574301614222,0.05340576171875,0.48065185546875,0.7915496826171875,0.9275932738014449
1785335499.032512,-0.0581054612994194,0.02099609375,0.9921874403953552,0.9941091476612935,0.05340576171875,-0.00762939453125,0.8525848388671875,0.854289933518979
1785335499.04306,-0.0517578125,0.02392578125,0.9794921278953552,0.9811504180155961,0.1773834228515625,-0.0667572021484375,0.8525848388671875,0.8733969946178036
1785335499.053706,-0.0507812462747097,0.0244140587747097,0.9765624403953552,0.9781865779236594,-0.4940032958984375,0.0553131103515625,0.6084442138671875,0.7856864246782829
1785335499.064352,-0.0566406212747097,0.0322265587747097,0.9921874403953552,0.9943252123662215,-0.3108978271484375,0.3604888916015625,0.7915496826171875,0.9236669312826529
1785335499.074998,-0.0385742112994194,0.01220703125,0.9726561903953552,0.9734973272196058,-0.12969970703125,0.35858154296875,0.3643035888671875,0.5273706873000759
1785335499.085725,-0.04736328125,0.017578125,0.9843749403953552,0.9856704795050125,0.11444091796875,0.48065185546875,0.1201629638671875,0.5084899878625235
1785335499.096454,-0.0478515625,0.033203125,0.9892577528953552,0.9909707973532947,0.2384185791015625,0.5435943603515625,0.1811981201171875,0.6206214677247598
1785335499.107183,-0.0507812462747097,0.015624996274709702,0.9902343153953552,0.9916586483605663,-0.12969970703125,0.35858154296875,-0.3681182861328125,0.5300130277146032
1785335499.115107,-0.0517578087747097,0.015624996274709702,0.9970702528953552,0.998534977097223,0.35858154296875,0.66375732421875,0.0553131103515625,0.7564483119081227
1785335499.123032,-0.0654296875,0.0307617150247097,0.9824218153953552,0.9850786519269994,0.2994537353515625,0.6656646728515625,-0.0019073486328125,0.7299216631100823
1785335499.130957,-0.0449218712747097,0.0312499962747097,0.9746093153953552,0.9761443819647757,-0.0057220458984375,0.8487701416015625,-0.1850128173828125,0.8687193089137171
1785335499.138882,-0.0454101525247097,0.0273437462747097,0.9755858778953552,0.977024855140085,0.2384185791015625,0.6046295166015625,-0.1850128173828125,0.6757588429333153
1785335499.146914,-0.0590820237994194,0.02294921875,0.9838866591453552,0.9859261180340436,0.2384185791015625,0.5435943603515625,0.1811981201171875,0.6206214677247598
1785335499.154946,-0.0541992112994194,0.02685546875,0.9882811903953552,0.9901305378567624,0.2994537353515625,0.3604888916015625,-0.1239776611328125,0.48476307722854595
1785335499.162978,-0.0605468712747097,0.0415039025247097,0.9907225966453552,0.9934383529186157,0.1773834228515625,0.3604888916015625,-0.0019073486328125,0.40177202198444134
1785335499.17101,-0.0556640550494194,0.0234375,0.9877929091453552,0.9896376280177703,0.179290771484375,-0.00762939453125,-0.1239776611328125,0.21811430228285886
1785335499.181683,-0.0502929650247097,0.0244140587747097,0.9863280653953552,0.9879111706947016,-0.1888275146484375,0.1163482666015625,-0.0019073486328125,0.22180258656810392
1785335499.192356,-0.0703125,0.0249023400247097,0.9809569716453552,0.9837888769520534,0.23651123046875,-0.19073486328125,-0.1850128173828125,0.35573458196341445
1785335499.203029,-0.0458984337747097,0.015624996274709702,0.9912108778953552,0.9923959951499386,0.29754638671875,-0.19073486328125,-0.3070831298828125,0.4682026153055164
1785335499.213649,-0.052734375,0.01904296875,0.9912108778953552,0.9927953230266221,0.1163482666015625,-0.3719329833984375,-0.6122589111328125,0.7257630725948985
1785335499.224267,-0.052734375,0.02734375,0.9736327528953552,0.975443146719116,0.2994537353515625,-0.4329681396484375,-0.5512237548828125,0.7622214753690291
1785335499.234885,-0.0654296875,0.0336914025247097,0.9799804091453552,0.9827399233363462,0.35858154296875,-0.00762939453125,-0.8563995361328125,0.9284713760301172
1785335499.243113,-0.0473632775247097,0.0214843712747097,0.9799804091453552,0.9813594960949071,0.1163482666015625,-0.6160736083984375,-1.1043548583984375,1.2699146677531103
1785335499.251341,-0.0517578125,0.02294921875,0.9858397841453552,0.9874642362130291,0.4825592041015625,-0.6160736083984375,-0.7381439208984375,1.0757632287764458
1785335499.259569,-0.07275390625,0.0200195275247097,0.9902343153953552,0.9931051866461348,0.1773834228515625,-0.7381439208984375,-0.7953643798828125,1.099511629519318
1785335499.267797,-0.0502929650247097,0.0322265587747097,0.9887694716453552,0.99057205769155,0.6046295166015625,-0.6160736083984375,-0.9212493896484375,1.2624674178918556
1785335499.278176,-0.0424804650247097,0.0209960900247097,0.9780272841453552,0.9791745473804866,0.4825592041015625,-0.8602142333984375,-0.8563995361328125,1.3062358432889871
1785335499.288555,-0.0522460900247097,0.0292968712747097,0.9907225966453552,0.9925317244768915,0.0553131103515625,-0.3719329833984375,-0.6122589111328125,0.7185086350058458
1785335499.298934,-0.06494140625,0.0263671837747097,0.9814452528953552,0.9839448150464357,0.05340576171875,-0.31280517578125,-0.7953643798828125,0.8563315655554625
1785335499.309632,-0.0576171837747097,0.0302734337747097,0.9858397841453552,0.9879859820171544,0.29754638671875,-0.19073486328125,-0.4901885986328125,0.6043165582291301
1785335499.32033,-0.0590820237994194,0.02880859375,0.9946288466453552,0.9967984566546826,0.1773834228515625,0.0553131103515625,-0.4329681396484375,0.47115372101887215
1785335499.331028,-0.0483398400247097,0.0205078087747097,0.9804686903953552,0.9818738020743488,-0.1888275146484375,0.0553131103515625,-0.4329681396484375,0.4755804668147115
1785335499.33903,-0.0498046837747097,0.0302734337747097,0.9921874403953552,0.9938978338826869,0.4825592041015625,-0.3108978271484375,-0.4329681396484375,0.7190147803344393
1785335499.347034,-0.0488281175494194,0.037109375,0.9912108778953552,0.9931063866647879,0.35858154296875,-0.31280517578125,-0.6122589111328125,0.7754281238225277
1785335499.355038,-0.0507812462747097,0.0263671837747097,0.9853515028953552,0.9870114222295289,0.2384185791015625,-0.5550384521484375,-0.4901885986328125,0.7779434198280373
1785335499.363042,-0.0546874925494194,0.02734375,1.00146484375,1.0033295748519613,0.6656646728515625,-0.3719329833984375,-0.3070831298828125,0.822036282338477
1785335499.373678,-0.0512695275247097,0.0375976525247097,0.9858397841453552,0.9878877607966081,0.6046295166015625,-0.5550384521484375,-0.7953643798828125,1.1429125218036345
1785335499.384314,-0.0624999962747097,0.0258789025247097,0.9853515028953552,0.9876707707471946,0.35858154296875,-0.12969970703125,-0.6122589111328125,0.7212930827502637
1785335499.39495,-0.0556640587747097,0.0292968712747097,0.9985350966453552,1.0005144343478058,0.179290771484375,-0.00762939453125,-0.4901885986328125,0.5220040714687735
1785335499.402969,-0.0541992150247097,0.0263671837747097,0.9868163466453552,0.9886552914418604,0.54168701171875,0.05340576171875,-0.4901885986328125,0.7325038268017101
1785335499.41099,-0.0507812462747097,0.0244140587747097,0.9931640028953552,0.9947610355689415,0.4215240478515625,-0.5550384521484375,-0.1850128173828125,0.7210963520060447
1785335499.419011,-0.0561523400247097,0.0249023400247097,0.9956054091453552,0.9974985426297359,0.8487701416015625,-0.0667572021484375,0.2384185791015625,0.8841440471856562
1785335499.427032,-0.0468749962747097,0.0346679650247097,0.9833983778953552,0.98512512033849,0.9708404541015625,-0.4329681396484375,0.2384185791015625,1.0894200365935836
1785335499.437841,-0.06689453125,0.0356445275247097,0.9809569716453552,0.9838810857381309,0.4825592041015625,0.0553131103515625,0.1201629638671875,0.5003619325300882
1785335499.44865,-0.0483398362994194,0.0322265625,0.9848632216453552,0.9865753171723328,0.23651123046875,0.17547607421875,0.1811981201171875,0.34577763590936467
1785335499.459459,-0.0541992150247097,0.0307617150247097,0.9873046278953552,0.9892695619921509,-0.1888275146484375,0.6656646728515625,0.6694793701171875,0.9627917292869678
1785335499.467332,-0.0458984337747097,0.0307617150247097,0.9931640028953552,0.9946997969143042,-0.43487548828125,0.48065185546875,0.3643035888671875,0.7435455610350454
1785335499.475206,-0.0483398362994194,0.03759765625,0.9907225966453552,0.9926135134243654,-0.308990478515625,0.66375732421875,0.2384185791015625,0.7699950130540831
1785335499.48308,-0.0546874962747097,0.0312499962747097,0.9863280653953552,0.9883371576048883,-0.1888275146484375,0.2384185791015625,-0.0019073486328125,0.3041428728869394
1785335499.490954,-0.0522460900247097,0.0361328087747097,0.9785155653953552,0.9805753135347695,-0.3719329833984375,0.4215240478515625,-0.1239776611328125,0.5756623381087139
1785335499.501714,-0.0537109300494194,0.01123046875,0.9858397841453552,0.987365721219285,-0.25177001953125,-0.00762939453125,-0.0629425048828125,0.259630717205423
1785335499.512474,-0.0615234337747097,0.0239257849752903,1.0029296875,1.0050997632866912,-0.2498626708984375,-0.2498626708984375,-0.0629425048828125,0.35892125534429503
1785335499.523234,-0.046875,0.02294921875,0.9824218153953552,0.9838071740086778,-0.4940032958984375,0.0553131103515625,-0.2498626708984375,0.5563543392872785
1785335499.533785,-0.0478515625,0.01416015625,0.9824218153953552,0.9836884188722673,-0.4329681396484375,0.1163482666015625,0.0553131103515625,0.45172764943999305
1785335499.544339,-0.0590820237994194,0.0126953125,0.9926757216453552,0.9945134211461576,-0.43487548828125,0.17547607421875,-0.2498626708984375,0.5313566572835808
1785335499.554893,-0.0654296875,0.0219726525247097,0.9843749403953552,0.9867917028145698,0.05340576171875,-0.00762939453125,-0.1239776611328125,0.13520666960485292
1785335499.565587,-0.0541992150247097,0.0195312462747097,0.9887694716453552,0.9904464107402141,-0.0057220458984375,-0.1277923583984375,0.2384185791015625,0.27056800907554934
1785335499.57628,-0.0624999962747097,0.0214843712747097,0.9819335341453552,0.9841551164438438,-0.2498626708984375,-0.1277923583984375,0.3643035888671875,0.4598688356858381
1785335499.586973,-0.0493164025247097,0.015136715024709702,0.9858397841453552,0.9871885877092983,-0.0667572021484375,-0.0667572021484375,0.6084442138671875,0.6157251086855517
1785335499.597616,-0.0581054650247097,0.0351562462747097,1.00830078125,1.0105853116819115,0.23651123046875,-0.12969970703125,0.9136199951171875,0.9526075118430276
1785335499.608259,-0.052734375,0.02197265625,0.9848632216453552,0.986518766815406,0.60272216796875,-0.00762939453125,1.0318756103515625,1.1950311689074362
1785335499.618902,-0.0483398400247097,0.0297851525247097,0.9936522841453552,0.9952732073314424,0.35858154296875,0.23651123046875,1.0967254638671875,1.177847625200471
1785335499.626909,-0.0546874962747097,0.0346679650247097,0.9877929091453552,0.9899128352565163,0.5435943603515625,0.2384185791015625,1.1577606201171875,1.301056455716264
1785335499.634917,-0.0556640550494194,0.01318359375,0.9814452528953552,0.9831109187673268,0.35858154296875,-0.12969970703125,1.0318756103515625,1.1000772755585178
1785335499.642925,-0.0478515587747097,0.0253906212747097,0.9912108778953552,0.9926900119291853,0.2384185791015625,-0.0667572021484375,1.2149810791015625,1.2399511947953004
1785335499.650933,-0.0541992150247097,0.0263671837747097,0.9770507216453552,0.9789080119997045,0.2384185791015625,0.1163482666015625,1.0318756103515625,1.065433063707151
1785335499.6616,-0.0483398400247097,0.0244140587747097,0.9707030653953552,0.9722125423833046,0.41961669921875,0.17547607421875,0.9746551513671875,1.0755569213077745
1785335499.672267,-0.0585937425494194,0.03173828125,0.9941405653953552,0.9963714211714667,-0.003814697265625,-0.19073486328125,0.7266998291015625,0.7513234866569697
1785335499.682934,-0.0458984337747097,0.0239257849752903,0.9882811903953552,0.9896357010026041,0.179290771484375,-0.00762939453125,0.6694793701171875,0.6931132774755379
1785335499.693587,-0.0507812462747097,0.0219726525247097,0.9873046278953552,0.9888538621534378,0.2384185791015625,0.0553131103515625,0.7915496826171875,0.8285251107171964
1785335499.70424,-0.0561523400247097,0.0346679650247097,0.9716796278953552,0.9739179905700793,0.2384185791015625,-0.2498626708984375,0.7266998291015625,0.8045914583100848
1785335499.714893,-0.0722656175494194,0.0322265625,0.9794921278953552,0.9826829088873665,0.11444091796875,-0.00762939453125,0.4863739013671875,0.4997144217426412
1785335499.722907,-0.0493163987994194,0.02197265625,0.9873046278953552,0.988779719187651,0.35858154296875,0.17547607421875,0.6084442138671875,0.7277203700388862
1785335499.730924,-0.0581054650247097,0.0253906212747097,0.9926757216453552,0.99469895800618,0.1773834228515625,0.4215240478515625,0.6084442138671875,0.7611516031699351
1785335499.738941,-0.05712890625,0.0283203125,0.9921874403953552,0.9942342122999518,0.35858154296875,0.23651123046875,0.7915496826171875,0.900593795863075
1785335499.746958,-0.056640625,0.03271484375,0.9785155653953552,0.9806993082096924,0.2384185791015625,0.0553131103515625,0.9136199951171875,0.9458353210340064
1785335499.757634,-0.0634765550494194,0.0166015625,0.9833983778953552,0.985584727238404,0.1773834228515625,0.2994537353515625,1.0318756103515625,1.0889925130858107
1785335499.76831,-0.056640625,0.02880859375,0.9965819716453552,0.998605889068749,0.11444091796875,-0.00762939453125,1.2798309326171875,1.284959978929392
1785335499.778986,-0.0585937462747097,0.0292968712747097,0.9897460341453552,0.9919116623346308,0.2994537353515625,0.1773834228515625,1.2149810791015625,1.2638498490300725
1785335499.787208,-0.0493163987994194,0.03662109375,0.9970702528953552,0.9989606102879118,0.2384185791015625,-0.0667572021484375,1.1577606201171875,1.1839381725384268
1785335499.795431,-0.0468749962747097,0.0336914025247097,0.9858397841453552,0.9875284582651765,0.05340576171875,-0.12969970703125,1.0967254638671875,1.105658596712136
1785335499.803654,-0.0581054612994194,0.037109375,0.9975585341453552,0.9999381877855944,0.41961669921875,-0.19073486328125,0.7915496826171875,0.9159742694997094
1785335499.811877,-0.0405273400247097,0.0268554650247097,0.9902343153953552,0.9914270929713791,0.05340576171875,-0.00762939453125,0.7266998291015625,0.7286995434758509
1785335499.821307,-0.0629882737994194,0.02099609375,1.00830078125,1.0104844501813721,-0.0057220458984375,0.2384185791015625,1.0318756103515625,1.0590766902866295
1785335499.830738,-0.0429687462747097,0.0214843712747097,0.9921874403953552,0.9933497914852434,-0.0057220458984375,0.6656646728515625,0.7266998291015625,0.9855124758764253
1785335499.840169,-0.0498046800494194,0.037109375,0.9912108778953552,0.9931548803312585,0.05340576171875,0.301361083984375,0.3643035888671875,0.4758022521873033
1785335499.8496,-0.0576171837747097,0.0258789025247097,0.9843749403953552,0.986399250172247,-0.0667572021484375,0.5435943603515625,0.6084442138671875,0.8186303891459024
1785335499.859031,-0.0546874925494194,0.02734375,0.9799804091453552,0.9818859428742746,-0.12969970703125,0.72479248046875,0.3032684326171875,0.796315198881775
1785335499.869046,-0.0537109300494194,0.02685546875,0.9794921278953552,0.9813311922167391,-0.2498626708984375,0.5435943603515625,0.4253387451171875,0.7340566946853554
1785335499.879061,-0.0502929650247097,0.0268554650247097,0.9936522841453552,0.995286622094335,-0.0057220458984375,0.5435943603515625,0.4863739013671875,0.7294430357104157
1785335499.889076,-0.0590820275247097,0.0302734337747097,0.9848632216453552,0.9870981370251949,-0.0057220458984375,0.8487701416015625,0.6694793701171875,1.081039371205372
1785335499.899091,-0.0581054612994194,0.01171875,0.9912108778953552,0.9929816605519266,-0.1277923583984375,0.9098052978515625,0.6694793701171875,1.1367845855201903
1785335499.909106,-0.0620117150247097,0.0268554650247097,0.9804686903953552,0.9827947505189383,-0.0057220458984375,0.6046295166015625,0.3643035888671875,0.7059225871273817
1785335499.918266,-0.0605468712747097,0.0292968712747097,0.9848632216453552,0.9871574320427878,-0.0057220458984375,0.4215240478515625,0.1201629638671875,0.43835419766642725
1785335499.92743,-0.0576171837747097,0.0292968712747097,0.9853515028953552,0.9874693062524783,0.0553131103515625,0.2384185791015625,0.3032684326171875,0.3897110484187711
1785335499.936594,-0.0610351525247097,0.0317382775247097,0.9829100966453552,0.9853146026479723,0.1773834228515625,0.1163482666015625,0.2384185791015625,0.3191319738047764
1785335499.945758,-0.0532226487994194,0.021484375,0.9941405653953552,0.995796009471299,0.05340576171875,0.17547607421875,0.3032684326171875,0.3544231513742715
1785335499.954922,-0.0576171837747097,0.0195312462747097,0.9775390028953552,0.9794302995256055,0.179290771484375,-0.19073486328125,-0.1239776611328125,0.2896470770961482
1785335499.964527,-0.0537109300494194,0.0166015625,0.9907225966453552,0.9923163504588294,-0.1888275146484375,-0.4329681396484375,-0.2498626708984375,0.5343674714533395
1785335499.974132,-0.0507812462747097,0.0307617150247097,0.9931640028953552,0.994937060688564,-0.0057220458984375,-0.2498626708984375,-0.4329681396484375,0.4999255005182208
1785335499.983737,-0.0458984337747097,0.015624996274709702,0.9868163466453552,0.98800673516836,0.0553131103515625,-0.4329681396484375,-0.3681182861328125,0.5709921389237791
1785335499.993342,-0.0605468712747097,0.0317382775247097,0.9814452528953552,0.9838231682127736,0.1773834228515625,-0.4329681396484375,-0.2498626708984375,0.5304315629387697
1785335500.002947,-0.0522460900247097,0.0195312462747097,0.9882811903953552,0.9898539461926561,0.23651123046875,-0.49591064453125,0.1201629638671875,0.5624091636723116
1785335500.01366,-0.0649413987994194,0.02783203125,0.9829100966453552,0.9854462265029522,-0.0057220458984375,-0.3719329833984375,0.4253387451171875,0.5650486121094273
1785335500.024374,-0.0581054612994194,0.02197265625,0.9755858778953552,0.9775616847055484,0.1163482666015625,-0.3108978271484375,0.4253387451171875,0.5395437203458787
1785335500.035088,-0.06640625,0.0288085974752903,1.00244140625,1.005051490368545,-0.0057220458984375,-0.6160736083984375,0.5435943603515625,0.8216290290516515
1785335500.043101,-0.0556640587747097,0.0317382775247097,0.9921874403953552,0.9942543550710735,-0.3108978271484375,-0.3108978271484375,0.3032684326171875,0.5341223268815161
1785335500.051115,-0.0517578087747097,0.0205078087747097,0.9848632216453552,0.9864355054130846,-0.1888275146484375,-0.7381439208984375,0.6694793701171875,1.0142558381691134
1785335500.059129,-0.0532226525247097,0.0200195275247097,0.9887694716453552,0.9904032008641296,-0.2498626708984375,-0.5550384521484375,0.3643035888671875,0.7093772920902861
1785335500.067143,-0.0434570275247097,0.0249023400247097,0.9975585341453552,0.9988151324575631,-0.06866455078125,-0.49591064453125,0.3643035888671875,0.6191601511361203
1785335500.079082,-0.0483398362994194,0.02880859375,0.9965819716453552,0.9981694751172522,0.11444091796875,-0.67901611328125,0.0553131103515625,0.6908104993251547
1785335500.091021,-0.0410156212747097,0.0214843712747097,0.9858397841453552,0.9869265116518963,0.0553131103515625,-0.0667572021484375,-0.2498626708984375,0.26447574278930075
1785335500.10296,-0.0532226487994194,0.03662109375,0.9843749403953552,0.9864926650163354,-0.1888275146484375,-0.0667572021484375,-0.2498626708984375,0.32022446601640875
1785335500.114899,-0.0502929612994194,0.01904296875,0.9858397841453552,0.9873054727989908,-0.0057220458984375,0.1163482666015625,0.1201629638671875,0.16735829479233796
1785335500.122936,-0.064453125,0.0253906212747097,0.9916991591453552,0.9941157433722624,-0.1888275146484375,0.0553131103515625,-0.0629425048828125,0.2065844364563625
1785335500.130974,-0.0585937425494194,0.02783203125,0.9892577528953552,0.9913822422723821,-0.0057220458984375,-0.3719329833984375,-0.2498626708984375,0.4481051665149902
1785335500.139012,-0.0478515587747097,0.0400390587747097,0.9960936903953552,0.9980458596428182,0.2384185791015625,-0.0667572021484375,0.4253387451171875,0.4921513903235052
1785335500.14705,-0.06591796875,0.0336914025247097,0.9999999403953552,1.0027363412178307,0.23651123046875,-0.49591064453125,-0.0629425048828125,0.5530159929135547
1785335500.157691,-0.0532226525247097,0.0244140587747097,0.9814452528953552,0.9831904604085867,0.54168701171875,-0.31280517578125,0.0553131103515625,0.6279581489534888
1785335500.168332,-0.0595703050494194,0.02392578125,0.9770507216453552,0.9791573810781458,0.2994537353515625,-0.0667572021484375,0.4253387451171875,0.5244445745286672
1785335500.178973,-0.0488281212747097,0.0244140587747097,0.9921874403953552,0.9936881545894363,0.2994537353515625,-0.4329681396484375,0.6694793701171875,0.8516669399355236
1785335500.187192,-0.0507812462747097,0.0258789025247097,0.9960936903953552,0.9977229538376542,0.41961669921875,-0.31280517578125,0.3032684326171875,0.6048942010640069
1785335500.195413,-0.0424804650247097,0.0249023400247097,0.9912108778953552,0.9924332324673044,0.35858154296875,-0.19073486328125,0.3032684326171875,0.5068848520629239
1785335500.203634,-0.0449218712747097,0.0312499962747097,1.00146484375,1.002958807754936,0.2994537353515625,-0.5550384521484375,0.6694793701171875,0.9197515153517515
1785335500.211855,-0.0517578087747097,0.0273437462747097,0.9765624403953552,0.9783152616720373,0.41961669921875,-0.49591064453125,0.9136199951171875,1.1210294541628103
1785335500.222456,-0.0537109337747097,0.0258789025247097,0.9936522841453552,0.9954393220031628,0.2994537353515625,-0.3719329833984375,0.6694793701171875,0.8223194700164724
1785335500.233057,-0.0590820237994194,0.046875,0.9892577528953552,0.9921284457290814,0.179290771484375,-0.19073486328125,0.8525848388671875,0.8918665125883848
1785335500.243658,-0.0498046800494194,0.02783203125,0.9853515028953552,0.9870018806347135,-0.3108978271484375,0.3604888916015625,0.6084442138671875,0.7725374173994439
1785335500.252268,-0.0615234337747097,0.0336914025247097,0.9780272841453552,0.9805394495073885,-0.43487548828125,0.54168701171875,0.6694793701171875,0.9647508154882021
1785335500.260879,-0.0512695275247097,0.0214843712747097,0.9868163466453552,0.9883808196581733,-0.2498626708984375,0.7266998291015625,0.3643035888671875,0.8504358299050281
1785335500.26949,-0.06494140625,0.0341796837747097,0.9877929091453552,0.9905152539898165,-0.2498626708984375,0.7266998291015625,0.4253387451171875,0.8783148888767655
1785335500.278101,-0.0429687462747097,0.0249023400247097,0.9741210341453552,0.9753861947247064,-0.61798095703125,0.54168701171875,0.4863739013671875,0.9549266222329271
1785335500.287073,-0.0546874962747097,0.0263671837747097,0.9902343153953552,0.9920937203790343,-0.0057220458984375,0.7266998291015625,0.4253387451171875,0.8420441980818868
1785335500.296045,-0.0595703087747097,0.0205078087747097,0.9785155653953552,0.980541637886554,-0.2498626708984375,0.0553131103515625,0.5435943603515625,0.6008208743804507
1785335500.305017,-0.0429687462747097,0.0214843712747097,0.9814452528953552,0.9826203111051174,-0.4940032958984375,0.1773834228515625,-0.0019073486328125,0.5248883434025398
1785335500.313989,-0.06396484375,0.0307617150247097,0.9809569716453552,0.9835214103245794,-0.492095947265625,-0.19073486328125,0.1811981201171875,0.5580062438003472
1785335500.322961,-0.0468749962747097,0.0336914025247097,0.9916991591453552,0.9933778727802631,-0.74005126953125,0.17547607421875,-0.1239776611328125,0.7706089764712072
1785335500.333607,-0.04638671875,0.0283203125,0.9833983778953552,0.9848990493566867,-0.3108978271484375,0.2384185791015625,0.0553131103515625,0.3956771638131166
1785335500.344253,-0.0581054612994194,0.02734375,0.9936522841453552,0.9957252568274858,-0.675201416015625,-0.19073486328125,0.6084442138671875,0.9286986064643804
1785335500.354899,-0.0571289025247097,0.0317382775247097,0.9926757216453552,0.9948246670182842,-0.43487548828125,-0.61798095703125,0.5435943603515625,0.9308662536407363
1785335500.363126,-0.0478515587747097,0.0307617150247097,0.9887694716453552,0.9904045248514699,-0.2498626708984375,-0.6160736083984375,0.6084442138671875,0.9012116325603171
1785335500.371354,-0.0639648362994194,0.02294921875,1.00439453125,1.0066908866821802,-0.0057220458984375,-0.3108978271484375,0.9746551513671875,1.023055650891719
1785335500.379582,-0.04248046875,0.01904296875,0.9741210341453552,0.9752327999244332,0.05340576171875,-0.49591064453125,0.8525848388671875,0.9877653821684316
1785335500.38781,-0.07421875,0.0244140587747097,0.9897460341453552,0.9928251010242822,0.05340576171875,-0.31280517578125,1.0967254638671875,1.1417118710405862
1785335500.398191,-0.0449218712747097,0.0195312462747097,0.9980468153953552,0.9992481622803593,0.23651123046875,-0.31280517578125,1.2798309326171875,1.3385633553243421
1785335500.408572,-0.0502929612994194,0.02783203125,0.9946288466453552,0.9962883852072327,0.54168701171875,-0.00762939453125,1.3980865478515625,1.499376210832092
1785335500.418953,-0.0634765550494194,0.02685546875,0.9833983778953552,0.9858107622104457,0.1163482666015625,-0.4329681396484375,1.4629364013671875,1.5300919068921952
1785335500.429598,-0.0537109337747097,0.015624996274709702,0.9980468153953552,0.9996131504919021,0.41961669921875,-0.00762939453125,1.5201568603515625,1.5770267156893927
1785335500.440245,-0.0502929650247097,0.0292968712747097,0.9970702528953552,0.9987676297349004,0.1773834228515625,-0.2498626708984375,1.1577606201171875,1.197625102653235
1785335500.450892,-0.0581054612994194,0.03173828125,0.9746093153953552,0.9768556089744919,-0.0667572021484375,-0.2498626708984375,1.1577606201171875,1.186295718546317
1785335500.461583,-0.0507812462747097,0.0375976525247097,0.9902343153953552,0.9922481130418386,-0.0057220458984375,-0.3108978271484375,1.1577606201171875,1.1987909968918762
1785335500.472273,-0.0410156212747097,0.0219726525247097,0.9809569716453552,0.9820599059462454,-0.3108978271484375,-0.2498626708984375,0.9746551513671875,1.0531103823060124
1785335500.482963,-0.0551757737994194,0.0283203125,0.9926757216453552,0.9946112277963632,-0.12969970703125,-0.00762939453125,1.3408660888671875,1.347145905215502
1785335500.49097,-0.0483398362994194,0.02587890625,0.9843749403953552,0.9859008473677817,0.1163482666015625,-0.4940032958984375,1.2149810791015625,1.316721382098166
1785335500.498976,-0.0449218675494194,0.01904296875,0.9863280653953552,0.9875341317794971,0.2384185791015625,-0.3719329833984375,1.2798309326171875,1.3539367707113394
1785335500.506982,-0.0444335900247097,0.0297851525247097,0.9985350966453552,0.9999669186857899,0.1773834228515625,-0.5550384521484375,0.9136199951171875,1.083620808928935
1785335500.514988,-0.0532226525247097,0.0390624962747097,0.9790038466453552,0.9812273238670944,0.1163482666015625,-0.3108978271484375,0.7915496826171875,0.8583386733208391
1785335500.525642,-0.0532226525247097,0.0297851525247097,0.9843749403953552,0.9862625559814412,0.1163482666015625,-0.2498626708984375,0.8525848388671875,0.8960296763589235
1785335500.536296,-0.0556640587747097,0.0273437462747097,0.9775390028953552,0.9795042981433288,0.1163482666015625,-0.3719329833984375,0.9136199951171875,0.9932635897679831
1785335500.54695,-0.052734375,0.0224609375,0.9960936903953552,0.9977414735618928,-0.1888275146484375,-0.0667572021484375,0.9136199951171875,0.9353148399362232
1785335500.555894,-0.0434570237994194,0.03125,0.9877929091453552,0.9892420870420684,0.11444091796875,-0.00762939453125,1.1577606201171875,1.1634279457106822
