timestamp,accel_x,accel_y,accel_z,accel_rms,gyro_x,gyro_y,gyro_z,gyro_rms
1784816493.072747,-0.0434570275247097,-0.08740234375,0.9892577528953552,0.9940616603600826,-0.2193450927734375,-0.8792877197265625,0.7190704345703125,1.1568584414952696
1784816493.080797,-0.03173828125,-0.10546875,0.9794921278953552,0.9856651583231688,-0.0972747802734375,-0.5741119384765625,0.9021759033203125,1.0737729095625312
1784816493.088847,-0.0361328087747097,-0.09912109375,0.9799804091453552,0.9856430253417532,-0.0362396240234375,-0.4520416259765625,1.0204315185546875,1.1166626285609813
1784816493.096896,-0.0224609337747097,-0.103515625,0.9614257216453552,0.9672431940347084,-0.2765655517578125,-0.4520416259765625,0.9632110595703125,1.099366036092257
1784816493.107505,-0.02734375,-0.10009765625,0.9711913466453552,0.9767189223362186,-0.7076263427734375,-0.0858306884765625,1.5087127685546875,1.6686270302470894
1784816493.118113,-0.0341796837747097,-0.09326171875,0.9755858778953552,0.9806292898521817,-1.0738372802734375,0.2193450927734375,1.6956329345703125,2.0190120908574003
1784816493.128721,-0.0439453087747097,-0.111328125,0.9843749403953552,0.9916245079956825,-1.0738372802734375,0.2193450927734375,1.7566680908203125,2.0705365380826106
1784816493.136749,-0.0273437462747097,-0.09716796875,0.9843749403953552,0.9895369209330674,-1.2531280517578125,0.2193450927734375,2.1839141845703125,2.52743414343352
1784816493.144777,-0.0395507775247097,-0.1025390625,0.9887694716453552,0.9948585785924665,-1.7452239990234375,0.6465911865234375,2.1228790283203125,2.8232078099458673
1784816493.152805,-0.0249023400247097,-0.09423828125,0.9897460341453552,0.9945341584370639,-1.0738372802734375,0.7076263427734375,3.0384063720703125,3.2993597602155242
1784816493.160832,-0.0268554650247097,-0.10498046875,0.9804686903953552,0.9864385270589577,-1.1959075927734375,1.0738372802734375,2.6721954345703125,3.1183248572745965
1784816493.171447,-0.0205078087747097,-0.10205078125,0.9785155653953552,0.9840364037450379,-0.949859619140625,1.438140869140625,2.9163360595703125,3.38755051149302
1784816493.18206,-0.0214843712747097,-0.10986328125,0.9819335341453552,0.9882939766361392,-0.7076263427734375,1.7452239990234375,2.3670196533203125,3.024784932347899
1784816493.192675,-0.0200195275247097,-0.1123046875,0.9858397841453552,0.992417857719492,-0.2193450927734375,2.4776458740234375,2.1228790283203125,3.2700851236124335
1784816493.200675,-0.014648433774709702,-0.1181640625,0.9780272841453552,0.9852485426588031,-0.2193450927734375,2.6607513427734375,1.9397735595703125,3.3000653690802126
1784816493.208675,-0.0170898400247097,-0.1181640625,0.9775390028953552,0.9848031836261596,0.2689361572265625,3.2100677490234375,1.3904571533203125,3.5085941208985427
1784816493.216675,-0.0263671837747097,-0.115234375,0.9731444716453552,0.9802980935693834,0.026702880859375,3.879547119140625,0.9021759033203125,3.9831545606479213
1784816493.224674,-0.0244140587747097,-0.1162109375,0.9814452528953552,0.9886029600862581,0.148773193359375,4.734039306640625,0.2307891845703125,4.741995916024752
1784816493.232665,-0.0346679612994194,-0.10546875,0.9814452528953552,0.9877045657472928,0.5741119384765625,5.7125091552734375,-0.3795623779296875,5.75381898965581
1784816493.240655,-0.0385742112994194,-0.11328125,0.9672850966453552,0.9746594633876742,0.5741119384765625,5.7125091552734375,-0.7457733154296875,5.789520118713739
1784816493.248645,-0.0419921837747097,-0.11328125,0.9790038466453552,0.9864301885314204,0.453948974609375,5.710601806640625,-1.1730194091796875,5.847479559593888
1784816493.256635,-0.05712890625,-0.115234375,0.9809569716453552,0.9893529467943117,0.4520416259765625,5.2852630615234375,-1.1730194091796875,5.4327085137555375
1784816493.267318,-0.0571289025247097,-0.11669921875,0.9785155653953552,0.9871044174156702,0.148773193359375,4.734039306640625,-0.5016326904296875,4.76286646631926
1784816493.278003,-0.0629882737994194,-0.09814453125,0.9770507216453552,0.9839857642863652,0.209808349609375,3.879547119140625,-0.5626678466796875,3.9257483998449634
1784816493.288687,-0.0576171875,-0.119140625,0.9711913466453552,0.980166751435499,-0.156402587890625,2.780914306640625,0.0476837158203125,2.785717122597308
1784816493.296709,-0.06494140625,-0.10302734375,0.9809569716453552,0.9884880373709812,-0.461578369140625,1.438140869140625,0.7801055908203125,1.6999613181423219
1784816493.304731,-0.06396484375,-0.10693359375,0.9770507216453552,0.9849641655288589,-0.461578369140625,0.461578369140625,1.0852813720703125,1.26646943835209
1784816493.312753,-0.0444335862994194,-0.10400390625,0.9677733778953552,0.9743595163335106,-0.339508056640625,-0.38909912109375,1.8138885498046875,1.88596275617319
1784816493.320775,-0.0551757775247097,-0.10791015625,0.9760741591453552,0.9835698919744686,-0.339508056640625,-0.87738037109375,2.0618438720703125,2.266332320931421
1784816493.328744,-0.0625,-0.099609375,0.9858397841453552,0.9928284633266974,-0.0362396240234375,-1.5506744384765625,2.3670196533203125,2.829962290154866
1784816493.336713,-0.0312499962747097,-0.1015625,0.9814452528953552,0.9871809804206355,0.026702880859375,-1.36566162109375,2.7904510498046875,3.106825030240789
1784816493.344682,-0.0410156212747097,-0.115234375,0.9790038466453552,0.9866153121235213,-0.2193450927734375,-1.0623931884765625,2.6721954345703125,2.8839937581734825
1784816493.35265,-0.0361328087747097,-0.0869140625,0.9936522841453552,0.9981004438018678,-0.2193450927734375,-0.7572174072265625,2.6111602783203125,2.7275719001721144
1784816493.363322,-0.02880859375,-0.08837890625,0.9760741591453552,0.980490453954097,-0.3414154052734375,-0.4520416259765625,2.5501251220703125,2.6122871681321116
1784816493.373993,-0.0385742112994194,-0.1044921875,0.9833983778953552,0.9896862920507302,-0.644683837890625,-0.38909912109375,1.8787384033203125,2.0240240524716775
1784816493.384664,-0.0249023400247097,-0.1015625,0.9677733778953552,0.9734065845821788,-0.0362396240234375,-0.1468658447265625,1.7566680908203125,1.7631692113926243
1784816493.392656,-0.0336913987994194,-0.08984375,0.9829100966453552,0.9875825372365115,-0.461578369140625,0.09918212890625,1.6307830810546875,1.6977470786330673
1784816493.400648,-0.030761711299419403,-0.1005859375,0.9765624403953552,0.9822107786497531,-0.278472900390625,0.339508056640625,1.2683868408203125,1.3422436644447213
1784816493.408639,-0.0297851525247097,-0.0966796875,0.9843749403953552,0.9895595689822705,-0.2193450927734375,0.3414154052734375,0.7190704345703125,0.8256748988281959
1784816493.416631,-0.0327148400247097,-0.0986328125,0.9804686903953552,0.9859602148692844,-0.461578369140625,0.09918212890625,0.5359649658203125,0.7142479472421771
1784816493.424649,-0.0312499962747097,-0.09912109375,0.9687499403953552,0.9743089861585851,-0.2193450927734375,0.0972747802734375,0.1087188720703125,0.26342825540415066
1784816493.432666,-0.0307617150247097,-0.0947265625,0.9814452528953552,0.9864857774875194,-0.522613525390625,-0.148773193359375,-0.5016326904296875,0.7395226271665324
1784816493.440682,-0.02783203125,-0.1005859375,0.9873046278953552,0.9928054094583897,-0.4024505615234375,0.0362396240234375,-0.5626678466796875,0.692730012708448
1784816493.4487,-0.0449218712747097,-0.11181640625,0.9741210341453552,0.9815460622863824,-0.5855560302734375,0.0362396240234375,-0.6275177001953125,0.8590504286695636
1784816493.459349,-0.0429687462747097,-0.103515625,0.9648436903953552,0.9713316347526673,-0.522613525390625,-0.148773193359375,-0.7457733154296875,0.9227330047150972
1784816493.47,-0.0395507775247097,-0.1171875,0.9692382216453552,0.9770976944284077,-0.5855560302734375,0.4634857177734375,-0.9288787841796875,1.1918517822567871
1784816493.480649,-0.03173828125,-0.0908203125,0.9873046278953552,0.9919808848576104,-0.766754150390625,0.644683837890625,-0.7457733154296875,1.2488823066989232
1784816493.488638,-0.0390624962747097,-0.091796875,0.9775390028953552,0.9826164292625188,-0.7648468017578125,1.0738372802734375,-0.7457733154296875,1.5146930291881573
1784816493.496628,-0.0541992112994194,-0.109375,0.9814452528953552,0.9890071938875403,-0.949859619140625,1.07574462890625,-0.5626678466796875,1.5414457202190983
1784816493.504617,-0.0434570237994194,-0.10498046875,0.9804686903953552,0.9870300221280283,-0.8296966552734375,1.3790130615234375,-0.5016326904296875,1.685736907032619
1784816493.512606,-0.0429687462747097,-0.1181640625,0.9809569716453552,0.9889821227113008,-0.5855560302734375,1.5010833740234375,-0.2574920654296875,1.631695230157403
1784816493.520638,-0.0419921837747097,-0.11572265625,0.9755858778953552,0.9833223692241398,-0.949859619140625,1.132965087890625,0.0476837158203125,1.4792284891819172
1784816493.52867,-0.0502929612994194,-0.10009765625,0.9702147841453552,0.9766604579469911,-0.766754150390625,1.316070556640625,0.4138946533203125,1.5783733465960312
1784816493.536702,-0.0444335862994194,-0.11962890625,0.9892577528953552,0.9974549215205502,-0.8907318115234375,1.0738372802734375,0.5359649658203125,1.4945862668817904
1784816493.544734,-0.0458984337747097,-0.119140625,0.9863280653953552,0.9945572921329903,-0.827789306640625,1.255035400390625,0.5359649658203125,1.596122625931038
1784816493.555366,-0.0395507775247097,-0.10693359375,0.9858397841453552,0.9924107705375127,-0.7076263427734375,1.0128021240234375,0.5359649658203125,1.3467596771510741
1784816493.565998,-0.0468749962747097,-0.10888671875,0.9814452528953552,0.9885789635768725,-0.644683837890625,0.766754150390625,0.6542205810546875,1.196467194140386
1784816493.576629,-0.0458984337747097,-0.1162109375,0.9711913466453552,0.9791957312082293,-0.5245208740234375,0.5855560302734375,0.5359649658203125,0.9514496604984766
1784816493.584648,-0.0429687462747097,-0.11279296875,0.9804686903953552,0.9878701431875759,-0.644683837890625,0.278472900390625,0.3490447998046875,0.7842172399023417
1784816493.592666,-0.0380859375,-0.10986328125,0.9741210341453552,0.9810363236734341,-0.400543212890625,-0.026702880859375,0.2918243408203125,0.4962956327977755
1784816493.600683,-0.0341796837747097,-0.10791015625,0.9814452528953552,0.9879512321140483,-0.2765655517578125,-0.2689361572265625,0.2307891845703125,0.44953176617178386
1784816493.608702,-0.0463867150247097,-0.1083984375,0.9853515028953552,0.9923807398581254,-0.3414154052734375,-0.2689361572265625,0.1087188720703125,0.44800773293109225
1784816493.616694,-0.0502929650247097,-0.11962890625,0.9843749403953552,0.9928919784245953,-0.644683837890625,-0.331878662109375,0.2918243408203125,0.7816150862771932
1784816493.624688,-0.0410156212747097,-0.10498046875,0.9799804091453552,0.9864404606037903,-0.0362396240234375,-0.2689361572265625,0.0476837158203125,0.2755244159191391
1784816493.632681,-0.0419921837747097,-0.119140625,0.9785155653953552,0.9866359732670157,-0.156402587890625,-0.637054443359375,-0.0133514404296875,0.6561085232370901
1784816493.640674,-0.0483398400247097,-0.1064453125,0.9814452528953552,0.9883835941160016,-0.0972747802734375,-0.7572174072265625,0.1087188720703125,0.7711422552476321
1784816493.651336,-0.0600585900247097,-0.11669921875,0.9838866591453552,0.9926019846528743,-0.339508056640625,-1.186370849609375,0.2918243408203125,1.2680311349576452
1784816493.661998,-0.0366210900247097,-0.11767578125,0.9750975966453552,0.9828550334158866,-0.0972747802734375,-1.0013580322265625,0.0476837158203125,1.0072010863458851
1784816493.67266,-0.0395507737994194,-0.10546875,0.9765624403953552,0.9830371920357983,0.026702880859375,-0.820159912109375,0.1087188720703125,0.8277651348188619
1784816493.679156,-0.0424804650247097,-0.10302734375,0.9809569716453552,0.987266835100077,-0.034332275390625,-0.820159912109375,0.2307891845703125,0.8527043064740468
1784816493.685652,-0.0336914025247097,-0.11181640625,0.9746093153953552,0.9815810394288136,0.026702880859375,-0.453948974609375,0.2307891845703125,0.5099474121021919
1784816493.692148,-0.0405273400247097,-0.1318359375,0.9711913466453552,0.9809361913523228,-0.156402587890625,-0.57220458984375,0.1087188720703125,0.6030751655319425
1784816493.698644,-0.0419921837747097,-0.11962890625,0.9770507216453552,0.9852423718945759,0.026702880859375,-0.38909912109375,0.6542205810546875,0.7616532928817754
1784816493.70514,-0.0444335862994194,-0.1103515625,0.9799804091453552,0.9871744593770228,0.1468658447265625,-0.4520416259765625,0.7190704345703125,0.8619591045031773
1784816493.717004,-0.0351562425494194,-0.11474609375,0.9882811903953552,0.9955412290359138,0.514984130859375,-0.209808349609375,0.2918243408203125,0.6280044940109947
1784816493.728868,-0.0419921837747097,-0.10205078125,0.9809569716453552,0.9871445110375332,0.698089599609375,0.156402587890625,0.6542205810546875,0.9694304654059491
1784816493.740732,-0.0283203087747097,-0.10595703125,0.9824218153953552,0.9885249393541439,0.7572174072265625,0.5245208740234375,0.5359649658203125,1.0657198476522793
1784816493.752596,-0.0356445275247097,-0.10986328125,0.9746093153953552,0.9814294628575603,0.3910064697265625,0.8907318115234375,0.2918243408203125,1.0156035965489014
1784816493.760606,-0.0405273400247097,-0.10693359375,0.9658202528953552,0.9725667173333747,0.148773193359375,1.255035400390625,0.4138946533203125,1.3298707092582889
1784816493.768616,-0.0424804650247097,-0.10400390625,0.9892577528953552,0.9956165447036033,-0.0972747802734375,1.1959075927734375,0.4138946533203125,1.2692384084077921
1784816493.776626,-0.0439453050494194,-0.10546875,0.9731444716453552,0.9798290717040226,-0.156402587890625,0.644683837890625,0.1087188720703125,0.6722341954114737
1784816493.784636,-0.0488281175494194,-0.10888671875,0.9877929091453552,0.9949750418685915,-0.7648468017578125,1.0128021240234375,0.3490447998046875,1.3162792427354597
1784816493.792646,-0.0527343712747097,-0.107421875,0.9711913466453552,0.9785361541307879,-0.339508056640625,1.132965087890625,0.2307891845703125,1.2050474092821142
1784816493.800656,-0.0522460900247097,-0.11865234375,0.9731444716453552,0.9817424281827468,-0.156402587890625,1.07574462890625,-0.0743865966796875,1.0895970089373028
1784816493.808666,-0.0410156212747097,-0.1064453125,0.9721679091453552,0.978837744119946,0.026702880859375,0.766754150390625,0.0476837158203125,0.768699361091104
1784816493.816676,-0.0419921837747097,-0.11474609375,0.9702147841453552,0.9778786923250097,0.0858306884765625,0.7076263427734375,-0.1392364501953125,0.7262841985987737
1784816493.827359,-0.0449218712747097,-0.1083984375,0.9882811903953552,0.995222541475284,0.2689361572265625,0.5855560302734375,-0.1964569091796875,0.6736451873336684
1784816493.838044,-0.0371093712747097,-0.10888671875,0.9702147841453552,0.9770108240601861,0.3910064697265625,0.6465911865234375,-0.3795623779296875,0.8455967245664182
1784816493.848727,-0.0551757775247097,-0.10888671875,0.9848632216453552,0.9923992388626999,0.209808349609375,0.766754150390625,-0.1964569091796875,0.8188570008685857
1784816493.856714,-0.0410156212747097,-0.10986328125,0.9643554091453552,0.9714595086278545,0.4520416259765625,0.5855560302734375,-0.5626678466796875,0.9294151934911962
1784816493.8647,-0.0493164025247097,-0.1064453125,0.9780272841453552,0.985038111264707,0.331878662109375,0.40435791015625,-0.5016326904296875,0.7247648735811948
1784816493.872686,-0.0415039025247097,-0.11083984375,0.9731444716453552,0.9803153612900405,0.270843505859375,0.461578369140625,-0.3223419189453125,0.624752037398889
1784816493.880672,-0.0419921875,-0.1103515625,0.9750975966453552,0.9822200029223466,0.209808349609375,0.339508056640625,-0.7457733154296875,0.8458505199482305
1784816493.888674,-0.0502929612994194,-0.095703125,0.9931640028953552,0.9990311340184327,0.148773193359375,-0.331878662109375,-0.5016326904296875,0.6196065409060667
1784816493.896676,-0.0483398362994194,-0.10986328125,0.9794921278953552,0.9868188835594108,-0.156402587890625,-0.148773193359375,-0.5016326904296875,0.5461049245968739
1784816493.904678,-0.0468749962747097,-0.1064453125,0.9750975966453552,0.982009772259179,0.026702880859375,-0.331878662109375,-0.5016326904296875,0.6020729576367181
1784816493.91268,-0.0439453050494194,-0.1044921875,0.9721679091453552,0.9787544383840481,-0.2193450927734375,-0.3910064697265625,-0.4405975341796875,0.6285893064768426
1784816493.923338,-0.0405273400247097,-0.1064453125,0.9755858778953552,0.9822122352076216,-0.400543212890625,-0.209808349609375,-0.4405975341796875,0.6313323974609375
1784816493.933998,-0.0493163987994194,-0.0947265625,0.9843749403953552,0.9901511258954205,-0.5855560302734375,-0.0858306884765625,-0.4405975341796875,0.7378136341917032
1784816493.944657,-0.0444335900247097,-0.10302734375,0.9658202528953552,0.9723156577909833,-0.5855560302734375,0.0362396240234375,-0.5626678466796875,0.8128863885107828
1784816493.952682,-0.0571289025247097,-0.10302734375,0.9750975966453552,0.9821882039850643,-0.461578369140625,-0.026702880859375,-0.5626678466796875,0.7282600774392795
1784816493.960709,-0.0498046800494194,-0.10498046875,0.9833983778953552,0.990239251201956,-0.400543212890625,-0.026702880859375,-0.7457733154296875,0.8469508529105586
1784816493.968735,-0.0463867150247097,-0.1015625,0.9731444716453552,0.9795288823873195,-0.4024505615234375,-0.3910064697265625,-0.8678436279296875,1.0334433106739436
1784816493.976761,-0.0439453050494194,-0.10009765625,0.9882811903953552,0.9943090273712142,-0.156402587890625,-0.453948974609375,-0.8678436279296875,0.9918084510559232
1784816493.984747,-0.0302734337747097,-0.11181640625,0.9882811903953552,0.9950472857047735,-0.522613525390625,-0.026702880859375,-0.7457733154296875,0.911052017600749
1784816493.992734,-0.0419921875,-0.10986328125,0.9765624403953552,0.9836195831565084,-0.156402587890625,-0.209808349609375,-0.5626678466796875,0.6205452592292127
1784816494.000722,-0.0361328087747097,-0.09375,0.9785155653953552,0.9836601822229776,-0.278472900390625,-0.209808349609375,-1.1730194091796875,1.223740672744859
1784816494.008709,-0.0429687462747097,-0.12548828125,0.9726561903953552,0.9816586405680464,-0.0972747802734375,-0.2079010009765625,-1.2340545654296875,1.2552194547337756
1784816494.019454,-0.0473632775247097,-0.1181640625,0.9809569716453552,0.9891827970319808,-0.4024505615234375,-0.4520416259765625,-1.7223358154296875,1.8255817558241294
1784816494.030199,-0.0532226487994194,-0.109375,0.9794921278953552,0.9870158912495772,-0.2193450927734375,-0.2689361572265625,-1.7871856689453125,1.820569015904391
1784816494.040944,-0.0527343712747097,-0.12158203125,0.9716796278953552,0.9806754832784752,-0.583648681640625,-0.209808349609375,-2.1495819091796875,2.2372679123026904
1784816494.04887,-0.0483398362994194,-0.10498046875,0.9858397841453552,0.9925914157377067,-0.5245208740234375,0.0362396240234375,-1.7871856689453125,1.8629192341374263
1784816494.056796,-0.0341796800494194,-0.10546875,0.9755858778953552,0.981865425047493,-0.4596710205078125,-0.0858306884765625,-2.0275115966796875,2.0807372801124293
1784816494.064722,-0.0375976525247097,-0.12109375,0.9858397841453552,0.9939604417521816,-0.644683837890625,-0.026702880859375,-2.1495819091796875,2.2443334598397287
1784816494.072648,-0.0454101525247097,-0.1181640625,0.9868163466453552,0.9949026734436425,-0.278472900390625,-0.026702880859375,-2.0275115966796875,2.04672017500409
1784816494.080651,-0.0488281212747097,-0.1171875,0.9833983778953552,0.9915591082889026,-0.156402587890625,0.034332275390625,-1.9054412841796875,1.9121576718693254
1784816494.088654,-0.0454101525247097,-0.10791015625,0.9829100966453552,0.9898580412673316,-0.156402587890625,0.705718994140625,-1.7871856689453125,1.9278313420715112
1784816494.096657,-0.0449218712747097,-0.1015625,0.9663085341453552,0.9726690593861905,0.148773193359375,0.766754150390625,-1.6613006591796875,1.8357465158333979
1784816494.10466,-0.0415039025247097,-0.1083984375,0.9956054091453552,1.002348704741375,0.0858306884765625,0.8296966552734375,-1.6613006591796875,1.858946832765035
1784816494.112658,-0.0468749962747097,-0.10693359375,0.9667968153953552,0.9738214112488206,0.148773193359375,1.132965087890625,-1.3561248779296875,1.7733634816306463
1784816494.120656,-0.0312499962747097,-0.107421875,0.9677733778953552,0.9742183186835849,-0.0972747802734375,1.3179779052734375,-1.6613006591796875,2.1228396128433884
1784816494.128654,-0.04248046875,-0.10986328125,0.9775390028953552,0.9846100918505161,-0.034332275390625,1.438140869140625,-1.7223358154296875,2.2440740909644443
1784816494.136652,-0.0253906212747097,-0.11328125,0.9707030653953552,0.9776204613336494,-0.278472900390625,1.804351806640625,-2.2106170654296875,2.8670647722624296
1784816494.147322,-0.0449218712747097,-0.1083984375,0.9750975966453552,0.98213212896983,-0.7076263427734375,1.7452239990234375,-2.1495819091796875,2.857839084347973
1784816494.157992,-0.0356445275247097,-0.12255859375,0.9619140028953552,0.9703451397366829,-0.766754150390625,2.109527587890625,-1.9702911376953125,2.9866479100311736
1784816494.168662,-0.0478515625,-0.12939453125,0.9658202528953552,0.9756236352477048,-1.194000244140625,2.109527587890625,-2.2754669189453125,3.3246793719536303
1784816494.176661,-0.0537109300494194,-0.1005859375,0.9716796278953552,0.9783474301578062,-1.2531280517578125,1.6841888427734375,-2.3937225341796875,3.1838231016915004
1784816494.18466,-0.0366210900247097,-0.10888671875,0.9716796278953552,0.9784470966902582,-1.316070556640625,2.05230712890625,-2.5157928466796875,3.503315559412321
1784816494.192659,-0.0351562462747097,-0.111328125,0.9731444716453552,0.980122479979957,-1.499176025390625,2.292633056640625,-2.4585723876953125,3.6807979125517334
1784816494.200658,-0.0546874925494194,-0.10498046875,0.9819335341453552,0.9890425097737204,-1.5010833740234375,2.3555755615234375,-2.3937225341796875,3.6785724258814954
1784816494.211314,-0.0488281212747097,-0.1123046875,0.9628905653953552,0.9706465727488441,-0.8907318115234375,1.9893646240234375,-2.3326873779296875,3.1925546464435373
1784816494.22197,-0.0502929650247097,-0.10205078125,0.9741210341453552,0.9807423379507628,-1.132965087890625,1.987457275390625,-2.0275115966796875,3.0568610675908636
1784816494.232626,-0.0488281175494194,-0.11474609375,0.9829100966453552,0.9907891345698565,-1.316070556640625,1.804351806640625,-2.0923614501953125,3.060343704626505
1784816494.240635,-0.0561523400247097,-0.10888671875,0.9780272841453552,0.9856707215612786,-0.9479522705078125,1.8672943115234375,-2.2106170654296875,3.0450335569542855
1784816494.248644,-0.0473632775247097,-0.12060546875,0.9677733778953552,0.9764088642127723,-0.5855560302734375,1.5010833740234375,-1.4820098876953125,2.1891734667645335
1784816494.256653,-0.0625,-0.1103515625,0.9677733778953552,0.9760476567817667,-0.705718994140625,1.255035400390625,-1.4171600341796875,2.0202711989732185
1784816494.264662,-0.0527343712747097,-0.12744140625,0.9780272841453552,0.987704203936308,-0.827789306640625,1.07574462890625,-1.1730194091796875,1.794000049364959
1784816494.272664,-0.0473632775247097,-0.107421875,0.9799804091453552,0.9869875083277884,-0.522613525390625,0.766754150390625,-0.9899139404296875,1.356822181982406
1784816494.280666,-0.0473632775247097,-0.109375,0.9760741591453552,0.9833244301013755,-0.644683837890625,0.766754150390625,-0.5626678466796875,1.1489666155575589
1784816494.288668,-0.0566406212747097,-0.12353515625,0.9711913466453552,0.9806537241080133,-0.5855560302734375,0.4634857177734375,-0.5626678466796875,0.9350347484755321
1784816494.29667,-0.0527343712747097,-0.11572265625,0.9902343153953552,0.9983669898738652,-0.156402587890625,0.644683837890625,-0.3223419189453125,0.7375522578404982
1784816494.304683,-0.0625,-0.109375,0.9746093153953552,0.9827168759517683,-0.4024505615234375,0.3414154052734375,-0.3795623779296875,0.650075789557029
1784816494.312698,-0.0551757775247097,-0.12158203125,0.9672850966453552,0.9764563558810739,-0.0972747802734375,0.4024505615234375,-0.3795623779296875,0.5616906943215408
1784816494.320712,-0.0517578087747097,-0.11279296875,0.9765624403953552,0.9844162354205307,-0.156402587890625,0.156402587890625,0.1659393310546875,0.27651293023771334
1784816494.328726,-0.0502929650247097,-0.11328125,0.9829100966453552,0.990693838690804,0.148773193359375,0.339508056640625,-0.4405975341796875,0.5757823987510045
1784816494.339378,-0.0507812462747097,-0.12841796875,0.9858397841453552,0.9954647104115993,-0.156402587890625,0.278472900390625,-0.3795623779296875,0.49606100883912513
1784816494.350029,-0.0483398400247097,-0.12158203125,0.9790038466453552,0.987708186765146,-0.0362396240234375,0.5245208740234375,-0.6275177001953125,0.8186659402308643
1784816494.360682,-0.0541992112994194,-0.1142578125,0.9790038466453552,0.9871377482242113,-0.0972747802734375,0.0972747802734375,-0.5626678466796875,0.5792407715636455
1784816494.368668,-0.0576171875,-0.10498046875,0.9707030653953552,0.9780619000259233,-0.339508056640625,0.09918212890625,-0.3795623779296875,0.5188163586066931
1784816494.376654,-0.0537109337747097,-0.10693359375,0.9833983778953552,0.9906523242421921,-0.0972747802734375,0.0362396240234375,-0.6275177001953125,0.6360457194927263
1784816494.38464,-0.0566406212747097,-0.10498046875,0.9848632216453552,0.9920607965981837,-0.156402587890625,-0.57220458984375,-0.5016326904296875,0.7768624191225018
1784816494.392626,-0.0473632775247097,-0.10791015625,0.9848632216453552,0.9918888280596018,-0.2193450927734375,-0.4520416259765625,-0.6847381591796875,0.8493057446974613
1784816494.403333,-0.0449218675494194,-0.115234375,0.9653319716453552,0.9732228680248307,-0.0972747802734375,-0.4520416259765625,-0.9288787841796875,1.037602915470034
1784816494.41404,-0.0488281212747097,-0.10205078125,0.9750975966453552,0.9816383602755655,-0.0972747802734375,-0.7572174072265625,-0.6847381591796875,1.0255276355715386
1784816494.424747,-0.0473632775247097,-0.11865234375,0.9902343153953552,0.9984416147786302,-0.0362396240234375,-0.8792877197265625,-0.3795623779296875,0.9583985617429405
1784816494.432728,-0.0610351525247097,-0.10791015625,0.9814452528953552,0.9892444976326337,-0.2193450927734375,-0.8182525634765625,-0.4405975341796875,0.9548694751037834
1784816494.440709,-0.0405273400247097,-0.10400390625,0.9741210341453552,0.9804953171581972,0.026702880859375,-0.453948974609375,-0.5016326904296875,0.6770657807796963
1784816494.44869,-0.0507812462747097,-0.11279296875,0.9838866591453552,0.9916319613732,0.026702880859375,-0.637054443359375,0.0476837158203125,0.6393943575013353
1784816494.456671,-0.0405273400247097,-0.1259765625,0.9726561903953552,0.9816173512643307,0.087738037109375,-0.698089599609375,0.2918243408203125,0.7617010556207687
1784816494.464653,-0.0537109337747097,-0.1162109375,0.9921874403953552,1.000412796439483,0.2689361572265625,-0.9403228759765625,0.7190704345703125,1.2139176486161498
1784816494.472637,-0.0576171837747097,-0.1015625,0.9829100966453552,0.989821670484012,0.576019287109375,-0.698089599609375,0.5359649658203125,1.051848730945443
1784816494.480619,-0.03271484375,-0.1142578125,0.9892577528953552,0.9963714219017122,0.5741119384765625,-0.3910064697265625,0.4749298095703125,0.8414564167488645
1784816494.488603,-0.0395507775247097,-0.0986328125,0.9765624403953552,0.9823272854275203,0.514984130859375,-0.026702880859375,0.3490447998046875,0.6226989410251716
1784816494.496612,-0.0336914025247097,-0.11181640625,0.9829100966453552,0.989823356664273,0.026702880859375,0.58746337890625,0.1659393310546875,0.6110336545502346
1784816494.504621,-0.0380859375,-0.10546875,0.9726561903953552,0.9790986980770743,0.026702880859375,0.339508056640625,-0.0133514404296875,0.34081817048336976
1784816494.51263,-0.0546874962747097,-0.11376953125,0.9580077528953552,0.9662883022665901,-0.156402587890625,0.40435791015625,-0.0133514404296875,0.4337572477392881
1784816494.520638,-0.052734375,-0.11474609375,0.9785155653953552,0.9866307779805554,-0.278472900390625,0.339508056640625,-0.0133514404296875,0.43930756621916756
1784816494.531294,-0.0454101525247097,-0.11328125,0.9726561903953552,0.9802830143730358,-0.705718994140625,0.156402587890625,-0.5626678466796875,0.9160219287096224
1784816494.541949,-0.0502929650247097,-0.12255859375,0.9833983778953552,0.9922813919852423,-0.705718994140625,0.278472900390625,-0.6275177001953125,0.9845633138611435
1784816494.552604,-0.0419921837747097,-0.11474609375,0.9741210341453552,0.9817544492863116,-0.2193450927734375,0.3414154052734375,-0.8106231689453125,0.9065245008893881
1784816494.560627,-0.0537109337747097,-0.11669921875,0.9868163466453552,0.9951432429908257,-0.3414154052734375,0.2193450927734375,-0.0743865966796875,0.41256528507304147
1784816494.56865,-0.0600585900247097,-0.1162109375,0.9716796278953552,0.9804454678855122,0.2117156982421875,0.2193450927734375,-0.3795623779296875,0.48682995526734363
1784816494.576673,-0.0439453050494194,-0.11962890625,0.9707030653953552,0.979033557246327,-0.2193450927734375,0.0362396240234375,-0.2574920654296875,0.3401878067074046
1784816494.584696,-0.0419921837747097,-0.119140625,0.9912108778953552,0.9992281203417168,-0.156402587890625,-0.08392333984375,-0.2574920654296875,0.3127412032794219
1784816494.592692,-0.0517578087747097,-0.11279296875,0.9790038466453552,0.9868382118234985,0.0858306884765625,0.1583099365234375,0.4138946533203125,0.4513731573028653
1784816494.60069,-0.0532226487994194,-0.1113281175494194,0.9799804091453552,0.9877186858670952,0.1468658447265625,0.4024505615234375,0.1659393310546875,0.4594256113982481
1784816494.608687,-0.0722656175494194,-0.1108398362994194,0.9897460341453552,0.9985514513019045,0.209808349609375,0.156402587890625,0.1659393310546875,0.3098663819383632
1784816494.616683,-0.0561523400247097,-0.1005859375,0.9711913466453552,0.9779996154967665,0.209808349609375,0.09918212890625,0.4138946533203125,0.4745159874096208
1784816494.627336,-0.0419921837747097,-0.12353515625,0.9760741591453552,0.9847563366027117,0.209808349609375,-0.148773193359375,0.7190704345703125,0.7636853386711662
1784816494.637988,-0.0551757775247097,-0.1171875,0.9750975966453552,0.9836628485234431,0.2689361572265625,0.0972747802734375,0.5970001220703125,0.6619653958425651
1784816494.648639,-0.0561523400247097,-0.10888671875,0.9750975966453552,0.9827638199455351,0.026702880859375,-0.08392333984375,1.1425018310546875,1.145891183655775
1784816494.656641,-0.04296875,-0.1201171875,0.9726561903953552,0.9809865019070743,0.026702880859375,-0.148773193359375,0.7801055908203125,0.794613893496486
1784816494.664644,-0.0307617150247097,-0.10595703125,0.9697265028953552,0.9759829230064583,0.453948974609375,0.156402587890625,0.5970001220703125,0.7661204779926951
1784816494.672646,-0.0507812462747097,-0.12109375,0.9848632216453552,0.9935783797023481,0.3910064697265625,0.2193450927734375,0.6542205810546875,0.7930970292261534
1784816494.680648,-0.0410156212747097,-0.1015625,0.9838866591453552,0.9899647370684518,0.331878662109375,0.339508056640625,0.7190704345703125,0.8616678343541324
1784816494.691308,-0.0380859337747097,-0.111328125,0.9697265028953552,0.9768387687766915,0.2117156982421875,0.7076263427734375,0.4138946533203125,0.8466802004985289
1784816494.701968,-0.0517578087747097,-0.0986328125,0.9785155653953552,0.9848350187680225,-0.0972747802734375,0.5245208740234375,0.2307891845703125,0.5812470884900724
1784816494.712628,-0.0537109300494194,-0.1005859375,0.9667968153953552,0.9734980621902275,0.1468658447265625,0.2193450927734375,0.4749298095703125,0.5433600740664776
1784816494.720639,-0.0366210900247097,-0.10888671875,0.9780272841453552,0.9847511311430309,-0.156402587890625,0.217437744140625,0.5970001220703125,0.6543317872668396
1784816494.728649,-0.0429687462747097,-0.0830078125,0.9750975966453552,0.9795672172321833,-0.2765655517578125,0.2193450927734375,0.3490447998046875,0.4964202316723056
1784816494.73666,-0.0483398400247097,-0.12255859375,0.9868163466453552,0.9955721224713345,-0.2765655517578125,0.0972747802734375,0.2307891845703125,0.37311464057441995
1784816494.744672,-0.0493164025247097,-0.107421875,0.9794921278953552,0.9865983962056019,-0.217437744140625,-0.026702880859375,0.1087188720703125,0.2445649393666125
1784816494.752671,-0.0458984300494194,-0.10546875,0.9707030653953552,0.977494124931451,-0.217437744140625,0.156402587890625,-0.0133514404296875,0.2681775587878226
1784816494.76067,-0.0639648362994194,-0.09423828125,0.9726561903953552,0.9793020058440456,-0.0362396240234375,-0.1468658447265625,0.2307891845703125,0.275946615147272
1784816494.768669,-0.0522460900247097,-0.10302734375,0.9765624403953552,0.9833709816106954,-0.339508056640625,-0.148773193359375,-0.0133514404296875,0.3709143358617827
1784816494.776668,-0.0498046837747097,-0.1162109375,0.9814452528953552,0.9895555936638202,-0.0362396240234375,-0.6351470947265625,0.5359649658203125,0.8318555084122012
1784816494.787328,-0.0576171875,-0.109375,0.9838866591453552,0.9916227049460993,-0.0362396240234375,-0.3910064697265625,0.4138946533203125,0.5705332188089761
1784816494.797988,-0.0571289025247097,-0.1162109375,0.9711913466453552,0.9797863671725205,-0.2765655517578125,-0.7572174072265625,0.6542205810546875,1.0382057960257947
1784816494.808648,-0.0532226525247097,-0.09228515625,0.9780272841453552,0.9838122632588965,0.026702880859375,-0.820159912109375,0.8373260498046875,1.172386556967867
1784816494.816659,-0.0561523400247097,-0.1162109375,0.9951171278953552,1.003452124177123,-0.156402587890625,-0.698089599609375,0.5970001220703125,0.931772506749169
1784816494.82467,-0.0566406212747097,-0.11376953125,0.9804686903953552,0.9886710874020808,0.0858306884765625,-0.6351470947265625,0.6542205810546875,0.9158511383950377
1784816494.832681,-0.0332031212747097,-0.103515625,0.9746093153953552,0.9806534808671852,-0.156402587890625,-0.514984130859375,0.4138946533203125,0.6789544966954798
1784816494.840692,-0.0502929650247097,-0.11279296875,0.9819335341453552,0.9896691879661621,0.026702880859375,-0.38909912109375,0.8373260498046875,0.9237023782385974
1784816494.848696,-0.0498046837747097,-0.11376953125,0.9765624403953552,0.9844278606163457,0.2117156982421875,-0.2689361572265625,0.9632110595703125,1.0222160920395116
1784816494.856702,-0.0527343712747097,-0.1025390625,0.9746093153953552,0.9814063841791131,0.026702880859375,-0.148773193359375,0.4749298095703125,0.4984022782121178
1784816494.864707,-0.0458984337747097,-0.10986328125,0.9843749403953552,0.9915496104927616,0.026702880859375,-0.209808349609375,0.4749298095703125,0.5198950965632326
1784816494.872712,-0.0444335862994194,-0.09521484375,0.9726561903953552,0.9783150181695927,-0.0972747802734375,0.1583099365234375,0.3490447998046875,0.39541963930740054
1784816494.883415,-0.0527343712747097,-0.1064453125,0.9760741591453552,0.9832763002423448,-0.2765655517578125,0.2193450927734375,0.1659393310546875,0.39004696606148387
1784816494.894118,-0.0449218712747097,-0.11181640625,0.9736327528953552,0.9810614765324722,-0.2193450927734375,0.0972747802734375,0.1087188720703125,0.26342825540415066
1784816494.90482,-0.0410156212747097,-0.09814453125,0.9799804091453552,0.9857363909846945,-0.278472900390625,0.156402587890625,-0.2574920654296875,0.41025734546757125
1784816494.912801,-0.0449218712747097,-0.11376953125,0.9790038466453552,0.9866154329352792,-0.400543212890625,0.461578369140625,-0.4405975341796875,0.7534027099609375
1784816494.920781,-0.0517578087747097,-0.11328125,0.9785155653953552,0.9864097647994537,-0.522613525390625,0.339508056640625,-0.1964569091796875,0.6534416076510182
1784816494.928761,-0.056640625,-0.115234375,0.9750975966453552,0.9835153504473527,-0.4024505615234375,0.5855560302734375,-0.1964569091796875,0.7371822272847827
1784816494.936741,-0.0585937462747097,-0.10693359375,0.9702147841453552,0.9778469961855041,-0.3414154052734375,0.2193450927734375,-0.1964569091796875,0.45085703481951955
1784816494.944834,-0.0512695275247097,-0.11181640625,0.9843749403953552,0.9920309957040814,-0.5245208740234375,0.0972747802734375,-0.1392364501953125,0.5513359404451591
1784816494.952926,-0.0576171875,-0.11474609375,0.9790038466453552,0.9873879369694042,-0.156402587890625,0.278472900390625,-0.1964569091796875,0.37497232286568516
1784816494.96102,-0.0600585900247097,-0.11279296875,0.9746093153953552,0.9829509681009514,-0.644683837890625,-0.026702880859375,0.1659393310546875,0.6662328093650544
1784816494.969113,-0.0546874962747097,-0.11767578125,0.9838866591453552,0.9924068065998957,-0.278472900390625,-0.026702880859375,0.2918243408203125,0.4042544322495015
1784816494.97965,-0.06201171875,-0.11962890625,0.9843749403953552,0.9935545036641219,0.026702880859375,-0.331878662109375,0.3490447998046875,0.48237823591077683
1784816494.990186,-0.0517578087747097,-0.11962890625,0.9814452528953552,0.9900629931527379,-0.217437744140625,-0.209808349609375,0.4749298095703125,0.562900559745029
1784816495.000724,-0.0541992112994194,-0.12451171875,0.9829100966453552,0.9922464314367373,0.026702880859375,-0.38909912109375,0.4138946533203125,0.5687002320460757
1784816495.008712,-0.0458984337747097,-0.119140625,0.9882811903953552,0.9964942880105346,-0.2765655517578125,-0.0858306884765625,0.4749298095703125,0.5562497060870749
1784816495.0167,-0.0590820275247097,-0.107421875,0.9672850966453552,0.9750233860770522,-0.278472900390625,-0.331878662109375,0.6542205810546875,0.784662456914442
1784816495.024688,-0.0361328087747097,-0.10400390625,0.9868163466453552,0.9929395220212026,-0.217437744140625,-0.209808349609375,0.8373260498046875,0.8901761790928219
1784816495.032676,-0.0498046837747097,-0.1064453125,0.9692382216453552,0.9763369507385102,-0.0362396240234375,0.0362396240234375,0.5359649658203125,0.5384097559345382
1784816495.040691,-0.0405273400247097,-0.10693359375,0.9794921278953552,0.9861450640604248,-0.217437744140625,-0.209808349609375,0.5970001220703125,0.669109753250348
1784816495.048706,-0.0493164025247097,-0.11083984375,0.9877929091453552,0.9952147556574649,-0.0972747802734375,0.0972747802734375,0.4138946533203125,0.43615771207400744
1784816495.056721,-0.0478515587747097,-0.111328125,0.9819335341453552,0.989382225720865,0.0858306884765625,0.1583099365234375,0.1659393310546875,0.24487712158814
1784816495.064735,-0.0581054650247097,-0.11669921875,0.9848632216453552,0.993453832884179,0.148773193359375,-0.026702880859375,0.4138946533203125,0.4406305606238378
1784816495.075387,-0.0400390587747097,-0.11376953125,0.9829100966453552,0.9902822277289394,0.148773193359375,0.156402587890625,0.1087188720703125,0.24169200587829054
1784816495.086037,-0.0434570237994194,-0.115234375,0.9848632216453552,0.992533646507166,0.026702880859375,0.034332275390625,-0.1392364501953125,0.1458716492080604
1784816495.096689,-0.0488281212747097,-0.10205078125,0.9829100966453552,0.9893992144065684,0.148773193359375,0.09918212890625,-0.0743865966796875,0.19365929753644276
1784816495.104692,-0.0595703087747097,-0.09765625,0.9799804091453552,0.9866341607507184,0.026702880859375,-0.209808349609375,-0.4405975341796875,0.48873180225684165
1784816495.112695,-0.0454101525247097,-0.10791015625,0.9814452528953552,0.9884034946341724,0.026702880859375,-0.08392333984375,0.0476837158203125,0.10014942621479093
1784816495.120697,-0.0478515587747097,-0.11328125,0.9785155653953552,0.9862125151303464,-0.0972747802734375,-0.2079010009765625,0.1087188720703125,0.25397834992090007
1784816495.128701,-0.0541992112994194,-0.109375,0.9882811903953552,0.9957912213008003,0.270843505859375,-0.698089599609375,0.0476837158203125,0.7503059579287686
1784816495.136701,-0.0429687462747097,-0.11572265625,0.9877929091453552,0.9954762064880406,-0.0362396240234375,-0.4520416259765625,0.2307891845703125,0.5088404363644111
1784816495.144701,-0.056640625,-0.10546875,0.9833983778953552,0.9906584614659933,0.026702880859375,-0.87738037109375,0.3490447998046875,0.9446383602720624
1784816495.152701,-0.0556640587747097,-0.109375,0.9760741591453552,0.9837591891390832,0.026702880859375,-0.698089599609375,0.2307891845703125,0.7357348575700333
1784816495.160701,-0.05712890625,-0.10546875,0.9916991591453552,0.9989267197374833,0.2689361572265625,-0.8182525634765625,0.4138946533203125,0.9556007002649684
1784816495.171448,-0.0454101525247097,-0.1142578125,0.9687499403953552,0.976521057983701,-0.034332275390625,-1.003265380859375,0.5970001220703125,1.1679594493458976
1784816495.182196,-0.0507812462747097,-0.1240234375,0.9755858778953552,0.9847478627401941,0.0858306884765625,-0.7572174072265625,0.9632110595703125,1.2282184879612594
1784816495.192945,-0.0507812462747097,-0.11767578125,0.9750975966453552,0.9834844418950197,-0.034332275390625,-0.698089599609375,0.5970001220703125,0.9191936357309287
1784816495.200946,-0.0581054612994194,-0.119140625,0.9848632216453552,0.9937435778448468,-0.4024505615234375,-0.8182525634765625,1.0204315185546875,1.3684970574196795
1784816495.208947,-0.0395507737994194,-0.1005859375,0.9921874403953552,0.998056968017945,0.1468658447265625,-0.9403228759765625,1.0204315185546875,1.3953699048968722
1784816495.216948,-0.0390624925494194,-0.1240234375,0.9858397841453552,0.9943780827116265,0.026702880859375,-0.87738037109375,1.0204315185546875,1.3460274304361788
1784816495.224948,-0.0405273400247097,-0.111328125,0.9916991591453552,0.9987510395264171,0.2117156982421875,-0.7572174072265625,0.9632110595703125,1.243373348583465
1784816495.232888,-0.0454101525247097,-0.11962890625,0.9755858778953552,0.9839415441537874,-0.095367431640625,0.278472900390625,0.5970001220703125,0.6656209499570038
1784816495.240829,-0.0434570237994194,-0.1044921875,0.9775390028953552,0.9840679002729861,-0.278472900390625,0.339508056640625,0.7190704345703125,0.842540899095705
1784816495.248769,-0.0444335862994194,-0.1142578125,0.9843749403953552,0.991979442623219,-0.4024505615234375,0.1583099365234375,0.5359649658203125,0.6886849316337288
1784816495.256709,-0.0366210900247097,-0.123046875,0.9799804091453552,0.988353803043506,-0.8907318115234375,0.0972747802734375,0.4138946533203125,0.9870026985698731
1784816495.264705,-0.0541992150247097,-0.091796875,0.9833983778953552,0.9891595375955672,-1.0128021240234375,0.0362396240234375,0.3490447998046875,1.0718739315080112
1784816495.272702,-0.0493163987994194,-0.10986328125,0.9887694716453552,0.9960758584643014,-0.766754150390625,0.156402587890625,-0.1392364501953125,0.7948336213970353
1784816495.2807,-0.0385742112994194,-0.10400390625,0.9736327528953552,0.9799313852526711,-0.644683837890625,0.09918212890625,-0.2574920654296875,0.7012535271148432
1784816495.288697,-0.0434570237994194,-0.1201171875,0.9614257216453552,0.9698742546803196,-0.705718994140625,0.156402587890625,-0.0133514404296875,0.7229656486661643
1784816495.299367,-0.0468749962747097,-0.099609375,0.9804686903953552,0.9866296902633873,-0.461578369140625,-0.148773193359375,-0.3223419189453125,0.5823163801836692
1784816495.310036,-0.0478515587747097,-0.111328125,0.9770507216453552,0.984536355733446,-0.4024505615234375,-0.2689361572265625,-0.1964569091796875,0.5223872397931983
1784816495.320707,-0.02880859375,-0.10400390625,0.9838866591453552,0.989787707356138,-0.644683837890625,-0.026702880859375,-0.0133514404296875,0.6453747404765103
1784816495.328708,-0.0356445275247097,-0.11328125,0.9809569716453552,0.9881193015844031,-0.461578369140625,-0.148773193359375,-0.1964569091796875,0.523243128082253
1784816495.336709,-0.0458984337747097,-0.1181640625,0.9736327528953552,0.9818503701685217,-0.156402587890625,0.034332275390625,0.1087188720703125,0.19354655196263088
1784816495.34471,-0.04736328125,-0.1005859375,0.9799804091453552,0.9862669078612637,0.026702880859375,-0.209808349609375,0.0476837158203125,0.21680941899841902
1784816495.352711,-0.05712890625,-0.10986328125,0.9853515028953552,0.9931018259747956,-0.400543212890625,-0.026702880859375,0.1087188720703125,0.4158938595160735
1784816495.360703,-0.0527343712747097,-0.1064453125,0.9790038466453552,0.9861845923625879,-0.2193450927734375,-0.1468658447265625,0.5970001220703125,0.6527564567455482
1784816495.368695,-0.0566406212747097,-0.11083984375,0.9790038466453552,0.9868850807907229,-0.4596710205078125,-0.2689361572265625,0.6542205810546875,0.843580863008412
1784816495.376687,-0.0551757775247097,-0.1083984375,0.9726561903953552,0.9802319380597141,-0.400543212890625,-0.209808349609375,0.7801055908203125,0.9016757409333264
1784816495.384679,-0.0395507737994194,-0.1142578125,0.9682616591453552,0.9757816108107049,-0.278472900390625,-0.148773193359375,0.7190704345703125,0.7853298091804812
1784816495.395377,-0.0493164025247097,-0.10595703125,0.9794921278953552,0.9864399772101005,-0.217437744140625,-0.026702880859375,0.5970001220703125,0.6359255948419767
1784816495.406075,-0.0424804650247097,-0.11083984375,0.9697265028953552,0.9769644575361457,-0.034332275390625,-0.026702880859375,0.5359649658203125,0.5377268763661125
1784816495.416773,-0.0449218712747097,-0.103515625,0.9804686903953552,0.986940885759398,-0.4024505615234375,0.3414154052734375,0.4138946533203125,0.6707009150699718
1784816495.424792,-0.0405273400247097,-0.10888671875,0.9755858778953552,0.9824798155476127,-0.0972747802734375,0.4634857177734375,0.1659393310546875,0.5018139645805817
1784816495.432811,-0.0458984337747097,-0.1142578125,0.9672850966453552,0.9750907507162966,-0.400543212890625,0.461578369140625,0.2307891845703125,0.6532634261658106
1784816495.44083,-0.0488281212747097,-0.1025390625,0.9760741591453552,0.9826592537176398,-0.4024505615234375,0.2193450927734375,-0.1964569091796875,0.49867227851441076
1784816495.448849,-0.0410156212747097,-0.1083984375,0.9838866591453552,0.9906893864805458,-0.522613525390625,-0.026702880859375,-0.3795623779296875,0.6464561388888239
1784816495.456838,-0.0512695275247097,-0.1162109375,0.9853515028953552,0.9935044693937573,-0.2765655517578125,-0.4520416259765625,-0.1964569091796875,0.5651773643725249
1784816495.464827,-0.04248046875,-0.11962890625,0.9692382216453552,0.9775164426924192,-0.339508056640625,-0.514984130859375,-0.0133514404296875,0.6169705313241688
1784816495.472816,-0.0429687462747097,-0.11376953125,0.9790038466453552,0.9865284340269506,-0.461578369140625,-0.148773193359375,-0.0743865966796875,0.4906336919601543
1784816495.482789,-0.0463867150247097,-0.1181640625,0.9760741591453552,0.9842942838138398,-0.0972747802734375,0.2193450927734375,-0.1392364501953125,0.27741925251147437
1784816495.492762,-0.0410156212747097,-0.11474609375,0.9809569716453552,0.9884965996092553,-0.217437744140625,0.156402587890625,0.1087188720703125,0.2890687378809572
1784816495.502735,-0.0600585862994194,-0.11474609375,0.9785155653953552,0.9870493460512297,-0.2193450927734375,0.0362396240234375,-0.1392364501953125,0.2623211183571383
1784816495.512707,-0.0493163987994194,-0.109375,0.9716796278953552,0.9790588833580948,-0.339508056640625,-0.026702880859375,-0.1392364501953125,0.36792058033368497
1784816495.520695,-0.0556640587747097,-0.119140625,0.9760741591453552,0.9848927556419416,-0.2193450927734375,-0.0858306884765625,0.2307891845703125,0.3297617693468701
1784816495.528683,-0.0493163987994194,-0.1201171875,0.9765624403953552,0.9851570666215541,-0.278472900390625,0.278472900390625,0.4138946533203125,0.5713169843012508
1784816495.536671,-0.0522460900247097,-0.12060546875,0.9838866591453552,0.9926269647050123,-0.2765655517578125,0.0972747802734375,0.4138946533203125,0.5072077201142452
1784816495.54466,-0.0439453087747097,-0.12109375,0.9790038466453552,0.9874428683213876,-0.2765655517578125,-0.4520416259765625,0.5359649658203125,0.7537165121061143
1784816495.555382,-0.0473632775247097,-0.10888671875,0.9775390028953552,0.9847243775593603,-0.522613525390625,-0.026702880859375,0.5970001220703125,0.7938810279376725
1784816495.566106,-0.0463867150247097,-0.12353515625,0.9760741591453552,0.9849535147974283,-0.278472900390625,-0.209808349609375,0.9632110595703125,1.0243740747873018
1784816495.576829,-0.0454101525247097,-0.10986328125,0.9824218153953552,0.9895881193122922,-0.400543212890625,-0.026702880859375,0.5970001220703125,0.7194143833639293
1784816495.584792,-0.04296875,-0.10986328125,0.9731444716453552,0.9802685431745205,-0.217437744140625,0.278472900390625,0.4749298095703125,0.5919329800301923
1784816495.592755,-0.0449218712747097,-0.11865234375,0.9750975966453552,0.983316671362658,-0.095367431640625,0.278472900390625,0.5359649658203125,0.6114740778287049
1784816495.600718,-0.0522460900247097,-0.111328125,0.9902343153953552,0.9978414727427366,0.209808349609375,0.09918212890625,0.4138946533203125,0.4745159874096208
1784816495.608681,-0.0449218712747097,-0.1064453125,0.9775390028953552,0.9843429693220191,-0.095367431640625,0.278472900390625,0.2918243408203125,0.41449191688729725
1784816495.616699,-0.0439453050494194,-0.1142578125,0.9785155653953552,0.9861433715612367,-0.156402587890625,0.278472900390625,0.2918243408203125,0.432631912422167
1784816495.624717,-0.0493164025247097,-0.1171875,0.9912108778953552,0.9993317878324045,-0.156402587890625,0.40435791015625,0.2918243408203125,0.5226170059422335
1784816495.632735,-0.0385742150247097,-0.11767578125,0.9824218153953552,0.9901960325724779,-0.5245208740234375,0.2193450927734375,0.2307891845703125,0.6135943812688709
1784816495.640753,-0.0590820275247097,-0.12060546875,0.9707030653953552,0.9799493896302895,-0.583648681640625,0.278472900390625,-0.0743865966796875,0.6509426284999263
1784816495.651431,-0.0449218712747097,-0.1142578125,0.9873046278953552,0.9949086644007542,-0.5855560302734375,0.5245208740234375,-0.1964569091796875,0.8103044668767004
1784816495.662109,-0.0449218712747097,-0.1220703125,0.9731444716453552,0.9817990112067677,-0.461578369140625,0.339508056640625,-0.0133514404296875,0.5731479497860569
1784816495.672787,-0.0532226487994194,-0.1142578125,0.9790038466453552,0.9870846112714521,-0.644683837890625,-0.026702880859375,0.2918243408203125,0.7081608154782256
1784816495.680754,-0.0610351525247097,-0.10302734375,0.9794921278953552,0.9867850586692454,-0.4024505615234375,0.0972747802734375,0.1659393310546875,0.4460545918815912
1784816495.688721,-0.0400390587747097,-0.107421875,0.9731444716453552,0.9798738429767364,-0.278472900390625,-0.209808349609375,0.4138946533203125,0.5411797149421977
1784816495.696688,-0.0541992112994194,-0.11962890625,0.9755858778953552,0.9843863239932285,-0.4596710205078125,-0.0858306884765625,0.5970001220703125,0.7583360072758134
1784816495.704655,-0.0512695275247097,-0.115234375,0.9790038466453552,0.9870947560293539,-0.2193450927734375,-0.1468658447265625,0.5970001220703125,0.6527564567455482
1784816495.712659,-0.0424804650247097,-0.11328125,0.9877929091453552,0.9951743881692907,-0.0972747802734375,-0.4520416259765625,0.5359649658203125,0.7078576545320031
1784816495.720663,-0.0512695275247097,-0.10986328125,0.9868163466453552,0.994235891036986,-0.278472900390625,-0.331878662109375,0.7190704345703125,0.8394956179091191
1784816495.728667,-0.0454101525247097,-0.10595703125,0.9907225966453552,0.997406756507768,-0.5855560302734375,-0.2689361572265625,0.6542205810546875,0.9182630831787316
1784816495.73667,-0.0473632775247097,-0.12890625,0.9726561903953552,0.9823034999740918,-0.0972747802734375,-0.1468658447265625,0.7801055908203125,0.7997478928097286
1784816495.747333,-0.0419921875,-0.10546875,0.9672850966453552,0.9739237440527938,-0.400543212890625,-0.209808349609375,1.0204315185546875,1.1161249450748691
1784816495.757994,-0.0463867150247097,-0.12109375,0.9731444716453552,0.9817461924111363,-0.644683837890625,-0.08392333984375,0.9632110595703125,1.1620825801493109
1784816495.768657,-0.0458984337747097,-0.12353515625,0.9721679091453552,0.9810596539582774,-0.7648468017578125,-0.2689361572265625,0.9632110595703125,1.2590046989989787
1784816495.776694,-0.0551757775247097,-0.09912109375,0.9711913466453552,0.9777944515338953,-1.0738372802734375,-0.2689361572265625,1.0852813720703125,1.550254436449599
1784816495.784731,-0.0483398362994194,-0.11962890625,0.9868163466453552,0.9952157137980246,-1.071929931640625,-0.209808349609375,0.6542205810546875,1.2732077169843175
1784816495.792768,-0.0551757775247097,-0.11865234375,0.9921874403953552,1.0007790275485948,-0.827789306640625,0.278472900390625,0.8373260498046875,1.2099161979749076
1784816495.800805,-0.0463867150247097,-0.111328125,0.9750975966453552,0.9825278630809139,-0.217437744140625,0.461578369140625,0.6542205810546875,0.8296615768558985
1784816495.808772,-0.0439453050494194,-0.11376953125,0.9741210341453552,0.9817262781657358,-0.156402587890625,0.09918212890625,1.0204315185546875,1.0371014165707644
1784816495.816739,-0.0390624962747097,-0.09765625,0.9760741591453552,0.9817246996641097,-0.522613525390625,0.644683837890625,0.9632110595703125,1.2714234908311106
1784816495.824706,-0.0532226487994194,-0.10888671875,0.9755858778953552,0.9830853335363207,-0.827789306640625,0.09918212890625,0.9021759033203125,1.2284110026431563
1784816495.832673,-0.0424804650247097,-0.111328125,0.9799804091453552,0.9871981278514608,-0.7648468017578125,0.7076263427734375,0.4749298095703125,1.1451130927399957
1784816495.843328,-0.0405273400247097,-0.1083984375,0.9775390028953552,0.9843653735902971,-0.766754150390625,0.156402587890625,0.3490447998046875,0.8568581965009311
1784816495.853985,-0.0429687462747097,-0.1123046875,0.9829100966453552,0.9902378068314068,-0.217437744140625,0.461578369140625,0.4138946533203125,0.6569950893900385
1784816495.86464,-0.0473632775247097,-0.119140625,0.9790038466453552,0.9873633071618955,-0.278472900390625,0.461578369140625,0.4749298095703125,0.7184428099222507
1784816495.872791,-0.0444335862994194,-0.11962890625,0.9716796278953552,0.9800238354595541,-0.034332275390625,0.339508056640625,0.4138946533203125,0.5364263320387369
1784816495.88094,-0.0498046837747097,-0.11181640625,0.9848632216453552,0.992440920449289,-0.3414154052734375,0.4024505615234375,0.5970001220703125,0.7968312739724287
1784816495.889091,-0.0532226525247097,-0.11669921875,0.9809569716453552,0.9893067970140772,-0.4024505615234375,0.2193450927734375,0.7190704345703125,0.8527256382139897
1784816495.897241,-0.0424804650247097,-0.11669921875,0.9599608778953552,0.9679608383892383,-0.766754150390625,0.339508056640625,0.5359649658203125,0.995206557580843
1784816495.905101,-0.0615234337747097,-0.11181640625,0.9809569716453552,0.9892242525482897,-0.461578369140625,0.09918212890625,0.6542205810546875,0.8067814166355272
1784816495.912961,-0.0444335900247097,-0.10693359375,0.9765624403953552,0.9834039543268605,-0.339508056640625,0.09918212890625,0.7190704345703125,0.8013520481607368
1784816495.92082,-0.0463867150247097,-0.12353515625,0.9931640028953552,1.0018919097425734,-0.4024505615234375,-0.0858306884765625,0.7190704345703125,0.8284899826962477
1784816495.928681,-0.0488281175494194,-0.125,0.9721679091453552,0.9813865847032307,0.3910064697265625,0.2803802490234375,0.9021759033203125,1.0224580695276926
1784816495.936689,-0.0498046837747097,-0.10400390625,0.9741210341453552,0.9809225801283066,0.2117156982421875,0.2193450927734375,0.9021759033203125,0.952290484640998
1784816495.944697,-0.0478515587747097,-0.1025390625,0.9692382216453552,0.9758210703370773,-0.5855560302734375,0.1583099365234375,0.7190704345703125,0.9407444873422218
1784816495.952704,-0.0493164025247097,-0.126953125,0.9829100966453552,0.9923010942212179,-0.461578369140625,0.09918212890625,1.0852813720703125,1.1835232748517095
1784816495.960713,-0.0551757775247097,-0.130859375,0.9921874403953552,1.0022995856175605,-0.4024505615234375,0.2193450927734375,0.7190704345703125,0.8527256382139897
1784816495.971373,-0.0449218712747097,-0.11083984375,0.9868163466453552,0.9940371962295133,-0.461578369140625,0.278472900390625,0.9632110595703125,1.1038012920761826
1784816495.982033,-0.0493164025247097,-0.12353515625,0.9848632216453552,0.9938051155721424,-0.339508056640625,0.034332275390625,0.7801055908203125,0.8514746963277889
1784816495.992692,-0.0434570237994194,-0.1103515625,0.9799804091453552,0.9871309855193445,-0.3414154052734375,0.2193450927734375,0.9632110595703125,1.0452044268756124
1784816496.000735,-0.0483398362994194,-0.1108398362994194,0.9726561903953552,0.9801440066636853,-0.0362396240234375,0.0972747802734375,0.7801055908203125,0.7869818460776046
1784816496.008777,-0.0395507775247097,-0.1181640625,0.9599608778953552,0.9680144093756735,-0.034332275390625,0.156402587890625,0.9632110595703125,0.976430243238577
1784816496.016819,-0.0385742112994194,-0.10009765625,0.9814452528953552,0.9872903802807678,-0.5855560302734375,0.5855560302734375,0.5359649658203125,0.9864127806176999
1784816496.024861,-0.0410156212747097,-0.11474609375,0.9731444716453552,0.9807441612945508,-0.7648468017578125,1.0738372802734375,0.4749298095703125,1.4013120490036117
1784816496.032841,-0.0390624925494194,-0.11474609375,0.9819335341453552,0.9893866836754195,-0.644683837890625,1.499176025390625,0.4749298095703125,1.6996188778552417
1784816496.040823,-0.0610351525247097,-0.1015625,0.9775390028953552,0.9846942334712893,-0.644683837890625,1.010894775390625,0.2918243408203125,1.2339720189877312
1784816496.048804,-0.0566406212747097,-0.1162109375,0.9697265028953552,0.9783060014078772,-1.0738372802734375,0.9517669677734375,0.1659393310546875,1.4444800888349323
1784816496.056785,-0.0507812462747097,-0.11474609375,0.9804686903953552,0.9884656058000599,-1.0128021240234375,0.7076263427734375,0.2918243408203125,1.269513540419521
1784816496.067417,-0.0546874925494194,-0.10986328125,0.9765624403953552,0.9842432943125856,-1.0738372802734375,0.6465911865234375,0.4138946533203125,1.320043730730911
1784816496.078048,-0.0551757775247097,-0.11376953125,0.9931640028953552,1.0011806077393959,-1.5010833740234375,0.5245208740234375,0.4138946533203125,1.6430709744569891
1784816496.088681,-0.06494140625,-0.1123046875,0.9877929091453552,0.996275343686696,-1.0128021240234375,0.7076263427734375,0.5970001220703125,1.3721925262751087
1784816496.096693,-0.0615234337747097,-0.123046875,0.9755858778953552,0.9852377740929078,-0.766754150390625,0.461578369140625,0.7801055908203125,1.1872368132891082
1784816496.104705,-0.0385742112994194,-0.1298828125,0.9677733778953552,0.9772117609419508,-1.0738372802734375,0.0972747802734375,0.9021759033203125,1.4058841516690201
1784816496.112716,-0.0561523400247097,-0.11572265625,0.9760741591453552,0.9845128656402203,-0.705718994140625,-0.026702880859375,1.1425018310546875,1.3431540404958617
1784816496.120728,-0.0600585900247097,-0.12060546875,0.9809569716453552,0.9901662959057885,-0.644683837890625,0.217437744140625,0.9021759033203125,1.129963620629519
1784816496.128729,-0.0488281212747097,-0.111328125,0.9628905653953552,0.9705340683204378,-0.8296966552734375,-0.0858306884765625,0.8373260498046875,1.1818960870304174
1784816496.136729,-0.0527343712747097,-0.111328125,0.9868163466453552,0.9944754231936758,-1.194000244140625,-0.209808349609375,1.1425018310546875,1.6658230880069453
1784816496.144729,-0.0556640587747097,-0.13134765625,0.9931640028953552,1.0033570804498106,-0.4596710205078125,-0.2689361572265625,1.1425018310546875,1.2605294672167715
1784816496.152729,-0.0546874962747097,-0.11669921875,0.9638671278953552,0.9724449959472761,-0.0972747802734375,0.2193450927734375,1.2683868408203125,1.290883352812006
1784816496.163372,-0.0556640587747097,-0.09375,0.9711913466453552,0.9772922703767245,-0.644683837890625,-0.514984130859375,1.5087127685546875,1.7196046417343498
1784816496.174015,-0.0439453050494194,-0.11962890625,0.9721679091453552,0.9804859553397537,-1.194000244140625,-0.514984130859375,1.2073516845703125,1.774413516709008
1784816496.184658,-0.0390624962747097,-0.130859375,0.9746093153953552,0.9841307699162776,-0.827789306640625,-0.57220458984375,1.3256072998046875,1.6642980328421637
1784816496.192662,-0.0493164025247097,-0.11669921875,0.9829100966453552,0.99104140847001,-0.5855560302734375,-0.1468658447265625,0.7801055908203125,0.9864127806176999
1784816496.200666,-0.0356445275247097,-0.1220703125,0.9814452528953552,0.9896496743631734,-0.2765655517578125,-0.4520416259765625,0.5970001220703125,0.7982726863588693
1784816496.20867,-0.0341796800494194,-0.13037109375,0.9970702528953552,1.0061381425145652,-0.522613525390625,0.156402587890625,0.2307891845703125,0.5923261889657859
1784816496.216674,-0.0493163987994194,-0.11474609375,0.9931640028953552,1.0009862685714286,0.148773193359375,0.339508056640625,-0.0743865966796875,0.378064213265189
1784816496.227357,-0.0429687462747097,-0.1162109375,0.9584960341453552,0.9664708700335584,0.4520416259765625,0.2193450927734375,-0.0133514404296875,0.5026252702569478
1784816496.238039,-0.0512695275247097,-0.1201171875,0.9702147841453552,0.9789654899738475,-0.278472900390625,-0.331878662109375,-0.0743865966796875,0.43957248364867213
1784816496.248723,-0.0424804650247097,-0.12158203125,0.9887694716453552,0.9971217820755028,-0.7076263427734375,-0.5741119384765625,-0.1964569091796875,0.9321667640785434
1784816496.25676,-0.0488281212747097,-0.1162109375,0.9824218153953552,0.9904755377022454,0.026702880859375,-0.38909912109375,-0.3795623779296875,0.544223087181863
1784816496.264797,-0.0522460900247097,-0.10693359375,0.9765624403953552,0.9837879077250806,-0.2193450927734375,-0.0858306884765625,-0.4405975341796875,0.49960520807270364
1784816496.272834,-0.0546874962747097,-0.12890625,0.9819335341453552,0.991867435203438,-0.156402587890625,-0.209808349609375,-0.4405975341796875,0.5124524370026113
1784816496.280871,-0.0493164025247097,-0.11767578125,0.9907225966453552,0.9989048806340333,0.0858306884765625,0.0362396240234375,0.1087188720703125,0.14317824757260372
1784816496.288826,-0.0493163987994194,-0.119140625,0.9663085341453552,0.9748737245808193,0.148773193359375,-0.148773193359375,0.3490447998046875,0.4075526940107087
1784816496.296781,-0.0507812462747097,-0.111328125,0.9619140028953552,0.969665527568859,-0.4596710205078125,-0.2689361572265625,0.1659393310546875,0.5578171432910263
1784816496.304735,-0.0488281175494194,-0.1206054612994194,0.9794921278953552,0.9880964988135706,-0.5855560302734375,-0.0247955322265625,0.3490447998046875,0.6821458460466352
1784816496.312691,-0.0415039025247097,-0.13623046875,0.9892577528953552,0.9994559601123969,-0.522613525390625,-0.026702880859375,0.3490447998046875,0.629023221382249
1784816496.323366,-0.0449218712747097,-0.11669921875,0.9829100966453552,0.9908324481278676,0.0858306884765625,0.1583099365234375,0.4138946533203125,0.4513731573028653
1784816496.334041,-0.0478515587747097,-0.12109375,0.9912108778953552,0.9997261987285883,0.2117156982421875,-0.0858306884765625,0.5970001220703125,0.6392179516553848
1784816496.344716,-0.0463867150247097,-0.1201171875,0.9687499403953552,0.9772698261379495,0.270843505859375,-0.026702880859375,0.5970001220703125,0.6561085232370901
1784816496.352757,-0.0502929650247097,-0.11376953125,0.9824218153953552,0.990265374501465,-0.156402587890625,0.034332275390625,0.5359649658203125,0.5593736847753487
1784816496.360798,-0.0507812462747097,-0.12158203125,0.9731444716453552,0.9820239752623182,0.2117156982421875,0.0362396240234375,0.6542205810546875,0.6885792735096447
1784816496.368839,-0.0463867150247097,-0.11572265625,0.9736327528953552,0.9815824967932788,-0.2193450927734375,-0.0858306884765625,0.7801055908203125,0.8148888940446161
1784816496.37688,-0.0473632775247097,-0.12841796875,0.9785155653953552,0.9880420874015187,-0.400543212890625,0.461578369140625,0.3490447998046875,0.7037909693381679
1784816496.385063,-0.0454101525247097,-0.12451171875,0.9750975966453552,0.984063297274085,-0.0972747802734375,0.6465911865234375,0.3490447998046875,0.741198231000133
1784816496.393246,-0.0424804650247097,-0.111328125,0.9741210341453552,0.9813818474422418,0.2689361572265625,0.8296966552734375,0.5359649658203125,1.0237097445186738
1784816496.401428,-0.0561523400247097,-0.1064453125,0.9702147841453552,0.9776504575857833,-0.2765655517578125,0.5855560302734375,0.2918243408203125,0.7102998063521487
1784816496.409611,-0.0473632775247097,-0.1259765625,0.9677733778953552,0.9770868361206106,-0.156402587890625,0.156402587890625,-0.0743865966796875,0.23336003248919007
1784816496.419971,-0.0327148400247097,-0.11181640625,0.9921874403953552,0.9990040472104175,0.0858306884765625,0.2193450927734375,-0.0133514404296875,0.23591828621303632
1784816496.430332,-0.0507812462747097,-0.10986328125,0.9824218153953552,0.9898491293651446,-0.156402587890625,0.217437744140625,-0.0133514404296875,0.2681775587878226
1784816496.440692,-0.0541992150247097,-0.11181640625,0.9877929091453552,0.9955778698694562,-0.034332275390625,0.156402587890625,-0.1964569091796875,0.2534478088222867
1784816496.44871,-0.0610351525247097,-0.12646484375,0.9697265028953552,0.9798408732881487,-0.0972747802734375,0.2193450927734375,-0.0133514404296875,0.24031835877140337
1784816496.456728,-0.0463867150247097,-0.10595703125,0.9682616591453552,0.9751457636543437,-0.5245208740234375,0.5245208740234375,-0.0133514404296875,0.7419046808951734
1784816496.464746,-0.0625,-0.115234375,0.9741210341453552,0.982902335100521,-0.156402587890625,0.58746337890625,0.1087188720703125,0.6175716834498437
1784816496.472764,-0.0512695275247097,-0.12255859375,0.9897460341453552,0.998622243624206,-0.2765655517578125,0.2193450927734375,0.4138946533203125,0.543975696322945
1784816496.480737,-0.0610351525247097,-0.1162109375,0.9775390028953552,0.9863127161402659,-0.4024505615234375,-0.0858306884765625,0.0476837158203125,0.41425487119564836
1784816496.488712,-0.0532226487994194,-0.1181640625,0.9868163466453552,0.9952898562821868,-0.461578369140625,-0.148773193359375,0.3490447998046875,0.5975117791236918
1784816496.496686,-0.0493164025247097,-0.12158203125,0.9760741591453552,0.9848528123695274,-0.278472900390625,-0.026702880859375,0.2307891845703125,0.3626621676061437
1784816496.50466,-0.0444335862994194,-0.1142578125,0.9697265028953552,0.9774449763165026,-0.461578369140625,-0.331878662109375,-0.1392364501953125,0.5853074630354712
1784816496.515341,-0.0483398362994194,-0.1157226487994194,0.9736327528953552,0.9816767333135671,-0.339508056640625,-0.148773193359375,0.2307891845703125,0.4366495520447371
1784816496.526022,-0.0546874962747097,-0.11376953125,0.9809569716453552,0.9890454027542251,-0.2193450927734375,-0.3299713134765625,0.3490447998046875,0.5280394016661353
1784816496.536702,-0.0493164025247097,-0.13037109375,0.9760741591453552,0.9859764164496343,-0.156402587890625,-0.148773193359375,0.0476837158203125,0.2210632699379591
1784816496.544699,-0.0424804650247097,-0.1220703125,0.9765624403953552,0.9850786522372186,0.026702880859375,-0.87738037109375,0.5359649658203125,1.028478392584679
1784816496.552695,-0.0595703087747097,-0.1162109375,0.9916991591453552,1.0002603790672446,-0.0972747802734375,-0.3910064697265625,-0.0133514404296875,0.4031460073060656
1784816496.560691,-0.0493164025247097,-0.12646484375,0.9726561903953552,0.9820822414528717,-0.217437744140625,-0.514984130859375,0.1659393310546875,0.5831155024562689
1784816496.568686,-0.0483398362994194,-0.123046875,0.9809569716453552,0.9898251630668653,0.148773193359375,-0.209808349609375,-0.0743865966796875,0.2677431089565933
1784816496.576679,-0.0483398362994194,-0.1142578125,0.9716796278953552,0.979567704019276,0.0858306884765625,0.0362396240234375,0.0476837158203125,0.10466113981871757
1784816496.584671,-0.0512695275247097,-0.12060546875,0.9824218153953552,0.9911240421409016,-0.156402587890625,-0.331878662109375,0.0476837158203125,0.36997155649701735
1784816496.592663,-0.0571289025247097,-0.12353515625,0.9804686903953552,0.9898704456538606,-0.461578369140625,-0.209808349609375,-0.2574920654296875,0.5686618487146604
1784816496.600655,-0.0434570237994194,-0.125,0.9677733778953552,0.9767798236452723,-0.4024505615234375,-0.1468658447265625,-0.0743865966796875,0.4348211087141049
1784816496.61133,-0.0415039025247097,-0.119140625,0.9804686903953552,0.9885524342672746,-0.461578369140625,0.034332275390625,-0.1964569091796875,0.5028206570502576
1784816496.622005,-0.0346679650247097,-0.1083984375,0.9750975966453552,0.9817165640015165,-0.278472900390625,0.156402587890625,-0.1392364501953125,0.34841887838325203
1784816496.63268,-0.0507812462747097,-0.1298828125,0.9843749403953552,0.9942043568776401,-0.217437744140625,0.278472900390625,-0.2574920654296875,0.4371824477128254
1784816496.640799,-0.0507812462747097,-0.12255859375,0.9809569716453552,0.9898868238818095,-0.5245208740234375,0.0362396240234375,-0.3223419189453125,0.6167169288620326
1784816496.648917,-0.0551757775247097,-0.123046875,0.9731444716453552,0.9824434144349686,-0.522613525390625,-0.148773193359375,-0.0133514404296875,0.5435408181039497
1784816496.657037,-0.0605468712747097,-0.11962890625,0.9838866591453552,0.9929803406291264,-0.644683837890625,-0.148773193359375,0.1087188720703125,0.6705001916807873
1784816496.665156,-0.0566406212747097,-0.1220703125,0.9809569716453552,0.9901443841136801,-0.705718994140625,-0.026702880859375,0.0476837158203125,0.7078319569583432
1784816496.67306,-0.0493164025247097,-0.10595703125,0.9726561903953552,0.9796525224505361,-0.5855560302734375,-0.0858306884765625,0.1087188720703125,0.601716349136525
1784816496.680964,-0.0498046837747097,-0.126953125,0.9731444716453552,0.9826534308529544,-0.5855560302734375,-0.1468658447265625,-0.0133514404296875,0.6038407918469745
1784816496.688868,-0.0498046837747097,-0.12255859375,0.9858397841453552,0.9946764275037571,-0.2765655517578125,0.0972747802734375,0.2918243408203125,0.41365726536779057
1784816496.696772,-0.0532226487994194,-0.1259765625,0.9633788466453552,0.9730372792489903,-0.339508056640625,-0.637054443359375,0.1087188720703125,0.7300163542497236
1784816496.707442,-0.0605468712747097,-0.1171875,0.9707030653953552,0.9796240477577842,-0.461578369140625,-0.331878662109375,0.3490447998046875,0.6671059207447662
1784816496.718112,-0.0449218712747097,-0.12353515625,0.9882811903953552,0.9969847644963257,-0.4024505615234375,-0.4520416259765625,0.1087188720703125,0.614921034955144
1784816496.728781,-0.0468749962747097,-0.1240234375,0.9716796278953552,0.9806836276760852,-0.156402587890625,-0.453948974609375,-0.1964569091796875,0.518774284455411
1784816496.736754,-0.0463867150247097,-0.126953125,0.9765624403953552,0.985871707307285,0.0858306884765625,-0.4520416259765625,0.2307891845703125,0.514754491398108
1784816496.744725,-0.0537109337747097,-0.11767578125,0.9868163466453552,0.9952582357892021,-0.461578369140625,-0.38909912109375,0.2307891845703125,0.6463098054409182
1784816496.752698,-0.0551757775247097,-0.12158203125,0.9760741591453552,0.9851636010834163,-0.522613525390625,-0.148773193359375,0.0476837158203125,0.5454650279697093
1784816496.76067,-0.0498046837747097,-0.12255859375,0.9692382216453552,0.9782248441570717,-0.827789306640625,-0.87738037109375,0.1087188720703125,1.2111363444771255
1784816496.768686,-0.0483398362994194,-0.11865234375,0.9750975966453552,0.9834787447801658,-0.8296966552734375,-0.0858306884765625,0.2307891845703125,0.8654635142921507
1784816496.776702,-0.0395507737994194,-0.12890625,0.9760741591453552,0.9853435183470318,-1.1959075927734375,0.0362396240234375,0.2307891845703125,1.2185121782391621
1784816496.784718,-0.0561523400247097,-0.12841796875,0.9858397841453552,0.9957531521375602,-1.499176025390625,-0.331878662109375,0.2918243408203125,1.5629567004126348
1784816496.792734,-0.0468749962747097,-0.12060546875,0.9858397841453552,0.9942952400428767,-1.682281494140625,-0.331878662109375,-0.3223419189453125,1.744740320105221
1784816496.803426,-0.0405273400247097,-0.11474609375,0.9843749403953552,0.9918685167897615,-1.2531280517578125,-0.3910064697265625,-0.0743865966796875,1.3148191279548478
1784816496.814118,-0.0502929650247097,-0.107421875,0.9902343153953552,0.9973128099778926,-1.0738372802734375,0.0362396240234375,0.0476837158203125,1.0755061839007927
1784816496.82481,-0.0527343712747097,-0.11376953125,0.9736327528953552,0.9816746699722732,-0.7648468017578125,0.2193450927734375,-0.4405975341796875,0.9095213504960525
1784816496.832788,-0.0527343712747097,-0.1123046875,0.9711913466453552,0.9790842091194353,-1.0738372802734375,0.7076263427734375,-0.4405975341796875,1.359407125410627
1784816496.840767,-0.0449218712747097,-0.119140625,0.9775390028953552,0.9857966145335748,-1.3790130615234375,0.3414154052734375,-0.3795623779296875,1.4704792081324742
1784816496.848747,-0.0595703087747097,-0.1328125,0.9853515028953552,0.9960448614906356,-1.621246337890625,0.644683837890625,-0.3795623779296875,1.7855320041099199
1784816496.856725,-0.0581054612994194,-0.119140625,0.9882811903953552,0.9971311069500687,-1.2531280517578125,0.0362396240234375,-0.0133514404296875,1.2537230497255916
1784816496.864719,-0.0590820237994194,-0.11474609375,0.9819335341453552,0.9903791279334931,-1.5010833740234375,0.2193450927734375,-0.0743865966796875,1.5188472376308821
1784816496.872712,-0.0615234337747097,-0.11669921875,0.9965819716453552,1.0052758162657824,-0.9479522705078125,0.4024505615234375,-0.0133514404296875,1.0299311737164745
1784816496.880704,-0.0590820275247097,-0.13134765625,0.9916991591453552,1.0021028465324322,-0.644683837890625,-0.209808349609375,-0.1392364501953125,0.6921152963677274
1784816496.888698,-0.0561523400247097,-0.1279296875,0.9985350966453552,1.0082615878166972,-0.400543212890625,-0.209808349609375,-0.0133514404296875,0.45236342681532266
1784816496.899654,-0.0610351525247097,-0.1298828125,0.9760741591453552,0.9865675845971916,0.0286102294921875,-0.2689361572265625,0.2918243408203125,0.39787767943250585
1784816496.91061,-0.04736328125,-0.11962890625,0.9853515028953552,0.9937162270384202,-0.156402587890625,0.09918212890625,0.1659393310546875,0.24866589187932037
1784816496.921566,-0.0590820237994194,-0.13427734375,0.9672850966453552,0.9783463337555903,0.0858306884765625,-0.4520416259765625,0.0476837158203125,0.4625821823787936
1784816496.929354,-0.0512695275247097,-0.13916015625,0.9687499403953552,0.9800359996225321,0.026702880859375,0.278472900390625,0.0476837158203125,0.28378501872471923
1784816496.937144,-0.0571289025247097,-0.1171875,0.9775390028953552,0.9861942627300024,-0.0362396240234375,-0.0858306884765625,-0.0133514404296875,0.09411948998623144
1784816496.944933,-0.0590820237994194,-0.1298828125,0.9746093153953552,0.98499926303249,-0.4024505615234375,-0.0858306884765625,-0.0743865966796875,0.41817069160867476
1784816496.952722,-0.0419921837747097,-0.12646484375,0.9863280653953552,0.9952887785911309,-0.0972747802734375,-0.2079010009765625,0.1659393310546875,0.28323324429730945
1784816496.963479,-0.0468749962747097,-0.1162109375,0.9838866591453552,0.9918342630271407,-0.034332275390625,-0.331878662109375,0.1087188720703125,0.35091586547383036
1784816496.974236,-0.0419921837747097,-0.1142578125,0.9780272841453552,0.9855737211128316,0.0858306884765625,-0.3910064697265625,-0.0133514404296875,0.4005386715586117
1784816496.984993,-0.0468749962747097,-0.11669921875,0.9780272841453552,0.986079784533358,0.148773193359375,-0.026702880859375,-0.3223419189453125,0.3560208134616323
1784816496.992918,-0.0400390587747097,-0.11669921875,0.9648436903953552,0.9726999438573815,-0.034332275390625,-0.026702880859375,0.1087188720703125,0.11709629423653281
1784816497.000843,-0.0463867150247097,-0.1298828125,0.9702147841453552,0.9799683666771658,0.0286102294921875,0.2193450927734375,-0.1964569091796875,0.29584815720200036
1784816497.008768,-0.0527343712747097,-0.1376953125,0.9853515028953552,0.9963224865756803,-0.400543212890625,0.278472900390625,-0.0133514404296875,0.4880166827130595
1784816497.016692,-0.0322265625,-0.11474609375,0.9697265028953552,0.9770233916233048,-0.278472900390625,0.339508056640625,-0.2574920654296875,0.5090334375412948
1784816497.024724,-0.0502929650247097,-0.12353515625,0.9819335341453552,0.9909509486548141,-0.522613525390625,0.766754150390625,-0.2574920654296875,0.9629844172268381
1784816497.032755,-0.0522460900247097,-0.13037109375,0.9707030653953552,0.9808112546134351,-0.339508056640625,0.461578369140625,-0.0133514404296875,0.5731479497860569
1784816497.040786,-0.0463867150247097,-0.12158203125,0.9682616591453552,0.9769670200291183,-0.339508056640625,0.461578369140625,0.1087188720703125,0.5832153157510989
1784816497.048817,-0.0532226487994194,-0.12353515625,0.9868163466453552,0.9959418091341602,-0.461578369140625,0.09918212890625,0.2307891845703125,0.5255048365786226
1784816497.056768,-0.06396484375,-0.1181640625,0.9882811903953552,0.9973735299233313,-0.0972747802734375,-0.1468658447265625,0.2307891845703125,0.2903370574679059
1784816497.064721,-0.0507812462747097,-0.12060546875,0.9868163466453552,0.9954551301149167,-0.034332275390625,-0.209808349609375,0.7801055908203125,0.8085561090786565
1784816497.072673,-0.0415039025247097,-0.11767578125,0.9912108778953552,0.999034117473302,0.026702880859375,-0.331878662109375,0.4138946533203125,0.5311923138156655
1784816497.080625,-0.0463867150247097,-0.11767578125,0.9731444716453552,0.9813304639709801,0.1468658447265625,0.4024505615234375,0.9021759033203125,0.9987278865384699
1784816497.091315,-0.0527343712747097,-0.13720703125,0.9824218153953552,0.9933575925631629,0.209808349609375,0.339508056640625,0.7190704345703125,0.822403522586596
1784816497.102005,-0.0478515625,-0.12890625,0.9833983778953552,0.9929647340011476,0.3910064697265625,0.2193450927734375,0.7801055908203125,0.8997572238781559
1784816497.112695,-0.0537109300494194,-0.125,0.9633788466453552,0.972938161534693,-0.0362396240234375,0.2193450927734375,0.7801055908203125,0.8111660205545206
1784816497.120689,-0.0532226525247097,-0.1123046875,0.9809569716453552,0.9887980450000217,-0.339508056640625,0.339508056640625,0.2307891845703125,0.5327242145448406
1784816497.128683,-0.06201171875,-0.11962890625,0.9951171278953552,1.004198499652136,-0.5245208740234375,-0.0858306884765625,0.4138946533203125,0.6736451873336684
1784816497.136677,-0.0527343712747097,-0.13232421875,0.9887694716453552,0.9989773174799174,-0.0972747802734375,0.0972747802734375,0.5970001220703125,0.6126450126349345
1784816497.14467,-0.0493164025247097,-0.1083984375,0.9785155653953552,0.9857357863704718,0.2117156982421875,-0.0858306884765625,0.5359649658203125,0.582622423661591
1784816497.152688,-0.0571289025247097,-0.13134765625,0.9780272841453552,0.9884600582920816,-0.3414154052734375,-0.0858306884765625,0.4749298095703125,0.5911765472859014
1784816497.160705,-0.0537109337747097,-0.13623046875,0.9804686903953552,0.9913437637209299,0.087738037109375,-0.209808349609375,0.6542205810546875,0.6926197191801203
1784816497.168722,-0.0517578087747097,-0.1123046875,0.9716796278953552,0.9795164689123343,-0.461578369140625,0.034332275390625,0.7190704345703125,0.855158222708029
1784816497.176739,-0.0410156212747097,-0.1318359375,0.9916991591453552,1.001264309687836,-0.5245208740234375,-0.2689361572265625,0.3490447998046875,0.6850409303251854
1784816497.187397,-0.0434570275247097,-0.11279296875,0.9765624403953552,0.9840147189100646,0.2117156982421875,0.4024505615234375,0.0476837158203125,0.4572348719281366
1784816497.198055,-0.05224609375,-0.1201171875,0.9882811903953552,0.9969240213448085,-0.0972747802734375,0.7076263427734375,0.4749298095703125,0.857762057847425
1784816497.208713,-0.0498046837747097,-0.1259765625,0.9809569716453552,0.9902662172591982,0.331878662109375,0.156402587890625,0.7801055908203125,0.8620730529900017
1784816497.2167,-0.0615234337747097,-0.11376953125,0.9936522841453552,1.0020346805034033,0.2689361572265625,0.2193450927734375,0.6542205810546875,0.7405697097931505
1784816497.224687,-0.0395507737994194,-0.125,0.9584960341453552,0.9674212687244925,0.2689361572265625,0.4024505615234375,0.7190704345703125,0.8668075916877163
1784816497.232674,-0.0356445275247097,-0.107421875,0.9604491591453552,0.9670949171999589,-0.0972747802734375,-0.0247955322265625,0.6542205810546875,0.6618774584250298
1784816497.24066,-0.0458984337747097,-0.126953125,0.9951171278953552,1.004231975392607,-0.2193450927734375,0.0362396240234375,0.2918243408203125,0.3668610444955391
1784816497.248666,-0.0507812462747097,-0.13330078125,0.9521483778953552,0.9627743072931627,0.2689361572265625,0.1583099365234375,0.0476837158203125,0.3156935688611307
1784816497.25667,-0.0512695275247097,-0.1123046875,0.9765624403953552,0.9843348552591294,0.026702880859375,0.156402587890625,0.0476837158203125,0.16567603960593388
1784816497.264676,-0.0454101525247097,-0.1318359375,0.9814452528953552,0.9913009536965296,-0.156402587890625,-0.331878662109375,-0.2574920654296875,0.4482269287109375
1784816497.272681,-0.0493164025247097,-0.11181640625,0.9838866591453552,0.9914474137889778,0.148773193359375,-0.331878662109375,-0.0743865966796875,0.3712280635828078
1784816497.283348,-0.0478515587747097,-0.13037109375,0.9741210341453552,0.9839706209674947,-0.2193450927734375,-0.1468658447265625,-0.4405975341796875,0.5136224617325994
1784816497.294014,-0.0629882737994194,-0.10888671875,0.9721679091453552,0.9802725558376221,-0.0972747802734375,-0.2079010009765625,-0.1964569091796875,0.3021266725212095
1784816497.304682,-0.0610351525247097,-0.1259765625,0.9848632216453552,0.994761755141752,0.026702880859375,-0.148773193359375,-0.2574920654296875,0.2985777464376447
1784816497.312692,-0.0590820275247097,-0.13037109375,0.9741210341453552,0.9845806707560423,0.2689361572265625,-0.3299713134765625,0.2307891845703125,0.4842224407190026
1784816497.320702,-0.0488281212747097,-0.11181640625,0.9726561903953552,0.9802791229278977,0.3910064697265625,-0.2079010009765625,0.3490447998046875,0.5638627118774394
1784816497.328712,-0.0556640587747097,-0.13623046875,0.9707030653953552,0.9817951258908644,-0.0362396240234375,-0.0858306884765625,0.2918243408203125,0.3063358668666318
1784816497.336722,-0.0415039025247097,-0.12939453125,0.9785155653953552,0.9879059825525806,-0.034332275390625,-0.209808349609375,0.4138946533203125,0.4653031621926173
1784816497.344707,-0.0561523400247097,-0.13427734375,0.9624022841453552,0.9733455947724854,-0.217437744140625,-0.209808349609375,0.9632110595703125,1.0094920809106616
1784816497.352692,-0.0561523400247097,-0.11181640625,0.9863280653953552,0.9942328935332304,-0.156402587890625,-0.148773193359375,1.0204315185546875,1.043012807505764
1784816497.360677,-0.0444335900247097,-0.1181640625,0.9829100966453552,0.9909840299804883,-0.461578369140625,-0.209808349609375,0.7190704345703125,0.879850228332906
1784816497.368661,-0.0551757775247097,-0.12353515625,0.9780272841453552,0.9873412124427439,0.2689361572265625,0.0972747802734375,1.2073516845703125,1.2407607060895374
1784816497.379321,-0.0498046837747097,-0.12744140625,0.9755858778953552,0.9851343175941681,0.2689361572265625,0.0972747802734375,1.1425018310546875,1.1777518726388634
1784816497.38998,-0.0576171837747097,-0.11767578125,0.9760741591453552,0.9848289666283373,-0.095367431640625,0.278472900390625,1.0204315185546875,1.062036999039827
1784816497.400639,-0.0571289025247097,-0.12353515625,0.9843749403953552,0.9937397393743237,0.0286102294921875,0.2193450927734375,0.8373260498046875,0.866051804822844
1784816497.40865,-0.0454101525247097,-0.1328125,0.9770507216453552,0.9870812300800157,-0.0972747802734375,0.0972747802734375,1.0204315185546875,1.0296626873953998
1784816497.416662,-0.0415039025247097,-0.12744140625,0.9790038466453552,0.9881358295791932,0.2689361572265625,-0.0858306884765625,0.5970001220703125,0.6603807307153344
1784816497.424675,-0.0449218712747097,-0.1396484375,0.9785155653953552,0.9894505406214121,0.514984130859375,0.09918212890625,0.4749298095703125,0.707533796895848
1784816497.432687,-0.04736328125,-0.1201171875,0.9741210341453552,0.9826409355955475,0.331878662109375,0.09918212890625,0.6542205810546875,0.7402601635461803
1784816497.440681,-0.0581054612994194,-0.12353515625,0.9707030653953552,0.9802558954836587,0.209808349609375,0.156402587890625,0.5970001220703125,0.6518362208535687
1784816497.448677,-0.0551757775247097,-0.109375,0.9741210341453552,0.981793790067381,-0.034332275390625,0.339508056640625,0.5359649658203125,0.6353761643657718
1784816497.456671,-0.0468749962747097,-0.1181640625,0.9726561903953552,0.9809281704878617,-0.095367431640625,0.278472900390625,0.5359649658203125,0.6114740778287049
1784816497.464667,-0.0502929650247097,-0.12841796875,0.9765624403953552,0.9862528869513054,0.1468658447265625,0.2193450927734375,0.5359649658203125,0.5974448013480437
1784816497.475336,-0.0605468712747097,-0.12451171875,0.9692382216453552,0.9790770255835268,0.331878662109375,0.339508056640625,0.4138946533203125,0.6298555000431005
1784816497.486005,-0.0380859337747097,-0.12060546875,0.9936522841453552,1.0016691465904202,0.2117156982421875,-0.0858306884765625,0.1087188720703125,0.2530024448711488
1784816497.496674,-0.04248046875,-0.13427734375,0.9799804091453552,0.990048785453764,0.6351470947265625,-0.0858306884765625,-0.1392364501953125,0.6558700542690948
1784816497.504714,-0.0449218712747097,-0.1220703125,0.9785155653953552,0.9871230153499922,1.003265380859375,0.58746337890625,-0.5626678466796875,1.2916074293971878
1784816497.512754,-0.0429687462747097,-0.12548828125,0.9716796278953552,0.9806910426604066,0.698089599609375,0.644683837890625,-1.4171600341796875,1.7062499530831747
1784816497.520794,-0.0351562462747097,-0.13916015625,0.9677733778953552,0.9783592498170794,0.2689361572265625,0.4024505615234375,-2.0275115966796875,2.0844894784586794
1784816497.528834,-0.0610351525247097,-0.12109375,0.9833983778953552,0.9927040625382738,0.209808349609375,0.156402587890625,-2.2754669189453125,2.2904652392645404
1784816497.539502,-0.0454101525247097,-0.12255859375,0.9824218153953552,0.9910778547717632,0.2689361572265625,-0.4520416259765625,-2.5157928466796875,2.5701910309710465
1784816497.55017,-0.0493164025247097,-0.14111328125,1.00439453125,1.0154572566622526,0.1468658447265625,-0.4520416259765625,-2.5157928466796875,2.5602978059920036
1784816497.560838,-0.06494140625,-0.1240234375,0.9799804091453552,0.9899296952833275,0.698089599609375,-0.38909912109375,-2.2106170654296875,2.3506499154675646
1784816497.568798,-0.0595703087747097,-0.10400390625,0.9682616591453552,0.97565161547229,0.576019287109375,-0.209808349609375,-1.7223358154296875,1.8281844610978535
1784816497.576757,-0.0683593675494194,-0.1279296875,0.9663085341453552,0.9771341725872396,0.026702880859375,-0.514984130859375,-1.4820098876953125,1.5691637919955483
1784816497.584718,-0.0625,-0.119140625,0.9677733778953552,0.9770803700250951,-0.0972747802734375,-0.5130767822265625,-0.8106231689453125,0.964271792270286
1784816497.592678,-0.06982421875,-0.12890625,0.9902343153953552,1.0010275931259929,0.0286102294921875,-0.2689361572265625,-0.1964569091796875,0.3342761120089528
1784816497.600688,-0.0405273400247097,-0.12548828125,0.9760741591453552,0.9849418958354192,0.0858306884765625,-0.3910064697265625,0.2307891845703125,0.46207858007812885
1784816497.608698,-0.0732421800494194,-0.130859375,0.9941405653953552,1.0053875157014724,0.0858306884765625,-0.5130767822265625,0.6542205810546875,0.8358344693896377
1784816497.616708,-0.0483398400247097,-0.1318359375,0.9604491591453552,0.970659591130247,0.5741119384765625,-0.0858306884765625,0.9632110595703125,1.1246096968567545
1784816497.624717,-0.0551757775247097,-0.1083984375,0.9809569716453552,0.9884691031577688,0.2117156982421875,-0.4520416259765625,1.6956329345703125,1.7675791968953587
1784816497.632725,-0.0488281212747097,-0.12255859375,0.9873046278953552,0.9960799278134166,-0.0362396240234375,-0.8792877197265625,1.5735626220703125,1.802930816750353
1784816497.640732,-0.0366210900247097,-0.1357421875,0.9868163466453552,0.9967815947881306,0.3910064697265625,-0.6961822509765625,1.2683868408203125,1.498786497106561
1784816497.648739,-0.0346679650247097,-0.12353515625,0.9760741591453552,0.9844712117578546,0.209808349609375,-0.026702880859375,0.9021759033203125,0.9266358227177609
1784816497.656745,-0.0341796837747097,-0.11767578125,0.9614257216453552,0.9692034144167204,-0.0972747802734375,0.4634857177734375,0.2918243408203125,0.5562758662322266
1784816497.667407,-0.0380859375,-0.11376953125,0.9877929091453552,0.995052197743386,-0.766754150390625,0.827789306640625,0.1087188720703125,1.1335637857986012
1784816497.678068,-0.0322265587747097,-0.12890625,0.9624022841453552,0.9715315377833699,-0.644683837890625,0.705718994140625,-0.5626678466796875,1.1091670997714445
1784816497.688729,-0.0468749962747097,-0.10595703125,0.9814452528953552,0.9882605639090812,-0.7076263427734375,0.4024505615234375,-0.2574920654296875,0.8538171111055851
1784816497.696705,-0.0468749962747097,-0.13134765625,0.9594725966453552,0.9695551226162971,-1.010894775390625,0.156402587890625,-0.7457733154296875,1.265917791334783
1784816497.704681,-0.0620117150247097,-0.1142578125,0.9819335341453552,0.9905017748579649,-0.827789306640625,0.522613525390625,-0.3223419189453125,1.030662090997399
1784816497.712657,-0.0498046800494194,-0.13427734375,0.9785155653953552,0.9889406569255672,-0.7076263427734375,0.5245208740234375,-0.2574920654296875,0.917692406001307
1784816497.720633,-0.0527343712747097,-0.1123046875,0.9755858778953552,0.9834434716327434,-0.644683837890625,0.339508056640625,-0.1392364501953125,0.7418016988550722
1784816497.728652,-0.0629882737994194,-0.13330078125,0.9853515028953552,0.9963203326120702,-0.5855560302734375,0.0362396240234375,-0.0743865966796875,0.591373435913834
1784816497.73667,-0.04296875,-0.125,0.9731444716453552,0.9820801780763524,-0.339508056640625,0.278472900390625,0.4749298095703125,0.6468162032558817
1784816497.74469,-0.0615234337747097,-0.103515625,0.9887694716453552,0.9960751405292708,-0.339508056640625,0.156402587890625,0.7190704345703125,0.8104256782061613
1784816497.752709,-0.0537109300494194,-0.11474609375,0.9663085341453552,0.9745787362752188,0.087738037109375,0.461578369140625,0.7801055908203125,0.9106685933112187
1784816497.763378,-0.0498046837747097,-0.10595703125,0.9653319716453552,0.9724058897795309,-0.5245208740234375,0.4024505615234375,1.0852813720703125,1.2707967021989242
1784816497.774046,-0.0620117150247097,-0.126953125,0.9833983778953552,0.9934963102069314,-0.705718994140625,0.156402587890625,0.9632110595703125,1.2042743098930178
1784816497.784715,-0.06201171875,-0.125,0.9550780653953552,0.9652173663282606,-0.156402587890625,0.58746337890625,1.0852813720703125,1.2439496161893588
1784816497.792722,-0.0483398362994194,-0.1162109300494194,0.9667968153953552,0.9749552822027308,-0.5855560302734375,0.0362396240234375,1.1425018310546875,1.2843284661262713
1784816497.800728,-0.0512695275247097,-0.130859375,0.9760741591453552,0.9861407123881002,-0.583648681640625,-0.209808349609375,0.8373260498046875,1.042007793074587
1784816497.808734,-0.0522460900247097,-0.11181640625,0.9711913466453552,0.9790021421980412,-0.156402587890625,-0.148773193359375,0.6542205810546875,0.6889120417272176
1784816497.81674,-0.0463867150247097,-0.13037109375,0.9848632216453552,0.9945370353918566,-0.4024505615234375,-0.0858306884765625,0.7801055908203125,0.8819853141543796
1784816497.827396,-0.0581054612994194,-0.119140625,0.9833983778953552,0.9922918435648984,-0.156402587890625,-0.08392333984375,0.5359649658203125,0.5645913044461303
1784816497.838052,-0.0590820275247097,-0.1259765625,0.9765624403953552,0.9864253546349459,-0.034332275390625,-0.026702880859375,0.4749298095703125,0.4769172601177074
1784816497.848708,-0.0522460900247097,-0.123046875,0.9780272841453552,0.9871208415907725,-0.156402587890625,0.034332275390625,0.5359649658203125,0.5593736847753487
1784816497.856749,-0.0566406212747097,-0.111328125,0.9682616591453552,0.9762851796300693,-0.278472900390625,-0.331878662109375,-0.1392364501953125,0.4550575696309945
1784816497.864789,-0.0488281175494194,-0.125,0.9770507216453552,0.9862237564220045,-0.8907318115234375,0.0972747802734375,0.3490447998046875,0.9616120918581278
1784816497.87283,-0.0590820275247097,-0.1376953125,0.9868163466453552,0.9981268391679432,-0.156402587890625,0.156402587890625,0.0476837158203125,0.22626815010558088
1784816497.880872,-0.0556640587747097,-0.12255859375,0.9775390028953552,0.9867631927280714,-0.156402587890625,0.034332275390625,-0.0133514404296875,0.1606820948143566
1784816497.888852,-0.0517578087747097,-0.13037109375,0.9858397841453552,0.9957688350508321,-0.2765655517578125,-0.4520416259765625,0.7801055908203125,0.9430773398103395
1784816497.896832,-0.0556640587747097,-0.1240234375,0.9599608778953552,0.9695386467687669,-0.2193450927734375,-0.3299713134765625,0.4749298095703125,0.6185076082472463
1784816497.904812,-0.0429687462747097,-0.11572265625,0.9643554091453552,0.9722239461532932,-0.4024505615234375,0.1583099365234375,0.7190704345703125,0.8391011740819596
1784816497.912791,-0.0498046837747097,-0.11865234375,0.9770507216453552,0.985488202806597,-0.522613525390625,-0.209808349609375,0.7190704345703125,0.9133491831496677
1784816497.923435,-0.0419921837747097,-0.1337890625,0.9936522841453552,1.0034977421649136,-0.156402587890625,0.156402587890625,0.9632110595703125,0.9882808731713538
1784816497.934079,-0.0541992150247097,-0.140625,0.9824218153953552,0.9939142663726083,0.331878662109375,0.156402587890625,0.9632110595703125,1.0307185654391589
1784816497.944724,-0.0444335900247097,-0.11083984375,0.9711913466453552,0.9785052103508836,0.3910064697265625,0.2803802490234375,1.0204315185546875,1.1281753531567242
1784816497.952702,-0.0517578087747097,-0.1142578125,0.9702147841453552,0.9782895511353797,0.026702880859375,-0.209808349609375,0.9021759033203125,0.9266358227177609
1784816497.96068,-0.0532226487994194,-0.12841796875,0.9833983778953552,0.9931748057065877,-0.2193450927734375,-0.1468658447265625,1.0852813720703125,1.116923230411945
1784816497.968658,-0.0405273400247097,-0.1357421875,0.9921874403953552,1.0022496313968143,-0.0972747802734375,-0.3299713134765625,1.0852813720703125,1.1384986197433502
1784816497.976636,-0.0351562462747097,-0.1298828125,0.9755858778953552,0.9848214618822485,0.331878662109375,-0.148773193359375,0.9021759033203125,0.9727272330708525
1784816497.98466,-0.0434570237994194,-0.12451171875,0.9785155653953552,0.9873623411618321,0.026702880859375,-0.209808349609375,0.8373260498046875,0.8636246297399824
1784816497.992686,-0.0468749962747097,-0.107421875,0.9824218153953552,0.9893883705951748,0.2689361572265625,0.1583099365234375,0.7190704345703125,0.7838692381634728
1784816498.000711,-0.0620117150247097,-0.12060546875,0.9863280653953552,0.9956074449697818,-0.156402587890625,0.278472900390625,0.8373260498046875,0.8961717689329282
1784816498.008735,-0.0483398362994194,-0.140625,0.9829100966453552,0.9940947583031691,-0.0362396240234375,0.0972747802734375,0.4749298095703125,0.48614197231374595
1784816498.016726,-0.0507812462747097,-0.11572265625,0.9794921278953552,0.9876109035200752,-0.0362396240234375,0.4024505615234375,0.4138946533203125,0.5784362962911577
1784816498.024718,-0.0478515625,-0.1240234375,0.9838866591453552,0.9928265423160363,-0.0972747802734375,0.5245208740234375,0.4138946533203125,0.6751987220150065
1784816498.032709,-0.07080078125,-0.12109375,0.9902343153953552,1.000120215924656,-0.4024505615234375,0.5245208740234375,0.9021759033203125,1.118485566419461
1784816498.0407,-0.0727538987994194,-0.1162109300494194,0.9648436903953552,0.9745365344353157,-0.2765655517578125,0.7076263427734375,1.2683868408203125,1.4785224798332106
1784816498.051475,-0.0600585900247097,-0.12255859375,0.9853515028953552,0.9947588790233888,-0.0972747802734375,0.8296966552734375,1.8787384033203125,2.056092631852887
1784816498.062249,-0.0644531175494194,-0.1201171875,0.9746093153953552,0.9840963676135343,0.0858306884765625,1.0738372802734375,1.9397735595703125,2.2188318715029975
1784816498.073025,-0.0454101525247097,-0.11376953125,0.9702147841453552,0.9779173357535801,0.0858306884765625,1.0738372802734375,1.9969940185546875,2.2690258971048816
1784816498.08095,-0.0498046837747097,-0.1025390625,0.9658202528953552,0.9725243065173876,-0.339508056640625,1.010894775390625,2.2449493408203125,2.4853513856767844
1784816498.088875,-0.0507812462747097,-0.1259765625,0.9892577528953552,0.9985387979122778,-0.7648468017578125,0.7076263427734375,2.2449493408203125,2.4749794370854117
1784816498.096799,-0.0517578087747097,-0.13671875,0.9931640028953552,1.0038653415761734,0.148773193359375,1.255035400390625,2.4280548095703125,2.737279210744408
1784816498.104724,-0.0458984337747097,-0.1201171875,0.9931640028953552,1.0014537141590751,0.514984130859375,1.316070556640625,2.4852752685546875,2.858993446229446
1784816498.1127,-0.0458984337747097,-0.125,0.9682616591453552,0.9773752129013132,0.148773193359375,0.644683837890625,2.2449493408203125,2.34041625715369
1784816498.120675,-0.0605468712747097,-0.12353515625,0.9584960341453552,0.9683189071391936,0.0858306884765625,0.5245208740234375,2.0618438720703125,2.1292461593635834
1784816498.128649,-0.0546874962747097,-0.1123046875,0.9755858778953552,0.9835501361049777,-0.400543212890625,0.461578369140625,1.6956329345703125,1.8024040903889431
1784816498.136625,-0.0517578087747097,-0.119140625,0.9946288466453552,1.0030752224402812,-0.7076263427734375,0.2193450927734375,1.6956329345703125,1.8504103219313894
1784816498.14731,-0.0507812462747097,-0.1279296875,0.9873046278953552,0.9968526311249052,-0.4024505615234375,0.5855560302734375,1.3904571533203125,1.5614779583073672
1784816498.157997,-0.0405273400247097,-0.12451171875,0.9833983778953552,0.9920776194647137,-0.0362396240234375,0.2193450927734375,0.9021759033203125,0.9291646466611662
1784816498.168683,-0.0444335862994194,-0.1298828125,0.9741210341453552,0.983745738358624,0.209808349609375,0.461578369140625,0.7801055908203125,0.9303971556563561
1784816498.176777,-0.0537109337747097,-0.107421875,0.9580077528953552,0.9655066950793634,0.331878662109375,0.522613525390625,0.6542205810546875,0.9007068956992941
1784816498.184873,-0.0566406212747097,-0.11865234375,0.9721679091453552,0.981018339394226,-0.4024505615234375,0.3414154052734375,0.3490447998046875,0.6327426061988003
1784816498.192968,-0.0483398362994194,-0.14404296875,0.9941405653953552,1.0056841354940251,-0.217437744140625,0.278472900390625,-0.0133514404296875,0.3535598814776336
1784816498.201063,-0.0541992150247097,-0.126953125,0.9931640028953552,1.0027110189399961,0.5741119384765625,0.2193450927734375,-0.3223419189453125,0.69398926528762
1784816498.208974,-0.0620117150247097,-0.12646484375,0.9687499403953552,0.9789357775263002,0.331878662109375,0.278472900390625,-0.0133514404296875,0.4334384195903994
1784816498.216884,-0.0532226487994194,-0.1103515625,0.9638671278953552,0.9716223329713345,0.2117156982421875,0.2193450927734375,-0.0743865966796875,0.3137979801903629
1784816498.224796,-0.0522460900247097,-0.12890625,0.9892577528953552,0.9989881765443974,-0.4024505615234375,-0.1468658447265625,-0.1392364501953125,0.45046955488775114
1784816498.232707,-0.0566406212747097,-0.12939453125,0.9907225966453552,1.0007409096262168,0.0858306884765625,0.6465911865234375,-0.0133514404296875,0.6523996708580523
1784816498.243379,-0.0629882737994194,-0.115234375,0.9912108778953552,0.9998727360399182,0.209808349609375,0.461578369140625,0.2918243408203125,0.5850090429382598
1784816498.25405,-0.0615234337747097,-0.12646484375,0.9746093153953552,0.984703918578344,0.3910064697265625,0.0972747802734375,0.2918243408203125,0.49750365640916117
1784816498.264723,-0.0541992150247097,-0.12060546875,0.9653319716453552,0.9743454466883965,0.0286102294921875,0.2193450927734375,0.3490447998046875,0.4132349056240021
1784816498.272727,-0.0556640587747097,-0.13134765625,0.9731444716453552,0.9835450457073942,-0.0972747802734375,0.4024505615234375,0.1087188720703125,0.4280754962527249
1784816498.280733,-0.0537109300494194,-0.11865234375,0.9746093153953552,0.9832733904360195,-0.156402587890625,0.034332275390625,0.4749298095703125,0.501197364968009
1784816498.288738,-0.0488281175494194,-0.12939453125,0.9892577528953552,0.9988783867140157,-0.4024505615234375,-0.1468658447265625,0.3490447998046875,0.5526013962056839
1784816498.296743,-0.0527343712747097,-0.13037109375,0.9829100966453552,0.9929198326585544,0.0858306884765625,0.3414154052734375,0.4138946533203125,0.5433600740664776
1784816498.304739,-0.0527343712747097,-0.12744140625,0.9565429091453552,0.9664349760728735,0.2117156982421875,-0.0858306884765625,0.5970001220703125,0.6392179516553848
1784816498.312737,-0.0527343712747097,-0.1171875,0.9814452528953552,0.9898225136360643,-0.034332275390625,-0.026702880859375,0.7190704345703125,0.7203846464582833
1784816498.320734,-0.0454101525247097,-0.123046875,0.9833983778953552,0.992106337570121,-0.2193450927734375,-0.3910064697265625,0.3490447998046875,0.5681818382899189
1784816498.328731,-0.05224609375,-0.1103515625,0.9833983778953552,0.9909487833917255,-0.278472900390625,-0.331878662109375,0.3490447998046875,0.5563478002887852
1784816498.339382,-0.064453125,-0.12646484375,0.9814452528953552,0.9916563651072913,-0.156402587890625,-0.331878662109375,0.5359649658203125,0.6495103235893653
1784816498.350035,-0.0493163987994194,-0.13427734375,0.9707030653953552,0.9811865028642813,0.1468658447265625,0.2193450927734375,0.2918243408203125,0.3935013239701292
1784816498.360687,-0.0620117150247097,-0.12353515625,0.9731444716453552,0.9829122800758648,-0.461578369140625,-0.026702880859375,0.3490447998046875,0.5793098540292608
1784816498.368691,-0.0458984337747097,-0.11865234375,0.9687499403953552,0.9770678031315656,-0.2193450927734375,0.2193450927734375,0.3490447998046875,0.46696553589988865
1784816498.376694,-0.0537109300494194,-0.1201171875,0.9785155653953552,0.9873224976980295,0.148773193359375,-0.026702880859375,0.4138946533203125,0.4406305606238378
1784816498.384699,-0.0576171837747097,-0.123046875,0.9809569716453552,0.9903215909657935,-0.156402587890625,0.217437744140625,0.1659393310546875,0.3150822173127607
1784816498.392703,-0.0473632775247097,-0.12255859375,0.9975585341453552,1.0061743974113484,-0.4024505615234375,0.4024505615234375,0.1659393310546875,0.59284801638526
1784816498.400692,-0.0732421800494194,-0.12939453125,0.9975585341453552,1.0085784008702687,-0.3414154052734375,0.4024505615234375,0.1659393310546875,0.5532330386188382
1784816498.408683,-0.0581054650247097,-0.12646484375,0.9848632216453552,0.9946482630156842,0.148773193359375,0.644683837890625,0.1087188720703125,0.6705001916807873
1784816498.416672,-0.0517578087747097,-0.1220703125,0.9785155653953552,0.9874577174157882,0.026702880859375,0.034332275390625,0.1087188720703125,0.11709629423653281
1784816498.424663,-0.0483398362994194,-0.13037109375,0.9594725966453552,0.969495242676521,-0.2193450927734375,0.0362396240234375,0.3490447998046875,0.41383312137121453
1784816498.435324,-0.0585937462747097,-0.12158203125,0.9926757216453552,1.0018086173364191,-0.2765655517578125,0.0972747802734375,-0.0743865966796875,0.30246363923938907
1784816498.445985,-0.052734375,-0.11474609375,0.9833983778953552,0.9914736254609803,0.209808349609375,0.09918212890625,0.1659393310546875,0.28529370804674764
1784816498.456646,-0.05224609375,-0.12939453125,0.9965819716453552,1.0063042408924274,0.453948974609375,0.278472900390625,-0.1964569091796875,0.5676373357746176
1784816498.464653,-0.0600585900247097,-0.12744140625,0.9619140028953552,0.9721763704333176,0.637054443359375,-0.026702880859375,-0.0743865966796875,0.6419382940872896
1784816498.472661,-0.0541992150247097,-0.126953125,0.9687499403953552,0.9785351796806104,0.209808349609375,0.339508056640625,-0.0743865966796875,0.4059786076325821
1784816498.48067,-0.0556640587747097,-0.13134765625,0.9604491591453552,0.9709857267461054,-0.278472900390625,-0.209808349609375,0.5970001220703125,0.6913579720880817
1784816498.488678,-0.0581054612994194,-0.13037109375,0.9853515028953552,0.9956357019394819,-0.461578369140625,0.034332275390625,-0.0133514404296875,0.4630459555525394
1784816498.496755,-0.0595703050494194,-0.14453125,0.9770507216453552,0.9894776481244802,0.026702880859375,0.278472900390625,0.5359649658203125,0.6045813797041104
1784816498.504832,-0.0571289025247097,-0.111328125,0.9790038466453552,0.9869681832086056,0.3910064697265625,0.4024505615234375,0.9632110595703125,1.1147322813649578
1784816498.512908,-0.0600585900247097,-0.12548828125,0.9780272841453552,0.9878723153826989,0.270843505859375,-0.698089599609375,0.3490447998046875,0.826146213463252
1784816498.520986,-0.0522460900247097,-0.119140625,0.9809569716453552,0.9895457152996454,0.331878662109375,-0.08392333984375,0.7190704345703125,0.7963974279260175
1784816498.531567,-0.06494140625,-0.12744140625,0.9843749403953552,0.9947123813198789,0.4520416259765625,0.4024505615234375,0.9021759033203125,1.0863836553528805
1784816498.542148,-0.0493164025247097,-0.11669921875,0.9736327528953552,0.9818408999045759,0.698089599609375,0.827789306640625,0.7801055908203125,1.3345894342832378
1784816498.552729,-0.0498046837747097,-0.12109375,0.9848632216453552,0.9935289468176705,-0.0972747802734375,0.5855560302734375,0.4749298095703125,0.7601950877803182
1784816498.560719,-0.0488281212747097,-0.11767578125,0.9677733778953552,0.9761234992986295,0.0858306884765625,0.5855560302734375,0.2307891845703125,0.6352215514201146
1784816498.568709,-0.0502929612994194,-0.1103515625,0.9633788466453552,0.9709817977007557,-0.4596710205078125,0.2193450927734375,0.1087188720703125,0.5207969949632224
1784816498.576699,-0.0556640587747097,-0.1259765625,0.9697265028953552,0.9794580502279033,-1.132965087890625,-0.026702880859375,0.4138946533203125,1.2064956354137146
1784816498.584689,-0.0595703087747097,-0.12744140625,0.9897460341453552,0.9996935259473028,-0.888824462890625,-0.026702880859375,0.0476837158203125,0.8905030636855947
1784816498.592679,-0.06640625,-0.13134765625,0.9873046278953552,0.9982146187594212,0.148773193359375,0.339508056640625,0.3490447998046875,0.509147774086202
1784816498.600669,-0.0537109300494194,-0.12939453125,0.9799804091453552,0.9899441454106785,-0.156402587890625,-0.026702880859375,0.4749298095703125,0.5007326006598412
1784816498.608659,-0.0737304612994194,-0.1142578125,0.9799804091453552,0.9893698150587615,-0.400543212890625,-0.209808349609375,0.5970001220703125,0.7489082418497758
1784816498.616649,-0.0551757775247097,-0.13525390625,0.9682616591453552,0.9792183751095851,-0.4024505615234375,-0.3910064697265625,0.5359649658203125,0.7759580906371993
1784816498.627336,-0.05712890625,-0.1103515625,0.9682616591453552,0.9762027555003258,-0.461578369140625,-0.209808349609375,0.7801055908203125,0.9303971556563561
1784816498.638023,-0.0576171837747097,-0.11669921875,0.9770507216453552,0.9856807597750391,-0.4024505615234375,-0.3299713134765625,0.8373260498046875,0.9858815526570623
1784816498.64871,-0.0551757775247097,-0.12890625,0.9975585341453552,1.0073649868646164,-0.4024505615234375,-0.3910064697265625,0.8373260498046875,1.0079520958458696
1784816498.656714,-0.0541992150247097,-0.13818359375,0.9682616591453552,0.9795728155996755,-0.2765655517578125,-0.2689361572265625,1.0852813720703125,1.151803289475123
1784816498.66472,-0.0541992150247097,-0.12255859375,0.9643554091453552,0.9736218562456257,-0.217437744140625,-0.514984130859375,1.2073516845703125,1.3304833399365514
1784816498.672724,-0.0507812462747097,-0.12109375,0.9707030653953552,0.9795442166794792,-0.461578369140625,-0.820159912109375,1.0204315185546875,1.3881633031994478
1784816498.68073,-0.0576171837747097,-0.12841796875,0.9848632216453552,0.9948700819271191,-0.339508056640625,-0.637054443359375,1.0204315185546875,1.2499538265022603
1784816498.691381,-0.0537109337747097,-0.123046875,0.9902343153953552,0.9992944497197633,0.2117156982421875,-0.5741119384765625,1.0204315185546875,1.1898355091538153
1784816498.702034,-0.0493164025247097,-0.12353515625,0.9785155653953552,0.987514938676212,-0.339508056640625,-0.637054443359375,0.7801055908203125,1.062858794552186
1784816498.712686,-0.0688476487994194,-0.12353515625,0.9692382216453552,0.9795017426595886,-0.2193450927734375,-0.5741119384765625,0.5970001220703125,0.8568114923231785
1784816498.720685,-0.0620117150247097,-0.11572265625,0.9790038466453552,0.9877680485398703,-0.4596710205078125,-0.0858306884765625,0.9632110595703125,1.0707193373884767
1784816498.728683,-0.0585937425494194,-0.1157226487994194,0.9736327528953552,0.9822350511062458,-0.3414154052734375,0.2193450927734375,1.1425018310546875,1.2124302794986304
1784816498.736682,-0.0483398362994194,-0.1298828125,0.9755858778953552,0.9853801753157081,-0.2193450927734375,-0.0858306884765625,1.1425018310546875,1.1665288726694518
1784816498.744681,-0.0561523400247097,-0.13232421875,0.9721679091453552,0.982737618965561,-0.217437744140625,-0.209808349609375,0.7801055908203125,0.8365784177062437
1784816498.752698,-0.0624999962747097,-0.14013671875,0.9790038466453552,0.9909556403910104,0.148773193359375,0.339508056640625,1.0204315185546875,1.085670146796929
1784816498.760714,-0.0688476487994194,-0.095703125,0.9707030653953552,0.9778361458076261,0.0286102294921875,0.2193450927734375,0.9021759033203125,0.928898366608105
1784816498.76873,-0.046875,-0.1201171875,0.9833983778953552,0.9918153931075713,-0.339508056640625,-0.331878662109375,0.7190704345703125,0.8616678343541324
1784816498.776746,-0.06396484375,-0.123046875,1.00341796875,1.0129558996785613,-0.5245208740234375,0.2193450927734375,0.9021759033203125,1.0663750641973586
1784816498.784734,-0.0522460900247097,-0.13134765625,0.9809569716453552,0.9910895221648065,0.209808349609375,0.278472900390625,1.3904571533203125,1.4335054220467405
1784816498.792722,-0.0449218712747097,-0.12109375,0.9858397841453552,0.9942644270070435,0.3910064697265625,-0.2689361572265625,0.8373260498046875,0.9624591574260913
1784816498.80071,-0.0576171837747097,-0.13134765625,0.9824218153953552,0.9928366280678822,-0.278472900390625,-0.148773193359375,1.1425018310546875,1.1853231851599069
1784816498.808698,-0.0498046837747097,-0.12353515625,0.9750975966453552,0.9841528155419557,-0.2193450927734375,0.2193450927734375,1.3904571533203125,1.424638773397384
1784816498.819371,-0.0502929650247097,-0.1083984375,0.9697265028953552,0.9770614586611599,-0.339508056640625,0.034332275390625,1.5087127685546875,1.5468221111871079
1784816498.830046,-0.0483398362994194,-0.1279296875,0.9941405653953552,1.0035029688455828,-0.278472900390625,-0.148773193359375,1.3256072998046875,1.362686806500227
1784816498.84072,-0.0498046800494194,-0.12939453125,0.9912108778953552,1.0008608571276594,0.3910064697265625,0.0972747802734375,1.2073516845703125,1.2728104856890698
1784816498.848706,-0.0541992150247097,-0.12744140625,0.9780272841453552,0.9877834962526008,0.209808349609375,0.461578369140625,1.5087127685546875,1.5916307211235523
1784816498.856692,-0.0478515587747097,-0.11669921875,0.9584960341453552,0.9667590841602699,0.026702880859375,0.339508056640625,1.7566680908203125,1.7893746241847641
1784816498.864678,-0.0405273400247097,-0.1259765625,0.9707030653953552,0.9796820916790988,-0.278472900390625,-0.148773193359375,1.7566680908203125,1.7848146684237538
1784816498.872663,-0.0468749962747097,-0.12646484375,0.9931640028953552,1.0022800799315483,-0.0362396240234375,-0.3910064697265625,1.6956329345703125,1.740508666602071
1784816498.883344,-0.0390624925494194,-0.12890625,0.9731444716453552,0.9824219370042352,0.331878662109375,-0.08392333984375,0.4138946533203125,0.5371176383076429
1784816498.894024,-0.0444335862994194,-0.1240234375,0.9790038466453552,0.9878282686718104,0.514984130859375,-0.38909912109375,-0.0133514404296875,0.645588911021915
1784816498.904703,-0.05224609375,-0.11474609375,0.9833983778953552,0.9914477747164666,0.331878662109375,-0.209808349609375,-0.1392364501953125,0.4165930616228626
1784816498.912682,-0.07080078125,-0.115234375,0.9628905653953552,0.9723425079336179,-0.0972747802734375,-0.0247955322265625,0.1659393310546875,0.19394087471835642
1784816498.92066,-0.0673828050494194,-0.11865234375,0.9829100966453552,0.9923361724642903,0.0858306884765625,-0.1468658447265625,0.1659393310546875,0.23763910667750934
1784816498.928638,-0.0688476487994194,-0.115234375,0.9716796278953552,0.9809078749779231,0.331878662109375,0.156402587890625,0.9021759033203125,0.9739232908161788
1784816498.936616,-0.06640625,-0.12158203125,0.9594725966453552,0.9694223249313577,0.0858306884765625,0.7076263427734375,1.3904571533203125,1.5625213737069001
1784816498.944658,-0.07568359375,-0.11767578125,0.9711913466453552,0.9812177269365507,-0.4596710205078125,0.8907318115234375,1.9397735595703125,2.1834427103916876
1784816498.9527,-0.0624999962747097,-0.1171875,0.9999999403953552,1.008780967545137,-0.7076263427734375,0.5245208740234375,2.0618438720703125,2.2421100198400437
1784816498.960742,-0.0576171837747097,-0.13037109375,1.00244140625,1.0125241404115644,-0.522613525390625,0.949859619140625,2.4852752685546875,2.7114482022500015
1784816498.968784,-0.0507812462747097,-0.12060546875,0.9877929091453552,0.996423226055808,0.4520416259765625,1.0128021240234375,2.5501251220703125,2.780871789970916
1784816498.976779,-0.0483398362994194,-0.1157226487994194,0.9711913466453552,0.9792553819190513,0.026702880859375,0.949859619140625,2.6111602783203125,2.778687520934654
1784816498.984774,-0.0458984337747097,-0.115234375,0.9697265028953552,0.9776272898309802,0.026702880859375,0.461578369140625,2.4280548095703125,2.4716831902536045
1784816498.992769,-0.0512695275247097,-0.12890625,0.9731444716453552,0.9829829848148883,-0.4024505615234375,0.7076263427734375,2.3021697998046875,2.4418614380407
1784816499.000764,-0.0581054612994194,-0.1181640625,0.9877929091453552,0.9965308934785545,-0.2765655517578125,0.7076263427734375,1.8787384033203125,2.0265442342856894
1784816499.011394,-0.0488281212747097,-0.12109375,0.9848632216453552,0.993480471406433,0.0858306884765625,0.0972747802734375,1.5735626220703125,1.5789010784524797
1784816499.022024,-0.0522460900247097,-0.1328125,0.9853515028953552,0.9956336667355394,0.331878662109375,0.278472900390625,1.3256072998046875,1.3946057922979347
1784816499.032654,-0.0478515625,-0.14453125,0.9794921278953552,0.991253692487057,0.270843505859375,0.278472900390625,0.7190704345703125,0.8172916558923762
1784816499.040663,-0.0380859375,-0.119140625,0.9716796278953552,0.9796970584969114,-0.0972747802734375,0.2193450927734375,0.3490447998046875,0.4235645462874907
1784816499.048674,-0.0454101525247097,-0.11669921875,0.9814452528953552,0.9894016242355809,-0.339508056640625,0.034332275390625,0.2307891845703125,0.4119563974160631
1784816499.056684,-0.0585937425494194,-0.138671875,0.9887694716453552,1.000164078359045,-0.156402587890625,-0.148773193359375,-0.0133514404296875,0.21627180473371502
1784816499.064693,-0.0585937462747097,-0.12744140625,0.9682616591453552,0.97836863180521,0.209808349609375,0.156402587890625,-0.1392364501953125,0.2964255422997252
1784816499.075392,-0.0634765625,-0.1162109375,0.9697265028953552,0.9787255725682765,0.209808349609375,-0.209808349609375,-0.2574920654296875,0.39286289070217095
1784816499.086089,-0.0595703087747097,-0.11865234375,0.9707030653953552,0.9797404970362416,-0.217437744140625,0.156402587890625,0.0476837158203125,0.27205638906351914
1784816499.096788,-0.0556640587747097,-0.12109375,0.9892577528953552,0.9981949135273654,-0.278472900390625,0.156402587890625,-0.2574920654296875,0.41025734546757125
1784816499.104852,-0.0722656175494194,-0.138671875,0.9790038466453552,0.9914135061326412,-0.156402587890625,-0.08392333984375,-0.0133514404296875,0.17799763321730355
1784816499.112917,-0.0537109300494194,-0.1298828125,0.9946288466453552,1.0045103043616592,-0.0972747802734375,-0.0858306884765625,-0.1392364501953125,0.19030522595188498
1784816499.120983,-0.07373046875,-0.13232421875,0.9760741591453552,0.9877583940626395,0.2117156982421875,-0.2689361572265625,-0.2574920654296875,0.4283133867919771
1784816499.129048,-0.0605468712747097,-0.1318359375,0.9702147841453552,0.9810012056118373,0.1468658447265625,-0.2689361572265625,-0.0743865966796875,0.31532459272410646
1784816499.136957,-0.0634765550494194,-0.11328125,0.9853515028953552,0.9938709669271155,-0.278472900390625,-0.698089599609375,-0.5016326904296875,0.9036103150376666
1784816499.144866,-0.0507812462747097,-0.130859375,0.9858397841453552,0.9957826022794152,0.148773193359375,-0.637054443359375,-0.4405975341796875,0.7887319024811219
1784816499.152775,-0.0537109300494194,-0.12548828125,0.9755858778953552,0.9850888172579687,-0.156402587890625,-0.514984130859375,-0.5626678466796875,0.7786305479641977
1784816499.160684,-0.0493164025247097,-0.1259765625,0.9702147841453552,0.97960141344912,-0.278472900390625,-0.514984130859375,-0.1964569091796875,0.6175363377594786
1784816499.168676,-0.0654296875,-0.11962890625,0.9785155653953552,0.9879700556888912,-0.5855560302734375,-0.4520416259765625,-0.5626678466796875,0.9294151934911962
1784816499.176668,-0.0595703050494194,-0.119140625,0.9809569716453552,0.9899594385573066,-0.5245208740234375,-0.3910064697265625,-0.1392364501953125,0.6688759195226958
1784816499.18466,-0.0478515587747097,-0.13232421875,0.9848632216453552,0.9948643303961779,-0.4024505615234375,-0.5741119384765625,-0.1392364501953125,0.714813095455615
1784816499.192652,-0.0532226487994194,-0.12890625,0.9843749403953552,0.9942049561899438,0.0858306884765625,-0.6351470947265625,-0.0743865966796875,0.645222523467323
1784816499.203348,-0.0585937462747097,-0.12109375,0.9775390028953552,0.9867519574711837,-0.0972747802734375,-0.5741119384765625,-0.0133514404296875,0.5824475613650634
1784816499.214044,-0.0556640587747097,-0.13671875,0.9785155653953552,0.9895873967274585,0.026702880859375,-0.209808349609375,0.3490447998046875,0.40812358383545305
1784816499.22474,-0.0502929612994194,-0.1103515625,0.9775390028953552,0.9850326651863387,0.0858306884765625,-0.3910064697265625,0.1659393310546875,0.4333460834520916
1784816499.23272,-0.0522460900247097,-0.13916015625,0.9877929091453552,0.9989144279507822,-0.156402587890625,-0.331878662109375,0.0476837158203125,0.36997155649701735
1784816499.2407,-0.0581054612994194,-0.13525390625,0.9746093153953552,0.9856638278054567,0.0858306884765625,-0.2689361572265625,-0.0743865966796875,0.2919365162389549
1784816499.24868,-0.0537109300494194,-0.10986328125,0.9672850966453552,0.9749847500171499,-0.2765655517578125,0.0362396240234375,0.0476837158203125,0.282976238442198
1784816499.25666,-0.0473632775247097,-0.1142578125,0.9843749403953552,0.9921149888261577,-0.4596710205078125,-0.2689361572265625,-0.6847381591796875,0.8674620743267518
1784816499.264667,-0.06591796875,-0.13671875,0.9897460341453552,1.0013163372841507,-0.644683837890625,0.278472900390625,-0.3223419189453125,0.7727022193566543
1784816499.272674,-0.0478515587747097,-0.12109375,0.9750975966453552,0.9837524032752245,-0.034332275390625,0.278472900390625,-0.0743865966796875,0.2902743997514269
1784816499.280681,-0.0610351525247097,-0.12939453125,0.9794921278953552,0.9898853788040779,-0.278472900390625,0.156402587890625,-0.3795623779296875,0.49606100883912513
1784816499.288688,-0.076171875,-0.12841796875,0.9677733778953552,0.9792234883834627,-0.156402587890625,-0.148773193359375,-0.3795623779296875,0.4366495520447371
1784816499.29669,-0.068359375,-0.11767578125,0.9780272841453552,0.9874502327590631,-0.4024505615234375,-0.3299713134765625,0.0476837158203125,0.5226100448158362
1784816499.304692,-0.0537109337747097,-0.126953125,0.9809569716453552,0.9905950436852806,-0.2765655517578125,0.0362396240234375,-0.0133514404296875,0.2792491284319628
1784816499.312694,-0.0556640587747097,-0.1201171875,0.9760741591453552,0.9850113655808732,-0.278472900390625,-0.38909912109375,-0.0743865966796875,0.48422995369295585
1784816499.320696,-0.06494140625,-0.12841796875,0.9804686903953552,0.9909729631978799,-0.156402587890625,-0.453948974609375,-0.1964569091796875,0.518774284455411
1784816499.331444,-0.0639648362994194,-0.1298828125,0.9887694716453552,0.9993128205539827,0.2689361572265625,0.2193450927734375,-0.0743865966796875,0.35492575583234975
1784816499.342192,-0.0629882737994194,-0.130859375,0.9672850966453552,0.9781268613292631,-0.0972747802734375,-0.3299713134765625,0.2918243408203125,0.45111516987339645
1784816499.35294,-0.0576171875,-0.1240234375,0.9726561903953552,0.9822227945120863,0.270843505859375,-0.514984130859375,0.0476837158203125,0.5838138371584006
