timestamp,accel_x,accel_y,accel_z,accel_rms,gyro_x,gyro_y,gyro_z,gyro_rms
1780402811.442153,-0.0341796837747097,-0.11572265625,0.9746093153953552,0.982050559598587,0.0553131103515625,-0.0400543212890625,0.5359649658203125,0.5402983744353302
1780402811.450161,-0.0356445275247097,-0.109375,0.9897460341453552,0.9964088694275651,0.05340576171875,0.385284423828125,0.4749298095703125,0.613884831746007
1780402811.45817,-0.0356445275247097,-0.09765625,0.9775390028953552,0.983051258932192,-0.37384033203125,0.324249267578125,0.0476837158203125,0.4971598516901964
1780402811.466179,-0.0493164025247097,-0.1181640625,0.9677733778953552,0.9762070293679866,-0.12969970703125,0.324249267578125,-0.2574920654296875,0.43389142108157547
1780402811.476813,-0.0395507737994194,-0.119140625,0.9721679091453552,0.9802393563847429,-0.31280517578125,0.324249267578125,-0.3795623779296875,0.5891114192240108
1780402811.487446,-0.0410156212747097,-0.11962890625,0.9809569716453552,0.9890752937055641,-0.1926422119140625,0.1430511474609375,-0.2574920654296875,0.3519613847573053
1780402811.498078,-0.0371093712747097,-0.13037109375,0.9946288466453552,1.0038228280433978,-0.00762939453125,0.202178955078125,-0.3223419189453125,0.38057699647606447
1780402811.506007,-0.0468749962747097,-0.1259765625,0.9863280653953552,0.9954448312998639,0.2956390380859375,0.0820159912109375,-0.4405975341796875,0.5368940778029796
1780402811.513938,-0.0473632775247097,-0.1171875,0.9721679091453552,0.9803502607671323,0.2346038818359375,-0.0400543212890625,-0.6275177001953125,0.671134706362912
1780402811.521869,-0.0400390587747097,-0.107421875,0.9711913466453552,0.9779341579344178,0.2346038818359375,-0.1621246337890625,-0.1964569091796875,0.3462927885737214
1780402811.5298,-0.0541992112994194,-0.13427734375,0.9853515028953552,0.9959345077906328,0.4177093505859375,-0.2841949462890625,-0.5626678466796875,0.7562029983743288
1780402811.540724,-0.0585937425494194,-0.109375,0.9794921278953552,0.9873200827998581,0.7228851318359375,-0.3452301025390625,-0.1964569091796875,0.824828500170204
1780402811.551646,-0.0507812462747097,-0.1181640625,0.9780272841453552,0.9864475906871363,0.2346038818359375,-0.4062652587890625,0.0476837158203125,0.4715550642564098
1780402811.562569,-0.0449218712747097,-0.11669921875,0.9907225966453552,0.99858296885106,-0.3147125244140625,-0.2231597900390625,0.0476837158203125,0.38873898912738697
1780402811.572972,-0.0498046800494194,-0.11474609375,0.9794921278953552,0.9874472141814364,0.1125335693359375,-0.3452301025390625,0.4749298095703125,0.5978343850474905
1780402811.583376,-0.0322265587747097,-0.10693359375,0.9882811903953552,0.9945717952224516,-0.0705718994140625,-0.2231597900390625,0.5970001220703125,0.6412408522771729
1780402811.593781,-0.0576171875,-0.119140625,0.9931640028953552,1.0019425958945583,-0.31280517578125,-0.03814697265625,0.5970001220703125,0.6750640082765066
1780402811.604498,-0.0317382775247097,-0.119140625,0.9990233778953552,1.0066029586520555,0.1125335693359375,-0.2231597900390625,0.4749298095703125,0.5366772029220712
1780402811.615215,-0.0444335862994194,-0.115234375,0.9770507216453552,0.9848255771662198,-0.12969970703125,-0.102996826171875,0.6542205810546875,0.674859191891912
1780402811.625932,-0.0356445237994194,-0.1103515625,0.9941405653953552,1.0008813432109098,-0.00762939453125,0.14495849609375,0.2307891845703125,0.2726441287930202
1780402811.633937,-0.0327148400247097,-0.10888671875,0.9838866591453552,0.9904340141181504,-0.12969970703125,0.324249267578125,0.1659393310546875,0.38664643166570123
1780402811.641945,-0.0263671837747097,-0.1123046875,0.9804686903953552,0.987231697252608,0.48065185546875,0.324249267578125,-0.0133514404296875,0.5799500449625382
1780402811.649954,-0.0478515587747097,-0.1171875,0.9877929091453552,0.9958702290917545,0.4787445068359375,0.0820159912109375,-0.2574920654296875,0.5497500244648872
1780402811.657961,-0.0361328087747097,-0.1171875,0.9819335341453552,0.9895614965758254,0.1125335693359375,0.0820159912109375,-0.3795623779296875,0.4042994258979819
1780402811.665925,-0.0419921875,-0.1103515625,0.9921874403953552,0.9991880343736674,0.05340576171875,0.202178955078125,-0.3795623779296875,0.4333544784594724
1780402811.67389,-0.0429687462747097,-0.12158203125,0.9868163466453552,0.9952060115804076,0.17547607421875,0.14495849609375,-0.3223419189453125,0.39459996315551327
1780402811.681854,-0.0449218675494194,-0.12939453125,0.9809569716453552,0.9904733712327459,-0.19073486328125,-0.164031982421875,-0.5626678466796875,0.6163451833309999
1780402811.689817,-0.0419921837747097,-0.10888671875,0.9956054091453552,1.0024219629167155,-0.00762939453125,-0.102996826171875,-0.0133514404296875,0.10413844066405256
1780402811.701805,-0.0507812462747097,-0.1162109375,0.9790038466453552,0.9871839994217105,-0.31280517578125,0.14495849609375,-0.2574920654296875,0.43030478424547747
1780402811.713795,-0.0512695275247097,-0.11279296875,0.9838866591453552,0.9916570860414672,-0.1926422119140625,-0.1010894775390625,0.1659393310546875,0.2736164576028649
1780402811.725785,-0.0429687462747097,-0.1064453125,0.9819335341453552,0.9886204444521823,-0.31280517578125,-0.164031982421875,0.1659393310546875,0.3902427844863582
1780402811.737775,-0.0361328087747097,-0.1181640625,0.9829100966453552,0.9906465482824008,-0.6160736083984375,-0.2231597900390625,0.5359649658203125,0.8465255031256403
1780402811.748523,-0.0361328087747097,-0.12109375,0.9873046278953552,0.9953590831567259,-0.31280517578125,0.019073486328125,0.8373260498046875,0.8940502164631302
1780402811.759269,-0.0400390587747097,-0.11181640625,0.9960936903953552,1.0031493781983156,0.17547607421875,-0.164031982421875,0.9021759033203125,0.9336057542733424
1780402811.770015,-0.0537109300494194,-0.11962890625,0.9990233778953552,1.0075929975931703,0.2956390380859375,0.0820159912109375,0.7801055908203125,0.8382683320296669
1780402811.780657,-0.0405273400247097,-0.111328125,0.9814452528953552,0.9885702813337662,-0.31280517578125,0.202178955078125,0.5359649658203125,0.6526728525523258
1780402811.791299,-0.0405273400247097,-0.107421875,0.9931640028953552,0.9997783060084466,0.17547607421875,0.324249267578125,0.9021759033203125,0.9746028938393302
1780402811.801941,-0.0517578125,-0.1201171875,0.9809569716453552,0.9896381106785054,-0.1926422119140625,0.0820159912109375,0.4138946533203125,0.46383879599770095
1780402811.809983,-0.0375976525247097,-0.11767578125,0.9819335341453552,0.9896740061491734,-0.80108642578125,-0.286102294921875,0.7801055908203125,1.1541918027605509
1780402811.818023,-0.0380859337747097,-0.11767578125,0.9702147841453552,0.9780668971080188,-0.3757476806640625,-0.3452301025390625,0.8373260498046875,0.980553444186025
1780402811.826063,-0.0361328087747097,-0.13525390625,0.9809569716453552,0.9908964523326641,-0.31280517578125,-0.469207763671875,0.7801055908203125,0.9625838853391478
1780402811.834104,-0.0351562462747097,-0.13037109375,0.9863280653953552,0.9955278179560044,-0.19073486328125,-0.469207763671875,0.6542205810546875,0.8273694955921521
1780402811.845029,-0.0493164025247097,-0.1162109375,0.9838866591453552,0.9919526438277265,0.2346038818359375,0.2651214599609375,0.9632110595703125,1.0262085144759197
1780402811.855955,-0.0585937425494194,-0.119140625,0.9838866591453552,0.9928044486380723,0.05340576171875,0.873565673828125,0.5359649658203125,1.0262687788597658
1780402811.866882,-0.0336913987994194,-0.103515625,0.9833983778953552,0.9894053591018284,-0.00762939453125,1.483917236328125,0.3490447998046875,1.5244345982046288
1780402811.877222,-0.0463867150247097,-0.10791015625,0.9692382216453552,0.9763293806144183,-0.12969970703125,1.300811767578125,0.4138946533203125,1.3712191847844237
1780402811.887563,-0.0556640587747097,-0.107421875,0.9697265028953552,0.9772448194211343,-0.5588531494140625,1.1806488037109375,0.4749298095703125,1.3898945155415852
1780402811.897904,-0.0615234375,-0.1005859375,0.9819335341453552,0.9889874264437126,-0.43487548828125,0.995635986328125,1.0204315185546875,1.490532854934523
1780402811.905976,-0.0522460900247097,-0.12353515625,0.9990233778953552,1.0079872510771293,-0.6809234619140625,-0.0400543212890625,1.8787384033203125,1.9987293708127463
1780402811.914045,-0.0458984337747097,-0.11669921875,0.9907225966453552,0.9986273766443352,-1.0471343994140625,-0.2231597900390625,2.3021697998046875,2.538951856467405
1780402811.922115,-0.0478515625,-0.1240234375,0.9819335341453552,0.990891038693052,-0.9212493896484375,-0.1010894775390625,2.8553009033203125,3.001943165501061
1780402811.930186,-0.04296875,-0.119140625,0.9868163466453552,0.9949107015247344,-0.6809234619140625,-0.2231597900390625,3.1604766845703125,3.240689730071033
1780402811.940715,-0.0585937462747097,-0.107421875,0.9843749403953552,0.9919509612926336,-0.12969970703125,0.019073486328125,3.4046173095703125,3.4071402725028057
1780402811.951245,-0.0395507737994194,-0.1142578125,0.9790038466453552,0.986441910693083,-0.31280517578125,0.202178955078125,3.2215118408203125,3.2429711605898532
1780402811.961774,-0.0336913987994194,-0.12353515625,0.9843749403953552,0.9926681562642837,-0.31280517578125,0.45013427734375,3.5266876220703125,3.5690325761050814
1780402811.969909,-0.0424804650247097,-0.11279296875,0.9814452528953552,0.9888182988491777,-0.12969970703125,0.690460205078125,3.3435821533203125,3.4165917117505593
1780402811.978045,-0.0341796837747097,-0.1123046875,0.9907225966453552,0.9976531747662246,-0.31280517578125,0.507354736328125,2.9163360595703125,2.976620889334115
1780402811.986179,-0.0380859337747097,-0.13037109375,1.00146484375,1.0106329668600142,-0.12969970703125,0.63323974609375,2.6721954345703125,2.7492622702418354
1780402811.994314,-0.0292968712747097,-0.11279296875,0.9809569716453552,0.9878548176151958,0.0553131103515625,0.4482269287109375,2.2449493408203125,2.2899267373975003
1780402812.00384,-0.0268554650247097,-0.1064453125,0.9829100966453552,0.9890217786491345,0.4177093505859375,0.4482269287109375,1.1425018310546875,1.2964177240194918
1780402812.013366,-0.0322265587747097,-0.1171875,0.9941405653953552,1.0015422732023378,0.66375732421875,0.93841552734375,1.2073516845703125,1.667001972898849
1780402812.022891,-0.0375976525247097,-0.111328125,0.9741210341453552,0.981182615039525,0.48065185546875,0.995635986328125,0.7190704345703125,1.3188553799830627
1780402812.032415,-0.0439453087747097,-0.11181640625,0.9711913466453552,0.9785942625362097,0.54168701171875,0.812530517578125,0.1659393310546875,0.9905385011454335
1780402812.04194,-0.0424804650247097,-0.1015625,0.9760741591453552,0.9822628443885465,0.6008148193359375,1.1196136474609375,-0.4405975341796875,1.344856629473819
1780402812.051656,-0.0258789025247097,-0.10107421875,0.9848632216453552,0.9903743133994714,0.17547607421875,0.690460205078125,-0.3223419189453125,0.7819408290459688
1780402812.061373,-0.0410156212747097,-0.11279296875,0.9843749403953552,0.99166453917963,-0.0705718994140625,1.1196136474609375,-0.5626678466796875,1.2550339510367237
1780402812.071088,-0.0488281212747097,-0.11279296875,0.9794921278953552,0.987173372734307,-0.3757476806640625,0.8754730224609375,-0.5626678466796875,1.1064512814708418
1780402812.080804,-0.0507812462747097,-0.11474609375,0.9887694716453552,0.9966997888340959,-0.19073486328125,0.324249267578125,-0.3223419189453125,0.495400533210466
1780402812.09052,-0.0541992150247097,-0.10791015625,0.9858397841453552,0.9932080530961047,0.05340576171875,0.202178955078125,-0.3795623779296875,0.4333544784594724
1780402812.099978,-0.0678710862994194,-0.125,0.9853515028953552,0.9955646983564647,-0.31280517578125,-0.164031982421875,0.1087188720703125,0.36955833422753437
1780402812.109437,-0.0498046837747097,-0.10205078125,0.9941405653953552,1.0006049831198278,-0.19073486328125,-0.469207763671875,0.2307891845703125,0.5565962282260895
1780402812.118894,-0.0419921837747097,-0.11376953125,0.9848632216453552,0.992301574668045,-0.4329681396484375,-0.2231597900390625,0.4138946533203125,0.6391951860645143
1780402812.128352,-0.0429687462747097,-0.10791015625,0.9897460341453552,0.9965380710664187,-0.19073486328125,0.202178955078125,0.4749298095703125,0.5502857820859021
1780402812.13781,-0.0400390587747097,-0.109375,0.9838866591453552,0.9907567687867558,0.0553131103515625,0.4482269287109375,0.4138946533203125,0.6125975055822098
1780402812.147408,-0.0493164025247097,-0.11181640625,0.9863280653953552,0.9938702474926938,0.29754638671875,0.507354736328125,-0.3223419189453125,0.6707063391927287
1780402812.157006,-0.0454101525247097,-0.11962890625,0.9897460341453552,0.9979831507943144,0.05340576171875,0.690460205078125,-0.2574920654296875,0.7388434434577685
1780402812.166605,-0.0488281212747097,-0.1171875,0.9819335341453552,0.990106338260015,0.17547607421875,0.690460205078125,-0.0743865966796875,0.7162824255734167
1780402812.176203,-0.0537109300494194,-0.1240234375,0.9765624403953552,0.9858706188172065,0.35858154296875,0.14495849609375,-0.1392364501953125,0.41107235082233756
1780402812.185801,-0.0434570275247097,-0.107421875,0.9951171278953552,1.0018413400835982,-0.12969970703125,-0.469207763671875,-0.4405975341796875,0.6565852013403707
1780402812.193955,-0.0405273400247097,-0.10302734375,0.9838866591453552,0.9900959836772734,-0.0705718994140625,-0.7724761962890625,-0.3223419189453125,0.8400024878114786
1780402812.202112,-0.0385742112994194,-0.10400390625,0.9877929091453552,0.9940018177299652,-0.49591064453125,-0.52642822265625,-0.5626678466796875,0.9163237128087292
1780402812.210269,-0.04736328125,-0.1103515625,0.9892577528953552,0.9965197687053307,-0.4978179931640625,-0.4062652587890625,-0.5016326904296875,0.8151745646943145
1780402812.218426,-0.0493164025247097,-0.11279296875,0.9819335341453552,0.9896200416506353,-0.3757476806640625,-0.2231597900390625,-0.6275177001953125,0.7646993366501078
1780402812.226583,-0.0483398400247097,-0.11181640625,0.9902343153953552,0.9976991772206627,-0.0095367431640625,-0.4062652587890625,-0.6847381591796875,0.7962466681914018
1780402812.23474,-0.0458984337747097,-0.11669921875,0.9829100966453552,0.9908772032735506,-0.0095367431640625,-0.5283355712890625,-0.3795623779296875,0.6506128065901841
1780402812.244186,-0.0488281175494194,-0.1083984375,0.9794921278953552,0.9866809184963659,0.35858154296875,-0.52642822265625,-0.3795623779296875,0.7414681350580797
1780402812.253633,-0.0468749962747097,-0.1279296875,0.9863280653953552,0.9956938901118887,0.29754638671875,-0.286102294921875,-0.3795623779296875,0.5607637418276848
1780402812.263078,-0.0532226525247097,-0.1064453125,0.9882811903953552,0.995420999670114,0.35858154296875,-0.164031982421875,-0.1392364501953125,0.4181793912641936
1780402812.272525,-0.0327148400247097,-0.10791015625,0.9887694716453552,0.9951783411216186,0.2346038818359375,0.0209808349609375,-0.0743865966796875,0.2470071710977945
1780402812.281971,-0.0371093712747097,-0.12646484375,0.9858397841453552,0.994610749059589,0.05340576171875,-0.102996826171875,-0.0743865966796875,0.13781831283187962
1780402812.291605,-0.0454101525247097,-0.12060546875,0.9892577528953552,0.9976164907960836,0.1125335693359375,0.0820159912109375,-0.1964569091796875,0.2408022927761171
1780402812.30124,-0.0278320275247097,-0.11181640625,0.9726561903953552,0.9794578067365672,-0.1926422119140625,0.1430511474609375,-0.3223419189453125,0.40184445412420444
1780402812.310876,-0.0410156212747097,-0.1298828125,0.9843749403953552,0.9937534148116522,-0.49591064453125,0.14495849609375,-0.0133514404296875,0.5168351709304515
1780402812.320513,-0.052734375,-0.1240234375,0.9765624403953552,0.985817897660054,-0.4329681396484375,-0.0400543212890625,-0.3795623779296875,0.5771770589205666
1780402812.330148,-0.0458984337747097,-0.12451171875,0.9926757216453552,1.0015063268263347,-0.06866455078125,0.324249267578125,-0.4405975341796875,0.5513425388850041
1780402812.339707,-0.0498046837747097,-0.12158203125,0.9858397841453552,0.9945565729773924,0.1125335693359375,0.2040863037109375,-0.5626678466796875,0.6090239151930207
1780402812.349264,-0.0473632775247097,-0.10595703125,0.9824218153953552,0.9892536559921836,0.1735687255859375,0.2651214599609375,-0.1392364501953125,0.3461246597634112
1780402812.358821,-0.0498046837747097,-0.1142578125,0.9858397841453552,0.9936877951584917,0.1125335693359375,0.2040863037109375,-0.3223419189453125,0.3977679427747109
1780402812.368378,-0.0488281212747097,-0.10791015625,0.9916991591453552,0.9987472200205224,0.11444091796875,0.507354736328125,-0.0743865966796875,0.525394059678731
1780402812.377935,-0.0449218712747097,-0.109375,0.9707030653953552,0.9778779608477537,0.2956390380859375,0.0820159912109375,-0.0133514404296875,0.30709497654022033
1780402812.385976,-0.0410156212747097,-0.11083984375,0.9877929091453552,0.9948379684696995,-0.12969970703125,0.080108642578125,0.1659393310546875,0.22533368636442053
1780402812.394018,-0.0551757775247097,-0.10595703125,0.9843749403953552,0.9915973387293497,-0.0705718994140625,0.0820159912109375,0.5359649658203125,0.546777340777752
1780402812.402061,-0.0346679650247097,-0.11376953125,0.9824218153953552,0.9895948652880656,-0.12969970703125,0.14495849609375,0.3490447998046875,0.3995838483528184
1780402812.410104,-0.0483398362994194,-0.11865234375,0.9804686903953552,0.988804313955196,-0.12969970703125,0.019073486328125,0.7190704345703125,0.730922774140907
1780402812.418147,-0.0488281175494194,-0.1201171875,0.9804686903953552,0.9890051449016395,-0.2536773681640625,-0.1010894775390625,0.3490447998046875,0.4431744147155387
1780402812.42619,-0.0483398362994194,-0.1044921875,0.9785155653953552,0.9852654813515905,-0.43487548828125,-0.102996826171875,0.5359649658203125,0.697842017290521
1780402812.43573,-0.0385742112994194,-0.125,0.9711913466453552,0.9799620408853553,-0.00762939453125,0.14495849609375,0.4138946533203125,0.43861139668026966
1780402812.445268,-0.0532226487994194,-0.109375,0.9848632216453552,0.9923462633173434,0.17547607421875,0.080108642578125,0.6542205810546875,0.6820658442661287
1780402812.454808,-0.0400390550494194,-0.10546875,0.9687499403953552,0.9752964832151386,0.2346038818359375,-0.3452301025390625,0.2918243408203125,0.5092978018476342
1780402812.464346,-0.0478515625,-0.109375,0.9887694716453552,0.9959506668086158,0.05340576171875,-0.34332275390625,0.2307891845703125,0.41711669404275964
1780402812.473886,-0.0400390587747097,-0.12158203125,0.9785155653953552,0.9868525869001066,0.05340576171875,-0.34332275390625,-0.0743865966796875,0.3553252798494893
1780402812.483465,-0.0454101525247097,-0.1240234375,0.9799804091453552,0.9888404812255269,0.17547607421875,-0.286102294921875,0.1087188720703125,0.3527976316913547
1780402812.493046,-0.0507812462747097,-0.1181640625,0.9877929091453552,0.9961306701420053,0.2956390380859375,-0.2231597900390625,-0.1964569091796875,0.41928278034650174
1780402812.502625,-0.0429687462747097,-0.1259765625,0.9877929091453552,0.9967202409972322,0.2956390380859375,0.0820159912109375,-0.1392364501953125,0.3369211372379043
1780402812.512205,-0.0463867150247097,-0.1171875,0.9921874403953552,1.0001602643403307,0.11444091796875,-0.164031982421875,-0.1964569091796875,0.2803542975008881
1780402812.521785,-0.0458984337747097,-0.10986328125,0.9838866591453552,0.9910648640902352,0.2346038818359375,-0.2841949462890625,-0.0133514404296875,0.36876009793669534
1780402812.531408,-0.0371093712747097,-0.111328125,0.9912108778953552,0.9981332883490565,0.1125335693359375,-0.3452301025390625,0.1087188720703125,0.3790348546913052
1780402812.541035,-0.0498046837747097,-0.1015625,0.9873046278953552,0.9937634910760883,-0.12969970703125,0.14495849609375,0.5359649658203125,0.5701696450886548
1780402812.550663,-0.0449218712747097,-0.103515625,0.9780272841453552,0.9845155294207916,-0.0705718994140625,0.0209808349609375,0.7190704345703125,0.7228297713125164
1780402812.56029,-0.0380859375,-0.12451171875,0.9916991591453552,1.000210442352477,-0.2536773681640625,0.1430511474609375,0.6542205810546875,0.716114799863869
1780402812.569916,-0.0297851525247097,-0.111328125,0.9819335341453552,0.988673137192532,-0.19073486328125,0.019073486328125,0.1659393310546875,0.2535339179330913
1780402812.5806,-0.0546874962747097,-0.123046875,0.9829100966453552,0.992090476611606,-0.2536773681640625,-0.1010894775390625,0.2307891845703125,0.3575401198500606
1780402812.591285,-0.0322265587747097,-0.119140625,0.9819335341453552,0.9896597926030126,-0.31280517578125,-0.102996826171875,0.1659393310546875,0.3687699632398161
1780402812.601968,-0.0507812462747097,-0.109375,0.9731444716453552,0.9805874710050757,-0.2536773681640625,-0.1010894775390625,-0.1964569091796875,0.336402447601384
1780402812.609977,-0.0385742112994194,-0.12841796875,0.9916991591453552,1.0007229220542782,-0.1277923583984375,-0.2231597900390625,0.0476837158203125,0.26154333390424134
1780402812.617987,-0.0498046800494194,-0.125,0.9853515028953552,0.9944964004022138,0.0553131103515625,-0.0400543212890625,-0.4405975341796875,0.4458588071978757
1780402812.625997,-0.0346679650247097,-0.1181640625,0.9755858778953552,0.9833272184854385,-0.0095367431640625,0.0820159912109375,-0.6847381591796875,0.6896984260684353
1780402812.634007,-0.0463867150247097,-0.123046875,0.9731444716453552,0.9819890139263101,0.17547607421875,-0.34332275390625,-0.6847381591796875,0.7858299514588273
1780402812.642028,-0.0522460900247097,-0.12841796875,0.9853515028953552,0.9950569897643458,0.1125335693359375,-0.4062652587890625,-0.6275177001953125,0.7559720423301673
1780402812.650048,-0.0429687462747097,-0.107421875,0.9736327528953552,0.9804827942883668,0.17547607421875,-0.286102294921875,-0.5016326904296875,0.603557563029836
1780402812.658067,-0.0502929650247097,-0.11181640625,0.9916991591453552,0.9992494749997352,0.05340576171875,-0.164031982421875,-0.3223419189453125,0.36559947941888077
1780402812.666087,-0.0454101525247097,-0.119140625,0.9838866591453552,0.9921136671379527,0.1125335693359375,-0.4062652587890625,-0.2574920654296875,0.4939812025630901
1780402812.676646,-0.0419921837747097,-0.1142578125,0.9887694716453552,0.9962345402932429,0.05340576171875,-0.286102294921875,-0.0133514404296875,0.2913502351223883
1780402812.687205,-0.0546874962747097,-0.1171875,0.9853515028953552,0.9938013969919652,0.17547607421875,0.202178955078125,-0.0133514404296875,0.2680418688586808
1780402812.697764,-0.0449218712747097,-0.103515625,0.9863280653953552,0.9927620619889271,0.2346038818359375,0.2040863037109375,0.0476837158203125,0.31458534213996026
1780402812.7086,-0.0419921875,-0.1103515625,0.9829100966453552,0.9899762973145408,-0.2536773681640625,-0.1621246337890625,0.6542205810546875,0.7201674615500313
1780402812.719434,-0.0336914025247097,-0.1123046875,0.9736327528953552,0.9806672172297505,-0.31280517578125,-0.102996826171875,0.5359649658203125,0.6290579216445707
1780402812.730269,-0.0356445275247097,-0.119140625,0.9760741591453552,0.9839643210092339,-0.19073486328125,-0.469207763671875,0.1659393310546875,0.5329836537378575
1780402812.738369,-0.0209960900247097,-0.1240234375,0.9902343153953552,0.9981916891219591,-0.0705718994140625,-0.4673004150390625,0.4749298095703125,0.6700062648222641
1780402812.746468,-0.0356445275247097,-0.10595703125,0.9716796278953552,0.9780893231605329,0.29754638671875,-0.469207763671875,0.4138946533203125,0.6928192850855753
1780402812.754568,-0.0292968712747097,-0.1162109375,0.9848632216453552,0.9921284463267768,0.54168701171875,-0.469207763671875,-0.2574920654296875,0.7615004319854308
1780402812.762669,-0.0473632775247097,-0.107421875,0.9916991591453552,0.9986240341269595,0.0553131103515625,-0.0400543212890625,-0.3223419189453125,0.32949689154836953
1780402812.773522,-0.0273437462747097,-0.11279296875,0.9790038466453552,0.9858592526350688,0.17547607421875,0.568389892578125,-0.8106231689453125,1.005469464796986
1780402812.784376,-0.03759765625,-0.10546875,0.9804686903953552,0.9868414735040469,0.17547607421875,1.178741455078125,-0.8678436279296875,1.4742373733836358
1780402812.79523,-0.0483398400247097,-0.1171875,0.9731444716453552,0.9813662990870341,-0.1926422119140625,1.2416839599609375,-1.2340545654296875,1.7611873122110755
1780402812.802992,-0.0493163987994194,-0.10986328125,0.9785155653953552,0.985897945772559,-0.86212158203125,0.507354736328125,-0.9899139404296875,1.407335091630873
1780402812.810755,-0.0463867150247097,-0.12353515625,0.9921874403953552,1.0009238627581931,-0.43487548828125,0.019073486328125,-0.7457733154296875,0.8635150989968577
1780402812.818519,-0.0434570237994194,-0.1210937425494194,0.9921874403953552,1.0004939401517707,-0.61798095703125,-0.52642822265625,-0.3223419189453125,0.873459472197551
1780402812.826282,-0.0605468712747097,-0.12109375,0.9843749403953552,0.9936416070136043,-0.2536773681640625,-0.7724761962890625,-0.0743865966796875,0.8164588456973505
1780402812.83686,-0.06640625,-0.11962890625,0.9877929091453552,0.9972239952024208,-0.61798095703125,-0.591278076171875,0.2918243408203125,0.9036988837605052
1780402812.847439,-0.046875,-0.115234375,0.9921874403953552,0.9999560708775797,-0.31280517578125,-0.469207763671875,0.7801055908203125,0.9625838853391478
1780402812.858018,-0.0546874962747097,-0.11328125,0.9931640028953552,1.0010984469558846,-0.43487548828125,-0.164031982421875,0.5359649658203125,0.7094234462941542
1780402812.865972,-0.0366210900247097,-0.11474609375,0.9799804091453552,0.9873547349226516,-0.43487548828125,-0.164031982421875,0.7190704345703125,0.8562041061792708
1780402812.873924,-0.0336913987994194,-0.109375,0.9833983778953552,0.9900355400819091,-0.61798095703125,0.45013427734375,1.2073516845703125,1.4290624273025343
1780402812.881877,-0.0449218675494194,-0.099609375,0.9848632216453552,0.9909064371178977,-0.4329681396484375,0.2651214599609375,1.3256072998046875,1.4195018533900978
1780402812.88983,-0.0429687462747097,-0.11181640625,0.9809569716453552,0.9882437968855214,-0.31280517578125,0.385284423828125,1.6307830810546875,1.704624481431124
1780402812.900574,-0.0532226487994194,-0.10400390625,0.9946288466453552,1.0014669267826843,-0.1926422119140625,0.2651214599609375,1.3904571533203125,1.4285557411464869
1780402812.911319,-0.029296867549419403,-0.10400390625,0.9853515028953552,0.9912581415663643,-0.00762939453125,0.14495849609375,0.7801055908203125,0.7934960025606834
1780402812.922062,-0.0273437462747097,-0.1240234375,0.9907225966453552,0.9988296936982637,0.2346038818359375,0.2040863037109375,0.2918243408203125,0.4264406718760459
1780402812.930255,-0.0263671837747097,-0.1123046875,0.9799804091453552,0.9867467626110459,0.4177093505859375,-0.0400543212890625,-0.4405975341796875,0.6084501929871285
1780402812.938452,-0.0405273400247097,-0.11572265625,0.9931640028953552,1.0007042195904639,0.35858154296875,0.080108642578125,-0.9288787841796875,0.9989063586106026
1780402812.946648,-0.0502929650247097,-0.11572265625,0.9624022841453552,0.9706385898101978,0.41961669921875,-0.164031982421875,-1.6613006591796875,1.721308962885906
1780402812.954843,-0.0615234337747097,-0.11865234375,0.9926757216453552,1.0016329666723864,0.4177093505859375,0.1430511474609375,-1.3561248779296875,1.426190526155824
1780402812.965229,-0.0522460900247097,-0.1162109375,0.9897460341453552,0.9979137477878325,0.05340576171875,0.14495849609375,-1.1157989501953125,1.1264423812301645
1780402812.975613,-0.0571289025247097,-0.10693359375,0.9677733778953552,0.9753377958117658,-0.0705718994140625,0.1430511474609375,-0.8106231689453125,0.8261682309358912
1780402812.985998,-0.052734375,-0.1201171875,0.9770507216453552,0.9858180185547737,-0.31280517578125,0.14495849609375,-0.1964569091796875,0.39680645250516833
1780402812.996663,-0.0639648362994194,-0.10888671875,0.9902343153953552,0.9982543850088819,-0.49591064453125,-0.102996826171875,0.4749298095703125,0.6943299198359325
1780402813.007326,-0.0537109337747097,-0.13720703125,0.9921874403953552,1.0030685673021942,-0.1926422119140625,-0.3452301025390625,1.0204315185546875,1.0943378498297953
1780402813.01799,-0.0400390587747097,-0.123046875,0.9926757216453552,1.001073797488955,-0.3147125244140625,-0.2231597900390625,1.0852813720703125,1.1518159234340226
1780402813.028595,-0.0541992112994194,-0.1240234375,0.9902343153953552,0.9994415275248989,-0.0705718994140625,-0.1010894775390625,1.2683868408203125,1.2743644115488166
1780402813.039201,-0.0434570237994194,-0.10546875,0.9887694716453552,0.9953277039256472,0.0553131103515625,0.0820159912109375,1.2073516845703125,1.2113976445518821
1780402813.049805,-0.0454101487994194,-0.1201171875,0.9746093153953552,0.9830328265130817,-0.1926422119140625,0.5702972412109375,0.6542205810546875,0.8890188602158459
1780402813.060477,-0.0317382775247097,-0.11572265625,0.9804686903953552,0.9877843409749792,0.2346038818359375,0.6923675537109375,0.0476837158203125,0.7325882524028015
1780402813.071149,-0.029296867549419403,-0.1240234375,0.9921874403953552,1.0003379610790601,0.1125335693359375,0.5702972412109375,-0.7457733154296875,0.9455583459349722
1780402813.081819,-0.0468749962747097,-0.11669921875,0.9887694716453552,0.9967351910063421,0.2346038818359375,0.2040863037109375,-1.1157989501953125,1.1583166656799189
1780402813.089805,-0.0493164025247097,-0.12158203125,0.9843749403953552,0.993080218894332,0.2346038818359375,-0.3452301025390625,-1.1157989501953125,1.1913144430957696
1780402813.097794,-0.0429687462747097,-0.11669921875,0.9780272841453552,0.9859018152666218,0.17547607421875,-0.52642822265625,-1.1157989501953125,1.2461644448022116
1780402813.105782,-0.06494140625,-0.12548828125,0.9829100966453552,0.9930140749577461,0.29754638671875,-0.652313232421875,-0.5016326904296875,0.8750324345701626
1780402813.11377,-0.0380859337747097,-0.1171875,0.9829100966453552,0.9906037081472707,-0.19073486328125,-0.469207763671875,-0.1964569091796875,0.5432596347284742
1780402813.124501,-0.0449218675494194,-0.11474609375,0.9873046278953552,0.9949648579113722,-0.00762939453125,-0.652313232421875,-0.0743865966796875,0.6565852013403707
1780402813.135234,-0.0507812462747097,-0.1123046875,0.9711913466453552,0.9789809546699588,-0.49591064453125,-0.591278076171875,0.2307891845703125,0.8054817058354231
1780402813.145965,-0.0327148400247097,-0.1259765625,0.9809569716453552,0.9895539072111155,-0.49591064453125,-0.469207763671875,0.1659393310546875,0.7025803544365862
1780402813.156589,-0.0385742150247097,-0.126953125,0.9819335341453552,0.9908574728442157,-0.00762939453125,0.202178955078125,-0.0133514404296875,0.2027629120400066
1780402813.167215,-0.0400390587747097,-0.12060546875,0.9931640028953552,1.001260975953371,0.2346038818359375,0.3261566162109375,0.2918243408203125,0.4965667785563883
1780402813.177841,-0.0463867150247097,-0.12353515625,0.9907225966453552,0.999471823346817,0.17547607421875,0.385284423828125,0.4138946533203125,0.5920681750566704
1780402813.188627,-0.0473632775247097,-0.1064453125,0.9829100966453552,0.9897909590911037,0.54168701171875,0.63323974609375,0.0476837158203125,0.8346802570158818
1780402813.199414,-0.0361328087747097,-0.11279296875,0.9814452528953552,0.9885659401882183,0.5435943603515625,0.5702972412109375,-0.0133514404296875,0.7879797160462813
1780402813.2102,-0.0341796837747097,-0.12841796875,0.9760741591453552,0.9850787733131434,0.35858154296875,0.080108642578125,0.1659393310546875,0.4031550311783749
1780402813.218201,-0.0522460900247097,-0.1083984375,0.9785155653953552,0.9858867008415841,-0.0095367431640625,-0.0400543212890625,-0.4405975341796875,0.4425172146361378
1780402813.226201,-0.0444335900247097,-0.11669921875,0.9887694716453552,0.9966233589662542,-0.1277923583984375,0.2651214599609375,-0.7457733154296875,0.8017469135605336
1780402813.234201,-0.0380859375,-0.109375,0.9956054091453552,1.0023190908985742,-0.5588531494140625,0.0820159912109375,-0.7457733154296875,0.9355326308746891
1780402813.242201,-0.0371093712747097,-0.1162109375,0.9873046278953552,0.9948128043479432,0.17547607421875,0.019073486328125,-0.8678436279296875,0.885611773319492
1780402813.252792,-0.0522460900247097,-0.11328125,0.9707030653953552,0.9786862299492989,0.2956390380859375,0.4482269287109375,-0.5016326904296875,0.7348096192686545
1780402813.263384,-0.0532226487994194,-0.1240234375,0.9868163466453552,0.9960024926680799,0.17547607421875,0.14495849609375,-0.3223419189453125,0.39459996315551327
1780402813.273974,-0.0458984337747097,-0.111328125,0.9726561903953552,0.9800819773638287,-0.1926422119140625,0.6313323974609375,0.1659393310546875,0.680608168835634
1780402813.282075,-0.0556640587747097,-0.111328125,0.9902343153953552,0.9980262713184447,-0.12969970703125,0.45013427734375,0.5359649658203125,0.7118295626275583
1780402813.290175,-0.0502929650247097,-0.1171875,0.9780272841453552,0.9863060686318249,-0.43487548828125,0.507354736328125,0.7190704345703125,0.9816250855879626
1780402813.298275,-0.0429687462747097,-0.1083984375,0.9858397841453552,0.9927117478969524,-0.2536773681640625,0.0820159912109375,0.7801055908203125,0.8244049749741122
1780402813.306376,-0.0454101525247097,-0.1171875,0.9916991591453552,0.9996310391130179,-0.2536773681640625,0.2040863037109375,0.5359649658203125,0.6271059488378395
1780402813.316885,-0.030273430049419403,-0.115234375,0.9848632216453552,0.992043853414891,-0.43487548828125,0.324249267578125,0.6542205810546875,0.8498581331659649
1780402813.327395,-0.0424804650247097,-0.1279296875,0.9746093153953552,0.9838871441928522,-0.12969970703125,-0.03814697265625,0.2918243408203125,0.3216187983032688
1780402813.337905,-0.0458984337747097,-0.11181640625,0.9838866591453552,0.9912832758469422,0.1125335693359375,-0.4062652587890625,-0.0133514404296875,0.4217742591576419
1780402813.348542,-0.04248046875,-0.11962890625,0.9833983778953552,0.9915583871275594,0.35858154296875,-0.408172607421875,-0.3223419189453125,0.6317356354653171
1780402813.359182,-0.0473632775247097,-0.103515625,0.9824218153953552,0.988995140555164,0.2956390380859375,-0.1010894775390625,-0.3795623779296875,0.49161887885753325
1780402813.369823,-0.0400390587747097,-0.12060546875,0.9809569716453552,0.9891538735402081,0.4787445068359375,-0.5283355712890625,-0.1392364501953125,0.7264444698515619
1780402813.377866,-0.0595703087747097,-0.10693359375,0.9912108778953552,0.9987404165336883,0.4177093505859375,-0.1010894775390625,-0.4405975341796875,0.6154887254542256
1780402813.38591,-0.0522460900247097,-0.12109375,0.9897460341453552,0.9984941473631136,0.29754638671875,-0.469207763671875,-0.3223419189453125,0.6423348740716889
1780402813.393954,-0.0493164025247097,-0.12646484375,0.9902343153953552,0.9994946041120977,0.1125335693359375,-0.1010894775390625,0.1659393310546875,0.22454119507895215
1780402813.401997,-0.0483398362994194,-0.10546875,0.9848632216453552,0.9916733143277,0.2346038818359375,-0.3452301025390625,0.0476837158203125,0.4201149150245138
1780402813.410419,-0.0351562425494194,-0.115234375,0.9848632216453552,0.9922048618715301,-0.12969970703125,0.019073486328125,0.5970001220703125,0.6112241468043202
1780402813.418841,-0.0488281175494194,-0.12451171875,0.9692382216453552,0.9784222419118188,-0.1926422119140625,-0.1010894775390625,0.5359649658203125,0.5784362962911577
1780402813.427263,-0.0458984300494194,-0.10546875,0.9760741591453552,0.9828281066691551,-0.1926422119140625,-0.0400543212890625,0.7801055908203125,0.8045371982041469
1780402813.435685,-0.0463867150247097,-0.103515625,0.9770507216453552,0.9836134020120068,-0.1926422119140625,0.0820159912109375,1.2683868408203125,1.2855515635677894
1780402813.445788,-0.0375976525247097,-0.111328125,0.9819335341453552,0.9889393309857647,-0.43487548828125,0.324249267578125,1.2073516845703125,1.3236133756001325
1780402813.455891,-0.0380859375,-0.12939453125,0.9916991591453552,1.0008300083442072,-0.12969970703125,0.14495849609375,0.7190704345703125,0.7449142698773409
1780402813.465995,-0.0385742112994194,-0.12353515625,0.9833983778953552,0.9918776508492869,-0.3757476806640625,0.4482269287109375,0.4138946533203125,0.7165210975213527
1780402813.47691,-0.03759765625,-0.1201171875,0.9916991591453552,0.999654412653697,0.17547607421875,0.202178955078125,-0.0743865966796875,0.277851665939388
1780402813.487826,-0.0405273400247097,-0.11767578125,0.9916991591453552,0.999478502536138,0.1125335693359375,0.2040863037109375,-0.1964569091796875,0.3048119760677314
1780402813.498743,-0.0405273400247097,-0.1240234375,0.9794921278953552,0.9881442743586413,0.29754638671875,-0.164031982421875,-0.3223419189453125,0.4683424561322416
1780402813.509224,-0.0488281212747097,-0.12744140625,0.9863280653953552,0.9957251377969422,0.2346038818359375,-0.2231597900390625,-0.6847381591796875,0.7574335745790227
1780402813.519706,-0.03759765625,-0.11962890625,0.9770507216453552,0.985064856562132,0.4177093505859375,-0.2231597900390625,-0.7457733154296875,0.8834360369965628
1780402813.530189,-0.0585937425494194,-0.1240234375,0.9946288466453552,1.0040426197599053,0.1125335693359375,-0.2841949462890625,-0.6847381591796875,0.749864600018241
1780402813.540894,-0.0439453050494194,-0.12841796875,0.9755858778953552,0.9849823194771637,-0.00762939453125,-0.286102294921875,-0.3795623779296875,0.4753738839693615
1780402813.5516,-0.0551757775247097,-0.1142578125,0.9780272841453552,0.9862233938999221,0.4177093505859375,-0.2841949462890625,0.0476837158203125,0.5074658666527249
1780402813.562307,-0.0502929650247097,-0.1064453125,0.9916991591453552,0.9986627103951583,0.1125335693359375,-0.3452301025390625,0.2918243408203125,0.46584232721150165
1780402813.570224,-0.0415039025247097,-0.1083984375,0.9848632216453552,0.9916795654478769,0.2346038818359375,-0.2841949462890625,0.3490447998046875,0.5075805563055268
1780402813.57814,-0.03759765625,-0.1142578125,0.9838866591453552,0.9912120809983032,-0.00762939453125,0.202178955078125,0.7801055908203125,0.805915175664601
1780402813.586056,-0.0478515587747097,-0.10693359375,0.9765624403953552,0.983564316727885,0.0553131103515625,-0.0400543212890625,1.0852813720703125,1.087427949518271
1780402813.593972,-0.0371093712747097,-0.103515625,0.9995116591453552,1.0055427125801497,0.1125335693359375,0.3871917724609375,1.0852813720703125,1.1577637623676726
1780402813.604645,-0.0537109337747097,-0.1357421875,0.9848632216453552,0.9956236092137954,-0.0095367431640625,0.2651214599609375,0.7801055908203125,0.8239812320866933
1780402813.615319,-0.0268554650247097,-0.111328125,0.9887694716453552,0.9953794429641111,0.05340576171875,0.14495849609375,0.6542205810546875,0.6722125479712905
1780402813.625991,-0.0449218712747097,-0.12158203125,0.9858397841453552,0.994324014014274,-0.1926422119140625,-0.0400543212890625,0.1659393310546875,0.257393146870594
1780402813.634161,-0.0341796837747097,-0.13134765625,0.9941405653953552,1.003362308117015,0.4787445068359375,-0.2231597900390625,0.1087188720703125,0.5392739450966498
1780402813.642331,-0.0415039025247097,-0.11767578125,0.9882811903953552,0.9961274389890276,0.2346038818359375,-0.4673004150390625,-0.5016326904296875,0.7245992101678674
1780402813.650501,-0.0429687462747097,-0.1162109375,0.9892577528953552,0.9969865579909375,0.29754638671875,-0.164031982421875,-0.3223419189453125,0.4683424561322416
1780402813.658671,-0.0371093712747097,-0.11083984375,0.9970702528953552,1.0038982346870307,0.2346038818359375,-0.1010894775390625,-0.7457733154296875,0.7883120586725788
1780402813.667006,-0.0380859375,-0.1240234375,0.9843749403953552,0.9928878964731767,0.54168701171875,-0.102996826171875,-0.7457733154296875,0.9274756076971818
1780402813.675339,-0.04296875,-0.1103515625,0.9794921278953552,0.9866248574973797,0.2346038818359375,-0.2841949462890625,-0.7457733154296875,0.8318555084122012
1780402813.683673,-0.0566406212747097,-0.1162109375,0.9770507216453552,0.9855664638372814,0.1125335693359375,-0.5893707275390625,-0.4405975341796875,0.7444110731528857
1780402813.692008,-0.0517578125,-0.115234375,0.9897460341453552,0.9977750470135462,0.1125335693359375,-0.5283355712890625,-0.0743865966796875,0.5452849217449651
1780402813.702191,-0.0551757775247097,-0.12158203125,0.9965819716453552,1.0054860431437505,0.7228851318359375,-0.3452301025390625,-0.1964569091796875,0.824828500170204
1780402813.712376,-0.0458984337747097,-0.111328125,0.9941405653953552,1.0014070508058068,0.78582763671875,-0.286102294921875,-0.0743865966796875,0.8395909501394865
1780402813.722559,-0.0493164025247097,-0.1123046875,0.9848632216453552,0.9924716699947258,0.48065185546875,0.019073486328125,0.2307891845703125,0.5335294291422836
1780402813.730376,-0.04296875,-0.1240234375,0.9785155653953552,0.9872795137380652,-0.0095367431640625,0.4482269287109375,-0.1392364501953125,0.46945193380665595
1780402813.738191,-0.03271484375,-0.115234375,0.9721679091453552,0.9795201201380599,0.11444091796875,0.995635986328125,-0.3223419189453125,1.0527545077967868
1780402813.746007,-0.0395507737994194,-0.0947265625,0.9833983778953552,0.9887415005947788,-0.3757476806640625,1.5468597412109375,-0.6847381591796875,1.7328669092404003
1780402813.753824,-0.0400390587747097,-0.119140625,0.9814452528953552,0.9894606607560419,-0.3757476806640625,1.2416839599609375,-0.4405975341796875,1.3700699117468125
1780402813.76345,-0.0498046800494194,-0.11474609375,0.9780272841453552,0.9859941889881746,-0.9212493896484375,1.0585784912109375,-0.3223419189453125,1.439858733588608
1780402813.773077,-0.0502929650247097,-0.11328125,0.9824218153953552,0.9902093956821681,-0.61798095703125,0.45013427734375,-0.5626678466796875,0.9492715294267473
1780402813.782704,-0.0507812462747097,-0.12255859375,0.9829100966453552,0.9918223641169682,-0.3757476806640625,0.2040863037109375,-0.8106231689453125,0.9164864761237648
1780402813.792331,-0.0463867150247097,-0.12109375,0.9824218153953552,0.9909430089488253,-0.3147125244140625,-0.2231597900390625,-0.5016326904296875,0.6328345921495419
1780402813.801958,-0.0449218712747097,-0.119140625,0.9760741591453552,0.9843440593590863,-0.43487548828125,-0.469207763671875,-0.3223419189453125,0.7163636845256494
1780402813.811552,-0.0620117150247097,-0.11328125,0.9824218153953552,0.9908737143382974,-0.31280517578125,-0.286102294921875,-0.5626678466796875,0.7044832906764067
1780402813.821144,-0.0434570275247097,-0.11279296875,0.9819335341453552,0.9893453555356235,0.11444091796875,-0.469207763671875,0.1659393310546875,0.5106745644599596
1780402813.830737,-0.0551757775247097,-0.11962890625,0.9921874403953552,1.0008952784953649,-0.0095367431640625,-0.5283355712890625,-0.5626678466796875,0.7718967100892927
1780402813.840331,-0.0507812462747097,-0.12939453125,0.9780272841453552,0.9878557831097409,-0.31280517578125,-0.52642822265625,0.0476837158203125,0.6142047609380681
1780402813.849923,-0.0600585900247097,-0.1181640625,0.9829100966453552,0.9918074601401431,-0.4978179931640625,-0.7114410400390625,0.2918243408203125,0.9160417859819319
1780402813.859536,-0.0371093712747097,-0.11669921875,0.9819335341453552,0.9895399327831353,-0.1926422119140625,-0.8945465087890625,0.2918243408203125,0.9604613079625086
1780402813.86915,-0.0302734337747097,-0.12890625,0.9907225966453552,0.999532173361763,-0.00762939453125,-0.164031982421875,0.4749298095703125,0.5025166892120669
1780402813.878765,-0.0405273400247097,-0.10986328125,0.9858397841453552,0.9927701072555799,-0.2536773681640625,-0.3452301025390625,0.3490447998046875,0.5526013962056839
1780402813.888378,-0.0336914025247097,-0.107421875,0.9819335341453552,0.9883663467114737,0.17547607421875,0.019073486328125,0.6542205810546875,0.6776136208632958
1780402813.897992,-0.0439453087747097,-0.1025390625,0.9892577528953552,0.9955281769820737,0.2346038818359375,0.2651214599609375,0.4749298095703125,0.5923568974214809
1780402813.905965,-0.0483398400247097,-0.1171875,0.9892577528953552,0.9973467561251865,0.2346038818359375,0.4482269287109375,0.0476837158203125,0.5081536162899588
1780402813.913936,-0.0341796800494194,-0.12451171875,0.9785155653953552,0.9869975331049979,0.17547607421875,0.202178955078125,0.2307891845703125,0.3534569708102197
1780402813.921908,-0.0415039025247097,-0.11376953125,0.9897460341453552,0.9971275205669955,0.60272216796875,0.507354736328125,-0.1392364501953125,0.8000435171279892
1780402813.92988,-0.0483398400247097,-0.11767578125,0.9804686903953552,0.9886876061082163,-0.00762939453125,0.202178955078125,-0.6275177001953125,0.6593276890862464
1780402813.940856,-0.0410156212747097,-0.1015625,0.9848632216453552,0.990935309666816,0.1125335693359375,0.5702972412109375,-0.5016326904296875,0.7678138470150295
1780402813.951831,-0.0483398362994194,-0.1201171875,0.9775390028953552,0.9860767620667319,0.1735687255859375,0.2651214599609375,-0.5016326904296875,0.5933387288396672
1780402813.962806,-0.0527343712747097,-0.107421875,0.9912108778953552,0.998408422240285,-0.0705718994140625,0.2040863037109375,-0.6847381591796875,0.7179818653601835
1780402813.973229,-0.0488281175494194,-0.1083984375,0.9750975966453552,0.9823185477732818,-0.2536773681640625,0.0820159912109375,-0.5626678466796875,0.622634672677417
1780402813.983653,-0.0590820237994194,-0.10009765625,0.9892577528953552,0.9960628132736138,-0.31280517578125,-0.774383544921875,-0.5626678466796875,1.007031309507537
1780402813.994077,-0.0449218675494194,-0.1103515625,0.9824218153953552,0.9896201619283149,0.11444091796875,-0.835418701171875,-0.1964569091796875,0.8658039311170103
1780402814.002167,-0.0419921837747097,-0.1142578125,0.9765624403953552,0.9841201101524071,-0.12969970703125,-0.164031982421875,0.2918243408203125,0.35901246657526015
1780402814.010257,-0.0522460900247097,-0.11572265625,0.9858397841453552,0.9939826291722539,0.05340576171875,0.385284423828125,0.2918243408203125,0.48626917291202004
1780402814.018348,-0.0473632775247097,-0.10888671875,0.9731444716453552,0.9803620557079623,0.2346038818359375,0.8144378662109375,-0.0743865966796875,0.8508121914125949
1780402814.026437,-0.0415039025247097,-0.11865234375,0.9956054091453552,1.0035093837735842,0.17547607421875,0.995635986328125,-0.1392364501953125,1.0205242079234547
1780402814.037084,-0.0361328087747097,-0.10888671875,0.9790038466453552,0.9857030126445254,0.1125335693359375,0.6313323974609375,-0.0133514404296875,0.6414223735361972
1780402814.047731,-0.0449218712747097,-0.11865234375,0.9829100966453552,0.9910643830163464,0.1125335693359375,0.3871917724609375,0.2918243408203125,0.49773760033188025
1780402814.058378,-0.04296875,-0.1240234375,0.9912108778953552,0.9998635561835223,0.2346038818359375,-0.1621246337890625,-0.0743865966796875,0.29471468239521875
1780402814.066314,-0.0415039025247097,-0.1171875,0.9858397841453552,0.9936476055849937,0.1125335693359375,-0.4062652587890625,-0.1964569091796875,0.4650920144346344
1780402814.07425,-0.0498046837747097,-0.11767578125,0.9931640028953552,1.0013505044018411,-0.00762939453125,-0.591278076171875,-0.1392364501953125,0.6074987737316173
1780402814.082186,-0.0502929650247097,-0.11181640625,0.9863280653953552,0.9939191836483416,0.17547607421875,-0.52642822265625,-0.3223419189453125,0.6417342432359279
1780402814.090122,-0.0590820237994194,-0.115234375,0.9887694716453552,0.9972134750271432,-0.5588531494140625,-0.3452301025390625,-0.3223419189453125,0.7317137275044759
1780402814.100987,-0.0424804650247097,-0.1064453125,0.9731444716453552,0.9798700715686013,-0.4329681396484375,-0.4062652587890625,-0.1392364501953125,0.6098357643764135
1780402814.111853,-0.0415039025247097,-0.11279296875,0.9936522841453552,1.0008944447400538,-0.37384033203125,-0.469207763671875,-0.2574920654296875,0.6528511952217319
1780402814.12272,-0.0463867150247097,-0.12060546875,0.9794921278953552,0.9879788636565874,-0.1926422119140625,-0.1010894775390625,-0.1392364501953125,0.2582961349754481
1780402814.130761,-0.0405273400247097,-0.10302734375,0.9956054091453552,1.0017420973330158,-0.0095367431640625,0.2651214599609375,-0.1392364501953125,0.29961162705240263
1780402814.138804,-0.0454101525247097,-0.11376953125,0.9790038466453552,0.9866377855827154,-0.0705718994140625,-0.2231597900390625,-0.1964569091796875,0.30557487141717493
1780402814.146847,-0.0537109300494194,-0.1142578125,0.9682616591453552,0.9764580647907901,0.17547607421875,-0.03814697265625,-0.0133514404296875,0.18007027824604602
1780402814.154891,-0.0463867150247097,-0.11962890625,0.9931640028953552,1.0014177645660576,0.4177093505859375,-0.0400543212890625,-0.0133514404296875,0.4198377200566912
1780402814.165265,-0.0488281212747097,-0.12255859375,0.9814452528953552,0.9902724770284304,0.35858154296875,-0.164031982421875,-0.1392364501953125,0.4181793912641936
1780402814.17564,-0.04736328125,-0.10009765625,0.9843749403953552,0.9905840925816792,0.1125335693359375,-0.0400543212890625,-0.0743865966796875,0.140717868968373
1780402814.186016,-0.0429687462747097,-0.1181640625,0.9897460341453552,0.9977004915952397,0.11444091796875,0.019073486328125,-0.4405975341796875,0.4556168441919814
1780402814.196783,-0.0498046837747097,-0.11279296875,0.9882811903953552,0.9959430062079846,-0.12969970703125,0.14495849609375,-0.0743865966796875,0.208250679132963
1780402814.207551,-0.0449218712747097,-0.1171875,0.9741210341453552,0.9821724257173421,-0.1926422119140625,0.0820159912109375,-0.0743865966796875,0.2221958829299986
1780402814.218319,-0.0478515587747097,-0.130859375,0.9809569716453552,0.9908029712925706,0.17547607421875,0.202178955078125,-0.0743865966796875,0.277851665939388
1780402814.2262,-0.0488281212747097,-0.1064453125,0.9868163466453552,0.9937410588211228,-0.0705718994140625,0.1430511474609375,0.0476837158203125,0.16648651756593313
1780402814.234082,-0.0512695275247097,-0.119140625,0.9741210341453552,0.9827180888446156,0.0553131103515625,0.0820159912109375,0.0476837158203125,0.10981757484805894
1780402814.241962,-0.0561523400247097,-0.13330078125,0.9721679091453552,0.9828695880655595,-0.0705718994140625,-0.1010894775390625,0.0476837158203125,0.13218627845000214
1780402814.249843,-0.0556640587747097,-0.11279296875,0.9809569716453552,0.9889880289762556,0.17547607421875,0.019073486328125,0.2307891845703125,0.2905499926321858
1780402814.260505,-0.0307617150247097,-0.125,0.9755858778953552,0.9840422187386638,0.1125335693359375,-0.1010894775390625,0.1087188720703125,0.18628655303281513
1780402814.271168,-0.0561523400247097,-0.1240234375,0.9892577528953552,0.9985818944899485,0.35858154296875,-0.286102294921875,0.1659393310546875,0.4878228240952756
1780402814.281829,-0.0253906212747097,-0.09765625,0.9853515028953552,0.9905044225398054,0.2346038818359375,0.0209808349609375,0.2918243408203125,0.3750208296926432
1780402814.28983,-0.0366210900247097,-0.1201171875,0.9926757216453552,1.000586993375206,0.244140625,-0.339508056640625,0.3376007080078125,0.5374426512165374
1780402814.297833,-0.0493164025247097,-0.10791015625,0.9863280653953552,0.9934383533800287,0.244140625,0.148773193359375,0.2765655517578125,0.39777708865247613
1780402814.305836,-0.0356445275247097,-0.11181640625,0.9804686903953552,0.9874676166308988,0.1201629638671875,-0.0934600830078125,0.2155303955078125,0.26386980954426803
1780402814.321836,-0.0454101525247097,-0.10791015625,0.9716796278953552,0.9787073020270528,0.0591278076171875,0.1506805419921875,0.2155303955078125,0.2695441981501895
1780402814.329829,-0.0454101525247097,-0.11474609375,0.9775390028953552,0.9852975439758522,0.1201629638671875,0.5779266357421875,0.4596710205078125,0.7481549179684137
1780402814.337823,-0.0454101525247097,-0.1220703125,0.9809569716453552,0.9895654719955579,0.2422332763671875,0.2117156982421875,0.2765655517578125,0.42425110663481186
1780402814.345817,-0.0444335900247097,-0.107421875,0.9897460341453552,0.9965495548428378,0.1220703125,0.148773193359375,-0.0286102294921875,0.1945589100704187
1780402814.356498,-0.0473632775247097,-0.11767578125,0.9868163466453552,0.9949358630369931,-0.06103515625,-0.034332275390625,0.1544952392578125,0.16962539428189505
1780402814.36718,-0.0541992112994194,-0.115234375,0.9794921278953552,0.9877354627105835,0.54931640625,-0.034332275390625,0.1544952392578125,0.5716607370304886
1780402814.37786,-0.0605468712747097,-0.111328125,0.9775390028953552,0.9857192182456509,0.6103515625,-0.339508056640625,0.0324249267578125,0.6991753186757487
1780402814.388544,-0.037109375,-0.115234375,0.9819335341453552,0.9893682491235095,0.6084442138671875,0.2117156982421875,-0.0896453857421875,0.650433850176559
1780402814.399226,-0.0463867150247097,-0.111328125,0.9833983778953552,0.9907663944613861,0.48828125,0.331878662109375,-0.2117156982421875,0.6272045618036018
1780402814.409909,-0.0415039025247097,-0.10791015625,0.9877929091453552,0.9945360763212786,0.8544921875,0.148773193359375,-0.0286102294921875,0.8678184757150984
1780402814.41789,-0.0478515587747097,-0.11181640625,0.9692382216453552,0.9768395009837006,0.67138671875,0.453948974609375,-0.0286102294921875,0.8109552039998204
1780402814.42587,-0.0444335900247097,-0.12353515625,0.9858397841453552,0.9945427888009427,0.67138671875,0.331878662109375,0.1544952392578125,0.7647040940329332
1780402814.433851,-0.0410156212747097,-0.11083984375,0.9956054091453552,1.0025955729358498,0.732421875,-0.034332275390625,0.3986358642578125,0.8345843638510049
1780402814.441833,-0.0522460900247097,-0.11279296875,0.9863280653953552,0.9941302531906232,0.5474090576171875,-0.3376007080078125,0.0324249267578125,0.6439582985597461
1780402814.452487,-0.0307617150247097,-0.11767578125,0.9746093153953552,0.9821696341566778,0.6084442138671875,0.2117156982421875,0.2155303955078125,0.6793241123781717
1780402814.46314,-0.0546874925494194,-0.11962890625,0.9907225966453552,0.9994163599599665,0.3662109375,0.331878662109375,0.1544952392578125,0.517805635409143
1780402814.473794,-0.0405273400247097,-0.103515625,0.9814452528953552,0.9877209800036885,0.3662109375,0.148773193359375,-0.3337860107421875,0.5173557912830962
1780402814.484506,-0.0322265587747097,-0.12451171875,0.9833983778953552,0.991773204338449,-0.0629425048828125,0.2727508544921875,-0.0286102294921875,0.28137756267822234
1780402814.495219,-0.0488281212747097,-0.11083984375,0.9770507216453552,0.9845292118862963,-0.4291534423828125,0.2117156982421875,0.0934600830078125,0.4875766617743533
1780402814.505933,-0.0493164025247097,-0.1162109375,0.9965819716453552,1.0045460247102427,-0.1850128173828125,0.0896453857421875,0.0934600830078125,0.22583362215715075
1780402814.514136,-0.0385742112994194,-0.10546875,0.9858397841453552,0.9922155547096081,-0.48828125,0.148773193359375,0.2765655517578125,0.5805519327183501
1780402814.522336,-0.0444335900247097,-0.12060546875,0.9794921278953552,0.9878890887259876,-0.244140625,0.148773193359375,-0.0286102294921875,0.2873267357370912
1780402814.530537,-0.0488281212747097,-0.10791015625,0.9897460341453552,0.9968079049423594,-0.0629425048828125,-0.4596710205078125,0.1544952392578125,0.48900714204288
1780402814.538738,-0.0537109337747097,-0.11669921875,0.9848632216453552,0.9932064928369526,0.1220703125,-0.034332275390625,0.1544952392578125,0.19987157196728628
1780402814.5493,-0.0546874962747097,-0.119140625,0.9882811903953552,0.9969377724128259,-0.0629425048828125,0.5168914794921875,0.4596710205078125,0.6945761351984671
1780402814.559863,-0.0581054612994194,-0.11474609375,0.9785155653953552,0.986932430506108,0.18310546875,0.514984130859375,0.1544952392578125,0.5679833154912843
1780402814.570424,-0.0444335862994194,-0.1201171875,0.9912108778953552,0.9994505924668907,0.244140625,-0.034332275390625,0.3376007080078125,0.4180401750505143
1780402814.581197,-0.0419921837747097,-0.11572265625,0.9838866591453552,0.9915583869404428,-0.06103515625,-0.644683837890625,-0.0896453857421875,0.6537421787835883
1780402814.59197,-0.0375976525247097,-0.10595703125,0.9765624403953552,0.983013059901858,-0.18310546875,-0.278472900390625,-0.4558563232421875,0.5646943920192673
1780402814.602744,-0.0336914025247097,-0.1123046875,0.9848632216453552,0.9918180371359571,-0.30517578125,-0.339508056640625,-0.3948211669921875,0.603557563029836
1780402814.610586,-0.0546874925494194,-0.10986328125,0.9892577528953552,0.9968407917375407,0.244140625,-0.827789306640625,-0.8220672607421875,1.1919036715054288
1780402814.618433,-0.03759765625,-0.10546875,0.9863280653953552,0.9926632327071452,-0.18310546875,-0.034332275390625,-0.8220672607421875,0.8429121537881742
1780402814.626278,-0.0502929650247097,-0.12255859375,0.9946288466453552,1.0034124445172203,-0.2460479736328125,-0.8869171142578125,-0.3948211669921875,1.001521505908531
1780402814.634125,-0.0576171875,-0.11474609375,0.9765624403953552,0.9849673123090054,-0.0629425048828125,-0.7038116455078125,-0.4558563232421875,0.8409028354769791
1780402814.644742,-0.0512695275247097,-0.115234375,0.9838866591453552,0.9919377418358755,-0.244140625,-0.034332275390625,-0.3948211669921875,0.4654751376969141
1780402814.65536,-0.0537109337747097,-0.111328125,0.9912108778953552,0.9988882921934003,-0.4291534423828125,0.2727508544921875,-0.2727508544921875,0.5770257657691334
1780402814.665978,-0.0532226487994194,-0.1181640625,0.9843749403953552,0.9928692861047165,-0.2460479736328125,0.0286102294921875,0.1544952392578125,0.2919365162389549
1780402814.673985,-0.0463867150247097,-0.10888671875,0.9838866591453552,0.9909798196205277,-0.0629425048828125,0.0286102294921875,0.6427764892578125,0.6464842761391164
1780402814.681989,-0.0454101525247097,-0.1142578125,0.9750975966453552,0.9828185247812286,0.0,0.026702880859375,1.0700225830078125,1.0703557221750633
1780402814.689995,-0.0424804650247097,-0.1162109375,0.9829100966453552,0.9906673659663601,0.0,0.148773193359375,1.1310577392578125,1.1408001896026052
1780402814.697999,-0.03271484375,-0.10986328125,0.9804686903953552,0.9871469264573468,0.2422332763671875,0.5779266357421875,0.8258819580078125,1.0367049556371781
1780402814.708663,-0.0361328087747097,-0.1123046875,0.9848632216453552,0.9919039711857648,0.4253387451171875,0.5168914794921875,0.8869171142578125,1.1111758714231028
1780402814.719326,-0.0429687462747097,-0.1171875,0.9858397841453552,0.993709868782851,0.30517578125,0.331878662109375,-0.0286102294921875,0.45176791503675
1780402814.729988,-0.0322265625,-0.10498046875,0.9809569716453552,0.9870846115552417,-0.18310546875,0.637054443359375,-0.3337860107421875,0.7421449167495955
1780402814.740625,-0.03271484375,-0.1103515625,0.9902343153953552,0.9969010621592728,0.3662109375,0.946044921875,-0.6999969482421875,1.2325206580412678
1780402814.751265,-0.0385742112994194,-0.11328125,0.9760741591453552,0.9833826190909858,-0.18310546875,0.698089599609375,-1.0662078857421875,1.2874998863641738
1780402814.761903,-0.0351562425494194,-0.10498046875,0.9814452528953552,0.9876698054714395,-0.18310546875,0.698089599609375,-1.3713836669921875,1.5496934741625112
1780402814.77263,-0.0468749962747097,-0.1220703125,0.9765624403953552,0.9852779437603043,-0.48828125,-0.827789306640625,-0.6999969482421875,1.1889699082981473
1780402814.78336,-0.0415039025247097,-0.12548828125,0.9790038466453552,0.9878858306516305,-0.5512237548828125,-0.9479522705078125,-0.6389617919921875,1.2691466844828818
1780402814.794091,-0.0615234337747097,-0.11767578125,0.9804686903953552,0.9894198174899328,-0.7915496826171875,-1.3751983642578125,-0.6389617919921875,1.7105535983226603
1780402814.802146,-0.0458984337747097,-0.115234375,0.9921874403953552,0.9999107681602887,-0.48828125,-1.010894775390625,0.0324249267578125,1.1231109481653512
1780402814.810205,-0.0380859337747097,-0.1279296875,0.9848632216453552,0.993867249005121,-0.5512237548828125,-0.7648468017578125,0.2155303955078125,0.9671047562151763
1780402814.818264,-0.0551757775247097,-0.12060546875,0.9951171278953552,1.0039164027689578,-0.4291534423828125,-0.5817413330078125,0.9479522705078125,1.192144774261768
1780402814.826324,-0.0449218712747097,-0.11376953125,0.9750975966453552,0.982739438377851,-0.0629425048828125,-0.2765655517578125,0.9479522705078125,0.989476513364993
1780402814.83687,-0.0327148400247097,-0.11669921875,0.9848632216453552,0.992292564601978,-0.30517578125,-0.034332275390625,1.1310577392578125,1.1720079232368863
1780402814.847417,-0.0444335900247097,-0.1162109375,0.9897460341453552,0.9975352314698321,-0.1850128173828125,0.0896453857421875,0.9479522705078125,0.9699894560982137
1780402814.857965,-0.0341796837747097,-0.1220703125,0.9838866591453552,0.9920193395398071,0.1201629638671875,0.2117156982421875,0.7038116455078125,0.7447237790751271
1780402814.86889,-0.0312499962747097,-0.1279296875,0.9785155653953552,0.9873374696282972,0.3032684326171875,0.3948211669921875,0.2155303955078125,0.5425023940176785
1780402814.879814,-0.0434570237994194,-0.1083984375,0.9965819716453552,1.0034013954437617,0.3681182861328125,0.6999969482421875,-0.0896453857421875,0.7959542042847695
1780402814.890738,-0.0507812462747097,-0.10595703125,0.9824218153953552,0.9894231909598802,0.3681182861328125,0.6999969482421875,-0.0896453857421875,0.7959542042847695
1780402814.898606,-0.0493164025247097,-0.10693359375,0.9794921278953552,0.9865453510301694,0.30517578125,0.453948974609375,0.2765655517578125,0.612935912987283
1780402814.906476,-0.0458984337747097,-0.1171875,0.9716796278953552,0.979796343964437,-0.0629425048828125,0.0896453857421875,-0.0896453857421875,0.1415427472202446
1780402814.914346,-0.0424804650247097,-0.111328125,0.9667968153953552,0.9741122233004428,-0.54931640625,-0.339508056640625,-0.5168914794921875,0.8271584106269677
1780402814.922216,-0.0390624962747097,-0.1025390625,0.9946288466453552,1.0006631204019962,-0.244140625,-0.034332275390625,-0.5779266357421875,0.6283172337356118
1780402814.932755,-0.0375976525247097,-0.11865234375,0.9716796278953552,0.9796189368420728,-0.4291534423828125,-0.2765655517578125,-1.3103485107421875,1.4062981195793407
1780402814.943295,-0.0366210900247097,-0.1201171875,0.9902343153953552,0.9981649374497262,-0.4291534423828125,0.0286102294921875,-1.1882781982421875,1.2637231891353078
1780402814.953834,-0.0468749962747097,-0.10791015625,0.9931640028953552,1.0001082960083767,-0.1850128173828125,0.5779266357421875,-0.9441375732421875,1.1223300299394363
1780402814.961852,-0.0585937462747097,-0.12109375,0.9980468153953552,1.0070721767144488,-0.06103515625,-0.522613525390625,-0.1506805419921875,0.5473160083121439
1780402814.96987,-0.0502929650247097,-0.10693359375,0.9838866591453552,0.9909576851952232,0.2422332763671875,-0.5817413330078125,0.7038116455078125,0.9446961263081921
1780402814.977889,-0.0527343712747097,-0.1123046875,0.9760741591453552,0.9839278535032555,0.0591278076171875,-0.9479522705078125,1.0700225830078125,1.4307543230552346
1780402814.985906,-0.0415039025247097,-0.1142578125,0.9838866591453552,0.9913679335576041,-0.0629425048828125,-0.5817413330078125,1.3141632080078125,1.438544290153075
1780402814.996555,-0.0483398400247097,-0.11279296875,0.9765624403953552,0.9842424467192953,-0.18310546875,-0.156402587890625,1.1920928955078125,1.2161722138353772
1780402815.007202,-0.0488281212747097,-0.1181640625,0.9912108778953552,0.9994228011966719,0.0,0.209808349609375,1.4362335205078125,1.45147727126403
1780402815.01785,-0.0395507775247097,-0.10888671875,0.9897460341453552,0.996502781546248,-0.06103515625,0.331878662109375,0.7038116455078125,0.7805251879435957
1780402815.028498,-0.0419921837747097,-0.12109375,0.9843749403953552,0.9926837679067744,0.0591278076171875,0.2117156982421875,0.5207061767578125,0.5652031113056
1780402815.039148,-0.0356445275247097,-0.1162109375,0.9858397841453552,0.9933053882572315,-0.30517578125,-0.156402587890625,0.2765655517578125,0.44054798987117827
1780402815.049796,-0.0419921837747097,-0.11328125,0.9892577528953552,0.9966076894963731,0.4253387451171875,0.0896453857421875,-0.6389617919921875,0.7728010836616347
1780402815.060472,-0.0380859337747097,-0.1083984375,0.9697265028953552,0.9765092165574211,0.18310546875,-0.213623046875,-1.5544891357421875,1.5797464644628292
1780402815.071144,-0.0493164025247097,-0.11572265625,0.9843749403953552,0.9923798990335778,0.2422332763671875,-0.1544952392578125,-1.4324188232421875,1.4609481251267769
1780402815.081817,-0.0366210900247097,-0.11328125,0.9853515028953552,0.9925176724342472,-0.0629425048828125,0.0286102294921875,-1.3103485107421875,1.3121713012243437
1780402815.089837,-0.0498046800494194,-0.115234375,0.9780272841453552,0.9860511324820863,-0.4291534423828125,-0.2155303955078125,-0.6999969482421875,0.8488944316257162
1780402815.097857,-0.0483398400247097,-0.1171875,0.9790038466453552,0.9871768747475129,-0.5512237548828125,-0.2765655517578125,-0.5168914794921875,0.8046818836893451
1780402815.105876,-0.0561523400247097,-0.1396484375,0.9814452528953552,0.9929197126743279,-0.5512237548828125,0.0286102294921875,0.0934600830078125,0.5598222577698477
1780402815.113896,-0.0571289025247097,-0.11767578125,0.9814452528953552,0.9901242777688584,-0.4291534423828125,0.0896453857421875,0.8258819580078125,0.9350347484755321
1780402815.124521,-0.0463867150247097,-0.12060546875,0.9809569716453552,0.9894311429517554,-0.4291534423828125,-0.1544952392578125,0.8258819580078125,0.9434630170945573
1780402815.135144,-0.0415039025247097,-0.109375,0.9951171278953552,1.0019698412529598,0.1220703125,-0.034332275390625,1.1920928955078125,1.198818308939076
1780402815.145768,-0.0419921837747097,-0.1337890625,0.9829100966453552,0.9928620824818417,0.1201629638671875,0.2727508544921875,0.3986358642578125,0.49773760033188025
1780402815.15653,-0.0400390550494194,-0.10546875,0.9838866591453552,0.9903331465724154,0.4253387451171875,0.5779266357421875,0.7038116455078125,1.0051184391655352
1780402815.167291,-0.0356445275247097,-0.10791015625,0.9990233778953552,1.0054664806674587,0.3032684326171875,0.3948211669921875,0.0324249267578125,0.4989056744540073
1780402815.178052,-0.0424804650247097,-0.11181640625,0.9702147841453552,0.9775603439121284,0.0591278076171875,0.5779266357421875,-0.2117156982421875,0.6183193598910479
1780402815.186019,-0.0522460900247097,-0.11767578125,0.9887694716453552,0.9971169998919399,0.30517578125,0.148773193359375,-0.0286102294921875,0.34071141124929977
1780402815.193986,-0.0332031212747097,-0.09814453125,0.9858397841453552,0.9912693258042569,0.0,-0.034332275390625,-0.3948211669921875,0.3963110634824248
1780402815.201954,-0.0498046800494194,-0.0947265625,0.9829100966453552,0.9887193160271892,0.0591278076171875,-0.1544952392578125,-0.5168914794921875,0.5427169411014976
1780402815.20992,-0.0541992150247097,-0.10693359375,0.9863280653953552,0.9935871380850946,-0.18310546875,-0.522613525390625,-0.6389617919921875,0.8455321881710016
1780402815.220655,-0.0517578087747097,-0.11865234375,0.9838866591453552,0.9923659644963324,-0.1220703125,-0.156402587890625,-0.5168914794921875,0.5536603040352043
1780402815.23139,-0.0561523400247097,-0.11572265625,0.9907225966453552,0.9990375778535667,-0.06103515625,-0.156402587890625,0.0324249267578125,0.1709925018022606
1780402815.242125,-0.0292968712747097,-0.11279296875,0.9887694716453552,0.9956131922206336,0.0591278076171875,-0.2765655517578125,-0.1506805419921875,0.32045159975849363
1780402815.252692,-0.0493164025247097,-0.11376953125,0.9936522841453552,1.0013593139258783,-0.3032684326171875,-0.5817413330078125,0.3986358642578125,0.7676622128412764
1780402815.263258,-0.0410156212747097,-0.1083984375,0.9829100966453552,0.9897195362972145,0.0,-0.339508056640625,0.2765655517578125,0.4378975050659653
1780402815.273826,-0.0405273400247097,-0.12109375,0.9824218153953552,0.990686017335082,-0.1201629638671875,-0.2765655517578125,0.2155303955078125,0.3706494215457571
1780402815.281869,-0.0351562425494194,-0.11474609375,0.9902343153953552,0.9974801385529364,0.30517578125,0.148773193359375,0.2765655517578125,0.4378975050659653
1780402815.289913,-0.0312499962747097,-0.11962890625,0.9965819716453552,1.0042227161771855,0.1220703125,0.026702880859375,-0.1506805419921875,0.19575196237866177
1780402815.297957,-0.0439453050494194,-0.12890625,0.9946288466453552,1.0039096342320948,0.1220703125,-0.156402587890625,-0.0896453857421875,0.21771363273253683
1780402815.306001,-0.0537109337747097,-0.12158203125,0.9868163466453552,0.9957276518889656,0.0591278076171875,0.1506805419921875,-0.1506805419921875,0.22114553828583994
1780402815.316751,-0.0507812462747097,-0.115234375,0.9760741591453552,0.9841638381418846,0.0591278076171875,0.3337860107421875,0.2155303955078125,0.4016995767841347
1780402815.327501,-0.0502929612994194,-0.10986328125,0.9956054091453552,1.002910491142042,0.5474090576171875,0.1506805419921875,0.5207061767578125,0.7703870615542131
1780402815.338252,-0.0375976525247097,-0.11083984375,0.9741210341453552,0.9811273330217182,0.3681182861328125,-0.2155303955078125,1.1310577392578125,1.2088242359864014
1780402815.348834,-0.0444335862994194,-0.10986328125,0.9868163466453552,0.9939068297204373,-0.18310546875,-0.034332275390625,0.8869171142578125,0.9062716399529782
1780402815.359413,-0.0429687462747097,-0.1162109375,0.9819335341453552,0.9897195363486753,-0.6084442138671875,-0.0934600830078125,0.3376007080078125,0.7020779063264014
1780402815.369993,-0.0249023400247097,-0.10595703125,0.9804686903953552,0.9864916988275181,-0.1220703125,0.148773193359375,-0.0896453857421875,0.21229912727342812
1780402815.377981,-0.0419921837747097,-0.11962890625,0.9765624403953552,0.9847581523905613,-0.48828125,0.392913818359375,-0.3948211669921875,0.7407318014398864
1780402815.385967,-0.0419921837747097,-0.11376953125,0.9853515028953552,0.9927861975255039,-0.3662109375,0.331878662109375,-0.5779266357421875,0.7604295453284418
1780402815.393954,-0.04296875,-0.11474609375,0.9956054091453552,1.0031166982096034,-0.1201629638671875,0.3948211669921875,-0.8220672607421875,0.9198464398879758
1780402815.401939,-0.0332031212747097,-0.126953125,0.9863280653953552,0.9950188921805418,0.3681182861328125,0.2117156982421875,-0.6389617919921875,0.7672071305021896
1780402815.41261,-0.0546874962747097,-0.1240234375,0.9731444716453552,0.9825389040603076,0.1220703125,-0.156402587890625,-0.4558563232421875,0.4971598516901964
1780402815.423279,-0.0532226487994194,-0.10986328125,0.9848632216453552,0.9924001996482623,0.1201629638671875,-0.0934600830078125,-0.1506805419921875,0.21419278871202363
1780402815.433949,-0.0541992150247097,-0.12841796875,0.9916991591453552,1.0014469291264392,0.3032684326171875,-0.0934600830078125,-0.0286102294921875,0.31862999634295014
1780402815.444629,-0.056640625,-0.1201171875,0.9833983778953552,0.9923248806618308,0.0,0.091552734375,0.1544952392578125,0.17958474914331682
1780402815.455309,-0.0468749962747097,-0.1083984375,0.9741210341453552,0.9812539302813578,0.0,-0.095367431640625,0.8258819580078125,0.8313699270364231
1780402815.465989,-0.0590820275247097,-0.12158203125,0.9794921278953552,0.9887758618151423,0.18310546875,0.274658203125,0.4596710205078125,0.5659171214274267
1780402815.473974,-0.05224609375,-0.10009765625,0.9780272841453552,0.9845235211164923,0.0591278076171875,0.3337860107421875,1.0089874267578125,1.0644082045701033
1780402815.481959,-0.0551757737994194,-0.10009765625,0.9848632216453552,0.9914733844893547,-0.2460479736328125,0.3337860107421875,0.9479522705078125,1.034681696685949
1780402815.489944,-0.0410156212747097,-0.12646484375,0.9887694716453552,0.9976676330076552,-0.18310546875,0.453948974609375,0.7648468017578125,0.9080682322348992
1780402815.49793,-0.0336914025247097,-0.111328125,0.9746093153953552,0.9815255369451681,-0.1220703125,0.637054443359375,0.8869171142578125,1.0988000239175355
1780402815.505954,-0.0390624925494194,-0.1103515625,0.9824218153953552,0.989371502033018,0.0,0.274658203125,0.1544952392578125,0.3151283984301994
1780402815.513977,-0.0527343712747097,-0.1279296875,0.9882811903953552,0.9979211542736465,-0.1850128173828125,-0.0934600830078125,-0.3337860107421875,0.3929091888451285
1780402815.522002,-0.0351562462747097,-0.11279296875,0.9868163466453552,0.9938635306006818,0.18310546875,0.148773193359375,-0.5168914794921875,0.5681882410963164
1780402815.530025,-0.0546874962747097,-0.11181640625,0.9941405653953552,1.0019027371556872,0.3662109375,-0.034332275390625,-1.0051727294921875,1.0703557221750633
1780402815.54076,-0.0507812462747097,-0.1123046875,0.9765624403953552,0.9843095436896958,0.1201629638671875,-0.3986358642578125,-1.1272430419921875,1.2016765645870442
1780402815.551495,-0.0410156212747097,-0.11279296875,0.9897460341453552,0.996996362628494,0.30517578125,-0.461578369140625,-1.6155242919921875,1.7076608522587047
1780402815.562231,-0.0498046837747097,-0.11376953125,0.9819335341453552,0.989756272142759,0.0591278076171875,-0.9479522705078125,-0.8220672607421875,1.2561465623002341
1780402815.570275,-0.0478515587747097,-0.12109375,0.9677733778953552,0.97649310234595,0.18310546875,-0.827789306640625,-0.8220672607421875,1.1809137691037765
1780402815.578321,-0.0424804650247097,-0.12109375,0.9843749403953552,0.9927045428908529,0.0591278076171875,-0.8869171142578125,-0.0896453857421875,0.8933948513294031
1780402815.586368,-0.0532226487994194,-0.1108398362994194,0.9814452528953552,0.9891172347537658,0.4253387451171875,-0.5817413330078125,0.1544952392578125,0.7370242910385648
1780402815.594413,-0.0502929650247097,-0.1162109375,0.9873046278953552,0.9953917784416302,0.3662109375,-0.156402587890625,0.7648468017578125,0.8623009047905889
1780402815.603901,-0.0449218675494194,-0.11474609375,0.9741210341453552,0.9818841221750292,0.0591278076171875,0.0286102294921875,0.7038116455078125,0.7068701968661754
1780402815.613389,-0.0502929612994194,-0.10546875,0.9755858778953552,0.9825583159953807,0.3662109375,0.026702880859375,1.0700225830078125,1.1312700043480026
1780402815.622877,-0.0444335900247097,-0.107421875,0.9902343153953552,0.9970345041860424,-0.18310546875,0.514984130859375,1.1310577392578125,1.256195795749268
1780402815.632365,-0.0380859375,-0.1044921875,0.9907225966453552,0.996945544845607,-0.2460479736328125,0.3948211669921875,0.3986358642578125,0.6126450126349345
1780402815.641853,-0.0415039025247097,-0.11767578125,0.9687499403953552,0.9767530959426659,-0.3662109375,-0.034332275390625,0.8258819580078125,0.9040852639220179
1780402815.65147,-0.0434570237994194,-0.1108398362994194,0.9843749403953552,0.9915482870272857,-0.2460479736328125,-0.2765655517578125,0.8869171142578125,0.9610671554638219
1780402815.661088,-0.0302734337747097,-0.12353515625,0.9882811903953552,0.9964321988532305,0.1220703125,-0.156402587890625,0.1544952392578125,0.25145916099052956
1780402815.670704,-0.0410156212747097,-0.1259765625,1.0048828125,1.0135787302157524,0.18310546875,-0.339508056640625,-0.0896453857421875,0.39601720719549127
1780402815.680321,-0.0263671837747097,-0.11962890625,0.9877929091453552,0.9953598017544332,0.1201629638671875,-0.2765655517578125,-0.3337860107421875,0.44982301327481455
1780402815.689939,-0.0273437462747097,-0.11181640625,0.9794921278953552,0.9862329429581896,0.0,0.698089599609375,-0.7610321044921875,1.0327143618399937
1780402815.698588,-0.0375976525247097,-0.0966796875,0.9829100966453552,0.9883687588839745,-0.1220703125,0.820159912109375,-1.1882781982421875,1.4489887918968887
1780402815.707243,-0.0380859337747097,-0.1064453125,0.9926757216453552,0.9990927040314332,-0.1850128173828125,1.3713836669921875,-1.3713836669921875,1.948234089318274
1780402815.715898,-0.0517578087747097,-0.1142578125,0.9814452528953552,0.9894283717972071,-0.30517578125,1.308441162109375,-1.4324188232421875,1.9639180780628842
1780402815.724554,-0.0463867150247097,-0.11865234375,0.9702147841453552,0.9785432199869202,-0.7343292236328125,0.8220672607421875,-1.4934539794921875,1.8561893165101409
1780402815.73439,-0.0527343712747097,-0.11083984375,0.9829100966453552,0.9905446193703971,-0.67138671875,0.331878662109375,-0.8220672607421875,1.1120693115366345
1780402815.744226,-0.0463867150247097,-0.1171875,0.9790038466453552,0.9870831622682233,-0.3681182861328125,-0.2155303955078125,-0.6389617919921875,0.768268569966897
1780402815.754061,-0.0512695275247097,-0.10986328125,0.9892577528953552,0.9966591226107305,-0.7343292236328125,-0.6427764892578125,-0.1506805419921875,0.9874743791910894
1780402815.764639,-0.0444335900247097,-0.12646484375,0.9960936903953552,1.0050723061912679,-0.4291534423828125,-0.7038116455078125,0.3376007080078125,0.8907849052991462
1780402815.775217,-0.0483398362994194,-0.10888671875,0.9819335341453552,0.9891342288955447,-0.3032684326171875,-0.3986358642578125,0.7038116455078125,0.863847860937951
1780402815.785795,-0.0498046837747097,-0.11279296875,0.9868163466453552,0.9944894480746506,-0.2460479736328125,-0.1544952392578125,1.1920928955078125,1.226985678727483
1780402815.793826,-0.0439453087747097,-0.10205078125,0.9804686903953552,0.9867443463038553,-0.1220703125,0.026702880859375,1.6803741455078125,1.6850137904275884
1780402815.801857,-0.0449218712747097,-0.1181640625,0.9853515028953552,0.9934275536965244,-0.2460479736328125,-0.1544952392578125,1.7414093017578125,1.7654786151439994
1780402815.809889,-0.0366210900247097,-0.1171875,0.9990233778953552,1.0065394795894962,-0.30517578125,-0.278472900390625,1.0089874267578125,1.0902912643275038
1780402815.817919,-0.02294921875,-0.11962890625,0.9833983778953552,0.9909137760163709,-0.1201629638671875,-0.0934600830078125,0.4596710205078125,0.4842224407190026
1780402815.828635,-0.0322265587747097,-0.12060546875,0.9873046278953552,0.9951656437229196,-0.1220703125,0.148773193359375,0.2155303955078125,0.28894285878690223
1780402815.839352,-0.0361328087747097,-0.10546875,0.9833983778953552,0.9896977350402132,0.42724609375,-0.034332275390625,-0.2727508544921875,0.5080462167798812
1780402815.850067,-0.0439453050494194,-0.1206054612994194,0.9907225966453552,0.9990035688799352,0.3681182861328125,-0.2765655517578125,-0.3948211669921875,0.6065338662511232
1780402815.858043,-0.0405273400247097,-0.10791015625,0.9926757216453552,0.9993458637806556,0.67138671875,0.148773193359375,-0.6389617919921875,0.9387042989153214
1780402815.866019,-0.0488281212747097,-0.1181640625,0.9858397841453552,0.9940960773976941,0.0591278076171875,-0.2765655517578125,-0.5779266357421875,0.6434157274678647
1780402815.873996,-0.04248046875,-0.125,0.9746093153953552,0.9835105021709848,0.3681182861328125,0.0896453857421875,-0.6999969482421875,0.7959542042847695
1780402815.881971,-0.0610351525247097,-0.09521484375,0.9809569716453552,0.9874551820379889,0.30517578125,-0.156402587890625,-0.3337860107421875,0.47854689208855616
1780402815.892606,-0.0571289025247097,-0.11865234375,0.9760741591453552,0.9849176891153687,-0.0629425048828125,0.2117156982421875,-0.2727508544921875,0.3509676971308304
1780402815.903239,-0.0483398362994194,-0.10498046875,0.9829100966453552,0.9896817148355354,-0.2460479736328125,0.6999969482421875,-0.0286102294921875,0.7425320721078549
1780402815.913873,-0.0527343712747097,-0.11572265625,0.9785155653953552,0.9867448296313928,-0.3681182861328125,0.7610321044921875,0.4596710205078125,0.9622777061471708
1780402815.924541,-0.0478515625,-0.11474609375,0.9697265028953552,0.9776635047306566,-0.42724609375,0.453948974609375,1.1310577392578125,1.2914722241335779
1780402815.935205,-0.0463867150247097,-0.11962890625,0.9819335341453552,0.9902809035927849,-0.4291534423828125,0.0896453857421875,1.4972686767578125,1.5601353988336957
1780402815.94587,-0.0522460900247097,-0.107421875,0.9848632216453552,0.9920809838420721,-0.3681182861328125,-0.3986358642578125,1.2531280517578125,1.3655590572949465
1780402815.956533,-0.02197265625,-0.1201171875,0.9877929091453552,0.9953118946910234,-0.1220703125,-0.339508056640625,0.8258819580078125,0.9012479627053587
1780402815.967197,-0.0190429650247097,-0.10791015625,0.9897460341453552,0.9957933763815113,0.0,-0.339508056640625,0.3376007080078125,0.4787900986562589
1780402815.977861,-0.0297851525247097,-0.12255859375,0.9887694716453552,0.9967812359142465,0.30517578125,-0.034332275390625,-0.0896453857421875,0.3199175796668748
1780402815.985867,-0.0439453050494194,-0.09375,0.9838866591453552,0.9893195693910511,0.7305145263671875,0.8831024169921875,-1.1882781982421875,1.6509168448315679
1780402815.993875,-0.0468749962747097,-0.103515625,0.9985350966453552,1.0049801436483428,0.30517578125,0.637054443359375,-1.0662078857421875,1.2789721955086812
1780402816.001882,-0.0473632775247097,-0.10595703125,0.9877929091453552,0.9945878562937717,0.1850128173828125,0.0896453857421875,-0.5168914794921875,0.5562758662322266
1780402816.00989,-0.0615234337747097,-0.11328125,0.9877929091453552,0.996168964514975,-0.1220703125,-0.461578369140625,-0.5168914794921875,0.7036565594265353
1780402816.017886,-0.0546874962747097,-0.10791015625,0.9863280653953552,0.9937194657735351,-0.30517578125,-0.827789306640625,-0.2727508544921875,0.9234502814317255
1780402816.025882,-0.0571289025247097,-0.11767578125,0.9848632216453552,0.9935123886223783,-0.2460479736328125,-0.7038116455078125,-0.2117156982421875,0.77505740081842
1780402816.033879,-0.03662109375,-0.1103515625,0.9921874403953552,0.9989767208158178,-0.0629425048828125,-0.5817413330078125,0.1544952392578125,0.605188827064709
1780402816.041874,-0.0419921837747097,-0.1064453125,0.9902343153953552,0.9968239300086548,-0.7343292236328125,-0.2765655517578125,0.4596710205078125,0.9094093468812415
1780402816.052519,-0.0498046837747097,-0.10888671875,0.9824218153953552,0.98969159206833,-0.48828125,-0.213623046875,0.3376007080078125,0.6308943043847338
1780402816.063164,-0.0507812425494194,-0.1103515625,0.9858397841453552,0.9932956669314605,-0.5512237548828125,0.5168914794921875,0.7038116455078125,1.0326544736121295
1780402816.073809,-0.0312499962747097,-0.10986328125,0.9853515028953552,0.9919496393932109,-0.0629425048828125,0.5779266357421875,1.0700225830078125,1.2177476271247327
1780402816.081884,-0.0302734337747097,-0.12939453125,0.9829100966453552,0.9918526521602392,-0.0629425048828125,0.5779266357421875,1.2531280517578125,1.3814090159411645
1780402816.089959,-0.0395507775247097,-0.12060546875,0.9790038466453552,0.9871972826348432,0.0,0.148773193359375,0.7038116455078125,0.7193638129727966
1780402816.098034,-0.0312499962747097,-0.12255859375,0.9858397841453552,0.9939201432574488,0.18310546875,0.274658203125,0.1544952392578125,0.3644633317404368
1780402816.106109,-0.0336913987994194,-0.1206054612994194,0.9750975966453552,0.9831053405570814,0.0,-0.034332275390625,-0.0286102294921875,0.04469060712379449
1780402816.116732,-0.0385742112994194,-0.11376953125,0.9863280653953552,0.9936168922702356,0.42724609375,0.331878662109375,-0.7610321044921875,0.9337304402534761
1780402816.127355,-0.0375976525247097,-0.11181640625,0.9858397841453552,0.9928728882318192,0.0,0.392913818359375,-0.9441375732421875,1.0226324001641014
1780402816.137978,-0.0434570237994194,-0.11474609375,0.9799804091453552,0.9876319057508647,0.42724609375,-0.034332275390625,-1.0051727294921875,1.0927443186184524
1780402816.148656,-0.0390624925494194,-0.115234375,0.9902343153953552,0.9976817322635119,0.1220703125,-0.156402587890625,-1.2493133544921875,1.264969085948449
1780402816.159337,-0.0478515587747097,-0.12353515625,0.9833983778953552,0.9922817524040726,0.1220703125,-0.461578369140625,-1.1272430419921875,1.2241865167416963
1780402816.170017,-0.0581054612994194,-0.11328125,0.9931640028953552,1.0012909781284889,0.3032684326171875,-0.5817413330078125,-0.9441375732421875,1.149691470769197
1780402816.178196,-0.0395507737994194,-0.11962890625,0.9956054091453552,1.0035464461788475,-0.1201629638671875,-0.2155303955078125,0.0324249267578125,0.24888524493900918
1780402816.186374,-0.0581054650247097,-0.11181640625,0.9736327528953552,0.9817534778563255,-0.2460479736328125,-0.2765655517578125,0.5817413330078125,0.6895296137785694
1780402816.194552,-0.0571289025247097,-0.10205078125,0.9824218153953552,0.989358730098501,-0.54931640625,-0.034332275390625,0.8258819580078125,0.9924758071971986
1780402816.20273,-0.0473632775247097,-0.12060546875,0.9887694716453552,0.9972231581788125,-0.3681182861328125,-0.2155303955078125,0.7038116455078125,0.8229916502161659
1780402816.213137,-0.0419921837747097,-0.1123046875,0.9873046278953552,0.9945582509819259,-0.18310546875,-0.339508056640625,0.2155303955078125,0.4418672703400934
1780402816.223544,-0.0322265587747097,-0.1015625,0.9873046278953552,0.993037723734751,-0.18310546875,-0.156402587890625,0.0324249267578125,0.2429830406845124
1780402816.233952,-0.0468749962747097,-0.1181640625,0.9926757216453552,1.0007822436905967,-0.1201629638671875,-0.3986358642578125,-0.0896453857421875,0.42589433588953224
1780402816.244679,-0.0439453050494194,-0.1103515625,0.9760741591453552,0.9832748452662613,0.0591278076171875,-0.4596710205078125,-0.5779266357421875,0.7408054677367008
1780402816.25541,-0.0444335862994194,-0.10546875,0.9912108778953552,0.9977960739931137,0.2422332763671875,-0.2155303955078125,-0.3948211669921875,0.5108953566753266
1780402816.266141,-0.0410156212747097,-0.1220703125,0.9858397841453552,0.9942150282439703,-0.18310546875,0.026702880859375,-0.2117156982421875,0.2811835582222478
1780402816.274125,-0.0493164025247097,-0.1083984375,0.9936522841453552,1.0007633039823665,0.2422332763671875,0.0896453857421875,0.6427764892578125,0.692730012708448
1780402816.282105,-0.0473632775247097,-0.11083984375,0.9829100966453552,0.990273199227258,0.3681182861328125,0.2117156982421875,0.8258819580078125,0.9286633502138191
1780402816.290087,-0.04736328125,-0.099609375,0.9863280653953552,0.9924758740569976,0.0,0.148773193359375,1.0089874267578125,1.0198966077096727
1780402816.298068,-0.0429687462747097,-0.1181640625,0.9707030653953552,0.9788122904780383,-0.30517578125,0.331878662109375,1.1310577392578125,1.2176072081587108
1780402816.306328,-0.0361328087747097,-0.1181640625,0.9780272841453552,0.9858020562309622,-0.1850128173828125,0.3948211669921875,0.8258819580078125,0.9339135426064968
1780402816.31459,-0.0351562462747097,-0.10400390625,0.9921874403953552,0.9982428016498157,0.1220703125,0.331878662109375,0.7648468017578125,0.8426358867960175
1780402816.32285,-0.0419921837747097,-0.1015625,0.9863280653953552,0.9924320316731837,0.1220703125,0.331878662109375,0.2765655517578125,0.4489243944991847
1780402816.331111,-0.0424804650247097,-0.11181640625,0.9877929091453552,0.9950087084911492,0.42724609375,0.453948974609375,-0.0286102294921875,0.6240412177133273
1780402816.3416,-0.0600585900247097,-0.103515625,0.9638671278953552,0.9712684279292403,0.3032684326171875,0.5779266357421875,0.0324249267578125,0.653469444119324
1780402816.352089,-0.0346679612994194,-0.10498046875,0.9799804091453552,0.9861969218509686,0.18310546875,0.148773193359375,0.2765655517578125,0.3635238371380981
1780402816.362578,-0.0478515587747097,-0.11279296875,0.9980468153953552,1.0055393931604162,0.18310546875,-0.339508056640625,-0.5168914794921875,0.6449574674206614
1780402816.373152,-0.0346679650247097,-0.11328125,0.9833983778953552,0.9905083942338565,0.1201629638671875,-0.5817413330078125,-0.7610321044921875,0.9654180340571961
1780402816.383727,-0.0429687462747097,-0.11279296875,0.9721679091453552,0.979632079164372,0.0591278076171875,-0.6427764892578125,-0.7610321044921875,0.997911607730876
1780402816.394302,-0.0390624962747097,-0.1171875,0.9946288466453552,1.002270089023179,-0.0629425048828125,-0.8869171142578125,-1.0051727294921875,1.3419969979843855
1780402816.405053,-0.0512695275247097,-0.107421875,0.9794921278953552,0.9866979539302255,-0.0629425048828125,-0.4596710205078125,-0.7610321044921875,0.8913075059054671
1780402816.415804,-0.0454101525247097,-0.11376953125,0.9770507216453552,0.9846998024072471,0.18310546875,-0.644683837890625,-0.2727508544921875,0.7235591835847026
1780402816.426555,-0.0483398362994194,-0.1259765625,0.9960936903953552,1.00519126245616,0.0,-0.213623046875,0.3376007080078125,0.3995110063609446
1780402816.437057,-0.0478515625,-0.11474609375,0.9755858778953552,0.9834755936033319,0.0591278076171875,-0.0934600830078125,0.8258819580078125,0.8332537988585834
1780402816.447558,-0.0429687462747097,-0.107421875,0.9824218153953552,0.9892109965773942,-0.6103515625,0.026702880859375,1.0700225830078125,1.2321486930720222
1780402816.458061,-0.0380859337747097,-0.1259765625,0.9770507216453552,0.9858746093284467,0.0,0.331878662109375,1.3141632080078125,1.3554218471180453
1780402816.466006,-0.0361328087747097,-0.1171875,0.9809569716453552,0.9885924692439377,-0.2460479736328125,1.0051727294921875,1.1310577392578125,1.5330373221088198
1780402816.473952,-0.0512695275247097,-0.11962890625,0.9956054091453552,1.0040765759555734,-0.30517578125,1.125335693359375,0.8869171142578125,1.4649691627381032
1780402816.481897,-0.0444335900247097,-0.10888671875,0.9863280653953552,0.9933145091204345,-0.1201629638671875,0.6999969482421875,0.7038116455078125,0.9998928431517736
1780402816.489843,-0.0449218712747097,-0.12109375,0.9902343153953552,0.9986218854974048,0.0591278076171875,0.5168914794921875,0.2765655517578125,0.5892040424372026
1780402816.500525,-0.0385742112994194,-0.10546875,0.9853515028953552,0.9917304125930947,-0.18310546875,0.209808349609375,-0.3337860107421875,0.43469559144204656
1780402816.511207,-0.04296875,-0.109375,0.9790038466453552,0.9860313057139538,0.0,0.148773193359375,-1.0051727294921875,1.0161228661816053
1780402816.521889,-0.0380859375,-0.115234375,0.9960936903953552,1.0034600838410725,0.0591278076171875,-0.0934600830078125,-1.2493133544921875,1.254198844865504
1780402816.532655,-0.0522460900247097,-0.12109375,0.9775390028953552,0.9863953834003776,0.48828125,-0.339508056640625,-1.5544891357421875,1.6643679799749662
1780402816.543422,-0.0537109300494194,-0.11376953125,0.9780272841453552,0.9860860706755561,0.1220703125,-0.644683837890625,-1.4324188232421875,1.5755450159261608
1780402816.554189,-0.0541992150247097,-0.10791015625,0.9882811903953552,0.9956313916407289,-0.1201629638671875,-0.7648468017578125,-1.4324188232421875,1.628267009191992
1780402816.562163,-0.0507812462747097,-0.11572265625,0.9858397841453552,0.9939067099816405,-0.244140625,-1.010894775390625,-0.8831024169921875,1.364325023806606
1780402816.570137,-0.05224609375,-0.10009765625,0.9863280653953552,0.9927699873008959,0.0,-0.885009765625,-0.2117156982421875,0.9099812207588651
1780402816.578111,-0.04736328125,-0.1044921875,0.9916991591453552,0.9983131372014026,0.0591278076171875,-0.7038116455078125,0.2155303955078125,0.7384445012144
1780402816.586085,-0.0468749962747097,-0.09912109375,0.9912108778953552,0.9972568680936879,-0.18310546875,-0.213623046875,0.8869171142578125,0.9304753550770279
1780402816.596681,-0.0620117150247097,-0.12109375,0.9750975966453552,0.9845427731048134,0.2422332763671875,-0.1544952392578125,1.2531280517578125,1.2856421170898384
1780402816.607277,-0.0341796837747097,-0.11572265625,0.9907225966453552,0.9980437101932009,-0.0629425048828125,-0.0934600830078125,1.6193389892578125,1.6232545420134403
1780402816.617873,-0.0356445275247097,-0.12158203125,0.9965819716453552,1.004603577971868,0.18310546875,0.274658203125,1.9245147705078125,1.952619226355397
1780402816.628572,-0.033203125,-0.119140625,0.9799804091453552,0.9877542904709926,-0.2460479736328125,0.0286102294921875,1.5583038330078125,1.577868494687453
1780402816.639271,-0.0312499962747097,-0.123046875,0.9863280653953552,0.9944647546801139,-0.1201629638671875,0.2727508544921875,1.2531280517578125,1.2880846558413372
1780402816.649971,-0.0346679612994194,-0.109375,0.9965819716453552,1.0031651829954036,0.0,-0.095367431640625,0.8258819580078125,0.8313699270364231
1780402816.65798,-0.0380859337747097,-0.11767578125,0.9873046278953552,0.9950218872506651,0.18310546875,0.453948974609375,-0.1506805419921875,0.5121541857391382
1780402816.665991,-0.0390624962747097,-0.11767578125,0.9916991591453552,0.9994201770814987,0.3662109375,0.820159912109375,-0.5779266357421875,1.0680692526592879
1780402816.674002,-0.0375976525247097,-0.11279296875,0.9750975966453552,0.9823192761309101,-0.06103515625,1.125335693359375,-1.0051727294921875,1.5101251369213948
1780402816.682014,-0.0395507737994194,-0.119140625,0.9926757216453552,1.0005817510716704,0.0,1.125335693359375,-1.1882781982421875,1.6365773734126734
1780402816.692914,-0.02783203125,-0.1142578125,0.9716796278953552,0.9787700286316711,-0.2460479736328125,0.8831024169921875,-1.7375946044921875,1.9645977944064321
1780402816.703815,-0.0454101525247097,-0.11083984375,0.9819335341453552,0.9892123222008656,-0.244140625,0.637054443359375,-1.9817352294921875,2.0958810864144386
1780402816.714716,-0.0415039025247097,-0.11376953125,0.9785155653953552,0.9859811316078098,-0.6084442138671875,0.2727508544921875,-2.0427703857421875,2.148838811749258
1780402816.725139,-0.0673828050494194,-0.1103515625,0.9897460341453552,0.9981558605092584,-0.8563995361328125,-0.5817413330078125,-1.4934539794921875,1.817208830288708
1780402816.735564,-0.06591796875,-0.1162109375,0.9833983778953552,0.9924326325982892,-0.7343292236328125,-0.7038116455078125,-1.3103485107421875,1.6587957862973526
1780402816.745989,-0.0590820237994194,-0.115234375,0.9892577528953552,0.9976976237224601,-0.4291534423828125,-1.0700225830078125,-0.2117156982421875,1.1721538048131337
1780402816.753979,-0.0634765625,-0.11767578125,0.9726561903953552,0.9818028968148442,-0.6103515625,-0.949859619140625,0.6427764892578125,1.299201270420701
1780402816.761971,-0.0493163987994194,-0.11962890625,0.9843749403953552,0.9928429914540736,-0.3662109375,-0.339508056640625,1.3141632080078125,1.4058453359277854
1780402816.769961,-0.0483398362994194,-0.109375,0.9736327528953552,0.9809487080928556,-0.3662109375,-0.339508056640625,1.9245147705078125,1.9882487955915529
1780402816.777952,-0.0385742112994194,-0.10498046875,0.9829100966453552,0.9892528123203509,-0.2460479736328125,0.2727508544921875,2.1076202392578125,2.139391433769003
1780402816.78861,-0.0322265587747097,-0.10693359375,0.9912108778953552,0.9974830068832404,0.0,0.514984130859375,1.9855499267578125,2.051247709733015
1780402816.799266,-0.0346679650247097,-0.11865234375,0.9907225966453552,0.9984044821514163,-0.1220703125,0.637054443359375,1.6193389892578125,1.744419183318128
1780402816.809923,-0.0385742150247097,-0.09765625,0.9794921278953552,0.9851038228723945,-0.0629425048828125,0.9441375732421875,1.4972686767578125,1.7712060881017377
1780402816.820548,-0.0288085900247097,-0.11279296875,0.9858397841453552,0.9926894119826255,0.1850128173828125,1.0662078857421875,1.1310577392578125,1.5653499952885122
1780402816.831175,-0.0336913987994194,-0.1059570237994194,0.9926757216453552,0.9988829208619091,0.0591278076171875,0.5168914794921875,0.5207061767578125,0.7360759619217135
1780402816.841803,-0.0385742150247097,-0.1171875,0.9833983778953552,0.9911070829472658,0.3681182861328125,0.2117156982421875,0.3376007080078125,0.5425023940176785
1780402816.852472,-0.030761711299419403,-0.1103515625,0.9853515028953552,0.9919885757842151,0.0,-0.156402587890625,-1.3103485107421875,1.3196495705690785
1780402816.863141,-0.0395507775247097,-0.1220703125,0.9819335341453552,0.9902822277895551,0.30517578125,-0.156402587890625,-1.8596649169921875,1.8910176177000553
1780402816.873811,-0.0429687462747097,-0.11572265625,0.9794921278953552,0.9872400290379979,-0.0629425048828125,0.0896453857421875,-1.7375946044921875,1.741043670809595
1780402816.881846,-0.0507812462747097,-0.1201171875,1.00146484375,1.0099201488104566,0.1220703125,-0.156402587890625,-1.4934539794921875,1.5065748303863913
1780402816.889882,-0.0615234337747097,-0.11376953125,0.9775390028953552,0.9860583863676233,0.18310546875,-0.278472900390625,-1.1272430419921875,1.1754793254914886
1780402816.897918,-0.0585937425494194,-0.1157226487994194,0.9775390028953552,0.9861072255554904,-0.30517578125,-0.339508056640625,-0.5168914794921875,0.6896193004528398
1780402816.905954,-0.0581054612994194,-0.11328125,0.9897460341453552,0.9979008459465497,0.0,-0.583648681640625,0.1544952392578125,0.6037504141068297
1780402816.916658,-0.0566406212747097,-0.10693359375,0.9814452528953552,0.9888770084704684,-0.1201629638671875,-0.7038116455078125,0.7648468017578125,1.0463176383856463
1780402816.927362,-0.0415039025247097,-0.11962890625,0.9985350966453552,1.0065316628740006,0.0591278076171875,-1.1310577392578125,1.3751983642578125,1.7815606215411173
1780402816.938066,-0.0434570237994194,-0.11328125,0.9902343153953552,0.9976397916610853,-0.30517578125,-0.949859619140625,1.1310577392578125,1.5081966592823746
1780402816.948653,-0.0253906212747097,-0.11083984375,0.9941405653953552,1.0006226153629731,0.1850128173828125,0.3948211669921875,1.2531280517578125,1.3268170222767455
1780402816.95924,-0.0405273400247097,-0.1220703125,0.9833983778953552,0.9917741658918838,0.30517578125,1.186370849609375,1.2531280517578125,1.7524091886219808
1780402816.969827,-0.0434570237994194,-0.1157226487994194,0.9946288466453552,1.002280792463732,0.4253387451171875,1.4324188232421875,1.1310577392578125,1.874040645987005
1780402816.977845,-0.0322265587747097,-0.10205078125,0.9868163466453552,0.9926023448746638,0.30517578125,1.308441162109375,0.8258819580078125,1.577095919951129
1780402816.985864,-0.0361328087747097,-0.1103515625,0.9897460341453552,0.9965341235113827,0.30517578125,0.820159912109375,0.6427764892578125,1.0857974737654368
1780402816.993883,-0.0434570237994194,-0.1083984375,0.9887694716453552,0.9956424068046618,0.1850128173828125,0.3948211669921875,0.2155303955078125,0.48638138110823365
1780402817.001902,-0.0449218712747097,-0.11376953125,0.9897460341453552,0.9972756353516941,-0.1220703125,0.637054443359375,-0.4558563232421875,0.7928079921630814
1780402817.011487,-0.0444335900247097,-0.107421875,0.9736327528953552,0.9805480817693681,0.2422332763671875,0.0896453857421875,-0.8220672607421875,0.8616889441954164
1780402817.021072,-0.0517578087747097,-0.09912109375,0.9887694716453552,0.9950723240313694,0.30517578125,-0.522613525390625,-1.1272430419921875,1.2794272273570568
1780402817.030658,-0.0434570275247097,-0.09765625,0.9760741591453552,0.9819093749204445,-0.0629425048828125,-0.7648468017578125,-2.1038055419921875,2.239408436975515
1780402817.040242,-0.0566406212747097,-0.10595703125,0.9760741591453552,0.9834408048281355,0.0,-0.701904296875,-1.9207000732421875,2.0449348188448777
1780402817.049827,-0.0561523400247097,-0.11328125,0.9868163466453552,0.9948830227209121,0.18310546875,-0.522613525390625,-1.6765594482421875,1.7656455173951318
1780402817.059542,-0.0556640550494194,-0.115234375,0.9873046278953552,0.9955640996288342,0.244140625,-0.522613525390625,-0.4558563232421875,0.7352105338856985
1780402817.069259,-0.0473632775247097,-0.11279296875,0.9814452528953552,0.9890400994338646,0.0591278076171875,-0.6427764892578125,0.0934600830078125,0.6522212047243183
1780402817.078977,-0.0546874962747097,-0.111328125,0.9843749403953552,0.9921586047317088,0.30517578125,-0.339508056640625,0.7038116455078125,0.8388973777154488
1780402817.088694,-0.0493163987994194,-0.109375,0.9941405653953552,1.0013543137072611,0.4253387451171875,-0.0934600830078125,0.9479522705078125,1.0431976525925506
1780402817.098411,-0.0419921837747097,-0.10791015625,0.9838866591453552,0.9906769924472238,0.1220703125,0.026702880859375,1.7414093017578125,1.7458867550012143
1780402817.107969,-0.033203125,-0.115234375,0.9907225966453552,0.9979542435378095,0.0591278076171875,0.3337860107421875,1.8024444580078125,1.8340434081024026
1780402817.117527,-0.0346679650247097,-0.11181640625,0.9760741591453552,0.9830694485421321,0.1850128173828125,0.3948211669921875,1.5583038330078125,1.6181546070965651
1780402817.127086,-0.0302734337747097,-0.10693359375,0.9741210341453552,0.9804402396011794,0.30517578125,0.514984130859375,1.3751983642578125,1.499837142344427
1780402817.136645,-0.0244140587747097,-0.1181640625,0.9765624403953552,0.9839883088346582,0.1220703125,0.331878662109375,0.7038116455078125,0.7876518519687306
1780402817.146204,-0.0439453050494194,-0.1206054612994194,0.9897460341453552,0.9980351092209085,0.1220703125,0.514984130859375,-0.0286102294921875,0.5300267554212986
1780402817.155867,-0.0317382775247097,-0.1171875,0.9965819716453552,1.0039501255665189,0.3681182861328125,0.2117156982421875,-1.1882781982421875,1.2618794260487947
1780402817.165534,-0.0405273400247097,-0.10986328125,0.9956054091453552,1.0024682222275103,0.18310546875,0.148773193359375,-1.9207000732421875,1.9351356146536727
1780402817.175202,-0.0410156212747097,-0.10009765625,0.9887694716453552,0.9946692364968007,0.6084442138671875,0.0896453857421875,-1.6155242919921875,1.728629339849982
1780402817.184868,-0.0439453087747097,-0.12255859375,0.9916991591453552,1.0002094887146826,0.5474090576171875,0.0286102294921875,-1.1882781982421875,1.3086177050653993
1780402817.194535,-0.052734375,-0.10546875,0.9799804091453552,0.9870492256427239,0.5474090576171875,-0.1544952392578125,-0.6999969482421875,0.9019540913278468
1780402817.204049,-0.0595703050494194,-0.10986328125,0.9873046278953552,0.9951828927761386,0.0,-0.213623046875,-0.0286102294921875,0.2155303955078125
1780402817.213564,-0.0439453050494194,-0.115234375,0.9843749403953552,0.9920706498510508,0.2422332763671875,-0.3986358642578125,0.3376007080078125,0.5758139894962014
1780402817.223079,-0.0498046837747097,-0.11328125,0.9882811903953552,0.9959984234007209,-0.2460479736328125,-0.5817413330078125,0.7038116455078125,0.9456814559940014
1780402817.232594,-0.04248046875,-0.1103515625,0.9799804091453552,0.9870884762168531,-0.1201629638671875,-0.2765655517578125,1.3751983642578125,1.4078700875300296
1780402817.24211,-0.0449218712747097,-0.1142578125,0.9746093153953552,0.9823116307422557,-0.30517578125,-0.213623046875,1.4972686767578125,1.5429130092191838
1780402817.251806,-0.0385742150247097,-0.1162109375,0.9848632216453552,0.9924457251704345,0.4253387451171875,0.0896453857421875,1.3751983642578125,1.4422620720035915
1780402817.261503,-0.0390624962747097,-0.1083984375,0.9873046278953552,0.994005295826556,0.2422332763671875,0.2727508544921875,1.0700225830078125,1.1304947222134705
1780402817.2712,-0.04248046875,-0.10546875,0.9873046278953552,0.9938303052912847,0.42724609375,0.148773193359375,1.0700225830078125,1.1617319035963896
1780402817.280898,-0.033203125,-0.119140625,0.9814452528953552,0.9892076225272347,0.48828125,-0.095367431640625,0.5817413330078125,0.7654648944589153
1780402817.290594,-0.0278320275247097,-0.1162109375,0.9873046278953552,0.994509945658841,0.5474090576171875,-0.0934600830078125,-0.0896453857421875,0.5625191184857898
1780402817.298436,-0.0341796837747097,-0.09814453125,0.9936522841453552,0.9990723004790509,0.1220703125,-0.156402587890625,-0.5779266357421875,0.6110336545502346
1780402817.306277,-0.0424804650247097,-0.1025390625,0.9833983778953552,0.989641965002652,0.5474090576171875,-0.1544952392578125,-0.7610321044921875,0.9501027941136021
1780402817.314118,-0.0449218712747097,-0.11083984375,0.9887694716453552,0.9959761611299645,0.48828125,-0.156402587890625,-0.8831024169921875,1.02115142241388
1780402817.321959,-0.03271484375,-0.119140625,0.9877929091453552,0.9954896186725513,0.2422332763671875,-0.0934600830078125,-0.3948211669921875,0.4725415338364261
1780402817.329984,-0.0522460900247097,-0.11376953125,0.9794921278953552,0.987460373267042,0.1201629638671875,0.2117156982421875,-0.6389617919921875,0.6837651982906058
1780402817.338009,-0.0458984337747097,-0.12646484375,0.9838866591453552,0.9930422855910476,0.0,0.274658203125,0.0934600830078125,0.2901239660208735
1780402817.346035,-0.0454101487994194,-0.1005859375,0.9897460341453552,0.995879924761614,-0.1201629638671875,0.0896453857421875,0.2765655517578125,0.31458534213996026
1780402817.354059,-0.0434570237994194,-0.10009765625,0.9882811903953552,0.9942875665487861,0.0,0.579833984375,0.9479522705078125,1.1112249801894776
1780402817.369926,-0.04248046875,-0.10986328125,0.9838866591453552,0.990912452659893,-0.3681182861328125,0.2117156982421875,0.6427764892578125,0.7703870615542131
1780402817.385793,-0.0502929650247097,-0.10205078125,0.9824218153953552,0.9889875467615441,-0.4291534423828125,0.2727508544921875,1.1920928955078125,1.2960135714009466
1780402817.393885,-0.0356445275247097,-0.10986328125,0.9916991591453552,0.9984025716909392,-0.30517578125,-0.034332275390625,0.7038116455078125,0.7678943904909452
1780402817.401978,-0.0312499962747097,-0.1123046875,0.9838866591453552,0.9907683196115278,0.18310546875,0.209808349609375,0.2765655517578125,0.3924737706790993
1780402817.410072,-0.02294921875,-0.119140625,0.9804686903953552,0.9879473710740916,-0.0629425048828125,0.2117156982421875,0.1544952392578125,0.2695441981501895
1780402817.418164,-0.0356445275247097,-0.1181640625,0.9858397841453552,0.9935357859748809,0.06103515625,-0.034332275390625,-0.2727508544921875,0.281597272817366
1780402817.428756,-0.0390624925494194,-0.1142578125,0.9760741591453552,0.9835148652627325,0.7305145263671875,0.2117156982421875,-0.6389617919921875,0.9933514895249922
1780402817.439348,-0.0434570237994194,-0.115234375,0.9926757216453552,1.0002862402548935,0.0,0.026702880859375,-0.8220672607421875,0.8225008358842887
1780402817.44994,-0.0483398362994194,-0.11376953125,0.9848632216453552,0.9925904550034558,-0.0629425048828125,-0.2765655517578125,-0.4558563232421875,0.5368940778029796
1780402817.457902,-0.0473632775247097,-0.11669921875,0.9731444716453552,0.9812604905980168,0.0,-0.213623046875,-0.4558563232421875,0.5034280421232454
1780402817.465863,-0.0449218675494194,-0.115234375,0.9858397841453552,0.9935678212228538,0.1220703125,-0.339508056640625,-0.5168914794921875,0.6303520312407694
1780402817.473825,-0.0434570275247097,-0.10205078125,0.9882811903953552,0.9944860916494906,0.1201629638671875,0.0896453857421875,-0.6999969482421875,0.7158709105827589
1780402817.481785,-0.0390624962747097,-0.1181640625,0.9931640028953552,1.0009312468540688,-0.0629425048828125,0.2117156982421875,-0.3337860107421875,0.40024791913298385
1780402817.492491,-0.0488281212747097,-0.09765625,0.9707030653953552,0.9768241242717235,0.06103515625,-0.034332275390625,0.1544952392578125,0.16962539428189505
1780402817.503195,-0.0390624962747097,-0.1064453125,0.9824218153953552,0.98894342938974,-0.0629425048828125,0.0286102294921875,0.2765655517578125,0.28507684678279605
1780402817.513901,-0.0468749962747097,-0.11474609375,0.9921874403953552,0.9998999190843674,-0.244140625,-0.034332275390625,0.8258819580078125,0.8618957932788085
1780402817.521898,-0.0380859375,-0.119140625,0.9843749403953552,0.9922898016401276,-0.06103515625,-0.156402587890625,1.4362335205078125,1.4460130653723746
1780402817.529894,-0.0317382775247097,-0.1142578125,0.9912108778953552,0.9982791044771003,-0.0629425048828125,-0.2765655517578125,1.0089874267578125,1.048096317470574
1780402817.537891,-0.0283203087747097,-0.09326171875,0.9931640028953552,0.9979351305172216,0.2422332763671875,-0.0934600830078125,0.2765655517578125,0.37934186654588065
1780402817.545888,-0.0390624925494194,-0.12548828125,0.9770507216453552,0.985850546342072,0.18310546875,0.274658203125,0.0934600830078125,0.34307364857394423
1780402817.556632,-0.0336913987994194,-0.1240234375,0.9780272841453552,0.9864351432988979,0.0591278076171875,0.2727508544921875,-0.1506805419921875,0.3171651809308408
1780402817.567376,-0.0371093712747097,-0.11279296875,0.9897460341453552,0.9968433033041358,-0.1220703125,0.331878662109375,-0.4558563232421875,0.576931187402139
1780402817.57812,-0.0366210900247097,-0.10693359375,0.9848632216453552,0.9913281308711843,0.2422332763671875,-0.2155303955078125,-0.5168914794921875,0.6101697412515298
1780402817.588778,-0.0332031212747097,-0.1123046875,0.9824218153953552,0.9893772857012441,0.18310546875,-0.644683837890625,-0.6999969482421875,0.9690926638211222
1780402817.599435,-0.0512695275247097,-0.12158203125,1.00146484375,1.0101200859515145,0.2422332763671875,-0.7648468017578125,-0.5779266357421875,0.9887703406954619
1780402817.610091,-0.0395507775247097,-0.1220703125,0.9965819716453552,1.0048089626417553,0.48828125,-0.766754150390625,-0.5168914794921875,1.0457089976730785
1780402817.618755,-0.0434570237994194,-0.1083984375,0.9809569716453552,0.987884261636742,0.48828125,0.209808349609375,-0.2727508544921875,0.5973534559149973
1780402817.627423,-0.0483398362994194,-0.10498046875,0.9873046278953552,0.994046310216989,0.1850128173828125,0.5779266357421875,-0.2117156982421875,0.642691586827139
1780402817.636089,-0.0346679650247097,-0.1064453125,0.9877929091453552,0.9941163431460229,-0.3662109375,1.003265380859375,-0.0286102294921875,1.0683961907490738
1780402817.644757,-0.0424804650247097,-0.111328125,0.9765624403953552,0.983805235458555,-0.48828125,0.946044921875,0.0324249267578125,1.0651154628406663
1780402817.65445,-0.0454101525247097,-0.09716796875,0.9809569716453552,0.9868030585293829,-0.8544921875,1.003265380859375,0.1544952392578125,1.3268636334916903
1780402817.664144,-0.0332031212747097,-0.111328125,0.9790038466453552,0.9858726745502184,-0.7343292236328125,0.5779266357421875,0.1544952392578125,0.9471575285741971
1780402817.673838,-0.0502929612994194,-0.1005859375,0.9716796278953552,0.9781657385361004,-0.9765625,0.698089599609375,0.2765655517578125,1.23186521580412
1780402817.681829,-0.0498046837747097,-0.11376953125,0.9833983778953552,0.9912095552475064,-0.91552734375,0.453948974609375,0.5207061767578125,1.146906670665304
1780402817.689821,-0.0424804650247097,-0.1123046875,0.9916991591453552,0.9989415173035872,-1.220703125,-0.034332275390625,0.7648468017578125,1.4409321478395218
1780402817.697811,-0.0541992112994194,-0.109375,0.9965819716453552,1.0040299155598018,-0.7915496826171875,0.0896453857421875,0.6427764892578125,1.023596019130025
1780402817.705802,-0.0449218712747097,-0.12158203125,0.9843749403953552,0.9928716876414881,-0.9174346923828125,-0.1544952392578125,0.7038116455078125,1.166578769776516
1780402817.713837,-0.04296875,-0.10986328125,0.9858397841453552,0.9928727683078732,-0.6103515625,-0.156402587890625,1.1920928955078125,1.3483605863660049
1780402817.721872,-0.03662109375,-0.115234375,0.9799804091453552,0.9874116000927803,-0.67138671875,-0.461578369140625,0.6427764892578125,1.0377747020018409
1780402817.729908,-0.0361328087747097,-0.1083984375,0.9858397841453552,0.9924393589162774,-0.1850128173828125,-0.5817413330078125,0.5207061767578125,0.8023637850996086
1780402817.737942,-0.0288085900247097,-0.11181640625,0.9746093153953552,0.9814255759971205,-0.1850128173828125,-0.5817413330078125,0.5207061767578125,0.8023637850996086
1780402817.748677,-0.029785148799419403,-0.1044921875,0.9838866591453552,0.98986803685226,-0.30517578125,-0.339508056640625,-0.4558563232421875,0.6451379429434665
1780402817.759413,-0.0273437462747097,-0.1025390625,0.9975585341453552,1.0031874046482763,0.1220703125,-0.034332275390625,-0.6389617919921875,0.6514230867517767
1780402817.770147,-0.05224609375,-0.10546875,0.9780272841453552,0.985084097969019,0.4253387451171875,-0.3986358642578125,-0.2117156982421875,0.6201992722122576
1780402817.780702,-0.0585937462747097,-0.1220703125,0.9921874403953552,1.0013841945899882,0.4253387451171875,-0.4596710205078125,-0.2117156982421875,0.6610854952838813
1780402817.79126,-0.0405273400247097,-0.12744140625,0.9785155653953552,0.9876115071410659,0.42724609375,-0.156402587890625,0.0934600830078125,0.4644736604365695
1780402817.801818,-0.0307617150247097,-0.10302734375,0.9824218153953552,0.9882881867330741,0.0591278076171875,-0.3376007080078125,0.4596710205078125,0.5733827541666083
1780402817.809976,-0.0449218712747097,-0.11181640625,0.9882811903953552,0.9956006199851158,0.0,-0.213623046875,0.2155303955078125,0.3034603063728641
1780402817.818131,-0.0297851525247097,-0.10888671875,0.9921874403953552,0.9985886989693746,-0.244140625,-0.034332275390625,0.3376007080078125,0.4180401750505143
1780402817.826287,-0.0478515625,-0.1201171875,0.9829100966453552,0.9913779142456136,-0.6084442138671875,0.3948211669921875,0.4596710205078125,0.8587115711274808
1780402817.834444,-0.0444335862994194,-0.1044921875,0.9907225966453552,0.9972082151404882,-0.3032684326171875,0.5779266357421875,0.3986358642578125,0.7647754512240451
1780402817.844901,-0.0424804650247097,-0.1171875,0.9843749403953552,0.9922356188644533,-0.48828125,0.881195068359375,-0.0286102294921875,1.0078402020330612
1780402817.85536,-0.0463867150247097,-0.10693359375,0.9882811903953552,0.9951312637498302,-0.79345703125,0.698089599609375,0.0934600830078125,1.0609608553752905
1780402817.865817,-0.056640625,-0.115234375,0.9858397841453552,0.9941665864359915,-0.18310546875,0.331878662109375,0.4596710205078125,0.595792334747905
1780402817.876502,-0.0419921875,-0.115234375,0.9926757216453552,1.0002236716538968,0.18310546875,-0.156402587890625,0.3376007080078125,0.4146849650426432
1780402817.887184,-0.0366210900247097,-0.11767578125,0.9780272841453552,0.9857616660532784,0.0591278076171875,-0.8258819580078125,0.3376007080078125,0.8941763496334544
1780402817.897867,-0.0249023400247097,-0.111328125,0.9765624403953552,0.9832030705534099,0.1201629638671875,-0.2765655517578125,-0.0896453857421875,0.31458534213996026
1780402817.905955,-0.0297851525247097,-0.1240234375,0.9941405653953552,1.0022895949399222,-0.0629425048828125,0.0286102294921875,-0.6999969482421875,0.7034031786258108
1780402817.914045,-0.0434570237994194,-0.1103515625,0.9916991591453552,0.9987658396808029,0.18310546875,-0.213623046875,-1.0662078857421875,1.1027065223626553
1780402817.922136,-0.0253906212747097,-0.11279296875,0.9936522841453552,1.000355836307979,0.48828125,-0.339508056640625,-1.2493133544921875,1.383643074401046
1780402817.930225,-0.0473632775247097,-0.1025390625,0.9863280653953552,0.9927741898250607,0.3662109375,-0.034332275390625,-1.0051727294921875,1.0703557221750633
1780402817.939739,-0.0468749962747097,-0.12353515625,0.9907225966453552,0.9994946040920787,0.0591278076171875,-0.2765655517578125,-0.9441375732421875,0.9855863022893355
1780402817.949253,-0.05224609375,-0.1103515625,0.9970702528953552,1.0045178997246056,0.0591278076171875,-0.2155303955078125,-0.3948211669921875,0.4536884425753449
1780402817.958767,-0.0498046837747097,-0.09619140625,0.9760741591453552,0.9820662183954622,-0.06103515625,-0.522613525390625,-0.0896453857421875,0.5337475830432817
1780402817.968281,-0.0527343712747097,-0.1123046875,0.9887694716453552,0.9965231180489725,-0.1201629638671875,-0.3986358642578125,0.3986358642578125,0.5764201960640286
1780402817.977795,-0.0468749962747097,-0.11376953125,0.9858397841453552,0.9934892307017522,-0.1220703125,-0.461578369140625,0.6427764892578125,0.8006980499507699
1780402817.985862,-0.0463867150247097,-0.10986328125,0.9775390028953552,0.98478635758191,-0.3681182861328125,-0.0934600830078125,0.5207061767578125,0.6445004128896464
1780402817.993929,-0.0375976525247097,-0.11181640625,0.9848632216453552,0.9919032500862682,-0.30517578125,0.026702880859375,0.2765655517578125,0.4127151629475722
1780402818.001997,-0.0429687462747097,-0.10693359375,0.9873046278953552,0.994007814301425,-0.1201629638671875,0.5779266357421875,0.6427764892578125,0.8726969401391463
1780402818.010063,-0.02880859375,-0.1108398362994194,0.9975585341453552,1.0041107675107186,-0.5512237548828125,0.2117156982421875,0.2765655517578125,0.6520426897438443
1780402818.021204,-0.0478515587747097,-0.11181640625,0.9843749403953552,0.9918602238532371,-0.1201629638671875,0.6999969482421875,0.0934600830078125,0.7163586061111781
1780402818.032345,-0.0454101525247097,-0.11767578125,0.9887694716453552,0.9967821926092731,-0.244140625,0.637054443359375,0.0324249267578125,0.6830039417562415
1780402818.043486,-0.0361328087747097,-0.12158203125,0.9746093153953552,0.9828281069689799,0.0591278076171875,0.6389617919921875,0.3986358642578125,0.7554328703015615
1780402818.051161,-0.04638671875,-0.10546875,0.9755858778953552,0.9823661181310179,0.1220703125,0.453948974609375,-0.2117156982421875,0.515552489689389
1780402818.058837,-0.0351562462747097,-0.11083984375,0.9902343153953552,0.997038330256746,0.0,0.026702880859375,-0.8220672607421875,0.8225008358842887
1780402818.066513,-0.0522460900247097,-0.11376953125,0.9809569716453552,0.9889134139970703,0.1220703125,0.026702880859375,-1.0662078857421875,1.0735052215331153
1780402818.074189,-0.0341796837747097,-0.12646484375,0.9882811903953552,0.9969259344489496,-0.1201629638671875,0.2117156982421875,-0.8831024169921875,0.9160417859819319
1780402818.084824,-0.0405273400247097,-0.1123046875,0.9926757216453552,0.9998299337727781,-0.0629425048828125,-0.2765655517578125,-1.0051727294921875,1.044424472834106
1780402818.095458,-0.0385742150247097,-0.10302734375,0.9838866591453552,0.9900179602760556,0.0591278076171875,-0.2155303955078125,-0.9441375732421875,0.9702294606066217
1780402818.106091,-0.0400390587747097,-0.11083984375,0.9765624403953552,0.9836476997284245,0.30517578125,-0.522613525390625,-0.8831024169921875,1.070573226491401
1780402818.116665,-0.0366210900247097,-0.1201171875,0.9912108778953552,0.9991337485169784,-0.0629425048828125,-0.2155303955078125,-0.3948211669921875,0.45420134765734654
1780402818.12724,-0.0478515587747097,-0.111328125,0.9843749403953552,0.991805296603897,-0.0629425048828125,0.0286102294921875,-0.0896453857421875,0.11321042062188491
1780402818.137815,-0.0541992112994194,-0.11376953125,0.9814452528953552,0.9895028272709238,0.18310546875,0.026702880859375,0.7038116455078125,0.7277303682578884
1780402818.148485,-0.0410156212747097,-0.1064453125,0.9814452528953552,0.9880524632693352,0.18310546875,0.209808349609375,1.0089874267578125,1.0467104583442925
1780402818.159155,-0.0488281175494194,-0.1201171875,0.9941405653953552,1.0025606154048377,0.18310546875,0.698089599609375,1.1310577392578125,1.3416960577209462
1780402818.169826,-0.0488281212747097,-0.11181640625,0.9799804091453552,0.9875468072160329,0.0591278076171875,0.3337860107421875,0.8258819580078125,0.8927430801544288
1780402818.177873,-0.0385742150247097,-0.12158203125,0.9819335341453552,0.990183632396959,0.0,-0.095367431640625,0.6427764892578125,0.6498127131415082
1780402818.18592,-0.0249023400247097,-0.11376953125,0.9799804091453552,0.98687650447675,-0.1220703125,-0.156402587890625,-0.1506805419921875,0.24913361159785669
1780402818.193965,-0.0263671875,-0.095703125,0.9721679091453552,0.9772229839107743,-0.1201629638671875,-0.2765655517578125,-0.1506805419921875,0.3370938564250462
1780402818.202011,-0.0473632775247097,-0.11865234375,0.9750975966453552,0.9834312287693526,-0.0629425048828125,-0.2765655517578125,-0.6999969482421875,0.7552787504546926
1780402818.2126,-0.0424804650247097,-0.12255859375,0.9853515028953552,0.993852495629421,0.3681182861328125,-0.2155303955078125,-0.6999969482421875,0.8197317558332659
1780402818.223187,-0.0512695275247097,-0.12353515625,0.9819335341453552,0.9910009913019796,-0.1201629638671875,-0.2155303955078125,-0.6999969482421875,0.7422184427926032
1780402818.233775,-0.0400390550494194,-0.1103515625,0.9843749403953552,0.9913498961284057,-0.0629425048828125,-0.2765655517578125,-0.3948211669921875,0.48614197231374595
1780402818.244509,-0.0468749962747097,-0.1064453125,0.9848632216453552,0.9917073334299009,-0.3681182861328125,-0.3986358642578125,-0.3948211669921875,0.6710479705378782
1780402818.255245,-0.0439453087747097,-0.1083984375,0.9863280653953552,0.9932393790030126,-0.1220703125,-0.644683837890625,-0.0896453857421875,0.6622346315439105
1780402818.265981,-0.0444335900247097,-0.1083984375,0.9775390028953552,0.9845339340807765,-0.0629425048828125,0.0286102294921875,-0.0286102294921875,0.07482545946477138
1780402818.273968,-0.0405273400247097,-0.12353515625,0.9902343153953552,0.9987328969778146,-0.48828125,0.514984130859375,0.5207061767578125,0.880205746773041
1780402818.281957,-0.0395507737994194,-0.1044921875,0.9980468153953552,1.0042809998588433,-0.2460479736328125,0.6999969482421875,0.7038116455078125,1.022685760744523
1780402818.289946,-0.0405273400247097,-0.11328125,0.9863280653953552,0.9936388476089213,0.0,0.698089599609375,0.9479522705078125,1.177260632249161
1780402818.297935,-0.0375976525247097,-0.1083984375,0.9809569716453552,0.9876438553180171,0.18310546875,0.453948974609375,1.0089874267578125,1.121451252436062
1780402818.306202,-0.0483398362994194,-0.10546875,0.9809569716453552,0.9877939953348792,-0.0629425048828125,0.5168914794921875,1.0700225830078125,1.189994491012146
1780402818.314469,-0.0332031212747097,-0.11572265625,0.9814452528953552,0.9888017823925919,-0.18310546875,0.331878662109375,0.8258819580078125,0.9087090115171546
