timestamp,accel_x,accel_y,accel_z,accel_rms,gyro_x,gyro_y,gyro_z,gyro_rms
1785248768.437214,-0.0224609337747097,-0.85888671875,0.4565429389476776,0.9729451907965609,-0.6103515625,1.77001953125,-3.6029815673828125,4.060415538556733
1785248768.44523,-0.0361328050494194,-0.86669921875,0.4521484076976776,0.9782184306003159,-0.91552734375,1.77001953125,-3.4198760986328125,3.9581197541459487
1785248768.453246,-0.0449218675494194,-0.8564453125,0.4648437201976776,0.9754979403845848,-1.28173828125,1.89208984375,-3.5419464111328125,4.215239183934906
1785248768.461262,-0.0502929650247097,-0.8706054091453552,0.4575195014476776,0.9847879238541969,-1.28173828125,2.50244140625,-3.1147003173828125,4.196000962874147
1785248768.471914,-0.030273430049419403,-0.88134765625,0.4536132514476776,0.9916930743094151,-1.220703125,2.74658203125,-3.2367706298828125,4.417070645149579
1785248768.482566,-0.0483398362994194,-0.88232421875,0.4516601264476776,0.9923858305059502,-1.7070770263671875,3.1108856201171875,-2.9315948486328125,4.60282192485577
1785248768.493218,-0.0517578087747097,-0.86767578125,0.4458007514476776,0.9768717634000234,-1.7070770263671875,3.6029815673828125,-3.1147003173828125,5.059342468735986
1785248768.501205,-0.0502929650247097,-0.8681640625,0.4497070014476776,0.9790171647619577,-2.1953582763671875,4.0912628173828125,-2.8705596923828125,5.458767475359796
1785248768.509192,-0.0458984337747097,-0.88427734375,0.4477538764476776,0.9922381875167118,-2.0751953125,4.0283203125,-2.8095245361328125,5.331719070267521
1785248768.517179,-0.0566406212747097,-0.873046875,0.4570312201976776,0.9870646089091781,-2.685546875,3.5400390625,-2.8095245361328125,5.2571348376259515
1785248768.525166,-0.0634765625,-0.875,0.4487304389476776,0.9854000613075847,-2.7446746826171875,3.2939910888671875,-2.1381378173828125,4.791163713865217
1785248768.535843,-0.052734375,-0.8857421875,0.4506835639476776,0.9952064166978156,-2.86865234375,3.23486328125,-2.0771026611328125,4.796651142470848
1785248768.54652,-0.0527343712747097,-0.88330078125,0.4541015326976776,0.9945900593053297,-3.173828125,2.74658203125,-2.1381378173828125,4.710470374341497
1785248768.557197,-0.0522460900247097,-0.8798827528953552,0.4604491889476776,0.9944529995772313,-3.60107421875,2.62451171875,-2.0160675048828125,4.890840978302854
1785248768.56787,-0.0444335900247097,-0.888671875,0.4570312201976776,1.000294747348939,-4.2705535888671875,1.1577606201171875,-1.6498565673828125,4.722294389575553
1785248768.578546,-0.0478515625,-0.880859375,0.4526366889476776,0.9915054123607187,-4.1484832763671875,0.9784698486328125,-1.5888214111328125,4.548809758107698
1785248768.589222,-0.0517578087747097,-0.8847655653953552,0.4506835639476776,0.9942860007518473,-3.9653778076171875,0.4253387451171875,-1.8329620361328125,4.3891780587195255
1785248768.59722,-0.0483398362994194,-0.87548828125,0.4565429389476776,0.9885585088817539,-3.7822723388671875,-0.1239776611328125,-1.1005401611328125,3.941084007235327
1785248768.605219,-0.0551757737994194,-0.896484375,0.4765624701976776,1.0167794198519253,-3.7822723388671875,-0.4901885986328125,-1.1005401611328125,3.9695160352183616
1785248768.613218,-0.0541992112994194,-0.8876953125,0.4726562201976776,1.0071466749344442,-3.1719207763671875,-0.7343292236328125,-1.0395050048828125,3.417731919768929
1785248768.621217,-0.0473632775247097,-0.8828125,0.4477538764476776,0.9910018789528378,-2.803802490234375,-1.03759765625,-0.9784698486328125,3.1456828424339753
1785248768.631883,-0.0336913987994194,-0.8916015625,0.4521484076976776,1.0002632849350455,-2.620697021484375,-1.03759765625,-0.9174346923828125,2.9641774895340047
1785248768.642549,-0.0371093712747097,-0.88818359375,0.4570312201976776,0.9995622731368203,-2.3784637451171875,-0.7953643798828125,-1.0395050048828125,2.7148231873917066
1785248768.653215,-0.0356445275247097,-0.88916015625,0.4672851264476776,1.0051028331490297,-1.77001953125,-0.732421875,-1.0395050048828125,2.1794452503243575
1785248768.663891,-0.0439453050494194,-0.8984375,0.4462890326976776,1.0041389505184855,-1.7070770263671875,-0.6694793701171875,-1.3446807861328125,2.273869173360223
1785248768.674568,-0.0419921875,-0.896484375,0.4633788764476776,1.0100334457670637,-1.8291473388671875,-0.1811981201171875,-1.4057159423828125,2.314011680326639
1785248768.685245,-0.0380859375,-0.87841796875,0.4487304389476776,0.987131031472674,-1.8901824951171875,0.3643035888671875,-1.3446807861328125,2.348121246082431
1785248768.693234,-0.0449218675494194,-0.88720703125,0.4658202826976776,1.00306671077058,-1.6460418701171875,0.4901885986328125,-1.7108917236328125,2.4242296076081047
1785248768.701225,-0.0283203125,-0.90234375,0.4428710639476776,1.0055650464024235,-1.7070770263671875,0.6694793701171875,-1.5888214111328125,2.426245675408244
1785248768.709216,-0.0292968712747097,-0.89892578125,0.4506835639476776,1.006002754307855,-1.6460418701171875,1.1577606201171875,-1.6498565673828125,2.6022855693811198
1785248768.717207,-0.0346679612994194,-0.90185546875,0.4477538764476776,1.0074863214599306,-1.953125,1.28173828125,-1.7108917236328125,2.895634779671283
1785248768.727867,-0.0468749962747097,-0.90380859375,0.4570312201976776,1.0138761145462913,-1.3408660888671875,1.2187957763671875,-1.7108917236328125,2.4920946014868175
1785248768.738527,-0.0307617150247097,-0.888671875,0.4658202826976776,1.0038289297982108,-0.9765625,1.5869140625,-1.8939971923828125,2.656914737608356
1785248768.749187,-0.029296867549419403,-0.89453125,0.4545898139476776,1.0038408054167527,-0.7305145263671875,1.9550323486328125,-2.1991729736328125,3.0318582957307214
1785248768.758791,-0.0483398362994194,-0.8896484375,0.4531249701976776,0.9995665664358189,0.1850128173828125,1.6460418701171875,-1.8329620361328125,2.470512782132276
1785248768.768397,-0.0385742112994194,-0.9052734375,0.4492187201976776,1.0113384324727692,0.18310546875,1.89208984375,-2.1381378173828125,2.8609727219305316
1785248768.778003,-0.0478515587747097,-0.888671875,0.4541015326976776,0.9991174480968517,0.4291534423828125,1.6460418701171875,-2.0771026611328125,2.6847685151932406
1785248768.787609,-0.0410156212747097,-0.8901366591453552,0.4404296576976776,0.9939838210568108,0.5512237548828125,2.0122528076171875,-1.9550323486328125,2.859223753733011
1785248768.797215,-0.0522460900247097,-0.89892578125,0.4516601264476776,1.0073698843729273,0.4291534423828125,1.6460418701171875,-1.9550323486328125,2.5914818153883767
1785248768.806811,-0.0473632775247097,-0.8945311903953552,0.4506835639476776,1.0027686699636134,1.1005401611328125,1.5850067138671875,-1.8329620361328125,2.6614253239898433
1785248768.816411,-0.0439453050494194,-0.892578125,0.4565429389476776,1.00352297141988,0.7343292236328125,1.5239715576171875,-1.8939971923828125,2.539479096559234
1785248768.826011,-0.0449218712747097,-0.88916015625,0.4433593451976776,0.9945809504286011,0.9174346923828125,1.1577606201171875,-1.4667510986328125,2.0816951874907725
1785248768.835611,-0.0395507737994194,-0.8916015625,0.4506835639476776,0.9998166255734872,1.1005401611328125,0.9784698486328125,-1.4667510986328125,2.0784491036083415
1785248768.845211,-0.0454101525247097,-0.8803710341453552,0.4501952826976776,0.9898439433959888,1.15966796875,0.8544921875,-1.3446807861328125,1.9705717730745167
1785248768.856211,-0.0507812462747097,-0.8852538466453552,0.4458007514476776,0.9924673384877333,1.5888214111328125,0.3643035888671875,-1.4057159423828125,2.1524655379366178
1785248768.867213,-0.0444335862994194,-0.8779296875,0.4531249701976776,0.9889677034170133,1.40380859375,0.91552734375,-1.2226104736328125,2.0745228982291164
1785248768.878215,-0.0458984337747097,-0.8911132216453552,0.4521484076976776,1.0003137620755203,1.40380859375,0.42724609375,-1.7108917236328125,2.2539672319060546
1785248768.888544,-0.0454101525247097,-0.87939453125,0.4497070014476776,0.9887533619137717,1.7719268798828125,0.4253387451171875,-1.5888214111328125,2.4176417005468704
1785248768.898873,-0.04296875,-0.88037109375,0.4570312201976776,0.9928630884580774,1.5888214111328125,0.2422332763671875,-1.5888214111328125,2.2599521926641954
1785248768.909202,-0.0356445275247097,-0.8759765028953552,0.4594726264476776,0.9898082947833702,1.5277862548828125,-0.1239776611328125,-1.4057159423828125,2.07979292520626
1785248768.917211,-0.03271484375,-0.876953125,0.4482421576976776,0.9854126426966128,1.64794921875,-0.42724609375,-1.2836456298828125,2.132140228812498
1785248768.925219,-0.0566406212747097,-0.87841796875,0.4643554389476776,0.9952146811022994,1.52587890625,-0.3662109375,-1.2226104736328125,1.989269528626017
1785248768.933227,-0.0532226487994194,-0.87353515625,0.4560546576976776,0.9868546855326189,1.15966796875,-0.42724609375,-1.0395050048828125,1.6149116624589102
1785248768.941235,-0.0581054612994194,-0.87255859375,0.4467773139476776,0.9820105459810997,0.7953643798828125,-0.6694793701171875,-0.7953643798828125,1.3089734988093715
1785248768.949239,-0.0390624962747097,-0.87939453125,0.4409179389476776,0.9845147277179184,0.54931640625,-0.67138671875,-0.4291534423828125,0.9678229783376321
1785248768.957243,-0.0385742112994194,-0.86572265625,0.4589843451976776,0.9806275115753529,0.3662109375,-1.03759765625,-0.6122589111328125,1.2591982851249677
1785248768.965247,-0.030273430049419403,-0.8857421875,0.4379882514476776,0.9885794918419238,0.4291534423828125,-1.1005401611328125,-0.6732940673828125,1.359664011639694
1785248768.973251,-0.0449218712747097,-0.87353515625,0.4448241889476776,0.9813002612842272,0.3070831298828125,-0.7343292236328125,-0.3681182861328125,0.8769552610738776
1785248768.983882,-0.0517578087747097,-0.8837890625,0.4545898139476776,0.9951953962457687,-0.06103515625,-0.3662109375,-0.2460479736328125,0.44539347365212256
1785248768.994513,-0.033203125,-0.88232421875,0.4506835639476776,0.9913193982340626,0.0,-0.42724609375,-0.0629425048828125,0.43185759637356924
1785248769.005144,-0.0312499962747097,-0.88232421875,0.4570312201976776,0.9941579982554811,-0.2422332763671875,-0.1239776611328125,-0.4901885986328125,0.560653442751532
1785248769.015846,-0.0322265625,-0.8818359375,0.4477538764476776,0.9895234741384322,-0.30517578125,-0.06103515625,-0.6122589111328125,0.686817677423599
1785248769.02655,-0.0283203125,-0.87841796875,0.4589843451976776,0.9915073358576398,-0.1220703125,0.244140625,-0.5512237548828125,0.6151044089553783
1785248769.037254,-0.0219726525247097,-0.8906249403953552,0.4516601264476776,0.9988455595015346,-0.2422332763671875,0.4901885986328125,-1.1615753173828125,1.2838298331017879
1785248769.04797,-0.04150390625,-0.88134765625,0.4648437201976776,0.9972842872614577,-0.6694793701171875,0.6694793701171875,-1.0395050048828125,1.406049753458756
1785248769.058684,-0.0444335862994194,-0.87158203125,0.4614257514476776,0.9871895992606272,-0.48828125,0.48828125,-0.9174346923828125,1.1482698171556505
1785248769.069398,-0.0322265587747097,-0.8740234375,0.4560546576976776,0.9863779048607699,-0.6694793701171875,0.5474090576171875,-1.1615753173828125,1.4481424382037926
1785248769.077354,-0.0419921837747097,-0.86865234375,0.4628905951976776,0.9851842167447656,-0.5474090576171875,0.4901885986328125,-1.1005401611328125,1.323302756309823
1785248769.08531,-0.0317382775247097,-0.87255859375,0.4741210639476776,0.9935575479387647,-0.54931640625,0.1220703125,-1.1005401611328125,1.236057572136306
1785248769.093266,-0.0478515625,-0.8720703125,0.4550780951976776,0.98483119096944,0.06103515625,0.244140625,-1.6498565673828125,1.6689387729961964
1785248769.101222,-0.02783203125,-0.86572265625,0.4541015326976776,0.9779869843236343,-0.48828125,0.48828125,-1.7719268798828125,1.9017260648827328
1785248769.111898,-0.0439453087747097,-0.87890625,0.4580077826976776,0.9920577178088028,-0.79345703125,0.8544921875,-1.4667510986328125,1.8737902081821116
1785248769.122574,-0.029296867549419403,-0.87255859375,0.4536132514476776,0.9838606546986822,-0.42724609375,0.79345703125,-1.4667510986328125,1.7214738076442695
1785248769.13325,-0.0493163987994194,-0.876953125,0.4604491889476776,0.9917118262077865,-0.48828125,0.42724609375,-1.6498565673828125,1.7728464391092629
1785248769.143928,-0.0249023400247097,-0.869140625,0.4663085639476776,0.9866454425856546,-0.6694793701171875,0.0591278076171875,-1.8329620361328125,1.9522931517961812
1785248769.154606,-0.04638671875,-0.87646484375,0.4609374701976776,0.9913655740635432,-0.667572021484375,-0.3662109375,-1.4057159423828125,1.5986870129210915
1785248769.165284,-0.0415039025247097,-0.869140625,0.4511718451976776,0.9801449045162905,-0.6694793701171875,-0.6122589111328125,-1.0395050048828125,1.3797225287899229
1785248769.173292,-0.0439453050494194,-0.8671875,0.4560546576976776,0.9807809137620299,-0.6694793701171875,-0.1239776611328125,-1.5277862548828125,1.672633829647517
1785248769.181302,-0.0278320275247097,-0.8798827528953552,0.4594726264476776,0.9930173085367505,-0.48828125,-0.3662109375,-1.8329620361328125,1.9319106748890689
1785248769.189312,-0.0483398362994194,-0.89111328125,0.4526366889476776,1.0006495850072157,-0.667572021484375,-0.3662109375,-1.7719268798828125,1.9285973458097994
1785248769.197322,-0.0346679612994194,-0.86669921875,0.4565429389476776,0.9802044982683467,-0.6103515625,-0.67138671875,-1.4057159423828125,1.6731187843752402
1785248769.20796,-0.0625,-0.88525390625,0.4570312201976776,0.9982275616142152,-0.732421875,-1.03759765625,-1.4057159423828125,1.8944888518814798
1785248769.218598,-0.0502929650247097,-0.8798827528953552,0.4482421576976776,0.988758854883816,-0.667572021484375,-1.52587890625,-0.9784698486328125,1.9316733898594116
1785248769.229236,-0.0493164025247097,-0.88427734375,0.4711913764476776,1.003194817304292,-0.7305145263671875,-1.2836456298828125,-0.3681182861328125,1.5221394971999374
1785248769.239879,-0.0507812462747097,-0.8710936903953552,0.4550780951976776,0.984113319261841,-0.48828125,-1.8310546875,0.4253387451171875,1.9421876572090424
1785248769.250522,-0.0488281175494194,-0.87646484375,0.4565429389476776,0.9894474531252858,-0.79345703125,-1.64794921875,0.6694793701171875,1.9476943587306774
1785248769.261165,-0.0468749962747097,-0.87744140625,0.4609374701976776,0.9922520033287746,-0.42724609375,-1.40380859375,0.7915496826171875,1.6672638341193504
1785248769.269205,-0.0351562462747097,-0.8779296875,0.4580077826976776,0.9908418778279503,-0.6694793701171875,-1.5888214111328125,0.9746551513671875,1.98053244547348
1785248769.277246,-0.0449218675494194,-0.87744140625,0.4384765326976776,0.9819282383721748,-1.1577606201171875,-1.1005401611328125,1.4019012451171875,2.125305954638412
1785248769.285287,-0.0346679612994194,-0.88720703125,0.4707030951976776,1.0049376038684046,-1.1577606201171875,-1.2836456298828125,1.7070770263671875,2.4294583204002524
1785248769.293328,-0.0424804650247097,-0.869140625,0.4575195014476776,0.9831246666313675,-1.4019012451171875,-1.1005401611328125,1.8291473388671875,2.5538785669276196
1785248769.303946,-0.0410156212747097,-0.86865234375,0.4531249701976776,0.9805923791808525,-1.220703125,-1.03759765625,1.8901824951171875,2.477804447588166
1785248769.314564,-0.0449218712747097,-0.86962890625,0.4545898139476776,0.9823056082754373,-1.46484375,-1.46484375,1.7681121826171875,2.723555601442247
1785248769.325182,-0.04736328125,-0.8720703125,0.4633788764476776,0.9886707710317557,-1.5869140625,-1.40380859375,2.3174285888671875,3.1399761263655446
1785248769.335858,-0.0444335900247097,-0.875,0.4555663764476776,0.9874918061797531,-1.1577606201171875,-2.0771026611328125,2.2563934326171875,3.2781208704282276
1785248769.346535,-0.037109375,-0.876953125,0.4555663764476776,0.9889209333965094,-1.0356903076171875,-2.3174285888671875,2.1953582763671875,3.3559987543807366
1785248769.357212,-0.0395507775247097,-0.87939453125,0.4580077826976776,0.9923054643641036,-0.9765625,-2.685546875,1.7681121826171875,3.3603656087616165
1785248769.367869,-0.0390624925494194,-0.88720703125,0.4516601264476776,0.9963227712174123,-0.667572021484375,-2.8076171875,2.0732879638671875,3.553433502477666
1785248769.378528,-0.0268554650247097,-0.875,0.4497070014476776,0.984165942894162,-0.7915496826171875,-2.9315948486328125,1.6460418701171875,3.454019845739266
1785248769.389187,-0.033203125,-0.87353515625,0.4604491889476776,0.9880180020207383,-0.4253387451171875,-2.7484893798828125,1.5239715576171875,3.171371348147774
1785248769.399845,-0.0234374962747097,-0.88427734375,0.4467773139476776,0.991012464684216,-0.179290771484375,-2.99072265625,1.1577606201171875,3.212005112206494
1785248769.410502,-0.02294921875,-0.8818359375,0.4697265326976776,0.9994019725955726,-0.3643035888671875,-3.1757354736328125,1.0356903076171875,3.360158823127788
1785248769.421159,-0.02392578125,-0.88037109375,0.4609374701976776,0.994026688349578,-0.362396240234375,-3.47900390625,0.9746551513671875,3.6310813649277214
1785248769.429172,-0.0288085900247097,-0.875,0.4492187201976776,0.9839981673942544,-0.2422332763671875,-2.8705596923828125,0.6084442138671875,2.9443155858536887
1785248769.437185,-0.0273437462747097,-0.8828125,0.4594726264476776,0.9956006654634743,0.06103515625,-3.11279296875,0.3032684326171875,3.1281267715391565
1785248769.445198,-0.0224609375,-0.89111328125,0.4584960639476776,1.0024001268899727,0.06103515625,-2.685546875,0.0,2.6862403667804426
1785248769.453211,-0.0185546875,-0.8818359375,0.4531249701976776,0.9916154172416708,0.0,-2.25830078125,-0.2460479736328125,2.271665033389204
1785248769.463873,-0.0258789025247097,-0.88818359375,0.4472655951976776,0.9947795366060167,0.1239776611328125,-2.2602081298828125,-0.3681182861328125,2.2933430453017016
1785248769.474535,-0.0312499962747097,-0.892578125,0.4570312201976776,1.0032695588579688,0.0,-2.01416015625,-0.6122589111328125,2.105160827415939
1785248769.485197,-0.0292968712747097,-0.869140625,0.4448241889476776,0.9767969552393356,-0.1201629638671875,-1.7719268798828125,-0.4291534423828125,1.827111568198725
1785248769.493201,-0.0390624925494194,-0.8857421875,0.4643554389476776,1.0008451801960925,-0.3643035888671875,-1.6460418701171875,-0.9784698486328125,1.9492496473576493
1785248769.501207,-0.0263671837747097,-0.8945311903953552,0.4584960639476776,1.0055346436726351,-0.244140625,-1.708984375,-0.4291534423828125,1.7788774313815299
1785248769.509213,-0.0307617150247097,-0.87744140625,0.4560546576976776,0.9893611854732248,-0.0591278076171875,-1.3408660888671875,-0.7953643798828125,1.5601353988336957
1785248769.517219,-0.029785148799419403,-0.8857421875,0.4545898139476776,0.9960312629387056,-0.48828125,-1.220703125,-0.5512237548828125,1.4256164724193654
1785248769.527893,-0.04248046875,-0.89599609375,0.4614257514476776,1.0087255892161815,-0.244140625,-0.3662109375,-0.6732940673828125,0.8043879640403073
1785248769.538567,-0.0419921837747097,-0.8876953125,0.4516601264476776,0.9968767131172108,-0.30517578125,-0.1220703125,-0.6122589111328125,0.6949060317171903
1785248769.549241,-0.02294921875,-0.88671875,0.4633788764476776,1.0007581083262378,-0.1811981201171875,0.1811981201171875,-0.6732940673828125,0.7204098962680181
1785248769.559875,-0.0410156212747097,-0.8857421278953552,0.4638671576976776,1.0006968263703369,-0.1811981201171875,0.5474090576171875,-0.4901885986328125,0.7568185365891487
1785248769.570509,-0.0419921837747097,-0.87841796875,0.4599609076976776,0.9924442089765633,0.06103515625,0.48828125,-0.5512237548828125,0.7389123746068483
1785248769.581143,-0.0234375,-0.89306640625,0.4545898139476776,1.002381574712706,0.0,0.6103515625,-0.6122589111328125,0.8645172086822382
1785248769.589153,-0.046875,-0.88134765625,0.4521484076976776,0.9916698741949931,-0.362396240234375,0.1220703125,-0.6732940673828125,0.7743107240008689
1785248769.597165,-0.0341796800494194,-0.88330078125,0.4687499701976776,1.000557372290797,-0.1220703125,-0.1220703125,-0.5512237548828125,0.5776244024751744
1785248769.605177,-0.0356445275247097,-0.8828125,0.4565429389476776,0.994514905670947,-0.42724609375,-0.244140625,-0.9784698486328125,1.0952383823093232
1785248769.613189,-0.0205078087747097,-0.8955077528953552,0.4570312201976776,1.0056004385200947,-0.0591278076171875,-0.4901885986328125,-0.6732940673828125,0.8349286562551959
1785248769.623862,-0.0468749962747097,-0.87939453125,0.4614257514476776,0.9942060807333735,0.0,-0.3662109375,-0.6122589111328125,0.7134223328479185
1785248769.634535,-0.0390624925494194,-0.88134765625,0.4682616889476776,0.9987835495429793,-0.1201629638671875,-0.3070831298828125,-0.9784698486328125,1.0325417334071734
1785248769.645208,-0.0327148400247097,-0.8984375,0.4711913764476776,1.0150278397180785,0.3070831298828125,-0.1811981201171875,-1.1615753173828125,1.2150679097670256
1785248769.653205,-0.0278320275247097,-0.88916015625,0.4682616889476776,1.005310606009303,0.8563995361328125,-0.0019073486328125,-1.1005401611328125,1.3944936176740073
1785248769.661203,-0.0317382775247097,-0.8798827528953552,0.4555663764476776,0.9913332943327442,0.980377197265625,-0.06103515625,-0.7953643798828125,1.2639102958688306
1785248769.669201,-0.0463867150247097,-0.8808593153953552,0.4565429389476776,0.9932252090802671,1.1615753173828125,-0.4901885986328125,-1.2226104736328125,1.756222779267833
1785248769.677199,-0.0292968712747097,-0.8740234375,0.4628905951976776,0.9894660070402942,1.2226104736328125,-0.4901885986328125,-0.7953643798828125,1.5387221091713155
1785248769.687865,-0.0380859337747097,-0.875,0.4648437201976776,0.9915418410529675,1.4667510986328125,-0.4901885986328125,-1.1005401611328125,1.8981128243169318
1785248769.698531,-0.0214843712747097,-0.88671875,0.4516601264476776,0.9953534998347895,1.3446807861328125,-0.3070831298828125,-1.1005401611328125,1.7645552163419596
1785248769.709197,-0.0253906212747097,-0.87255859375,0.4565429389476776,0.9851064096221668,1.468658447265625,-0.06103515625,-1.1615753173828125,1.8734834247935368
1785248769.719846,-0.01416015625,-0.88916015625,0.4672851264476776,1.0045703971782023,1.3427734375,0.8544921875,-1.4057159423828125,2.1234958708750296
1785248769.730496,-0.00830078125,-0.8876953125,0.4614257514476776,1.0004926760865804,1.5277862548828125,1.3408660888671875,-1.5888214111328125,2.5800011987122993
1785248769.741146,-0.0209960900247097,-0.88916015625,0.4643554389476776,1.0033307495233765,1.468658447265625,1.953125,-2.1381378173828125,3.247042997324214
1785248769.751835,-0.00830078125,-0.89111328125,0.4624023139476776,1.00397593742762,1.7719268798828125,2.6226043701171875,-2.0771026611328125,3.7857805027093185
1785248769.762525,-0.015136715024709702,-0.8950194716453552,0.4545898139476776,1.0039625858123669,2.2602081298828125,3.1719207763671875,-2.2602081298828125,4.503128134122606
1785248769.773215,-0.008300777524709702,-0.88916015625,0.4687499701976776,1.0051871571654518,2.0160675048828125,3.4770965576171875,-2.5043487548828125,4.735661658239617
1785248769.781505,-0.037109375,-0.890625,0.4663085639476776,1.0059988435126732,2.3193359375,4.08935546875,-2.6874542236328125,5.415215373823684
1785248769.789796,-0.0273437462747097,-0.87890625,0.4531249701976776,0.9892148984755761,2.4433135986328125,4.1484832763671875,-2.1991729736328125,5.293019611102839
1785248769.798087,-0.0336913987994194,-0.8837890625,0.4565429389476776,0.9953138562537313,2.445220947265625,3.90625,-2.0771026611328125,5.054923343467397
1785248769.806378,-0.0415039025247097,-0.89208984375,0.4677734076976776,1.0081462315536263,2.50244140625,3.90625,-1.9550323486328125,5.03419840077993
1785248769.814205,-0.0322265587747097,-0.8706054091453552,0.4609374701976776,0.9856245131670813,2.62451171875,4.08935546875,-1.8329620361328125,5.193326461677116
1785248769.822032,-0.0336913987994194,-0.88525390625,0.4609374701976776,0.998635539281564,2.3822784423828125,3.9653778076171875,-1.6498565673828125,4.911364212428251
1785248769.829859,-0.0322265587747097,-0.8837890625,0.4589843451976776,0.9963876189624346,2.685546875,3.0517578125,-1.7108917236328125,4.410503174692464
1785248769.837686,-0.012207027524709702,-0.87744140625,0.4785155951976776,0.9995146861203963,2.50244140625,3.5400390625,-1.5888214111328125,4.617189949765378
1785248769.846977,-0.0014648400247097015,-0.8901366591453552,0.4726562201976776,1.0078438967430958,2.50244140625,3.35693359375,-1.7719268798828125,4.5465306566890105
1785248769.856268,-0.020996086299419403,-0.88671875,0.4672851264476776,1.0025299829135672,2.685546875,3.0517578125,-2.4433135986328125,4.742907241897218
1785248769.865559,-0.024414055049419403,-0.873046875,0.4531249701976776,0.9839355317539192,2.8095245361328125,3.2939910888671875,-2.5043487548828125,5.0015565675849185
1785248769.87485,-0.0297851525247097,-0.875,0.4716796576976776,0.9944817015896866,2.685546875,3.60107421875,-2.1991729736328125,5.001625667193135
1785248769.883606,-0.0341796800494194,-0.87353515625,0.4604491889476776,0.9880513019755435,2.86865234375,3.5400390625,-2.4433135986328125,5.170186087037126
1785248769.892362,-0.0546874962747097,-0.8740234375,0.4604491889476776,0.9894044406362278,2.7484893798828125,3.7822723388671875,-2.1381378173828125,5.141148825195689
1785248769.901118,-0.06640625,-0.869140625,0.4594726264476776,0.9853579606007049,2.4433135986328125,4.4536590576171875,-1.4667510986328125,5.287364100201555
1785248769.909136,-0.0629882737994194,-0.876953125,0.4643554389476776,0.994303917202274,2.7484893798828125,4.5146942138671875,-0.9174346923828125,5.36454510008463
1785248769.917154,-0.0502929650247097,-0.87890625,0.4541015326976776,0.9905623557446644,2.5634765625,3.72314453125,-0.1239776611328125,4.522011471405569
1785248769.925172,-0.0380859375,-0.86572265625,0.4526366889476776,0.9776534295758013,1.9550323486328125,3.1719207763671875,0.2422332763671875,3.7338866956470618
1785248769.941204,-0.0341796800494194,-0.8857421875,0.4692382514476776,1.0029416781983087,1.9550323486328125,3.1719207763671875,0.3032684326171875,3.7383424987516376
1785248769.949217,-0.0180664025247097,-0.8837890625,0.4721679389476776,1.0021736698122294,1.5888214111328125,3.1719207763671875,0.3032684326171875,3.5605345989395984
1785248769.95723,-0.0234375,-0.87548828125,0.4746093451976776,0.9961340660580269,2.0771026611328125,3.6029815673828125,-0.1239776611328125,4.160673274873345
1785248769.965243,0.0034179724752902985,-0.87890625,0.4809570014476776,1.0019019493276005,2.3193359375,3.96728515625,-0.7343292236328125,4.653805981200953
1785248769.975949,0.0029296875,-0.88623046875,0.4658202826976776,1.0012000612176553,2.4433135986328125,4.7588348388671875,-1.6498565673828125,5.598063688260103
1785248769.986655,0.003906257450580597,-0.89111328125,0.4750976264476776,1.0098593434353265,2.445220947265625,5.37109375,-2.6264190673828125,6.459553441976285
1785248769.997361,0.0126953125,-0.87646484375,0.4887695014476776,1.0036171674670555,2.86865234375,6.53076171875,-3.7860870361328125,8.075547655829032
1785248770.007974,0.0034179724752902985,-0.88916015625,0.5009765625,1.0205856074689093,4.6405792236328125,9.031295776367188,-5.6781768798828125,11.633613867164236
1785248770.018588,0.0229492224752903,-0.90185546875,0.51123046875,1.0369313118547667,6.1664581298828125,10.133743286132812,-6.5326690673828125,13.542293897297455
1785248770.029202,0.0302734375,-0.900390625,0.4951171576976776,1.0279886956832667,7.4481964111328125,12.144088745117188,-7.3871612548828125,16.04757528830245
1785248770.037186,0.0522460974752903,-0.8945311903953552,0.4970702826976776,1.024692427625323,8.241653442382812,13.792037963867188,-8.852005004882812,18.344022330654873
1785248770.045171,0.09375,-0.9130859375,0.50732421875,1.048757767404157,9.33837890625,16.54052734375,-11.476516723632812,22.192449200434368
1785248770.053156,0.1416015625,-0.921875,0.53369140625,1.074584121989779,10.498046875,20.1416015625,-15.016555786132812,27.228478645900115
1785248770.061141,0.1552734375,-0.921875,0.53515625,1.0771980170479933,12.697219848632812,25.083541870117188,-19.289016723632812,34.09500888398511
1785248770.071839,0.1611328125,-0.9282225966453552,0.52197265625,1.0770405870067694,14.406204223632812,30.637741088867188,-23.500442504882812,41.21262788377828
1785248770.082537,0.1484375,-0.916015625,0.4975585639476776,1.0529400938363331,15.7470703125,35.94970703125,-27.589797973632812,47.97445790507067
1785248770.093235,0.1123046875,-0.90966796875,0.4877929389476776,1.038291918244304,16.7236328125,40.1611328125,-31.068801879882812,53.45902106737459
1785248770.103911,0.0214843787252903,-0.9033203125,0.4682616889476776,1.0177023999384305,17.88330078125,45.59326171875,-33.02192687988281,59.06780523980401
1785248770.114588,-0.0249023400247097,-0.88330078125,0.4458007514476776,0.9897366855315006,17.76123046875,45.2880859375,-32.89985656738281,58.72710275333528
1785248770.125265,-0.080078125,-0.8852538466453552,0.4589843451976776,1.0003766831751202,17.520904541015625,43.88427734375,-31.251907348632812,56.65239277246885
1785248770.133378,-0.08984375,-0.86865234375,0.4584960639476776,0.9863302866544976,17.08984375,42.66357421875,-28.566360473632812,54.11358678952759
1785248770.141493,-0.1196288987994194,-0.85693359375,0.4550780951976776,0.9776207497051187,15.993118286132812,41.13578796386719,-25.697708129882812,51.07156828462507
1785248770.149608,-0.12939453125,-0.83447265625,0.4653320014476776,0.9641687768838189,15.321731567382812,39.36576843261719,-22.584915161132812,47.90091413896964
1785248770.157723,-0.138671875,-0.8359375,0.4736327826976776,0.9707468288221245,14.58740234375,37.59765625,-19.350051879882812,44.73030930348865
1785248770.167224,-0.14404296875,-0.81201171875,0.4565429389476776,0.9426255159588167,13.734817504882812,35.70747375488281,-15.993118286132812,41.46623598016
1785248770.176725,-0.1557617038488388,-0.81982421875,0.4809570014476776,0.963168259068208,12.760162353515625,33.69140625,-12.758255004882812,38.2191793365613
1785248770.186226,-0.142578125,-0.8095703125,0.4775390326976776,0.9506714155583394,11.598587036132812,31.492233276367188,-10.316848754882812,35.110188638043574
1785248770.195727,-0.1376953125,-0.81884765625,0.4863280951976776,0.9622819230398086,10.7421875,29.11376953125,-7.8754425048828125,32.01607039053375
1785248770.205228,-0.1318359375,-0.8076171875,0.4916991889476776,0.954669748328561,10.072708129882812,26.548385620117188,-5.8612823486328125,28.99363479929081
1785248770.213276,-0.12353515625,-0.81689453125,0.4868163764476776,0.9589409754481848,9.647369384765625,23.5595703125,-3.2367706298828125,25.66323778220933
1785248770.221324,-0.1113281175494194,-0.80908203125,0.4897460639476776,0.9522913893346753,8.670806884765625,20.263671875,-2.0771026611328125,22.138510459275484
1785248770.229372,-0.1040038987994194,-0.80810546875,0.50341796875,0.957747832599747,7.75146484375,16.845703125,-0.8563995361328125,18.5633063101651
1785248770.23742,-0.0800781175494194,-0.8173828125,0.4926757514476776,0.9577351215994966,7.2040557861328125,13.792037963867188,0.1201629638671875,15.560628846687166
1785248770.248032,-0.08984375,-0.80859375,0.4921874701976776,0.9508650050205417,6.4697265625,11.41357421875,0.4863739013671875,13.128731767096314
1785248770.258644,-0.0634765625,-0.8203125,0.4848632514476776,0.9550048399078824,5.43212890625,9.1552734375,0.8525848388671875,10.679604724753444
1785248770.269256,-0.0566406212747097,-0.81005859375,0.4931640326976776,0.9500599183384428,4.7016143798828125,7.8716278076171875,1.0967254638671875,9.234203206658803
1785248770.2799,-0.0981445237994194,-0.8134765625,0.5654296875,0.9955336241408317,5.43212890625,7.4462890625,2.1343231201171875,9.461003141183852
1785248770.290543,-0.0996093675494194,-0.83251953125,0.4926757514476776,0.9724917439653916,6.717681884765625,7.14111328125,3.6602020263671875,10.465172128272705
1785248770.301186,-0.10400390625,-0.814453125,0.4243163764476776,0.9242267539187619,6.103515625,4.8828125,4.1484832763671875,8.848992846029068
1785248770.3092,-0.0878906175494194,-0.828125,0.4116210639476776,0.9289497707430884,2.3822784423828125,2.6836395263671875,4.5146942138671875,5.767116743161009
1785248770.317212,-0.07080078125,-0.84521484375,0.4453124701976776,0.9579687253947828,-0.79345703125,2.38037109375,5.1860809326171875,5.7611783555151455
1785248770.325224,-0.0493163987994194,-0.876953125,0.4873046576976776,1.0044624035033167,-2.9888153076171875,2.8667449951171875,5.0640106201171875,6.541822939421086
1785248770.333236,-0.0449218712747097,-0.8681640625,0.501953125,1.003834525025211,-2.9888153076171875,2.8667449951171875,4.4536590576171875,6.081638168419088
1785248770.343907,-0.0400390550494194,-0.86181640625,0.52685546875,1.0108943213623756,-2.74658203125,2.5634765625,3.9653778076171875,5.462540260539512
1785248770.354578,-0.0366210900247097,-0.86474609375,0.52392578125,1.0117436113704423,-2.5005340576171875,2.3784637451171875,3.1108856201171875,4.646221012994566
1785248770.365249,-0.0434570237994194,-0.8642578125,0.53564453125,1.017715649502758,-1.89208984375,2.38037109375,2.0122528076171875,3.6462764407743036
1785248770.373243,-0.0454101525247097,-0.86328125,0.53955078125,1.0190346628556681,0.492095947265625,2.9296875,0.7915496826171875,3.074374435397041
1785248770.381236,-0.0673828050494194,-0.8671875,0.5478515625,1.0279571669608951,1.7719268798828125,2.4433135986328125,0.9136199951171875,3.1534437848791903
1785248770.389229,-0.0688476487994194,-0.876953125,0.54931640625,1.03708017836997,2.62451171875,1.15966796875,0.7305145263671875,2.9608348540292324
1785248770.397222,-0.078125,-0.8505859375,0.5400390625,1.0105652585180398,3.7250518798828125,-0.2460479736328125,0.6694793701171875,3.7927237890676664
1785248770.407882,-0.0849609375,-0.85791015625,0.52685546875,1.010348891249731,4.398345947265625,-1.03759765625,1.2187957763671875,4.680546881783574
1785248770.418542,-0.0869140550494194,-0.85888671875,0.51318359375,1.004289723886708,4.45556640625,-1.52587890625,2.1953582763671875,5.196150151665765
1785248770.429202,-0.076171875,-0.8603515625,0.5166015625,1.006421452481339,4.2724609375,-2.44140625,2.3784637451171875,5.4654804662389305
1785248770.437189,-0.0742187425494194,-0.85107421875,0.53369140625,1.007304454805816,4.7607421875,-2.99072265625,2.4394989013671875,6.128641209291098
1785248770.445177,-0.0561523400247097,-0.8603515625,0.5341796875,1.0142513667351105,5.43212890625,-3.72314453125,3.3550262451171875,7.390942481180511
1785248770.453165,-0.0600585900247097,-0.837890625,0.52783203125,0.99210603612323,5.79833984375,-4.638671875,3.1108856201171875,8.050815551792669
1785248770.461153,-0.0502929612994194,-0.83740234375,0.521484375,0.9877843998785355,6.1664581298828125,-4.7016143798828125,3.1719207763671875,8.378034677432918
1785248770.471843,-0.0512695275247097,-0.8310546875,0.50537109375,0.9740022589637053,6.103515625,-4.45556640625,2.6836395263671875,8.019158066318619
1785248770.482533,-0.0473632775247097,-0.84033203125,0.515625,0.9870513377872671,5.8002471923828125,-4.2133331298828125,3.2939910888671875,7.889576721830471
1785248770.493223,-0.04248046875,-0.828125,0.51513671875,0.9761974415325705,5.3730010986328125,-4.0302276611328125,3.2329559326171875,7.454118315985744
1785248770.503865,-0.0454101487994194,-0.83203125,0.50537109375,0.9745450348694098,5.2490234375,-3.72314453125,2.6836395263671875,6.972515568679743
1785248770.514508,-0.0463867150247097,-0.8212890625,0.50732421875,0.9664601980646748,4.3964385986328125,-2.8705596923828125,2.7446746826171875,5.92469614516062
1785248770.525151,-0.0322265587747097,-0.83544921875,0.51220703125,0.9804947685033223,3.7841796875,-2.38037109375,2.6226043701171875,5.1830720748804895
1785248770.533155,-0.0468749962747097,-0.82470703125,0.509765625,0.9706698435104405,3.2958984375,-1.64794921875,2.3174285888671875,4.353063105721377
1785248770.541159,-0.0371093712747097,-0.8349609375,0.52294921875,0.9859070737034594,2.3822784423828125,-0.9784698486328125,2.0122528076171875,3.268304634437961
1785248770.549163,-0.0351562462747097,-0.8349609375,0.53515625,0.9923648223899664,2.01416015625,-0.18310546875,1.7070770263671875,2.6465979524026353
1785248770.557167,-0.0385742112994194,-0.8291015625,0.5244140625,0.9817878995307834,1.5869140625,0.6103515625,1.0356903076171875,1.9908489859601681
1785248770.568149,-0.0439453087747097,-0.82421875,0.52392578125,0.9776328361267792,1.7108917236328125,1.1577606201171875,0.9746551513671875,2.2841875596316483
1785248770.579131,-0.0351562462747097,-0.84326171875,0.5126953125,0.9875134284761928,1.5277862548828125,1.3408660888671875,0.7305145263671875,2.160024116096002
1785248770.590113,-0.0375976525247097,-0.83349609375,0.517578125,0.9818433873334348,0.8544921875,1.77001953125,0.3643035888671875,1.998960515959862
1785248770.597883,-0.0551757775247097,-0.82861328125,0.5087890625,0.9739151125272555,0.492095947265625,2.38037109375,0.3032684326171875,2.4495503071988356
1785248770.605653,-0.0541992112994194,-0.83349609375,0.51171875,0.9795454925135179,-0.244140625,2.86865234375,-0.1239776611328125,2.8816907145871364
1785248770.613423,-0.04248046875,-0.822265625,0.51513671875,0.9712317886510804,-0.4253387451171875,3.1719207763671875,-0.1850128173828125,3.2056550348163806
1785248770.621193,-0.0454101525247097,-0.8349609375,0.53125,0.9906807818884932,-0.7305145263671875,3.1108856201171875,-0.1239776611328125,3.1979104545226615
1785248770.631862,-0.0537109337747097,-0.8544921875,0.52001953125,1.0017295422353063,-0.9765625,3.47900390625,-0.5512237548828125,3.655268816934825
1785248770.642531,-0.0585937462747097,-0.83935546875,0.5244140625,0.9914438657689053,-0.8525848388671875,3.9653778076171875,-0.2460479736328125,4.063454401114635
1785248770.6532,-0.0595703087747097,-0.84375,0.5302734375,0.998324898370055,-0.6694793701171875,3.6029815673828125,-0.2460479736328125,3.6729032667961223
1785248770.661207,-0.0590820237994194,-0.83740234375,0.54052734375,0.9984503894514033,-0.6084442138671875,3.1108856201171875,0.0,3.169828655123232
1785248770.669217,-0.0546874962747097,-0.83984375,0.53173828125,0.9955269189778662,-0.6084442138671875,3.2939910888671875,-0.1239776611328125,3.352007177108197
1785248770.677227,-0.0610351525247097,-0.84228515625,0.52294921875,0.9933002867582577,-0.9765625,2.74658203125,0.6694793701171875,2.990917885500057
1785248770.685237,-0.0517578087747097,-0.84375,0.52001953125,0.9924783353558047,-0.79345703125,2.86865234375,0.9136199951171875,3.1134292709519453
1785248770.697261,-0.04736328125,-0.84619140625,0.51220703125,0.9902722955248509,-1.5239715576171875,2.7484893798828125,1.0967254638671875,3.3285867756225707
1785248770.709287,-0.0532226487994194,-0.84228515625,0.53466796875,0.9990729560905771,-1.7070770263671875,2.9888153076171875,0.7305145263671875,3.5186333128405036
1785248770.721313,-0.0434570275247097,-0.8447265625,0.53564453125,1.001182572007914,-1.2187957763671875,2.8667449951171875,0.9136199951171875,3.2462888822465983
1785248770.733339,-0.0468749962747097,-0.84521484375,0.5224609375,0.9947616943692946,-0.7305145263671875,2.9888153076171875,0.5474090576171875,3.1251120128151624
1785248770.741322,-0.0537109300494194,-0.857421875,0.52880859375,1.0088090327505705,-0.244140625,2.74658203125,0.6084442138671875,2.823742527311799
1785248770.749307,-0.0541992112994194,-0.85107421875,0.53662109375,1.0075847748868818,0.5512237548828125,2.5005340576171875,0.3032684326171875,2.578466587619989
1785248770.757292,-0.0581054612994194,-0.849609375,0.53369140625,1.0050068914319998,0.8544921875,2.50244140625,0.1811981201171875,2.6505098847103015
1785248770.765277,-0.0507812462747097,-0.85009765625,0.5322265625,1.0042459230514815,1.40380859375,2.74658203125,0.1201629638671875,3.08688039291403
1785248770.775902,-0.0483398400247097,-0.8447265625,0.529296875,0.9980254943694808,1.7719268798828125,2.8667449951171875,-0.2460479736328125,3.379125824826518
1785248770.786527,-0.0419921837747097,-0.84765625,0.53466796875,1.0030724293237665,1.8939971923828125,2.8057098388671875,-0.4291534423828125,3.4122435056395277
1785248770.797152,-0.0512695275247097,-0.85400390625,0.521484375,1.0019467000354891,1.9550323486328125,3.1719207763671875,-1.0395050048828125,3.868307582254411
1785248770.805572,-0.06884765625,-0.85546875,0.52783203125,1.0075581547539485,2.750396728515625,3.23486328125,-1.0395050048828125,4.3714520777180415
1785248770.813993,-0.0541992150247097,-0.845703125,0.52587890625,0.9973464566452105,2.3822784423828125,3.4770965576171875,-1.2836456298828125,4.406040983825776
1785248770.822414,-0.0649413987994194,-0.85107421875,0.533203125,1.006404632147882,2.3822784423828125,3.3550262451171875,-1.2226104736328125,4.292578252368111
1785248770.830835,-0.0673828050494194,-0.84912109375,0.5263671875,1.0013038951008753,2.8705596923828125,3.1719207763671875,-1.2226104736328125,4.449266313598162
1785248770.84097,-0.07177734375,-0.8486328125,0.51513671875,0.9953368658559686,2.62451171875,2.74658203125,-1.5277862548828125,4.094619085684321
1785248770.851105,-0.0639648362994194,-0.83349609375,0.5244140625,0.986821841837256,2.5653839111328125,2.6226043701171875,-1.1005401611328125,3.8302006396431887
1785248770.86124,-0.0507812462747097,-0.85009765625,0.5146484375,0.9950415942844536,2.62451171875,2.197265625,-1.0395050048828125,3.577234776169875
1785248770.871897,-0.0517578087747097,-0.85400390625,0.53662109375,1.009932542755636,3.2367706298828125,1.7719268798828125,-1.6498565673828125,4.042083085620509
1785248770.882554,-0.0551757775247097,-0.8427734375,0.5361328125,1.0003748427565453,3.604888916015625,1.40380859375,-2.2602081298828125,4.480451255742777
1785248770.893211,-0.0483398362994194,-0.8427734375,0.525390625,0.9943033317689887,3.5419464111328125,1.1577606201171875,-2.4433135986328125,4.455959534611459
1785248770.901212,-0.0566406212747097,-0.8408203125,0.51953125,0.9899998371805651,3.2367706298828125,0.7953643798828125,-2.6874542236328125,4.281553317591665
1785248770.909212,-0.0458984300494194,-0.8369140625,0.51953125,0.9861260231926839,3.35693359375,0.79345703125,-3.1147003173828125,4.647573052722458
1785248770.917212,-0.0581054650247097,-0.84521484375,0.5283203125,0.9984421514345097,3.2367706298828125,0.7953643798828125,-3.2367706298828125,4.646070675068377
1785248770.925212,-0.0546874962747097,-0.84130859375,0.53369140625,0.9978062884505696,3.2367706298828125,0.7305145263671875,-3.0536651611328125,4.509457450738585
1785248770.935854,-0.0532226487994194,-0.82861328125,0.5244140625,0.9820604508668862,2.8076171875,0.48828125,-3.5419464111328125,4.5460441297884016
1785248770.946496,-0.0507812462747097,-0.837890625,0.529296875,0.9923681858669537,2.4433135986328125,-0.0019073486328125,-3.4198760986328125,4.203015287771723
1785248770.957138,-0.0468749962747097,-0.830078125,0.54736328125,0.9954062088112753,2.262115478515625,-0.3662109375,-3.6029815673828125,4.2699827943195405
1785248770.967975,-0.0541992112994194,-0.8515625,0.54052734375,1.0100822022257196,2.99072265625,-1.220703125,-3.4809112548828125,4.748818936363194
1785248770.978811,-0.0595703050494194,-0.84619140625,0.529296875,0.9998718413575807,3.0536651611328125,-1.8939971923828125,-3.7250518798828125,5.17572292427722
1785248770.989647,-0.0463867150247097,-0.84521484375,0.53564453125,1.0017259721521414,2.9926300048828125,-2.2602081298828125,-4.2133331298828125,5.640616207461855
1785248770.997534,-0.0498046837747097,-0.8486328125,0.55224609375,1.0137227949689662,3.11279296875,-2.197265625,-4.6405792236328125,6.004367728905234
1785248771.005422,-0.0532226487994194,-0.85888671875,0.55908203125,1.0262025938658477,4.2724609375,-2.0751953125,-4.3964385986328125,6.472173545188185
1785248771.01331,-0.0439453050494194,-0.853515625,0.57568359375,1.0304521881523383,5.0067901611328125,-1.9550323486328125,-4.1522979736328125,6.792030452202951
1785248771.021198,-0.0297851525247097,-0.859375,0.5498046875,1.0206359489714698,5.9223175048828125,-2.4433135986328125,-4.3964385986328125,7.769961281850371
1785248771.031885,-0.0356445275247097,-0.845703125,0.52734375,0.9972841814855422,6.1054229736328125,-2.9315948486328125,-4.5185089111328125,8.141705031716661
1785248771.042572,-0.0312499962747097,-0.84765625,0.5068359375,0.9881196020587466,5.7373046875,-2.86865234375,-4.8847198486328125,8.062649647984166
1785248771.053259,-0.0322265625,-0.84228515625,0.4946288764476776,0.9773129289974349,4.7607421875,-2.8076171875,-4.4574737548828125,7.100454402561626
1785248771.064002,-0.02392578125,-0.84130859375,0.5166015625,0.9875473493982285,2.8076171875,-1.64794921875,-5.0067901611328125,5.9721351807155605
1785248771.074745,-0.0273437462747097,-0.83837890625,0.51513671875,0.9843742732872485,1.8329620361328125,-0.7953643798828125,-5.1288604736328125,5.504322308938995
1785248771.085488,-0.0356445275247097,-0.8544921875,0.5107421875,0.9961350374990733,1.03759765625,0.30517578125,-4.9457550048828125,5.062631106651998
1785248771.096041,-0.011230465024709702,-0.857421875,0.5068359375,0.9960828593117597,0.125885009765625,0.6103515625,-5.2509307861328125,5.287783106963374
1785248771.106595,-0.0175781212747097,-0.84326171875,0.4819335639476776,0.9714212663494982,-0.91552734375,0.9765625,-5.2509307861328125,5.41886877072305
1785248771.117149,-0.0253906212747097,-0.8388671875,0.5048828125,0.9794128324005082,-2.1343231201171875,1.8291473388671875,-5.4340362548828125,6.117995193503547
1785248771.125209,-0.019531242549419403,-0.83203125,0.5341796875,0.9889415599264116,-3.1719207763671875,3.3550262451171875,-5.2509307861328125,6.992106738153552
1785248771.13327,-0.0180664025247097,-0.85009765625,0.54736328125,1.01123636293534,-3.0517578125,3.173828125,-5.4340362548828125,6.993937426984647
1785248771.141331,-0.015624996274709702,-0.83544921875,0.56103515625,1.006469067665287,-2.0122528076171875,3.4770965576171875,-5.3119659423828125,6.660055856056425
1785248771.149392,-0.0170898400247097,-0.83642578125,0.55615234375,1.0045922454560163,-1.5850067138671875,3.7822723388671875,-5.1898956298828125,6.614593485426043
1785248771.160028,-0.02392578125,-0.83837890625,0.564453125,1.010969318909152,-0.6103515625,4.150390625,-5.4950714111328125,6.913326347235695
1785248771.170664,-0.0170898400247097,-0.81689453125,0.55322265625,0.9867441640093612,0.18310546875,4.94384765625,-5.6781768798828125,7.53105901850002
1785248771.1813,-0.0190429650247097,-0.82470703125,0.5517578125,0.9924419406518983,1.15966796875,5.43212890625,-5.7392120361328125,7.986952425522097
1785248771.191911,-0.0332031212747097,-0.830078125,0.572265625,1.0087715729651283,1.8310546875,5.67626953125,-5.3730010986328125,8.02757359766463
1785248771.202521,-0.033203125,-0.81884765625,0.56201171875,0.9937158062888065,3.3588409423828125,5.9185028076171875,-5.5561065673828125,8.785260846902272
1785248771.213131,-0.0332031212747097,-0.82177734375,0.5625,0.9964068947790299,3.662109375,5.55419921875,-4.8847198486328125,8.253524219123209
1785248771.221201,-0.0561523400247097,-0.8359375,0.53662109375,0.9949405949371786,3.7841796875,5.18798828125,-4.5185089111328125,7.851889014349449
1785248771.229274,-0.0493164025247097,-0.81982421875,0.517578125,0.9707888404207903,3.6640167236328125,5.2471160888671875,-3.6640167236328125,7.374433154634379
1785248771.237347,-0.06201171875,-0.8271484375,0.5166015625,0.9771883980576427,3.1757354736328125,5.6133270263671875,-3.1757354736328125,7.188882521082393
1785248771.24542,-0.0463867150247097,-0.8173828125,0.52099609375,0.9704139937181205,2.197265625,5.55419921875,-2.8095245361328125,6.6007979296068475
1785248771.256003,-0.0307617150247097,-0.828125,0.53662109375,0.9872687055678954,1.3446807861328125,5.2471160888671875,-2.7484893798828125,6.074091498979271
1785248771.266586,-0.0297851525247097,-0.82373046875,0.54931640625,0.9905390222668817,0.7953643798828125,5.5561065673828125,-2.7484893798828125,6.249569469669843
1785248771.277169,-0.0375976525247097,-0.81982421875,0.5458984375,0.9856624357199365,0.732421875,5.55419921875,-2.3822784423828125,6.087759960903806
1785248771.287854,-0.0380859375,-0.82861328125,0.51904296875,0.9784968635146252,0.9174346923828125,5.4912567138671875,-3.0536651611328125,6.349839181325406
1785248771.298541,-0.0532226487994194,-0.8037109375,0.5380859375,0.9686693953757438,0.3662109375,5.4931640625,-2.7484893798828125,6.153304456925135
1785248771.309228,-0.0478515587747097,-0.7841796875,0.5576171875,0.9634129341877123,0.308990478515625,5.67626953125,-3.1147003173828125,6.4820420373764165
1785248771.317218,-0.0463867150247097,-0.81591796875,0.6015625,1.0147666236461266,1.9550323486328125,5.2471160888671875,-2.3212432861328125,6.0615632577468235
1785248771.325207,-0.0434570275247097,-0.810546875,0.57177734375,0.9928766694002608,3.7841796875,5.126953125,-2.0160675048828125,6.683576320913772
1785248771.333196,-0.0556640587747097,-0.81298828125,0.53125,0.9727666705788719,4.94384765625,4.150390625,-1.6498565673828125,6.662536955337111
1785248771.341185,-0.0502929650247097,-0.80810546875,0.5068359375,0.9552206543496313,3.7250518798828125,3.3550262451171875,-1.4667510986328125,5.223367821490669
1785248771.351837,-0.0585937425494194,-0.81396484375,0.51171875,0.9632383259757016,2.62451171875,3.96728515625,-0.7953643798828125,4.82286406294476
1785248771.362489,-0.0561523400247097,-0.8037109375,0.53955078125,0.9696491127695961,1.8310546875,4.57763671875,-0.3070831298828125,4.939819758465142
1785248771.373141,-0.0473632775247097,-0.81640625,0.5556640625,0.9886986373263337,1.7719268798828125,5.0678253173828125,0.0,5.368666344182459
1785248771.381194,-0.0483398362994194,-0.81689453125,0.53271484375,0.9764417646286945,1.773834228515625,4.21142578125,0.3032684326171875,4.57979985626587
1785248771.389248,-0.0463867150247097,-0.81103515625,0.51416015625,0.9614002383395117,0.54931640625,3.5400390625,0.5474090576171875,3.623986997018978
1785248771.397302,-0.0400390587747097,-0.81201171875,0.5234375,0.9669296634301503,-0.79345703125,3.84521484375,0.3643035888671875,3.9430912188151206
1785248771.405356,-0.0371093712747097,-0.80712890625,0.53271484375,0.9677909286061285,-1.5239715576171875,5.0678253173828125,0.4253387451171875,5.309072970305666
1785248771.416547,-0.0488281175494194,-0.81298828125,0.55615234375,0.9862249033419644,-1.9512176513671875,6.2236785888671875,0.2422332763671875,6.526875397976457
1785248771.427738,-0.0473632775247097,-0.80224609375,0.56640625,0.9831877313280912,-1.89208984375,6.16455078125,0.1811981201171875,6.4509319536146
1785248771.438929,-0.0454101525247097,-0.81884765625,0.5458984375,0.9851795116441353,-1.4019012451171875,5.6133270263671875,0.1811981201171875,5.788574968395885
1785248771.448189,-0.0405273362994194,-0.8173828125,0.52978515625,0.9748997071190314,-1.2187957763671875,4.7588348388671875,0.1811981201171875,4.915771040929448
1785248771.457449,-0.0581054612994194,-0.822265625,0.53759765625,0.9841281637545752,-2.25830078125,4.69970703125,0.3032684326171875,5.222943647063133
1785248771.466709,-0.0561523400247097,-0.82177734375,0.52978515625,0.9793586675850136,-2.5005340576171875,4.3964385986328125,0.6084442138671875,5.094266118514067
1785248771.475969,-0.0551757775247097,-0.82373046875,0.556640625,0.9957032876178232,-2.3174285888671875,4.4536590576171875,1.3408660888671875,5.196486903117198
1785248771.485229,-0.0522460900247097,-0.82177734375,0.56396484375,0.998050099749325,-2.1953582763671875,4.1484832763671875,1.6460418701171875,4.973828032219352
1785248771.493209,-0.0644531175494194,-0.8271484375,0.53955078125,0.9896685240867348,-2.0751953125,4.08935546875,1.9512176513671875,4.983624590378412
1785248771.501193,-0.0546874962747097,-0.82861328125,0.5458984375,0.9937785448366399,-2.315521240234375,5.18798828125,1.9512176513671875,6.007005189224556
1785248771.509177,-0.0410156212747097,-0.82958984375,0.53662109375,0.9888699552009588,-2.2563934326171875,5.7353973388671875,2.2563934326171875,6.5633379678484305
1785248771.517161,-0.0590820237994194,-0.8369140625,0.56787109375,1.0131107603136542,-2.0751953125,6.16455078125,2.1953582763671875,6.864963210480146
1785248771.525145,-0.0566406212747097,-0.8193359375,0.5673828125,0.9982198126554086,-1.7070770263671875,6.5898895263671875,2.6226043701171875,7.29512231740033
1785248771.533129,-0.0341796837747097,-0.8349609375,0.59228515625,1.0242703374831787,-0.3643035888671875,7.0781707763671875,2.5615692138671875,7.53623616148752
1785248771.542769,-0.0517578087747097,-0.82666015625,0.56787109375,1.004252689225802,0.7343292236328125,7.2612762451171875,2.2563934326171875,7.639154628579154
1785248771.552409,-0.0434570275247097,-0.8349609375,0.54150390625,0.9961298915684496,1.7108917236328125,6.7729949951171875,2.1953582763671875,7.322582171303483
1785248771.562049,-0.0498046800494194,-0.837890625,0.52001953125,0.9874013968489134,0.8544921875,6.7138671875,2.4394989013671875,7.194256347925018
1785248771.571689,-0.05126953125,-0.8369140625,0.52294921875,0.9881951215403181,0.3662109375,6.7138671875,2.0732879638671875,7.036238060444682
1785248771.581329,-0.0532226525247097,-0.83056640625,0.5234375,0.9831887012873246,-0.9765625,7.01904296875,2.0122528076171875,7.366803911828271
1785248771.590897,-0.0561523400247097,-0.8359375,0.53125,0.9920540064414339,-1.5869140625,6.7138671875,1.6460418701171875,7.09251455348019
1785248771.600465,-0.0566406212747097,-0.84521484375,0.54296875,1.0061865411295683,-1.6460418701171875,7.2612762451171875,1.0967254638671875,7.525848343487713
1785248771.610033,-0.0629882737994194,-0.84814453125,0.546875,1.011132500788355,-1.89208984375,7.8125,0.7305145263671875,8.071481382005127
1785248771.619601,-0.05615234375,-0.841796875,0.55859375,1.0118310343172157,-2.1343231201171875,7.9326629638671875,0.4863739013671875,8.229157699990203
1785248771.629169,-0.0712890625,-0.8486328125,0.56298828125,1.0208896050546397,-1.8291473388671875,8.180618286132812,0.0,8.382618655927004
1785248771.638764,-0.0712890625,-0.86328125,0.5810546875,1.043053784279322,0.0,8.48388671875,-0.0629425048828125,8.484120202796726
1785248771.648363,-0.08056640625,-0.84912109375,0.576171875,1.029306371887521,1.52587890625,8.1787109375,-0.2460479736328125,8.323470348421363
1785248771.657962,-0.0908203125,-0.83740234375,0.583984375,1.024953054888238,3.47900390625,7.9345703125,0.1811981201171875,8.665662524149155
1785248771.667561,-0.09912109375,-0.84521484375,0.5712890625,1.024980154077952,5.1288604736328125,7.0781707763671875,0.4863739013671875,8.754557148670777
1785248771.67716,-0.0825195237994194,-0.841796875,0.5341796875,1.0003896186513763,5.615234375,5.79833984375,0.7915496826171875,8.110373168347545
1785248771.686775,-0.0927734300494194,-0.8427734375,0.53125,1.0005501180744025,5.7373046875,4.94384765625,1.2187957763671875,7.670968509250223
1785248771.696387,-0.0859375,-0.84765625,0.53369140625,1.0053521219828478,5.6781768798828125,4.5795440673828125,0.9136199951171875,7.351776522706247
1785248771.705999,-0.0820312425494194,-0.84228515625,0.5185546875,0.9925081224461144,4.8847198486328125,4.3964385986328125,1.0967254638671875,6.66272970292736
1785248771.715611,-0.0810546875,-0.83447265625,0.5224609375,0.9878663409632055,4.5795440673828125,4.1484832763671875,1.0356903076171875,6.265364456493455
1785248771.725223,-0.08984375,-0.84423828125,0.533203125,1.0025546107079566,3.7250518798828125,4.0264129638671875,0.9746551513671875,5.5711727246157805
1785248771.734911,-0.0771484300494194,-0.83740234375,0.54248046875,1.0007395388173204,3.84521484375,3.5400390625,0.4863739013671875,5.249201208808094
1785248771.744596,-0.0830078050494194,-0.8330078125,0.54736328125,1.000199416639464,3.7841796875,3.2958984375,0.5474090576171875,5.048031209685997
1785248771.754281,-0.09912109375,-0.83447265625,0.54248046875,1.0002273062811007,3.96728515625,3.35693359375,0.6694793701171875,5.239900503908579
1785248771.763966,-0.0991210862994194,-0.84228515625,0.5478515625,1.00965865950922,4.3354034423828125,3.2939910888671875,1.0967254638671875,5.554179241333132
1785248771.773651,-0.10009765625,-0.83935546875,0.5556640625,1.0115827667874138,4.2724609375,2.685546875,1.0967254638671875,5.164193182228986
1785248771.783169,-0.0883788987994194,-0.818359375,0.552734375,0.9914828216918482,4.45556640625,1.52587890625,1.0967254638671875,4.835616318540682
1785248771.792683,-0.0908203125,-0.8271484375,0.5458984375,0.9952024773312366,4.4574737548828125,1.1577606201171875,1.5850067138671875,4.870495684421379
1785248771.802197,-0.0781249925494194,-0.8271484375,0.56396484375,1.0041585517763119,4.7016143798828125,0.4253387451171875,1.7681121826171875,5.041062538348242
1785248771.811711,-0.0751953125,-0.8232421875,0.55712890625,0.9968824667337063,4.2724609375,0.06103515625,1.6460418701171875,4.578984777321359
1785248771.821225,-0.0830078125,-0.81103515625,0.53857421875,0.9771031218411238,4.2724609375,-0.30517578125,1.5239715576171875,4.546377022239915
1785248771.830832,-0.0727538987994194,-0.81494140625,0.54931640625,0.9854801568710851,3.4198760986328125,0.0591278076171875,1.2187957763671875,3.6310483020918487
1785248771.840439,-0.07763671875,-0.8203125,0.5537109375,0.9927415877566758,3.4198760986328125,0.2422332763671875,1.0967254638671875,3.5995883421961277
1785248771.850046,-0.07666015625,-0.80859375,0.5458984375,0.9786244101596272,3.4809112548828125,-0.0019073486328125,0.7305145263671875,3.5567398380514312
1785248771.859653,-0.0751953125,-0.82373046875,0.53759765625,0.9865077091308312,2.7484893798828125,-0.1811981201171875,0.5474090576171875,2.808323931889615
1785248771.86926,-0.0781249925494194,-0.8095703125,0.5458984375,0.9795471961100883,2.5043487548828125,-0.0019073486328125,0.6694793701171875,2.5922902906646867
1785248771.878852,-0.07568359375,-0.8134765625,0.5498046875,0.9847625696058436,1.956939697265625,-0.06103515625,0.6694793701171875,2.069188463152896
1785248771.888443,-0.083984375,-0.80517578125,0.5546875,0.9813458292630272,1.708984375,-0.18310546875,0.7915496826171875,1.892275378144436
1785248771.898034,-0.0981445237994194,-0.80322265625,0.5595703125,0.9838281952132029,1.773834228515625,-0.06103515625,0.9136199951171875,1.996225101542913
1785248771.907625,-0.08544921875,-0.80859375,0.54052734375,0.9763683889114183,1.8939971923828125,-0.6694793701171875,0.7305145263671875,2.137540517744625
1785248771.917216,-0.08056640625,-0.8173828125,0.5576171875,0.9927449500157935,0.67138671875,-0.732421875,0.9746551513671875,1.3918170113843997
1785248771.925228,-0.0830078050494194,-0.8046875,0.55029296875,0.9783836771998299,0.9174346923828125,-0.6694793701171875,1.2187957763671875,1.665938830296763
1785248771.93324,-0.08544921875,-0.81884765625,0.55224609375,0.9913570503069201,0.5512237548828125,-0.9784698486328125,1.7070770263671875,2.043370462393265
1785248771.941252,-0.087890625,-0.81005859375,0.5439453125,0.9796918853710287,0.3681182861328125,-0.9784698486328125,1.5850067138671875,1.8987260466620608
1785248771.949264,-0.08642578125,-0.81103515625,0.55126953125,0.9844518964493539,0.0,-1.220703125,1.7681121826171875,2.1485662218568176
1785248771.957322,-0.0869140475988388,-0.7958984375,0.5576171875,0.975676843160872,-0.244140625,-1.220703125,2.0122528076171875,2.366195707443366
1785248771.96538,-0.0859375,-0.81494140625,0.55126953125,0.9876299132830942,-0.667572021484375,-1.03759765625,1.6460418701171875,2.05711330225224
1785248771.973438,-0.0859375,-0.8056640625,0.546875,0.9775234529847628,-0.30517578125,-0.8544921875,1.7070770263671875,1.9332359219481523
1785248771.981496,-0.076171875,-0.8203125,0.54736328125,0.9891012657246133,-0.732421875,-1.220703125,2.0732879638671875,2.514971352417325
1785248771.9921,-0.07080078125,-0.81201171875,0.55322265625,0.985104608354486,-0.667572021484375,-1.3427734375,1.4629364013671875,2.0949643965398264
1785248772.002704,-0.07177734375,-0.82373046875,0.55126953125,0.993771587593193,-1.155853271484375,-1.3427734375,1.8291473388671875,2.5465304390369288
1785248772.013308,-0.0776367112994194,-0.82373046875,0.5634765625,1.0010320577160856,-1.220703125,-1.3427734375,1.3408660888671875,2.2563418384886456
1785248772.023943,-0.08056640625,-0.8115234375,0.54931640625,0.983264842045759,-1.3408660888671875,-1.2836456298828125,1.3408660888671875,2.289888608571434
1785248772.034578,-0.080078125,-0.8115234375,0.55322265625,0.9854126562530227,-1.3408660888671875,-0.9174346923828125,1.3408660888671875,2.1065445998923265
1785248772.045213,-0.08056640625,-0.818359375,0.55712890625,0.993275203881458,-1.7070770263671875,-0.9784698486328125,1.3408660888671875,2.381057976385318
1785248772.053282,-0.08935546875,-0.81689453125,0.564453125,0.9969495500294662,-1.5239715576171875,-0.9174346923828125,1.6460418701171875,2.4235572123208873
1785248772.061352,-0.0908203125,-0.81005859375,0.56396484375,0.9912111780326063,-1.28173828125,-0.42724609375,2.0122528076171875,2.4237478433223187
1785248772.069422,-0.0810546875,-0.8173828125,0.55810546875,0.9930590308661364,-0.8525848388671875,-1.1577606201171875,1.9512176513671875,2.4237493442943325
1785248772.077492,-0.1020507737994194,-0.8125,0.56201171875,0.9931907079938823,-0.54931640625,-1.52587890625,2.0122528076171875,2.584417983314109
1785248772.085552,-0.0776367112994194,-0.81494140625,0.5625,0.9932588809379541,-0.3643035888671875,-1.3408660888671875,2.3784637451171875,2.754583227998816
1785248772.093612,-0.07177734375,-0.8125,0.5556640625,0.9869502456708796,-0.48828125,-1.46484375,2.8667449951171875,3.256134619152757
1785248772.101672,-0.0981445237994194,-0.82373046875,0.5673828125,1.0050310883844935,-0.244140625,-1.3427734375,2.8667449951171875,3.175038899960188
1785248772.109732,-0.06640625,-0.82177734375,0.55224609375,0.9923222968380797,-0.1220703125,-1.64794921875,3.2329559326171875,3.6307908024309596
1785248772.121612,-0.0771484300494194,-0.8330078125,0.556640625,1.0048396296651103,-0.244140625,-1.220703125,3.2329559326171875,3.4643505634396794
1785248772.13349,-0.0620117150247097,-0.83056640625,0.5478515625,0.9969088937937294,-0.244140625,-1.03759765625,2.5005340576171875,2.718250193476377
1785248772.145368,-0.07470703125,-0.8154296875,0.54931640625,0.9860300350141222,0.0629425048828125,-0.9784698486328125,2.8667449951171875,3.029784129378508
1785248772.157246,-0.07861328125,-0.81591796875,0.56494140625,0.995520452935923,0.5512237548828125,-1.2836456298828125,2.4394989013671875,2.8111827796918623
1785248772.167924,-0.07861328125,-0.81640625,0.54052734375,0.9822774670984694,0.4291534423828125,-1.4057159423828125,2.3784637451171875,2.795943449824244
1785248772.178601,-0.0869140550494194,-0.8134765625,0.55029296875,0.9859617244891601,0.0629425048828125,-1.7719268798828125,2.1343231201171875,2.774711121475338
1785248772.189278,-0.083984375,-0.82177734375,0.55029296875,0.9925692567275267,0.0,-1.5869140625,2.6226043701171875,3.065346623779768
1785248772.199926,-0.10546875,-0.81640625,0.56005859375,0.9956447412098617,0.3662109375,-1.8310546875,3.5991668701171875,4.054734748206041
1785248772.210574,-0.1186523362994194,-0.81884765625,0.56005859375,0.9991273639975317,0.797271728515625,-2.197265625,4.2705535888671875,4.868392588040055
1785248772.221222,-0.1064453050494194,-0.82421875,0.5498046875,0.9964699419528915,0.797271728515625,-3.173828125,5.0640106201171875,6.029347455304841
1785248772.229205,-0.1171874925494194,-0.8310546875,0.5556640625,1.0065522104589244,0.91552734375,-3.662109375,5.9795379638671875,7.071358402241098
1785248772.237188,-0.1240234375,-0.8349609375,0.56591796875,1.0162700072098563,1.3427734375,-4.2724609375,7.0171356201171875,8.324491292447627
1785248772.245171,-0.14794921875,-0.845703125,0.5732421875,1.0323319972243843,1.8310546875,-4.7607421875,8.787155151367188,10.160291486894305
1785248772.253154,-0.2119140475988388,-0.8359375,0.58349609375,1.0412332874517034,3.5419464111328125,-5.4950714111328125,11.899948120117188,13.577553515058092
1785248772.263872,-0.279296875,-0.85302734375,0.61328125,1.0870953431836183,5.8002471923828125,-7.6923370361328125,17.332077026367188,19.829669957367685
1785248772.27459,-0.3808593451976776,-0.86328125,0.6396484375,1.139937928583025,8.670806884765625,-13.00048828125,25.144577026367188,29.604819564029267
1785248772.285308,-0.43212890625,-0.890625,0.68310546875,1.2027391087338843,13.00048828125,-21.728515625,34.78813171386719,43.027377272594244
1785248772.29595,-0.4746093451976776,-0.8984375,0.71875,1.2446065781825268,23.866653442382812,-41.50581359863281,58.77494812011719,75.80794309005965
1785248772.30659,-0.4936523139476776,-0.9072265625,0.71337890625,1.25525380168869,30.33447265625,-46.875,70.24955749511719,89.7354232429566
1785248772.31723,-0.4941405951976776,-0.9091796278953552,0.70263671875,1.2507921018850487,36.197662353515625,-48.52294921875,83.67729187011719,103.27941002669067
1785248772.325251,-0.50390625,-0.9248046278953552,0.6826171875,1.2550503309573442,41.44477844238281,-51.08833312988281,96.37260437011719,116.68490183055908
1785248772.333274,-0.5,-0.91162109375,0.6689453125,1.2363417204339862,46.69189453125,-55.7861328125,108.03031921386719,130.2412204278711
1785248772.341297,-0.4711913764476776,-0.9267578125,0.64892578125,1.2255635543860486,50.84419250488281,-60.42671203613281,118.89457702636719,142.7320562636511
1785248772.34932,-0.4350585639476776,-0.9199218153953552,0.60400390625,1.1833650405812064,53.83491516113281,-62.86811828613281,127.74467468261719,152.21465204445087
1785248772.359987,-0.373046875,-0.91064453125,0.5625,1.133509454412621,54.87251281738281,-63.53950500488281,135.2519989013672,159.18971250044646
1785248772.370654,-0.333984375,-0.90185546875,0.5546875,1.1102103728188963,54.74853515625,-62.19482421875,140.3179168701172,162.95617833063426
1785248772.381321,-0.3095703125,-0.884765625,0.560546875,1.0921798334684878,54.32319641113281,-60.78910827636719,144.7124481201172,166.09641174413136
1785248772.38931,-0.26416015625,-0.865234375,0.58154296875,1.0754549438885055,52.91748046875,-60.05859375,148.8628387451172,169.0190497596139
1785248772.397302,-0.25830078125,-0.85205078125,0.5732421875,1.0589222978825599,52.79541015625,-60.1806640625,149.5952606201172,169.66970755138033
1785248772.405294,-0.2226562350988388,-0.83251953125,0.58349609375,1.0407364029198833,52.18505859375,-60.1806640625,149.0459442138672,168.99611283707034
1785248772.413286,-0.1953125,-0.81396484375,0.5673828125,1.011241314146936,50.96626281738281,-59.45014953613281,147.0928192138672,166.6378639137051
1785248772.424005,-0.1728515625,-0.8125,0.5859375,1.01654152230243,49.74555969238281,-58.59565734863281,144.2241668701172,163.42791095344214
1785248772.434724,-0.13818359375,-0.78271484375,0.5927734375,0.9915228592492552,47.60932922363281,-56.33735656738281,139.5854949951172,157.87544580192505
1785248772.445443,-0.10400390625,-0.76171875,0.599609375,0.9749685478028057,46.024322509765625,-52.6123046875,134.5806121826172,151.65168657967922
1785248772.456023,-0.1191406175494194,-0.73486328125,0.5859375,0.9473865540452976,44.25048828125,-49.98779296875,128.2329559326172,144.57031557768767
1785248772.466601,-0.1127929612994194,-0.72509765625,0.59130859375,0.9424089962752573,42.23823547363281,-48.76899719238281,122.55668640136719,138.50135380118044
1785248772.477179,-0.1162109300494194,-0.70361328125,0.61328125,0.9405798857172659,39.97802734375,-49.1943359375,115.65971374511719,131.89198134167094
1785248772.485257,-0.09423828125,-0.658203125,0.64599609375,0.9270507863935926,36.2548828125,-48.7060546875,102.23197937011719,118.9036328162513
1785248772.493335,-0.0771484300494194,-0.66015625,0.64111328125,0.9234632608113298,34.36470031738281,-46.68998718261719,94.90776062011719,111.21317618403835
1785248772.501413,-0.0629882737994194,-0.63232421875,0.642578125,0.9037190309950013,31.79931640625,-44.98291015625,87.52250671386719,103.4158977696804
1785248772.509491,-0.0498046800494194,-0.611328125,0.6484375,0.892565837334754,29.35791015625,-42.3583984375,79.83207702636719,95.02253064024485
1785248772.51584,-0.0615234337747097,-0.6005859375,0.65234375,0.8888424885153992,27.03857421875,-39.6728515625,72.56889343261719,87.01301018191222
1785248772.522189,-0.0620117150247097,-0.6025390625,0.67431640625,0.9064223024488087,24.843215942382812,-37.59956359863281,64.87846374511719,78.99447840889883
1785248772.528538,-0.08056640625,-0.5771484375,0.662109375,0.8820317960185007,22.8271484375,-34.912109375,58.10356140136719,71.5259249106369
1785248772.534887,-0.08837890625,-0.5849609375,0.67431640625,0.8970466795037705,20.753860473632812,-33.32710266113281,52.12211608886719,65.25437519374508
1785248772.541236,-0.0927734300494194,-0.56640625,0.6845703125,0.8933417387083985,19.168853759765625,-31.494140625,46.26274108886719,59.15713871736966
1785248772.553213,-0.1064453050494194,-0.56640625,0.70458984375,0.9102711084736106,17.152786254882812,-30.332565307617188,40.89164733886719,53.72531448519257
1785248772.56519,-0.125,-0.57275390625,0.71435546875,0.9241080958728075,16.056060791015625,-28.74755859375,36.25297546386719,48.974457048645625
1785248772.577167,-0.10888671875,-0.57080078125,0.7260741591453552,0.9299750179302596,14.955520629882812,-26.369094848632812,31.736373901367188,43.88842887202075
1785248772.589144,-0.1259765475988388,-0.53466796875,0.71337890625,0.9003607006275983,14.039993286132812,-23.618698120117188,27.769088745117188,39.06515841639549
1785248772.599836,-0.1459960788488388,-0.53466796875,0.7109375,0.9014526170313875,12.880325317382812,-20.570755004882812,23.618698120117188,33.86593631721632
1785248772.610528,-0.16064453125,-0.5380859375,0.720703125,0.9136498979043076,11.537551879882812,-18.129348754882812,20.444869995117188,29.661104139502317
1785248772.62122,-0.1782226413488388,-0.52978515625,0.73486328125,0.9232874220965595,10.377883911132812,-15.871047973632812,17.637252807617188,25.897168278676798
1785248772.631896,-0.1923827975988388,-0.54736328125,0.7353515625,0.936674769033475,9.279251098632812,-15.138626098632812,15.195846557617188,23.37084195548656
1785248772.642572,-0.18701171875,-0.53759765625,0.7392578125,0.9329987868682399,8.4228515625,-14.83154296875,13.425827026367188,21.70649503304755
1785248772.653248,-0.2031249850988388,-0.5361328125,0.75439453125,0.9475279737245075,7.080078125,-13.48876953125,11.533737182617188,19.10762944797099
1785248772.663909,-0.2026367038488388,-0.5263671875,0.74658203125,0.9356862610986432,5.126953125,-9.58251953125,7.4443817138671875,13.173046269352247
1785248772.67457,-0.2158203125,-0.5361328125,0.74658203125,0.9441406300504888,4.7016143798828125,-8.543014526367188,5.7353973388671875,11.31295971925678
1785248772.685231,-0.21875,-0.533203125,0.7626953125,0.9559609169412933,3.7250518798828125,-7.7533721923828125,4.0264129638671875,9.497515107491605
1785248772.693244,-0.21533203125,-0.52294921875,0.7607421278953552,0.9479305640331677,2.8076171875,-6.103515625,2.4394989013671875,7.147501111992657
1785248772.70126,-0.224609375,-0.5234375,0.7597655653953552,0.9495682714290028,2.50244140625,-4.82177734375,0.6084442138671875,5.466438887045546
1785248772.709276,-0.2333984225988388,-0.53466796875,0.76611328125,0.9629507880398244,1.8310546875,-3.47900390625,-1.0395050048828125,4.066546459035591
1785248772.717292,-0.2363281100988388,-0.52587890625,0.76171875,0.955308878720986,1.15966796875,-2.9296875,-1.6498565673828125,3.5566733527746397
1785248772.72526,-0.2485351413488388,-0.5205078125,0.77099609375,0.9628774978867152,0.67138671875,-2.8076171875,-2.9315948486328125,4.114331386044364
1785248772.733228,-0.2363281100988388,-0.53466796875,0.7705077528953552,0.9671623491958264,0.6122589111328125,-2.9315948486328125,-3.8471221923828125,4.875393163009146
1785248772.741196,-0.251953125,-0.53369140625,0.7758788466453552,0.9748306924661815,0.4291534423828125,-2.1343231201171875,-5.0067901611328125,5.459620460782244
1785248772.749164,-0.2387695163488388,-0.52587890625,0.763671875,0.9574728396368067,0.3070831298828125,-0.6694793701171875,-5.5561065673828125,5.604714342746252
1785248772.759839,-0.2470702975988388,-0.53369140625,0.7744140028953552,0.9724131307942568,0.18310546875,0.1220703125,-7.1430206298828125,7.146409762447957
1785248772.770514,-0.2626953125,-0.5224609375,0.77099609375,0.9676824039945184,-0.244140625,0.6103515625,-7.3261260986328125,7.355559617574343
1785248772.781189,-0.25048828125,-0.5341796875,0.7568359375,0.9596316761511579,-0.48828125,0.9765625,-7.6313018798828125,7.709011692649763
1785248772.791838,-0.2548828125,-0.53759765625,0.7700194716453552,0.9730911955343113,-0.9136199951171875,1.6460418701171875,-8.546829223632812,8.75171098195094
1785248772.802489,-0.2548828125,-0.55078125,0.77294921875,0.9827388911739008,-1.2187957763671875,2.3174285888671875,-9.462356567382812,9.81794938962725
1785248772.81314,-0.2426757663488388,-0.548828125,0.77783203125,0.9824085235799376,-1.0986328125,2.9296875,-10.194778442382812,10.664125392812634
1785248772.821175,-0.2465820163488388,-0.53466796875,0.771484375,0.9704950635954057,-1.5869140625,3.0517578125,-10.805130004882812,11.339416052439997
1785248772.829209,-0.220703125,-0.541015625,0.7626953125,0.9607871333382744,-1.7070770263671875,3.8433074951171875,-12.269973754882812,12.970635312947767
1785248772.837243,-0.20458984375,-0.5478515625,0.7685546875,0.965750820024277,-2.3174285888671875,5.0029754638671875,-14.284133911132812,15.31132653781933
1785248772.845277,-0.1708984375,-0.5478515625,0.75927734375,0.9517613646317487,-3.1719207763671875,6.6509246826171875,-15.932083129882812,17.55355101974791
1785248772.855906,-0.1547851413488388,-0.53369140625,0.74951171875,0.9330341760252202,-4.3315887451171875,8.848190307617188,-18.861770629882812,21.27955648200748
1785248772.866535,-0.1303710788488388,-0.53125,0.7265625,0.9094593158060783,-6.4697265625,11.41357421875,-22.951126098632812,26.43636184189831
1785248772.877164,-0.09521484375,-0.5322265625,0.70556640625,0.8889065946034169,-9.09423828125,15.19775390625,-27.406692504882812,32.63132984982821
1785248772.887813,-0.06640625,-0.54052734375,0.646484375,0.8452938225845695,-15.438079833984375,23.86474609375,-38.88130187988281,48.16239249616042
1785248772.898462,-0.046875,-0.54296875,0.6279296875,0.8314493499578974,-19.832611083984375,28.13720703125,-45.90034484863281,57.374877247375586
1785248772.909111,-0.0312499962747097,-0.56689453125,0.62841796875,0.8469091540869083,-24.658203125,31.3720703125,-53.04145812988281,66.37492039611283
1785248772.919806,-0.010253902524709702,-0.55859375,0.61181640625,0.8285236478295075,-29.661178588867188,33.62846374511719,-61.40327453613281,76.03302711912127
1785248772.9305,-0.012695308774709702,-0.58154296875,0.5966796875,0.8332946926763343,-35.09330749511719,36.01264953613281,-70.07026672363281,86.2455415443617
1785248772.941194,0.0107421875,-0.5859375,0.576171875,0.821834641542659,-41.133880615234375,38.4521484375,-79.46968078613281,97.39606777574613
1785248772.949598,0.03076171875,-0.61279296875,0.548828125,0.823209461000606,-53.46488952636719,42.42134094238281,-98.87886047363281,120.14613446957283
1785248772.958005,0.03369140625,-0.611328125,0.5576171875,0.8281268713588084,-59.139251708984375,45.0439453125,-108.52241516113281,131.5428549728923
1785248772.966412,0.013183597475290298,-0.646484375,0.568359375,0.8608996651828376,-63.84086608886719,46.20170593261719,-117.55561828613281,141.5258888143638
1785248772.974819,-0.0317382775247097,-0.66796875,0.560546875,0.8725837314029317,-67.86918640136719,47.97554016113281,-126.52778625488281,151.38414583798829
1785248772.985138,-0.0498046837747097,-0.6865234375,0.56640625,0.8914095449353107,-71.28715515136719,50.65727233886719,-134.0961456298828,160.09307918576616
1785248772.995457,-0.1083984300494194,-0.7138671875,0.6103515625,0.9454552400153751,-73.24028015136719,53.09867858886719,-140.2606964111328,166.90317930546001
1785248773.005776,-0.1865234375,-0.75537109375,0.6630859375,1.0222814888865697,-73.11820983886719,53.46488952636719,-144.2279815673828,170.31288174741385
1785248773.016258,-0.26513671875,-0.78564453125,0.7568359375,1.1226466253474656,-70.37162780761719,50.47416687011719,-145.3876495361328,169.22581410401787
1785248773.026742,-0.30078125,-0.814453125,0.77783203125,1.1656868884963616,-65.61088562011719,44.43168640136719,-143.8007354736328,164.1877419026258
1785248773.037226,-0.30859375,-0.833984375,0.7651366591453552,1.1731130156346057,-60.4248046875,37.2314453125,-140.9320831298828,157.79477049924182
1785248773.045243,-0.31884765625,-0.84228515625,0.71435546875,1.1495267931058577,-52.3681640625,26.67236328125,-133.5468292236328,145.9061176440866
1785248773.053262,-0.37353515625,-0.86376953125,0.732421875,1.1925049765301075,-48.52104187011719,23.313522338867188,-127.44331359863281,138.3459793741979
1785248773.061281,-0.39892578125,-0.85791015625,0.76806640625,1.2186376079674435,-43.63822937011719,18.674850463867188,-119.50874328613281,128.589987262763
1785248773.0693,-0.4077148139476776,-0.865234375,0.7587890625,1.2209106169428043,-38.509368896484375,13.5498046875,-110.23139953613281,117.54799081043221
1785248773.079924,-0.380859375,-0.87109375,0.74658203125,1.2088188094995167,-32.95707702636719,9.214401245117188,-100.64888000488281,106.30743700543822
1785248773.090548,-0.36865234375,-0.8583984375,0.70703125,1.1715995973588298,-28.011322021484375,5.859375,-91.12739562988281,95.51527977798686
1785248773.101172,-0.33349609375,-0.8583984375,0.68505859375,1.1477686173265402,-24.658203125,3.35693359375,-82.03315734863281,85.7247624032412
1785248773.109182,-0.302734375,-0.8486328125,0.642578125,1.1066762846410039,-22.336959838867188,1.8901824951171875,-73.91548156738281,77.23995714684285
1785248773.11719,-0.29833984375,-0.853515625,0.65087890625,1.1140641521425556,-21.177291870117188,2.3784637451171875,-66.59126281738281,69.91803103887236
1785248773.125198,-0.318359375,-0.8359375,0.65087890625,1.1062493146473975,-19.59228515625,3.23486328125,-58.16841125488281,61.46451045936485
1785248773.133206,-0.31494140625,-0.84423828125,0.6650390625,1.1199121927854703,-17.822265625,3.60107421875,-49.98970031738281,53.19371227277474
1785248773.144627,-0.28271484375,-0.8359375,0.6650390625,1.1049869417480533,-15.80810546875,2.74658203125,-41.99409484863281,44.95490978215258
1785248773.156048,-0.2485351413488388,-0.82080078125,0.66650390625,1.0861450621498063,-13.427734375,1.28173828125,-34.54780578613281,37.087704001508776
1785248773.167469,-0.2226562350988388,-0.83837890625,0.64892578125,1.0833095859652764,-11.1083984375,0.54931640625,-28.017044067382812,30.14387205775161
1785248773.177377,-0.1513671875,-0.81298828125,0.62451171875,1.0362802988369355,-8.1787109375,0.8544921875,-18.373489379882812,20.12974370155634
1785248773.187286,-0.1357421875,-0.828125,0.60693359375,1.035656962664074,-7.32421875,0.91552734375,-14.894485473632812,16.62311848418534
1785248773.197195,-0.13720703125,-0.81787109375,0.60986328125,1.0294037678351855,-6.1016082763671875,0.4901885986328125,-12.331008911132812,13.766760301062083
1785248773.207855,-0.08984375,-0.814453125,0.615234375,1.0246556145446961,-5.67626953125,1.5869140625,-10.805130004882812,12.308093534564001
1785248773.218513,-0.0678710862994194,-0.81396484375,0.60888671875,1.0187680243738348,-5.0048828125,1.77001953125,-9.584426879882812,10.956416372321954
1785248773.229171,-0.0556640587747097,-0.80859375,0.5927734375,1.0041427628499362,-4.57763671875,1.5869140625,-9.401321411132812,10.576289446021832
1785248773.237189,-0.0566406212747097,-0.8154296875,0.60302734375,1.0157636105634584,-3.0517578125,2.0751953125,-8.913040161132812,9.646861989535415
1785248773.245207,-0.0512695275247097,-0.81787109375,0.61376953125,1.0238431168569104,-2.1953582763671875,2.0122528076171875,-8.607864379882812,9.108462466620395
1785248773.253225,-0.0468749962747097,-0.81298828125,0.60986328125,1.0173890271388815,-1.0986328125,1.89208984375,-7.9975128173828125,8.291393688501707
1785248773.261243,-0.0600585862994194,-0.81787109375,0.6220703125,1.0293160998808644,-0.4253387451171875,1.8291473388671875,-7.5092315673828125,7.7404942844731375
1785248773.269244,-0.0537109300494194,-0.822265625,0.61669921875,1.0292344477670161,0.54931640625,2.44140625,-7.0819854736328125,7.5111071913840135
1785248773.277245,-0.0434570275247097,-0.80078125,0.61572265625,1.0110655334904863,1.2836456298828125,2.8057098388671875,-6.5937042236328125,7.279882498487635
1785248773.285246,-0.0439453050494194,-0.80419921875,0.62255859375,1.0179620699839333,2.1991729736328125,3.6602020263671875,-6.1054229736328125,7.450478530184674
1785248773.293247,-0.0366210900247097,-0.80419921875,0.5986328125,1.0032142003950943,2.5653839111328125,4.4536590576171875,-5.8002471923828125,7.749783294114707
1785248773.303907,-0.0297851525247097,-0.8037109375,0.5859375,0.9950684299455486,2.9315948486328125,5.2471160888671875,-5.3730010986328125,8.06198588515812
1785248773.314567,-0.03759765625,-0.79833984375,0.6064453125,1.003262680920351,2.8076171875,5.37109375,-5.5561065673828125,8.222024235609434
1785248773.325227,-0.0341796837747097,-0.80029296875,0.59033203125,0.9950522567852297,3.2978057861328125,6.2236785888671875,-5.4340362548828125,8.895979327761264
1785248773.336501,-0.0278320275247097,-0.7900390625,0.60107421875,0.9930894010500454,3.173828125,6.7138671875,-5.3119659423828125,9.130508186922844
1785248773.347775,-0.0292968712747097,-0.77685546875,0.5966796875,0.9799945793056035,3.421783447265625,7.32421875,-5.3730010986328125,9.706797775978544
1785248773.359049,-0.0380859337747097,-0.78125,0.59228515625,0.9811237471214213,3.0536651611328125,7.6923370361328125,-5.6171417236328125,10.002459754338101
1785248773.369094,-0.0302734337747097,-0.779296875,0.583984375,0.974298645396481,2.685546875,7.99560546875,-5.8002471923828125,10.236441584968473
1785248773.379141,-0.0283203087747097,-0.78564453125,0.58447265625,0.9796160754479571,2.6874542236328125,8.848190307617188,-6.2885284423828125,11.18295452439069
1785248773.389188,-0.0253906212747097,-0.798828125,0.607421875,1.0038587506060037,3.0536651611328125,9.885787963867188,-6.3495635986328125,12.139630656487887
1785248773.399861,-0.0253906212747097,-0.79541015625,0.62353515625,1.0109985615192918,2.8705596923828125,10.557174682617188,-6.1054229736328125,12.528776473135338
1785248773.410533,-0.0078125,-0.7880859375,0.61083984375,0.9971287754116959,2.99072265625,10.7421875,-6.8988800048828125,13.1123437879555
1785248773.421205,-0.00439453125,-0.8095703125,0.60693359375,1.011825968241844,3.604888916015625,11.5966796875,-7.3261260986328125,14.182747529458325
1785248773.429207,0.0073242224752902985,-0.80078125,0.62060546875,1.0131413536268457,3.9691925048828125,13.608932495117188,-9.157180786132812,16.876358989645674
1785248773.43721,0.0068359412252902985,-0.79541015625,0.611328125,1.0032178841976955,4.3354034423828125,14.280319213867188,-10.499954223632812,18.24752801221452
1785248773.445213,0.025390625,-0.826171875,0.62890625,1.0386181792015623,5.0067901611328125,15.562057495117188,-11.842727661132812,20.186524704730868
1785248773.453216,0.0473632849752903,-0.8251953125,0.62744140625,1.0377250612819373,6.1054229736328125,17.393112182617188,-13.795852661132812,23.02438037671709
1785248773.463864,0.04443359375,-0.82177734375,0.63525390625,1.039634489789671,7.205963134765625,19.10400390625,-16.115188598632812,26.011308569910923
1785248773.474512,0.0576171912252903,-0.81494140625,0.6416015625,1.0387982486257188,8.119583129882812,21.360397338867188,-18.983840942382812,29.708255108690782
1785248773.48516,0.07861328125,-0.8154296875,0.6416015625,1.0405566722902124,9.70458984375,23.86474609375,-21.486282348632812,33.54646776219132
1785248773.495843,0.08935546875,-0.8193359375,0.65673828125,1.0538505341526094,10.807037353515625,26.18408203125,-25.026321411132812,37.79834614838109
1785248773.506525,0.12158203125,-0.8310546875,0.6474609375,1.0604903344806955,12.514114379882812,29.050827026367188,-28.749465942382812,42.74441953753642
1785248773.517207,0.13623046875,-0.8232421875,0.658203125,1.0627877462858684,14.16015625,31.92138671875,-33.63227844238281,48.48314251673844
1785248773.525196,0.21337890625,-0.8564453125,0.6611328125,1.1027809060279512,18.1884765625,40.1611328125,-45.04585266113281,63.03067594763967
1785248773.533188,0.24658203125,-0.8720703125,0.67578125,1.1304820325554874,20.81298828125,45.41015625,-52.61421203613281,72.55010737433824
1785248773.54118,0.2646484375,-0.8828125,0.6962890625,1.1550823192242925,23.744583129882812,51.14555358886719,-61.46430969238281,83.41183516674803
1785248773.549172,0.294921875,-0.8935546875,0.71728515625,1.1831808345655896,27.03857421875,58.10546875,-70.92475891113281,95.5910634999025
1785248773.559855,0.35986328125,-0.91845703125,0.69384765625,1.206022167925697,31.190872192382812,65.24467468261719,-81.30073547363281,108.80968555747106
1785248773.570538,0.4375,-0.9472655653953552,0.6796875,1.2452684044173095,35.09712219238281,72.26371765136719,-94.48432922363281,124.02072949238527
1785248773.581221,0.494140625,-0.9697265625,0.673828125,1.2800737890193958,38.75923156738281,80.68656921386719,-110.17036437988281,141.9510819641553
1785248773.591894,0.57080078125,-1.01611328125,0.669921875,1.3442823553151948,42.84858703613281,91.61186218261719,-127.50434875488281,162.7454873566904
1785248773.602569,0.6123046875,-1.0693359375,0.6845703125,1.4096215415209234,46.93794250488281,103.75785827636719,-146.6083526611328,185.64178589612166
1785248773.613244,0.63134765625,-1.09423828125,0.6708984375,1.430406233433448,52.001953125,115.78369140625,-165.9564971923828,208.92971374325336
1785248773.621225,0.51025390625,-1.091796875,0.58056640625,1.337698328162665,61.03706359863281,133.1806182861328,-200.8075714111328,248.56846331716613
1785248773.629205,0.4423828125,-1.08984375,0.548828125,1.2979500233061705,64.27192687988281,137.9375457763672,-214.5404815673828,263.03092090251465
1785248773.637185,0.41845703125,-1.0810546875,0.53466796875,1.2765795553648573,66.71333312988281,141.5386199951172,-225.5268096923828,274.4926076553705
1785248773.645165,0.37353515625,-1.0732421875,0.50048828125,1.2417188996117745,69.03076171875,145.8740234375,-234.9262237548828,285.01720541932974
1785248773.655867,0.32275390625,-1.05908203125,0.4999999701976776,1.2148352987602633,70.92475891113281,150.8769989013672,-242.0063018798828,293.87283027469965
1785248773.666569,0.2578125,-1.04833984375,0.4794921576976776,1.181268996648773,72.32666015625,156.73828125,-247.5605010986328,301.8016505633592
1785248773.677271,0.20654296875,-1.03466796875,0.4453124701976776,1.1452078412283389,73.1201171875,161.80419921875,-250.4291534423828,306.98845469529175
1785248773.685243,0.13427734375,-1.009765625,0.4409179389476776,1.109984527532733,72.81494140625,166.07666015625,-250.4291534423828,309.18964024449247
1785248773.693218,0.07763671875,-0.9794921875,0.4316405951976776,1.0731943015569954,71.53511047363281,168.8213348388672,-248.7812042236328,309.0469263756115
1785248773.701193,-0.010253902524709702,-0.9531249403953552,0.4331054389476776,1.0469635216981994,69.76699829101562,170.83740234375,-244.5087432861328,306.3288716942347
1785248773.709168,-0.0527343712747097,-0.9184569716453552,0.4575195014476776,1.027457160607014,68.30024719238281,170.5341339111328,-237.8559112548828,300.5366019543235
1785248773.719831,-0.09033203125,-0.88427734375,0.4741210639476776,1.007421004257001,66.83540344238281,168.0889129638672,-229.1889190673828,291.97331117407964
1785248773.730494,-0.1059570163488388,-0.85986328125,0.4902343451976776,0.9954503829759475,64.94140625,164.24560546875,-220.3998565673828,282.43601388004106
1785248773.741157,-0.13427734375,-0.81591796875,0.517578125,0.9755201957172375,62.86811828613281,160.3984832763672,-210.7563018798828,272.21001545917176
1785248773.751839,-0.17236328125,-0.75537109375,0.5595703125,0.9557266997566226,58.22944641113281,153.8677215576172,-190.4926300048828,251.70098580032732
1785248773.762519,-0.20361328125,-0.70947265625,0.568359375,0.9315804835966739,55.66596984863281,149.9614715576172,-179.8114776611328,240.66431112567352
1785248773.773199,-0.23046875,-0.66552734375,0.58251953125,0.9139865941539913,53.04145812988281,145.2007293701172,-168.9472198486328,228.99740431878348
1785248773.783863,-0.2412109225988388,-0.65234375,0.6015625,0.9195719214674268,50.47607421875,139.0380859375,-157.7777862548828,216.27124923390045
1785248773.794529,-0.2280273288488388,-0.62841796875,0.62646484375,0.9161680012991746,47.60932922363281,133.9092254638672,-146.5473175048828,204.14319768567847
1785248773.805195,-0.2260742038488388,-0.59228515625,0.65283203125,0.9100005016405069,45.10688781738281,128.5991668701172,-136.5985870361328,192.95479011552462
1785248773.813207,-0.2021484225988388,-0.54931640625,0.68359375,0.8999516175737873,41.446685791015625,119.07958984375,-117.61665344238281,172.42811153463487
1785248773.821219,-0.2172851413488388,-0.53271484375,0.697265625,0.9039785889108284,39.85786437988281,113.52348327636719,-108.94966125488281,162.31530826043016
1785248773.829231,-0.2211913913488388,-0.50830078125,0.7021484375,0.8945992086459091,38.14888000488281,108.94584655761719,-101.01509094238281,153.39029671358188
1785248773.837243,-0.2221679538488388,-0.4873046576976776,0.70703125,0.8869710353826629,36.13471984863281,105.34477233886719,-92.95845031738281,145.0672689584948
1785248773.848076,-0.2260742038488388,-0.47265625,0.71142578125,0.8835384080712744,33.8134765625,101.5625,-85.08491516113281,136.73966283222256
1785248773.858909,-0.2363281100988388,-0.455078125,0.73876953125,0.8992927753405724,31.923294067382812,97.22709655761719,-77.88276672363281,128.59988476536293
1785248773.869742,-0.2431640475988388,-0.4331054389476776,0.75732421875,0.9056760169045047,30.82275390625,92.529296875,-70.43647766113281,120.30382505911604
1785248773.880227,-0.2294921875,-0.42578125,0.77197265625,0.9109874417206739,30.517578125,89.17236328125,-63.29536437988281,113.53121200692274
1785248773.890711,-0.22412109375,-0.42041015625,0.791015625,0.9234071058509277,30.580520629882812,85.75248718261719,-56.03218078613281,106.90305226535622
1785248773.901195,-0.1977538913488388,-0.4140625,0.8188475966453552,0.9386510224688048,31.1279296875,80.99365234375,-49.98970031738281,100.13935222694387
1785248773.909399,-0.173828125,-0.40966796875,0.8374022841453552,0.948307253559006,33.57124328613281,70.92475891113281,-38.69819641113281,87.49228656203725
1785248773.917604,-0.17529296875,-0.37109375,0.8476561903953552,0.9417851205544807,34.97505187988281,66.58744812011719,-33.75434875488281,82.44087918633602
1785248773.925809,-0.1596679538488388,-0.3779296875,0.8491210341453552,0.9430436017534927,35.34126281738281,62.68119812011719,-28.993606567382812,77.57942173724223
1785248773.934014,-0.177734375,-0.35498046875,0.8603515625,0.9475259639433643,36.50093078613281,57.73735046386719,-24.538040161132812,72.58123036840068
1785248773.944472,-0.1513671875,-0.33544921875,0.8779296278953552,0.9519446598138583,36.19575500488281,52.61039733886719,-20.143508911132812,66.96079106297856
1785248773.95493,-0.14404296875,-0.31689453125,0.9052733778953552,0.9698919576471069,35.82954406738281,47.60551452636719,-16.664505004882812,61.868788322177835
1785248773.965388,-0.14013671875,-0.306640625,0.9487304091453552,1.0068545883490427,34.912109375,43.39599609375,-13.795852661132812,57.37938138938423
1785248773.973385,-0.1210937350988388,-0.29833984375,0.9750975966453552,1.0268815306706562,34.18159484863281,39.06059265136719,-11.415481567382812,53.14531535410603
1785248773.981383,-0.1083984300494194,-0.28076171875,0.9667968153953552,1.0125578722281672,33.447265625,35.21728515625,-9.523391723632812,49.49415866026708
1785248773.989381,-0.1113281100988388,-0.26953125,0.9550780653953552,0.9986066061388118,32.41157531738281,31.309127807617188,-7.3871612548828125,45.66554335638336
1785248773.997379,-0.1015624925494194,-0.2548828125,0.9482421278953552,0.987138957349102,32.16743469238281,25.938034057617188,-5.5561065673828125,41.6940737473677
1785248774.007983,-0.0908203125,-0.248046875,0.9316405653953552,0.9683644584814337,29.35791015625,23.01025390625,-3.3588409423828125,37.45184222503303
1785248774.018587,-0.10009765625,-0.2333984375,0.9301757216453552,0.9642205373007993,26.979446411132812,18.495559692382812,-1.9550323486328125,32.76886339911538
1785248774.029191,-0.0854492112994194,-0.22802734375,0.9443358778953552,0.975227300422709,25.146484375,15.380859375,0.1201629638671875,29.477634753716757
1785248774.039875,-0.0415039025247097,-0.2172851413488388,0.9125975966453552,0.9390259740702831,22.586822509765625,14.0380859375,3.2329559326171875,26.789632545791573
1785248774.050562,-0.0336913987994194,-0.22265625,0.8950194716453552,0.9229142813075626,22.218704223632812,13.486862182617188,4.2095184326171875,26.3303306918985
1785248774.061249,-0.0219726525247097,-0.19482421875,0.9233397841453552,0.9439256489025556,21.425247192382812,14.097213745117188,4.1484832763671875,25.980426596276796
1785248774.071909,-0.0224609337747097,-0.19921875,0.9526366591453552,0.9735035738225197,22.096633911132812,15.806198120117188,3.5381317138671875,27.397363107417718
1785248774.082571,-0.02197265625,-0.21337890625,0.9106444716453552,0.9355675865448605,23.98681640625,18.798828125,3.7822723388671875,30.709426634598618
1785248774.093233,-0.0224609375,-0.21826171875,0.8310546875,0.8595315963946908,24.539947509765625,20.263671875,4.0264129638671875,32.07861317132204
1785248774.101228,-0.076171875,-0.169921875,0.7797850966453552,0.8017109174102204,17.27294921875,19.95849609375,4.3926239013671875,26.758017224312653
1785248774.109223,-0.07080078125,-0.16650390625,0.802734375,0.8228722733381894,12.697219848632812,19.712448120117188,5.7964324951171875,24.15364635915822
1785248774.117218,-0.1044921875,-0.17724609375,0.8593749403953552,0.8836628786916928,8.974075317382812,18.186569213867188,7.2002410888671875,21.520427489031267
1785248774.125213,-0.10888671875,-0.17138671875,0.8901366591453552,0.9130021888464931,7.2650909423828125,17.087936401367188,8.909225463867188,20.59498519601998
1785248774.135886,-0.10791015625,-0.17138671875,0.9072265028953552,0.929557925436348,6.40869140625,15.380859375,10.862350463867188,19.890520814044656
1785248774.146559,-0.125,-0.17041015625,0.8969725966453552,0.9215337543931099,6.40869140625,13.671875,12.510299682617188,19.60864833957352
1785248774.157232,-0.1352538913488388,-0.17529296875,0.8793944716453552,0.9068383961757495,5.92041015625,12.26806640625,13.853073120117188,19.42844164202835
1785248774.167877,-0.1445312350988388,-0.1748046875,0.8735350966453552,0.9025018126089158,4.82177734375,11.71875,15.562057495117188,20.068788498475286
1785248774.178525,-0.14306640625,-0.1708984375,0.8779296278953552,0.9057785071824724,3.2367706298828125,11.598587036132812,17.087936401367188,20.90458025893823
1785248774.189173,-0.16552734375,-0.15966796875,0.8911132216453552,0.9203129552303638,1.40380859375,10.6201171875,19.041061401367188,21.84764488302468
1785248774.197177,-0.1987304538488388,-0.14013671875,0.8979491591453552,0.9302928493968082,-3.23486328125,5.0048828125,22.825241088867188,23.59035445219398
1785248774.205182,-0.2001952975988388,-0.1279296875,0.9160155653953552,0.9463237702663436,-5.6133270263671875,1.2187957763671875,25.510787963867188,26.149478120735523
1785248774.213187,-0.21142578125,-0.12841796875,0.9130858778953552,0.9460009810179799,-7.9326629638671875,-2.8705596923828125,28.440475463867188,29.66526418653093
1785248774.221192,-0.2211913913488388,-0.12744140625,0.9042968153953552,0.9396380547678951,-9.6435546875,-7.080078125,30.759811401367188,33.00441865439513
1785248774.231849,-0.2172851413488388,-0.13134765625,0.8964843153953552,0.9317452265524261,-11.472702026367188,-11.232376098632812,34.17778015136719,37.76122112276212
1785248774.242506,-0.2216796725988388,-0.1259765625,0.8950194716453552,0.9306298008161868,-13.36669921875,-15.625,37.04643249511719,42.370360319683456
1785248774.253163,-0.2187499850988388,-0.12890625,0.8930663466453552,0.928458871884095,-14.768600463867188,-19.411087036132812,39.97611999511719,46.82939279394587
1785248774.264025,-0.23486328125,-0.13916015625,0.8828124403953552,0.9240585018730382,-16.477584838867188,-22.890090942382812,42.72270202636719,51.19273712067348
1785248774.274889,-0.23486328125,-0.1201171875,0.8627929091453552,0.9022197646271843,-18.12744140625,-26.79443359375,45.95756530761719,56.20181147036814
1785248774.285753,-0.25048828125,-0.1201171875,0.8686522841453552,0.911991945429033,-19.59228515625,-30.70068359375,49.25346374511719,61.255965437326495
1785248774.293619,-0.28564453125,-0.13330078125,0.8574218153953552,0.9135283608245336,-22.27783203125,-41.50390625,57.37113952636719,74.2315545073338
1785248774.301483,-0.3095703125,-0.1396484375,0.8378905653953552,0.9040995874659423,-23.86474609375,-46.93603515625,61.52153015136719,80.97787459839554
1785248774.309347,-0.28564453125,-0.14013671875,0.8144530653953552,0.8743940152510993,-25.632858276367188,-52.18696594238281,66.22123718261719,88.1236352613996
1785248774.317211,-0.2568359375,-0.15380859375,0.81689453125,0.870022101724441,-27.585983276367188,-55.78804016113281,70.00541687011719,93.66990065919289
1785248774.328036,-0.2387695163488388,-0.15966796875,0.79150390625,0.8420113869724198,-29.4189453125,-57.92236328125,72.20268249511719,97.12724577004985
1785248774.338861,-0.2124023288488388,-0.16064453125,0.7597655653953552,0.8050870319918625,-31.25,-59.326171875,73.60649108886719,99.56943657447061
1785248774.349686,-0.1899413913488388,-0.16162109375,0.7490234375,0.7894524811645065,-33.5693359375,-59.9365234375,73.85063171386719,100.86229702716453
1785248774.357566,-0.14892578125,-0.1708984375,0.72998046875,0.7643668288311143,-36.06986999511719,-58.71772766113281,73.05717468261719,100.42986525808973
1785248774.365447,-0.13818359375,-0.19970703125,0.75390625,0.7920557036606807,-38.14697265625,-56.0302734375,70.61576843261719,97.88345016215314
1785248774.373328,-0.083984375,-0.22509765625,0.7412109375,0.779176478060659,-39.12353515625,-51.94091796875,67.07572937011719,93.4219644039449
1785248774.381209,-0.0737304612994194,-0.251953125,0.73388671875,0.7794268882187299,-40.03715515136719,-46.68998718261719,62.62016296386719,87.77364926530564
1785248774.391866,-0.09130859375,-0.25439453125,0.7431640625,0.7907886320718158,-41.80717468261719,-41.80717468261719,58.28666687011719,83.02418469767561
1785248774.402523,-0.1142578125,-0.2900390625,0.7944335341453552,0.8534062020326799,-43.087005615234375,-38.0859375,53.28178405761719,78.39628307836854
1785248774.41318,-0.1166992112994194,-0.3154296875,0.8857421278953552,0.9474458880605509,-44.12651062011719,-33.93363952636719,48.94828796386719,74.12540539927191
1785248774.423848,-0.1215820237994194,-0.43212890625,0.79638671875,0.9141932979022409,-45.0439453125,-26.67236328125,40.76957702636719,66.35156654692751
1785248774.434518,-0.12939453125,-0.49267578125,0.69140625,0.858786919256906,-47.72758483886719,-25.083541870117188,36.80229187011719,65.28028120492803
1785248774.445188,-0.1376953125,-0.5712890625,0.61181640625,0.8483221716855375,-52.55126953125,-24.658203125,33.01811218261719,66.78217309135529
1785248774.453523,-0.1406249850988388,-0.6435546875,0.55712890625,0.8627459883514919,-56.82373046875,-23.62060546875,30.454635620117188,68.66115479548534
1785248774.461858,-0.1650390475988388,-0.6875,0.6025390625,0.9289496536792027,-60.298919677734375,-22.64404296875,28.928756713867188,70.60867766275314
1785248774.470193,-0.15234375,-0.72412109375,0.65869140625,0.9906736825238477,-62.252044677734375,-21.17919921875,27.585983276367188,71.30821845643143
1785248774.478528,-0.1591796725988388,-0.75830078125,0.7802733778953552,1.0996293863230746,-62.43705749511719,-20.082473754882812,25.571823120117188,70.39609391472432
1785248774.488749,-0.1533203125,-0.7822265625,0.8701171278953552,1.1800378509024725,-60.787200927734375,-18.06640625,23.435592651367188,67.60699545416588
1785248774.49897,-0.15478515625,-0.82763671875,0.8872069716453552,1.2231423438646565,-58.34770202636719,-13.673782348632812,20.566940307617188,63.359495650554265
1785248774.509191,-0.17236328125,-0.8466796875,0.8476561903953552,1.2104117526957225,-56.94389343261719,-8.302688598632812,17.759323120117188,60.22404166872113
1785248774.519856,-0.2802734375,-0.8525390625,0.8847655653953552,1.2602325811396116,-56.57768249511719,-6.4716339111328125,16.599655151367188,59.31664819544615
1785248774.530524,-0.31689453125,-0.8857421278953552,0.9062499403953552,1.306235130262287,-54.3212890625,-10.8642578125,18.674850463867188,58.46011104228207
1785248774.541192,-0.32080078125,-0.90771484375,0.8730468153953552,1.29964230490034,-51.3916015625,-16.7236328125,21.848678588867188,58.29357907767975
1785248774.551974,-0.30615234375,-0.89208984375,0.8598632216453552,1.2762908394421104,-48.7060546875,-21.17919921875,25.754928588867188,59.026727754356244
1785248774.562757,-0.3154296875,-0.9042968153953552,0.83154296875,1.2683502382891298,-46.688079833984375,-22.52197265625,30.454635620117188,60.12071923777594
1785248774.57354,-0.291015625,-0.8818359375,0.8041991591453552,1.228438440553999,-45.223236083984375,-24.10888671875,34.91020202636719,62.00888409129033
1785248774.584175,-0.2285156100988388,-0.89404296875,0.7568359375,1.1934541676669708,-43.27201843261719,-26.548385620117188,40.09819030761719,64.69272929945909
1785248774.59481,-0.19482421875,-0.876953125,0.7597655653953552,1.1765402560130858,-42.293548583984375,-26.2451171875,41.44096374511719,64.76807781720538
1785248774.605445,-0.171875,-0.8740234375,0.77294921875,1.1793678305306414,-41.68701171875,-25.45166015625,41.92924499511719,64.37123221291482
1785248774.613378,-0.1586913913488388,-0.873046875,0.78662109375,1.1858189359122,-40.771484375,-24.59716796875,41.37992858886719,63.084333239272
1785248774.621312,-0.16748046875,-0.865234375,0.767578125,1.1686985963339205,-39.9169921875,-24.658203125,40.83061218261719,62.19752517470436
1785248774.629246,-0.17919921875,-0.857421875,0.7705077528953552,1.16660482983784,-39.794921875,-26.0009765625,40.34233093261719,62.34733558314925
1785248774.63718,-0.18505859375,-0.8515625,0.7861328125,1.1736311913953794,-39.4287109375,-27.52685546875,40.64750671386719,62.96483796726759
1785248774.645197,-0.1938476413488388,-0.86767578125,0.76220703125,1.1710669186307179,-39.36576843261719,-29.356002807617188,41.44096374511719,64.25567757992584
1785248774.653214,-0.1879882663488388,-0.8608397841453552,0.720703125,1.1383311102825175,-39.306640625,-31.55517578125,42.23442077636719,65.76083495610227
1785248774.661231,-0.1689452975988388,-0.8706054091453552,0.6982421875,1.1287331147878565,-39.67094421386719,-33.87641906738281,43.39408874511719,67.8560426319411
1785248774.669248,-0.16015625,-0.87744140625,0.73828125,1.1578482844991405,-40.52543640136719,-36.13471984863281,43.08891296386719,69.31582355038535
1785248774.679916,-0.1040038987994194,-0.873046875,0.73388671875,1.1452586488956924,-40.40336608886719,-37.17231750488281,41.56303405761719,68.85999549861651
1785248774.690584,-0.0927734300494194,-0.890625,0.71728515625,1.1473089363047433,-39.42680358886719,-36.98921203613281,40.15922546386719,67.34566087096348
1785248774.701252,-0.1005859375,-0.87939453125,0.71435546875,1.1374339577083996,-38.57231140136719,-38.63716125488281,38.45024108886719,66.77630175797302
1785248774.70925,-0.09521484375,-0.87841796875,0.728515625,1.145172043914081,-36.86332702636719,-40.40718078613281,36.74125671386719,65.89055382564639
1785248774.717248,-0.1220703050494194,-0.87841796875,0.72216796875,1.1436983266081293,-35.15625,-41.80908203125,35.39848327636719,65.09234880249397
1785248774.725246,-0.1513671875,-0.86328125,0.70263671875,1.1233276016323062,-33.44535827636719,-44.00825500488281,35.52055358886719,65.70409596112667
1785248774.733244,-0.2290038913488388,-0.85498046875,0.65869140625,1.1033171587827695,-32.65190124511719,-45.65620422363281,37.77885437011719,67.66001386749396
1785248774.743915,-0.3359375,-0.85302734375,0.61962890625,1.1065485233608159,-33.87260437011719,-48.46382141113281,43.45512390136719,73.37876467935278
1785248774.754586,-0.451171875,-0.84326171875,0.5771484375,1.1170258305021021,-37.29057312011719,-54.20112609863281,52.85453796386719,84.3916530076321
1785248774.765257,-0.5439453125,-0.85107421875,0.53515625,1.1430643204674478,-42.90771484375,-62.31689453125,65.30570983886719,99.94650106276765
1785248774.77326,-0.65576171875,-0.86767578125,0.4604491889476776,1.1810580632417385,-58.34770202636719,-82.15522766113281,100.46195983886719,142.29034098798294
1785248774.781264,-0.6640625,-0.857421875,0.4565429389476776,1.1766829355173587,-66.22123718261719,-91.55464172363281,119.13871765136719,164.1996915915234
1785248774.789268,-0.64892578125,-0.8916015625,0.4360351264476776,1.1858265671334938,-73.60649108886719,-98.14262390136719,138.7310028076172,185.19228195761232
1785248774.797272,-0.6220703125,-0.90625,0.4194335639476776,1.176513939891788,-79.1015625,-103.3935546875,157.3467254638672,204.21869736892373
1785248774.807916,-0.5771484375,-0.921875,0.4760741889476776,1.187265963428532,-81.54106140136719,-108.76655578613281,175.1689910888672,221.7279499547387
1785248774.81856,-0.51806640625,-0.9628905653953552,0.53466796875,1.2171363436441407,-79.833984375,-115.05126953125,188.8408660888672,235.09813352541434
1785248774.829204,-0.505859375,-1.00048828125,0.51318359375,1.2329752264697513,-77.2705078125,-119.62890625,200.9258270263672,246.27828681067794
1785248774.837214,-0.53125,-1.03076171875,0.4560546576976776,1.2460666652102528,-75.25444030761719,-120.48530578613281,212.5835418701172,255.67890403870734
1785248774.845223,-0.57421875,-1.04443359375,0.39404296875,1.2553240879655005,-75.3173828125,-122.314453125,225.6450653076172,267.4868764905511
1785248774.853232,-0.58935546875,-1.09521484375,0.369140625,1.2973435256481838,-77.7587890625,-127.685546875,239.7441864013672,282.53725961452886
1785248774.861241,-0.611328125,-1.12744140625,0.3388671875,1.3265282400714857,-81.11381530761719,-135.0727081298828,253.2939910888672,298.29839663837595
1785248774.8719,-0.564453125,-1.15771484375,0.3129882514476776,1.3254707221608584,-84.40971374511719,-140.6879425048828,265.80621337890625,312.36363426561434
1785248774.882559,-0.5341796875,-1.16259765625,0.283203125,1.3104141554735116,-88.43994140625,-142.9443359375,277.52496337890625,324.4608015015328
1785248774.893218,-0.5078125,-1.171875,0.2416992038488388,1.2998396270011208,-93.07670593261719,-143.6176300048828,287.53472900390625,334.61248813939403
1785248774.901208,-0.4760741889476776,-1.18505859375,0.2021484225988388,1.293009856405633,-98.69194030761719,-144.9604034423828,296.26275634765625,344.2749460047469
1785248774.909198,-0.40771484375,-1.19873046875,0.1811523288488388,1.279063054259265,-105.22270202636719,-145.9369659423828,302.00006103515625,351.5301579031818
1785248774.917188,-0.29443359375,-1.21044921875,0.1801757663488388,1.258706383188874,-111.81640625,-143.06640625,303.77008056640625,353.9027651082653
1785248774.925178,-0.1904296875,-1.20068359375,0.2148437350988388,1.2345292174318852,-118.28422546386719,-134.5844268798828,301.32867431640625,350.57537836741517
1785248774.935875,-0.12744140625,-1.20263671875,0.2822265625,1.2418648162716064,-123.53324890136719,-121.70600891113281,294.98101806640625,342.17921796727717
1785248774.946572,-0.0932617112994194,-1.185546875,0.33349609375,1.23508654926012,-127.5634765625,-106.8115234375,286.98541259765625,331.7254424001845
1785248774.957269,-0.1079101487994194,-1.16650390625,0.3808593451976776,1.231840007604407,-129.6367645263672,-94.54154968261719,277.52496337890625,320.56809047645214
1785248774.965274,-0.1484375,-1.150390625,0.50927734375,1.2668053103579873,-127.68363952636719,-82.09037780761719,258.72613525390625,299.96859001355324
1785248774.973278,-0.14599609375,-1.1337890625,0.568359375,1.2766459480941763,-125.732421875,-77.392578125,249.1436004638672,289.60453503266535
1785248774.981282,-0.1206054538488388,-1.10546875,0.60400390625,1.265475227529131,-122.25151062011719,-71.22993469238281,238.8896942138672,277.64621633794457
1785248774.989286,-0.0922851487994194,-1.06787109375,0.61767578125,1.2370887568394395,-118.10302734375,-63.96484375,227.5371551513672,264.22146634612756
1785248774.999922,-0.0693359300494194,-1.02392578125,0.6240234375,1.2010981338981246,-112.85400390625,-57.18994140625,213.6211395263672,248.2754656591461
1785248775.010558,-0.08544921875,-0.9814452528953552,0.6728515625,1.1930069482507235,-106.62841796875,-50.84228515625,198.1792449951172,230.71534544815734
1785248775.021194,-0.13427734375,-0.927734375,0.71240234375,1.1773863320854754,-99.18212890625,-45.8984375,182.4321746826172,212.66231358363981
1785248775.031858,-0.1743163913488388,-0.9184569716453552,0.7509765028953552,1.1991309857383288,-89.2333984375,-42.78564453125,166.6240692138672,193.79574612474784
1785248775.042523,-0.2211913913488388,-0.89892578125,0.7666015625,1.2019447355973565,-78.67240905761719,-41.44477844238281,151.7314910888672,175.86774290676
1785248775.053188,-0.2368163913488388,-0.86328125,0.7558593153953552,1.1716056608274747,-68.96591186523438,-40.22216796875,136.8999481201172,158.47938538119206
1785248775.063956,-0.28173828125,-0.78759765625,0.65966796875,1.065292615316068,-53.401947021484375,-33.63037109375,108.76274108886719,125.74618743625079
1785248775.074726,-0.30859375,-0.75830078125,0.62060546875,1.0273272726964033,-47.84965515136719,-28.993606567382812,95.57914733886719,110.75013375122319
1785248775.085496,-0.3471679389476776,-0.72216796875,0.5888671875,0.9943926374605956,-44.063568115234375,-24.169921875,82.70072937011719,96.77393139083927
1785248775.093424,-0.35791015625,-0.69287109375,0.56640625,0.9638392358377424,-40.70854187011719,-19.289016723632812,70.61576843261719,83.7606011122454
1785248775.101352,-0.3525390625,-0.681640625,0.576171875,0.9596310550309348,-38.4521484375,-14.34326171875,58.89701843261719,71.78548360528151
1785248775.10928,-0.38671875,-0.68994140625,0.58642578125,0.984614509630273,-35.64262390136719,-10.133743286132812,47.42240905761719,60.182840348321264
1785248775.117208,-0.4013671875,-0.67333984375,0.57763671875,0.9737280643132359,-32.46879577636719,-8.359909057617188,35.70365905761719,48.978179312032815
1785248775.127867,-0.4194335639476776,-0.66845703125,0.57861328125,0.9785461902395337,-29.47998046875,-7.99560546875,25.510787963867188,39.79697548542072
1785248775.138526,-0.42724609375,-0.658203125,0.55908203125,0.9635057322356859,-26.731491088867188,-7.9364776611328125,15.623092651367188,31.96312433872899
1785248775.149185,-0.4394530951976776,-0.6318359375,0.54052734375,0.9404815171691328,-24.23095703125,-8.4228515625,6.7119598388671875,26.51667611094495
1785248775.157178,-0.4462890326976776,-0.6044921875,0.5244140625,0.9162940654628937,-19.102096557617188,-9.645462036132812,-9.950637817382812,23.599581008139502
1785248775.165172,-0.4672851264476776,-0.59521484375,0.5234375,0.9201211420382693,-16.904830932617188,-10.560989379882812,-17.396926879882812,26.456773620499487
1785248775.173166,-0.4687499701976776,-0.591796875,0.4946288764476776,0.9025562593190417,-14.583587646484375,-12.3291015625,-24.110794067382812,30.757408287124484
1785248775.18116,-0.4858398139476776,-0.59716796875,0.4863280951976776,0.9105849350260065,-12.939453125,-13.97705078125,-30.885696411132812,36.286549002576365
1785248775.191839,-0.4682616889476776,-0.59375,0.4653320014476776,0.8878862221069955,-12.022018432617188,-14.711380004882812,-36.86714172363281,41.47456772183021
1785248775.202518,-0.4736327826976776,-0.61181640625,0.4565429389476776,0.8983756357479834,-11.106491088867188,-14.223098754882812,-42.29927062988281,45.98781336743792
1785248775.213197,-0.4804687201976776,-0.60498046875,0.4521484076976776,0.8951478879162421,-10.7421875,-13.3056640625,-47.36518859863281,50.357684412741975
1785248775.223864,-0.50732421875,-0.6162109375,0.4438476264476776,0.9132877410368344,-10.557174682617188,-12.208938598632812,-51.14936828613281,53.63552922322039
1785248775.234531,-0.4975585639476776,-0.6015625,0.4658202826976776,0.9090822304590875,-10.679244995117188,-11.598587036132812,-54.50630187988281,56.74072998756185
1785248775.245198,-0.4975585639476776,-0.61474609375,0.4487304389476776,0.9093053893916688,-10.07080078125,-12.02392578125,-57.25288391113281,59.36234947936516
1785248775.255881,-0.4975585639476776,-0.59423828125,0.4453124701976776,0.893860646619028,-9.031295776367188,-9.519577026367188,-61.76948547363281,63.14788979719355
1785248775.266565,-0.4638671576976776,-0.60009765625,0.4418945014476776,0.877815861919205,-8.358001708984375,-6.40869140625,-63.96675109863281,64.82802452814963
1785248775.277249,-0.45947265625,-0.6162109375,0.4604491889476776,0.8960159021683899,-7.32421875,-2.99072265625,-65.73677062988281,66.21111398511795
1785248775.285256,-0.47998046875,-0.6396484375,0.4843749701976776,0.9349601519485535,-6.5898895263671875,-0.5512237548828125,-67.62886047363281,67.95140366879676
1785248775.293262,-0.4775390326976776,-0.6650390625,0.53759765625,0.9794548087615914,-5.79833984375,0.6103515625,-67.81196594238281,68.06214806296046
1785248775.301268,-0.4921874701976776,-0.69970703125,0.57958984375,1.033326096824438,-5.06591796875,0.6103515625,-66.89643859863281,67.09075607769374
1785248775.309274,-0.51953125,-0.7197265625,0.59912109375,1.0709178910966168,-4.8828125,0.54931640625,-64.88227844238281,65.06806945268336
1785248775.319921,-0.5341796875,-0.74462890625,0.60888671875,1.1002559624154784,-3.60107421875,0.1220703125,-62.13569641113281,62.24007876912274
1785248775.330568,-0.5634765625,-0.7548828125,0.60986328125,1.1221796286298122,-2.44140625,-0.91552734375,-58.41255187988281,58.470718072507836
1785248775.341215,-0.56884765625,-0.74462890625,0.62158203125,1.1244661336016597,-0.30517578125,-2.197265625,-54.44526672363281,54.49044115339668
1785248775.34921,-0.5498046875,-0.7412109375,0.5849609375,1.0926381590753091,5.1898956298828125,-4.5795440673828125,-46.69380187988281,47.20400803440239
1785248775.357207,-0.53076171875,-0.74169921875,0.5478515625,1.063939409796679,7.9345703125,-4.150390625,-43.15376281738281,44.073012078629546
1785248775.365204,-0.5146484375,-0.73876953125,0.541015625,1.0504005621755335,10.318756103515625,-3.173828125,-39.91889953613281,41.35297392772068
1785248775.373201,-0.4887695014476776,-0.7333984375,0.5185546875,1.0225790226682119,11.903762817382812,-2.5653839111328125,-36.80610656738281,38.76816018943309
1785248775.383885,-0.47021484375,-0.75439453125,0.4897460639476776,1.014920841846785,13.185501098632812,-2.3822784423828125,-34.05952453613281,36.600326520763744
1785248775.394569,-0.4541015326976776,-0.74853515625,0.4541015326976776,0.9862663352963903,13.18359375,-2.3193359375,-32.22846984863281,34.897861426457816
1785248775.405253,-0.4218749701976776,-0.74609375,0.4291991889476776,0.9585647177221255,11.598587036132812,-1.4667510986328125,-30.275344848632812,32.454199816414
1785248775.415885,-0.3999023139476776,-0.75537109375,0.3984375,0.9430057218172264,9.462356567382812,0.3643035888671875,-29.298782348632812,30.791030447611067
1785248775.426519,-0.35986328125,-0.775390625,0.4033203125,0.9451981152144797,6.7768096923828125,2.1343231201171875,-29.298782348632812,30.147954025114178
1785248775.437153,-0.33642578125,-0.76171875,0.38330078125,0.9166881963340074,3.173828125,4.57763671875,-29.481887817382812,30.003493999410043
1785248775.445167,-0.28857421875,-0.7978515625,0.3725585639476776,0.9266294184201255,-4.3315887451171875,9.157180786132812,-32.41157531738281,33.95772129518005
1785248775.453181,-0.26904296875,-0.79833984375,0.38330078125,0.9255539498373113,-7.50732421875,11.71875,-34.60884094238281,37.30229067849699
1785248775.461195,-0.2587890625,-0.81201171875,0.38427734375,0.9348817503708764,-10.496139526367188,14.280319213867188,-36.98921203613281,41.01582949131841
1785248775.469209,-0.2436523288488388,-0.81494140625,0.3969726264476776,0.9386603321345574,-12.876510620117188,17.210006713867188,-39.73579406738281,45.17656679083526
1785248775.479841,-0.23486328125,-0.7939453125,0.4204101264476776,0.9285766497925692,-14.646530151367188,19.472122192382812,-42.17720031738281,48.70934833030136
1785248775.490473,-0.1992187350988388,-0.80126953125,0.4497070014476776,0.94019006231455,-15.134811401367188,21.608352661132812,-45.53413391113281,52.62452633439863
1785248775.501105,-0.20166015625,-0.79833984375,0.4589843451976776,0.9426982305457509,-15.071868896484375,23.5595703125,-48.58589172363281,56.06071226735365
1785248775.509147,-0.1704101413488388,-0.794921875,0.4892577826976776,0.9488485556495804,-13.85498046875,26.0009765625,-52.73628234863281,60.40800230058795
1785248775.517189,-0.1699218600988388,-0.78125,0.4887695014476776,0.9370809071712328,-12.632369995117188,29.233932495117188,-56.76460266113281,65.0877845382595
1785248775.525231,-0.1435546875,-0.78662109375,0.50537109375,0.9459284517518967,-10.068893432617188,31.980514526367188,-61.28120422363281,69.85357482210324
1785248775.533273,-0.15673828125,-0.78125,0.509765625,0.9459278216337886,-7.8125,34.66796875,-65.43159484863281,74.45936353432393
1785248775.543968,-0.16259765625,-0.78759765625,0.4824218451976776,0.9378053650264635,-5.1250457763671875,36.25297546386719,-69.64302062988281,78.68096749943977
1785248775.554663,-0.1733398288488388,-0.78955078125,0.4760741889476776,0.9381277982343446,-3.3550262451171875,36.55815124511719,-72.75581359863281,81.49333123615264
1785248775.565358,-0.1953125,-0.7822265625,0.4594726264476776,0.9279765418325743,-1.46484375,35.888671875,-74.70893859863281,82.89492169426073
1785248775.575967,-0.21142578125,-0.81201171875,0.4199218451976776,0.9382953950855372,0.4291534423828125,33.99467468261719,-76.96723937988281,84.14141677684222
1785248775.586577,-0.20556640625,-0.81640625,0.39892578125,0.9316214313569249,0.732421875,33.203125,-77.45552062988281,84.27539158980399
1785248775.597187,-0.201171875,-0.828125,0.3969726264476776,0.940132121068514,0.0629425048828125,32.77397155761719,-77.21138000488281,83.87928454437865
1785248775.605188,-0.1767578125,-0.8154296875,0.3935546875,0.9225259842353252,0.0,33.14208984375,-77.39448547363281,84.19206910950436
1785248775.61319,-0.1840820163488388,-0.81640625,0.3945312201976776,0.9252352335988859,-0.732421875,33.69140625,-77.45552062988281,84.4689586354166
1785248775.621192,-0.15380859375,-0.82373046875,0.3906249701976776,0.924541419299527,-1.5239715576171875,34.85298156738281,-77.27241516113281,84.78253922995714
1785248775.629194,-0.14794921875,-0.82568359375,0.4013671576976776,0.9299128795725774,-2.5615692138671875,36.25297546386719,-77.45552062988281,85.55815298887296
1785248775.63987,-0.14404296875,-0.8349609375,0.3666991889476776,0.92324235126649,-3.41796875,37.109375,-77.45552062988281,85.95432449454073
1785248775.650546,-0.13134765625,-0.8447265625,0.3720702826976776,0.9323365634051709,-5.3081512451171875,38.33198547363281,-77.27241516113281,86.42073665982201
1785248775.661222,-0.12353515625,-0.845703125,0.3701171875,0.9313761017695202,-7.381439208984375,38.9404296875,-76.90620422363281,86.51824638265722
1785248775.669271,-0.1220703050494194,-0.845703125,0.4116210639476776,0.9484444292076589,-9.397506713867188,39.61372375488281,-76.72309875488281,86.85616918052999
1785248775.67732,-0.09130859375,-0.87158203125,0.4135741889476776,0.9690387537421854,-10.251998901367188,41.13578796386719,-76.05171203613281,87.06962407469521
1785248775.685369,-0.0947265625,-0.87451171875,0.4218749701976776,0.9755625855645741,-11.5966796875,43.3349609375,-75.38032531738281,87.71884212746764
1785248775.693418,-0.1015624925494194,-0.88623046875,0.4458007514476776,0.9972249964902653,-12.39013671875,45.166015625,-74.52583312988281,88.02036275232112
1785248775.704023,-0.1040038987994194,-0.8857421875,0.4643554389476776,1.0054760103369227,-13.24462890625,46.9970703125,-73.85444641113281,88.53600435708194
1785248775.714628,-0.1040038987994194,-0.9150390625,0.4609374701976776,1.0298430211923533,-14.097213745117188,48.52104187011719,-72.99995422363281,88.78072007023637
1785248775.725233,-0.1162109300494194,-0.91943359375,0.4541015326976776,1.032022923959236,-14.036178588867188,50.16899108886719,-71.47407531738281,88.44481566902788
