timestamp,accel_x,accel_y,accel_z,accel_rms,gyro_x,gyro_y,gyro_z,gyro_rms
1782414358.382075,-0.0312499962747097,-0.10107421875,0.9819335341453552,0.9876163351435008,-7.9593658447265625,10.427474975585938,5.7392120361328125,14.318599575809168
1782414358.392737,0.0019531287252902985,-0.12744140625,1.013671875,1.0216534622389388,-8.386611938476562,11.404037475585938,6.2885284423828125,15.48976825268292
1782414358.403399,-0.0014648400247097015,-0.14501953125,1.044921875,1.0549381664599036,-4.909515380859375,10.913848876953125,6.8988800048828125,13.81339870942838
1782414358.411387,0.0278320349752903,-0.14306640625,1.0244140625,1.0347302982980202,-1.735687255859375,11.829376220703125,5.9833526611328125,13.369639527248829
1782414358.419377,0.0375976599752903,-0.1650390625,1.03515625,1.0489041605888305,-0.820159912109375,12.195587158203125,3.1147003173828125,12.613737213128582
1782414358.427367,0.015625,-0.14111328125,0.9951171278953552,1.0051941091156684,3.6983489990234375,12.987136840820312,1.8329620361328125,13.62729828200271
1782414358.435357,0.009765625,-0.14794921875,0.9692382216453552,0.980513676120138,5.1021575927734375,14.390945434570312,-0.1201629638671875,15.269111360526555
1782414358.446037,0.0239257849752903,-0.146484375,0.9804686903953552,0.9916395353914684,2.964019775390625,15.796661376953125,-2.6836395263671875,16.294841054594844
1782414358.456717,0.0390625,-0.1162109300494194,0.9902343153953552,0.9977949982615211,0.8907318115234375,15.245437622070312,-5.7392120361328125,16.314267566893356
1782414358.467397,0.03076171875,-0.103515625,0.9965819716453552,1.0024157790897639,0.2803802490234375,12.437820434570312,-5.7964324951171875,13.725036244655522
1782414358.478041,0.0400390662252903,-0.0771484375,0.9877929091453552,0.9916097214079381,-2.407073974609375,5.970001220703125,-2.0122528076171875,6.744188687766812
1782414358.488687,0.0170898474752903,-0.072265625,0.9858397841453552,0.9886326230947114,-4.238128662109375,3.833770751953125,0.1850128173828125,5.717845964847266
1782414358.499333,0.0239257849752903,-0.07861328125,1.0009765625,1.0043438504067677,-5.7010650634765625,2.7332305908203125,1.5888214111328125,6.518975824242872
1782414358.507369,0.0346679650247097,-0.126953125,1.02978515625,1.0381601185650782,-6.069183349609375,0.904083251953125,0.8563995361328125,6.195625329466454
1782414358.515405,0.0576171912252903,-0.12939453125,1.04150390625,1.0510913719444697,-3.932952880859375,-0.988006591796875,-0.7305145263671875,4.120427994969408
1782414358.523441,0.07177734375,-0.1337890625,1.03662109375,1.0476806728807595,-0.99945068359375,-1.720428466796875,-2.4394989013671875,3.148004235713919
1782414358.531477,0.06640625,-0.1279296875,1.00439453125,1.0146842707895976,2.2335052490234375,-0.8068084716796875,-4.1484832763671875,4.78010450740228
1782414358.542148,0.06689453125,-0.119140625,0.9687499403953552,0.9783382921324055,4.5528411865234375,-0.1964569091796875,-5.9223175048828125,7.472670393875938
1782414358.552819,0.0624999962747097,-0.10205078125,0.9501952528953552,0.9577012217351203,5.100250244140625,0.904083251953125,-7.1392059326171875,8.820327682554378
1782414358.56349,0.0517578162252903,-0.10107421875,0.9306640028953552,0.9375661872750849,3.452301025390625,2.124786376953125,-7.5054168701171875,8.530204095555886
1782414358.574116,0.05078125,-0.0888671875,0.9389647841453552,0.9445268541607783,-1.0623931884765625,4.7473907470703125,-7.3871612548828125,8.845142712129185
1782414358.584743,0.0590820275247097,-0.08740234375,0.9355468153953552,0.9414763403643315,-2.4662017822265625,6.5174102783203125,-7.5702667236328125,10.289204353765893
1782414358.59537,0.03857421875,-0.08984375,0.9448241591453552,0.949869760267671,-4.238128662109375,8.594512939453125,-6.5937042236328125,11.63203862664552
1782414358.606065,0.0180664099752903,-0.08203125,0.9721679091453552,0.9757899183318146,-6.9828033447265625,9.813308715820312,-5.0640106201171875,13.065403708411733
1782414358.61676,0.42578125,-0.0927734375,0.8525390028953552,0.9574546125090919,-17.848968505859375,10.913848876953125,6.2885284423828125,21.845900393501488
1782414358.627455,0.11474609375,-0.16650390625,1.16015625,1.1776471208479453,-17.236709594726562,-0.9899139404296875,-6.5288543701171875,18.458332174077757
1782414358.635432,0.0283203162252903,-0.1279296875,1.0869140625,1.0947831860762212,-10.217666625976562,-10.385513305664062,-10.011672973632812,17.677477015476224
1782414358.64341,0.0732421875,-0.15869140625,1.1591796875,1.1722819321135958,-4.9686431884765625,-11.426925659179688,-6.0405731201171875,13.847402961360515
1782414358.651388,-0.15185546875,0.0341796800494194,1.0703125,1.081571625725182,0.46539306640625,-10.936737060546875,-5.7964324951171875,12.386582979508471
1782414358.659366,0.0063476599752902985,0.0532226525247097,1.037109375,1.0384935239286852,2.780914306640625,-8.922576904296875,-3.0498504638671875,9.83094353792765
1782414358.670037,0.0498046875,0.0781249925494194,1.013671875,1.0178971910383854,-3.0765533447265625,-7.3986053466796875,8.665084838867188,11.802043756215761
1782414358.680708,-0.15576171875,-0.0498046875,1.0263671875,1.039313149874275,3.3931732177734375,-8.737564086914062,10.618209838867188,14.163510540856786
1782414358.691379,0.0366210974752903,-0.0537109337747097,0.9936522841453552,0.9957764964963411,1.2569427490234375,-6.1779022216796875,11.659622192382812,13.254930049006791
1782414358.702053,0.07177734375,-0.12109375,0.9902343153953552,1.0001898233592341,1.316070556640625,-5.687713623046875,10.072708129882812,11.642232476533728
1782414358.712727,0.06494140625,-0.1108398362994194,0.9374999403953552,0.9462605316707995,0.522613525390625,-3.673553466796875,6.9599151611328125,7.887238998566161
1782414358.723401,0.02490234375,-0.0830078125,0.9653319716453552,0.9692142379995184,-1.125335693359375,-1.293182373046875,3.7212371826171875,4.097109620452017
1782414358.731403,0.11328125,-0.13916015625,1.00927734375,1.0251043592220952,-0.2079010009765625,1.3942718505859375,-3.9043426513671875,4.151037022098015
1782414358.739407,0.0859375,-0.10546875,0.9946288466453552,1.003890160182817,1.194000244140625,3.284454345703125,-6.2274932861328125,7.141074818320088
1782414358.747411,-0.00048827752470970154,0.011718746274709702,0.9975585341453552,0.9976274838212017,1.62506103515625,5.298614501953125,-4.1484832763671875,6.922864472354583
1782414358.755415,-0.0327148400247097,0.0463867150247097,1.04931640625,1.0508505643116157,2.5386810302734375,6.8836212158203125,1.4629364013671875,7.481264955260366
1782414358.76613,0.0205078125,0.0224609375,1.0966796875,1.0971013631666,5.588531494140625,8.838653564453125,1.2798309326171875,10.53524789976512
1782414358.776845,0.06884765625,-0.05419921875,1.0634765625,1.0670801066794586,8.579254150390625,10.181427001953125,1.7108917236328125,13.423569125351507
1782414358.78756,0.060546875,-0.109375,1.04296875,1.0504344949466522,11.325836181640625,9.204864501953125,2.4394989013671875,14.7971365676758
1782414358.795506,0.0595703125,-0.1206054612994194,0.9926757216453552,1.001748165843452,13.095855712890625,7.862091064453125,2.9926300048828125,15.565016771745817
1782414358.803451,0.06787109375,-0.1005859375,0.9648436903953552,0.972444015398986,13.462066650390625,7.617950439453125,2.3212432861328125,15.641246043424424
1782414358.811396,0.0634765625,-0.0830078125,0.9580077528953552,0.9636900048928906,12.973785400390625,8.106231689453125,1.9512176513671875,15.421976207396051
1782414358.819341,0.0498046912252903,-0.072265625,0.9697265028953552,0.9736900524511599,10.961532592773438,7.6770782470703125,2.0160675048828125,13.533560336375604
1782414358.830094,0.019042976200580597,-0.0859375,0.9711913466453552,0.9751720466910669,8.64410400390625,5.481719970703125,2.0160675048828125,10.432368669281102
1782414358.840847,0.0517578125,-0.095703125,0.9731444716453552,0.9792079053926538,6.1397552490234375,3.2253265380859375,0.6732940673828125,6.967973212948308
1782414358.8516,0.0581054650247097,-0.08740234375,0.9692382216453552,0.9749041722430886,4.489898681640625,0.537872314453125,-0.7305145263671875,4.580627497547346
1782414358.862192,0.0615234375,-0.1005859375,0.9682616591453552,0.9754144271823574,1.7452239990234375,0.2918243408203125,-2.0122528076171875,2.6795763871227525
1782414358.872784,0.0693359375,-0.09033203125,0.9921874403953552,0.9987007885132771,1.377105712890625,1.697540283203125,-2.0732879638671875,3.012737316576055
1782414358.883376,0.0341796875,-0.09375,1.02734375,1.032178518572083,3.76129150390625,3.223419189453125,-2.2563934326171875,5.443257882100568
1782414358.894057,0.0478515662252903,-0.08544921875,1.04736328125,1.0519321196189255,6.50787353515625,4.322052001953125,-1.7681121826171875,8.009917112398444
1782414358.904738,0.0429687537252903,-0.09326171875,1.03369140625,1.038779083990437,9.555816650390625,4.199981689453125,-1.5239715576171875,10.548742453773833
1782414358.915419,0.0434570275247097,-0.0869140625,0.9858397841453552,0.9906173062819456,11.693954467773438,4.0760040283203125,-1.3446807861328125,12.45674702118641
1782414358.923448,0.0419921875,-0.08984375,0.9790038466453552,0.9840141131973158,9.860992431640625,3.040313720703125,-2.1381378173828125,10.538230998763119
1782414358.931476,0.07177734375,-0.09375,0.9218749403953552,0.9294054310712551,6.4449310302734375,1.2683868408203125,-3.5381317138671875,7.46085230973113
1782414358.939504,0.0288085974752903,-0.0517578162252903,0.9497069716453552,0.9515524887365362,4.306793212890625,-0.133514404296875,-4.0874481201171875,5.939151960457404
1782414358.947532,0.0278320349752903,-0.06298828125,0.9555663466453552,0.9580444606524512,0.7686614990234375,-0.8068084716796875,-3.5381317138671875,3.7094684841265106
1782414358.958158,0.04345703125,-0.1108398362994194,0.9692382216453552,0.9765227663368613,-1.3675689697265625,-1.1119842529296875,-2.1381378173828125,2.770990290824763
1782414358.968784,0.0034179724752902985,-0.0234375037252903,0.9687499403953552,0.9690394450860703,-3.0765533447265625,-1.8444061279296875,-1.0967254638671875,3.7509760317532663
1782414358.97941,0.0322265625,-0.04638671875,0.9658202528953552,0.9674704336101471,-3.6258697509765625,-1.8444061279296875,0.0629425048828125,4.068504292084788
1782414358.987423,0.0356445349752903,-0.06298828125,0.9956054091453552,0.9982325316117102,-3.6869049072265625,-1.2950897216796875,0.9746551513671875,4.027465436998594
1782414358.995435,0.05224609375,-0.0654296875,0.9946288466453552,0.9981469034653923,-1.9168853759765625,-0.1964569091796875,0.7343292236328125,2.062106755354439
1782414359.003447,0.0454101599752903,-0.07275390625,0.9580077528953552,0.9618388992504011,-0.087738037109375,1.209259033203125,1.5277862548828125,1.9504194967103905
1782414359.011459,0.05322265625,-0.12841796875,0.9663085341453552,0.9762561185459104,2.11334228515625,2.185821533203125,0.7343292236328125,3.127822053430321
1782414359.022108,0.03955078125,-0.080078125,0.9150390028953552,0.9193873760394619,1.987457275390625,3.162384033203125,0.3032684326171875,3.747349855188767
1782414359.032757,0.014160163700580597,-0.03662109375,0.9560546278953552,0.956860526024352,1.6841888427734375,1.6345977783203125,-2.1953582763671875,3.213720572269179
1782414359.043406,0.02001953125,-0.05224609375,0.9311522841453552,0.9328317169847495,-0.2689361572265625,-0.0133514404296875,-2.9926300048828125,3.004719498347598
1782414359.0541,0.0234375037252903,-0.09619140625,0.9428710341453552,0.948054792850897,-4.6634674072265625,-0.6847381591796875,-5.4912567138671875,7.236759972701367
1782414359.064794,0.023437507450580597,-0.03125,0.9506835341453552,0.9514857126360852,-6.43157958984375,-0.255584716796875,-6.1626434326171875,8.911156695151005
1782414359.075488,-0.00830078125,0.01708984375,0.9741210341453552,0.9743062941873957,-7.4710845947265625,0.6580352783203125,-0.8563995361328125,7.548743975958064
1782414359.086139,0.009765625,-0.07373046875,1.021484375,1.0241883995744514,-6.6165924072265625,2.4280548095703125,2.5653839111328125,7.500395979756322
1782414359.096788,0.05078125,-0.07861328125,1.02587890625,1.0301389778224832,-4.6024322509765625,2.2449493408203125,2.9277801513671875,5.898650420428254
1782414359.107437,0.07861328125,-0.0961913987994194,1.041015625,1.048401814518661,-1.6727447509765625,2.3059844970703125,2.4394989013671875,3.7505725419487597
1782414359.11545,0.0288085974752903,-0.0634765625,1.0322265625,1.0345776363356576,3.8814544677734375,3.7136077880859375,1.0395050048828125,5.471484464412498
1782414359.123464,0.0312500037252903,-0.078125,1.0166015625,1.0200778476348127,6.2007904052734375,2.6111602783203125,0.6084442138671875,6.7556024165574895
1782414359.131478,0.0278320349752903,-0.0771484375,0.9560546278953552,0.9595660243566794,6.381988525390625,1.087188720703125,0.2460479736328125,6.478602971163653
1782414359.139492,0.0385742150247097,-0.10791015625,0.9462890028953552,0.9532027323121549,4.489898681640625,0.415802001953125,-1.7681121826171875,4.843377144776748
1782414359.150128,0.0209960974752903,-0.07275390625,0.9184569716453552,0.9215732069389727,1.8672943115234375,-0.8678436279296875,-3.2329559326171875,3.833007262011203
1782414359.160764,0.03125,-0.0791015625,0.9257811903953552,0.9296797471063798,-0.0858306884765625,-1.0471343994140625,-4.7626495361328125,4.877159825302704
1782414359.1714,0.0556640625,-0.08984375,0.9399413466453552,0.9458647484717624,-2.5272369384765625,-1.4781951904296875,-5.6171417236328125,6.334372005778193
1782414359.182061,0.007812503725290298,-0.0581054650247097,0.9853515028953552,0.987094151810419,-3.1375885009765625,-1.9664764404296875,-2.9277801513671875,4.720528339811661
1782414359.192721,0.0185546912252903,-0.06494140625,0.9960936903953552,0.9983808405902185,-3.6869049072265625,-2.3326873779296875,-1.2187957763671875,4.529918469749128
1782414359.203381,0.02001953125,-0.06787109375,0.9975585341453552,1.0000651459002663,-3.3206939697265625,-2.6378631591796875,0.5512237548828125,4.276584865881058
1782414359.211372,0.04443359375,-0.0888671875,1.00732421875,1.0122123309602575,-0.99945068359375,-2.086639404296875,-0.3681182861328125,2.342749825543861
1782414359.219364,0.0615234412252903,-0.09814453125,0.9848632216453552,0.9916516768423034,-0.5741119384765625,-1.6613006591796875,-1.2187957763671875,2.1389220515443466
1782414359.227356,0.03955078125,-0.076171875,0.9897460341453552,0.9934604325009424,-0.0247955322265625,-2.3326873779296875,-0.8563995361328125,2.4850483671468804
1782414359.235348,-0.0063476525247097015,-0.008789066225290298,0.9873046278953552,0.987364151993211,0.522613525390625,-4.589080810546875,0.7915496826171875,4.686079222836736
1782414359.246024,0.0400390625,-0.05224609375,0.9799804091453552,0.9821885680187438,-0.5130767822265625,-5.0792694091796875,1.4629364013671875,5.31059398089646
1782414359.2567,0.03369140625,-0.03271484375,0.9545897841453552,0.9557442272132044,-2.6493072509765625,-4.1599273681640625,1.4057159423828125,5.128339100444371
1782414359.267376,0.04248046875,-0.09130859375,0.9833983778953552,0.9885414605190003,-4.11224365234375,-3.734588623046875,1.4629364013671875,5.744378378386803
1782414359.275374,0.03515625,-0.08349609375,0.9926757216453552,0.9968012078291729,-4.11224365234375,-4.222869873046875,1.6498565673828125,6.120882658070206
1782414359.283375,0.03515625,-0.0615234375,0.9843749403953552,0.9869220427947883,-3.5648345947265625,-4.4689178466796875,0.6732940673828125,5.756092190827419
1782414359.291376,0.0302734375,-0.07568359375,0.9897460341453552,0.993097024206316,-3.1986236572265625,-4.1599273681640625,0.5512237548828125,5.276365855104905
1782414359.299377,0.0400390662252903,-0.0673828125,0.9956054091453552,0.9986859871671844,-2.590179443359375,-3.246307373046875,0.2460479736328125,4.160298152107466
1782414359.310051,0.05615234375,-0.10009765625,0.9868163466453552,0.9934682322559928,-2.223968505859375,-2.391815185546875,-0.7305145263671875,3.3467099172322197
1782414359.320725,0.06591796875,-0.1201171875,0.9794921278953552,0.9890288903495221,-2.285003662109375,-1.537322998046875,-1.9512176513671875,3.375182077930607
1782414359.331399,0.0551757849752903,-0.09765625,1.0048828125,1.0111234233611701,-1.430511474609375,0.049591064453125,-4.1484832763671875,4.388477622930407
1782414359.342118,0.0483398400247097,-0.078125,0.9931640028953552,0.9974041269243574,-2.46429443359375,2.185821533203125,-3.7860870361328125,5.01846768203488
1782414359.35284,0.0439453125,-0.0576171875,1.025390625,1.0279478900333534,-1.247406005859375,2.002716064453125,-2.5615692138671875,3.4826039418378905
1782414359.363562,0.01953125,-0.03369140625,1.0283203125,1.0290574549954743,-0.3910064697265625,2.3059844970703125,-2.1381378173828125,3.1689247208192226
1782414359.374189,0.0400390625,-0.07568359375,1.0302734375,1.0338251732797283,-0.2689361572265625,2.1228790283203125,-0.6732940673828125,2.243271478604156
1782414359.384815,0.0327148474752903,-0.06396484375,1.0029296875,1.0054997367230591,0.7686614990234375,1.5773773193359375,0.0,1.7546964716543958
1782414359.395441,0.0224609412252903,-0.07373046875,0.9960936903953552,0.9990712266641746,1.8672943115234375,2.6111602783203125,0.1850128173828125,3.215458876664655
1782414359.403428,0.023925788700580597,-0.076171875,0.9785155653953552,0.9817674417228105,2.780914306640625,2.857208251953125,0.3032684326171875,3.998636657428332
1782414359.411414,0.0175781287252903,-0.0849609375,0.9829100966453552,0.986731781994349,2.2335052490234375,2.7332305908203125,0.1850128173828125,3.534589778546745
1782414359.4194,0.0185546912252903,-0.07861328125,0.9755858778953552,0.9789239652313189,0.95367431640625,2.674102783203125,0.1201629638671875,2.8416121365860216
1782414359.427386,0.02099609375,-0.08349609375,0.9638671278953552,0.9677046418517938,-0.331878662109375,3.101348876953125,-0.3032684326171875,3.1337645165461945
1782414359.43805,0.0366210974752903,-0.1259765625,0.9707030653953552,0.9795282743481938,-0.942230224609375,3.955841064453125,-2.5615692138671875,4.806049641942249
1782414359.448714,0.0478515662252903,-0.0927734375,0.9863280653953552,0.9918365468575575,-0.8792877197265625,4.8694610595703125,-4.3315887451171875,6.576280024570081
1782414359.459378,0.0205078125,-0.08056640625,0.9985350966453552,1.0019899477650083,-0.5741119384765625,4.5642852783203125,-5.0029754638671875,6.7964746826461395
1782414359.467396,0.05615234375,-0.0712890625,0.9921874403953552,0.9963288277566968,0.2193450927734375,4.2591094970703125,-4.6977996826171875,6.344875714760414
1782414359.475415,0.0166015662252903,-0.0966796875,1.001953125,1.0067435813917545,1.010894775390625,3.711700439453125,-4.7626495361328125,6.1222103037362805
1782414359.483434,0.04150390625,-0.08154296875,1.001953125,1.006122206634879,1.9283294677734375,3.5305023193359375,-4.4574737548828125,6.004329557793185
1782414359.491453,0.0361328125,-0.07421875,1.013671875,1.0170273708985114,1.4400482177734375,3.2253265380859375,-3.9043426513671875,5.265012980618265
1782414359.502124,0.0229492224752903,-0.0551757775247097,0.9936522841453552,0.9954475852725538,2.048492431640625,3.162384033203125,-2.1381378173828125,4.332277385171628
1782414359.512795,0.01953125,-0.07275390625,0.9653319716453552,0.9682667071018735,2.11334228515625,2.185821533203125,-0.9746551513671875,3.192801912635749
1782414359.523466,0.03955078125,-0.04541015625,0.9736327528953552,0.9754932516930718,2.5386810302734375,2.0008087158203125,-0.7915496826171875,3.327865350464784
1782414359.534111,0.02587890625,-0.05615234375,0.9741210341453552,0.9760812428592872,1.7452239990234375,1.1463165283203125,-2.2563934326171875,3.0742738512737717
1782414359.544756,0.03173828125,-0.07080078125,0.9428710341453552,0.9460580617238279,0.888824462890625,0.232696533203125,-3.2978057861328125,3.4234017592810546
1782414359.555401,0.0166015662252903,-0.06396484375,0.9599608778953552,0.9622328202294472,0.400543212890625,-0.621795654296875,-3.8433074951171875,3.91383152462126
1782414359.563448,0.0229492224752903,-0.06982421875,0.9414061903953552,0.9442709905800156,-0.51116943359375,-2.086639404296875,-2.3784637451171875,3.205065986877938
1782414359.571498,0.0185546912252903,-0.014648433774709702,0.9438475966453552,0.9441436007683,-2.0389556884765625,-1.6002655029296875,-1.1615753173828125,2.840325192190275
1782414359.579548,0.01953125,-0.0615234375,0.9726561903953552,0.9747957056751863,-3.1986236572265625,-2.3326873779296875,-0.0591278076171875,3.959307995263254
1782414359.587598,0.05029296875,-0.09423828125,0.9790038466453552,0.9848140779380872,-3.749847412109375,-2.941131591796875,-0.7915496826171875,4.8309586579084245
1782414359.598204,0.02099609375,-0.04638671875,0.9990233778953552,1.0003200853779735,-3.9920806884765625,-3.1833648681640625,-1.2187957763671875,5.249379320611076
1782414359.60881,0.0283203162252903,-0.0605468712747097,1.00537109375,1.0075906907471546,-3.261566162109375,-3.246307373046875,-0.6084442138671875,4.641823968172839
1782414359.619416,0.0327148474752903,-0.1142578125,1.02294921875,1.029830186537495,-2.7713775634765625,-2.8209686279296875,-0.4253387451171875,3.977349701396981
1782414359.630147,0.03076171875,-0.0947265625,1.0087890625,1.0136936310360982,-0.453948974609375,-1.964569091796875,-2.0122528076171875,2.848642264264812
1782414359.640877,0.014160159975290298,-0.08349609375,1.00537109375,1.0089316844812168,1.0738372802734375,-2.0885467529296875,-2.8667449951171875,3.7058576484678465
1782414359.651607,0.014160159975290298,-0.0585937462747097,0.9931640028953552,0.9949916953825072,1.2569427490234375,-1.5354156494140625,-1.9512176513671875,2.782922315443801
1782414359.662204,0.0517578162252903,-0.1015625,0.9814452528953552,0.9880428115104571,0.705718994140625,-0.621795654296875,-1.2798309326171875,1.5882809419234099
1782414359.6728,0.04833984375,-0.07958984375,0.9721679091453552,0.9766174928261194,-0.3910064697265625,0.0476837158203125,-1.2798309326171875,1.339076925425213
1782414359.683396,0.0390625,-0.0859375,0.9829100966453552,0.9874327272781076,-1.1844635009765625,0.6580352783203125,-1.0356903076171875,1.7054672749577844
1782414359.691399,0.04296875,-0.07080078125,1.00830078125,1.011696362339775,0.156402587890625,0.659942626953125,-0.5474090576171875,0.8715748486102691
1782414359.699403,0.0473632849752903,-0.07958984375,1.009765625,1.0140041624290508,1.2569427490234375,1.0242462158203125,-1.0356903076171875,1.9239646042058598
1782414359.707407,0.0405273474752903,-0.0771484375,0.9999999403953552,1.0037899322531525,1.804351806640625,0.965118408203125,-1.4019012451171875,2.4804165144267487
1782414359.715411,0.0166015625,-0.08056640625,0.9873046278953552,0.9907254846611483,2.4166107177734375,0.6580352783203125,-1.7070770263671875,3.031027839318237
1782414359.726087,0.0307617224752903,-0.0732421875,0.9799804091453552,0.9831949470517685,1.865386962890625,0.049591064453125,-2.3212432861328125,2.9783045828814356
1782414359.736763,0.0283203162252903,-0.08154296875,0.9731444716453552,0.9769654337578078,2.0503997802734375,-0.6237030029296875,-2.7446746826171875,3.4822957669055956
1782414359.747439,0.02001953125,-0.06640625,0.9702147841453552,0.9726907520094711,0.8296966552734375,-0.3795623779296875,-2.9926300048828125,3.1286256542827986
1782414359.758089,0.0205078125,-0.060546875,0.9785155653953552,0.9806014512363279,-0.69427490234375,-0.255584716796875,-2.0122528076171875,2.1439455565027337
1782414359.768738,0.04736328125,-0.08056640625,0.9956054091453552,0.9999821783143422,-1.125335693359375,-0.011444091796875,-1.4019012451171875,1.797731484690303
1782414359.779387,0.03271484375,-0.0908203125,0.9814452528953552,0.9861812077884127,-1.4896392822265625,-0.0133514404296875,-1.3446807861328125,2.0068308022124772
1782414359.787413,0.0615234375,-0.07568359375,0.9804686903953552,0.9853080698798292,-1.308441162109375,-0.804901123046875,-1.5239715576171875,2.163879248250791
1782414359.795439,0.0463867224752903,-0.07763671875,0.9833983778953552,0.9875482559184042,-1.308441162109375,-1.049041748046875,-0.9136199951171875,1.9097665719467667
1782414359.803465,0.0322265625,-0.0712890625,0.9897460341453552,0.9928332658957162,-0.820159912109375,-0.988006591796875,-0.7305145263671875,1.4773187807981087
1782414359.811491,0.02490234375,-0.0966796800494194,0.9892577528953552,0.9942826504180131,-0.759124755859375,-0.743865966796875,-1.1615753173828125,1.5744409132991262
1782414359.822192,0.0278320349752903,-0.07861328125,0.9760741591453552,0.9796302538769766,-0.8792877197265625,-0.4405975341796875,-1.2187957763671875,1.566121395574958
1782414359.832893,0.0283203162252903,-0.0810546875,0.9853515028953552,0.9890851767845671,-1.18255615234375,-0.255584716796875,-1.9512176513671875,2.2958686643432102
1782414359.843594,0.03173828125,-0.05712890625,0.9726561903953552,0.9748492679078293,-1.430511474609375,-1.415252685546875,-1.4629364013671875,2.4878677933889306
1782414359.851558,0.0263671875,-0.07666015625,0.9951171278953552,0.9984137951589187,-1.8558502197265625,-1.1119842529296875,-1.9512176513671875,2.9134068270376536
1782414359.859521,0.0185546912252903,-0.08740234375,1.0048828125,1.0088473190316607,-2.407073974609375,-0.560760498046875,-1.5239715576171875,2.9036092650075545
1782414359.867484,0.0473632849752903,-0.0869140625,0.9902343153953552,0.9951689979146318,-2.407073974609375,0.537872314453125,-1.0967254638671875,2.6992811059598134
1782414359.875447,0.04443359375,-0.09814453125,1.01220703125,1.0179242444208512,-1.8558502197265625,1.0242462158203125,-1.3446807861328125,2.5102642819583996
1782414359.886108,0.03662109375,-0.08642578125,0.9926757216453552,0.9971036097197953,-0.6961822509765625,1.7566680908203125,-1.2798309326171875,2.2822181587142047
1782414359.896769,0.0219726599752903,-0.078125,0.9853515028953552,0.9886879677984985,0.217437744140625,1.087188720703125,-1.2798309326171875,1.6932884287931698
1782414359.90743,0.0258789099752903,-0.08203125,0.9770507216453552,0.9808297286612907,0.827789306640625,0.598907470703125,-0.8563995361328125,1.3331712043623947
1782414359.918106,0.0410156287252903,-0.0732421875,0.9731444716453552,0.9767583439743085,0.339508056640625,1.575469970703125,-1.4019012451171875,2.1360473894959164
1782414359.928782,0.0419921912252903,-0.072265625,0.9731444716453552,0.9767270997440685,-0.3910064697265625,1.0242462158203125,-1.2187957763671875,1.639338133052713
1782414359.939458,0.03955078125,-0.07470703125,0.9677733778953552,0.9714580360358649,-0.8792877197265625,0.2918243408203125,-1.1615753173828125,1.4857878576398884
1782414359.950099,0.0268554724752903,-0.07861328125,0.9663085341453552,0.9698729027830955,-1.4286041259765625,-0.5016326904296875,-1.4019012451171875,2.0634612198745352
1782414359.96074,0.02587890625,-0.0791015625,0.9628905653953552,0.9664807374728296,-2.0999908447265625,-1.1730194091796875,-1.5239715576171875,2.8475296997000403
1782414359.971381,0.021484375,-0.060546875,0.9721679091453552,0.9742884306063877,-2.712249755859375,-1.415252685546875,-2.1381378173828125,3.7324083683634375
1782414359.979387,0.0190429724752903,-0.080078125,0.9843749403953552,0.9878102875464344,-3.9920806884765625,-2.1495819091796875,-1.8901824951171875,4.912250041725027
1782414359.987392,0.0288085974752903,-0.0703125,0.9780272841453552,0.9809745926768352,-4.543304443359375,-2.269744873046875,-2.2563934326171875,5.5573976262752325
1782414359.995397,0.0288085974752903,-0.0732421875,0.9814452528953552,0.9845959261286359,-4.6024322509765625,-1.8444061279296875,-2.0122528076171875,5.351016534392042
1782414360.003402,0.011718753725290298,-0.0830078125,1.0048828125,1.008373488833785,-4.4803619384765625,-1.3561248779296875,-2.0732879638671875,5.119691471700792
1782414360.011418,0.0229492224752903,-0.08642578125,1.0107421875,1.0146900275794468,-3.3206939697265625,-0.1964569091796875,-1.9512176513671875,3.8565339465314805
1782414360.019434,0.060546875,-0.09521484375,1.00341796875,1.0097422495632133,-2.0389556884765625,-0.3795623779296875,-1.2798309326171875,2.437083321184229
1782414360.02745,0.0439453125,-0.0961913987994194,1.00830078125,1.0138315644933689,-0.8182525634765625,-0.8678436279296875,-0.7915496826171875,1.4315169297725745
1782414360.035466,0.0356445349752903,-0.1015625,1.00634765625,1.0120874860997555,-0.02288818359375,-0.926971435546875,-0.8563995361328125,1.262228218966979
1782414360.046242,0.041015625,-0.12939453125,0.9892577528953552,0.9985269790421867,0.5855560302734375,-0.8678436279296875,-2.3784637451171875,2.5986762426213517
1782414360.057018,0.06591796875,-0.1630859375,0.9750975966453552,0.9908367799985666,1.010894775390625,0.659942626953125,-6.4105987548828125,6.523282066098853
1782414360.067794,0.0439453125,-0.1259765625,0.9770507216453552,0.9861183486061642,0.64849853515625,0.843048095703125,-9.523391723632812,9.582602483851995
1782414360.078339,0.0537109337747097,-0.13720703125,0.9663085341453552,0.9774777833759368,1.499176025390625,1.697540283203125,-11.533737182617188,11.75398932983562
1782414360.088885,0.05078125,-0.1689453125,1.00146484375,1.0168840087416544,-0.270843505859375,2.185821533203125,-15.501022338867188,15.6567195008961
1782414360.099431,0.13671875,-0.18994140625,0.9609374403953552,0.9890250344472413,-1.4896392822265625,2.7942657470703125,-14.890670776367188,15.223633680122452
1782414360.110101,-0.0014648400247097015,0.0073242150247097015,0.9833983778953552,0.9834267433465708,0.6465911865234375,2.7942657470703125,-15.748977661132812,16.00800732754082
1782414360.120772,0.11767578125,-0.13623046875,1.03466796875,1.0502114718788276,-1.1844635009765625,2.4890899658203125,-13.914108276367188,14.184531425801943
1782414360.131443,0.08984375,-0.28466796875,1.05517578125,1.0965872884466887,0.339508056640625,3.040313720703125,-15.317916870117188,15.620414542535045
1782414360.142123,0.21826171875,-0.427734375,1.1259765625,1.224098890093305,4.24957275390625,2.552032470703125,-24.351119995117188,24.850528834189053
1782414360.152803,-0.00830078125,-0.2412109375,1.12109375,1.1467793229859229,5.405426025390625,5.054473876953125,-34.97123718261719,35.7456817919541
1782414360.163483,0.25537109375,-0.4814453125,1.23779296875,1.3524553293688604,15.356063842773438,6.5784454345703125,-50.41313171386719,53.109024565309745
1782414360.174153,-0.3618163764476776,-0.31298828125,0.9047850966453552,1.023478786090411,23.412704467773438,6.8836212158203125,-76.29203796386719,80.10002514492952
1782414360.184823,-0.2197265625,-0.4873046875,1.033203125,1.1632945964962207,28.234481811523438,1.9397735595703125,-87.64839172363281,92.10423039343546
1782414360.195493,0.5078125,-0.4560546875,1.08056640625,1.2780779207321487,19.262313842773438,3.5305023193359375,-85.99662780761719,88.19819258627795
1782414360.203525,-0.1923827975988388,0.2861328125,0.8759765028953552,0.9413915024185698,18.468856811523438,0.2918243408203125,-84.16557312011719,86.16859945483763
1782414360.211555,-0.2255859375,0.1118163987994194,0.9438475966453552,0.9768521934926685,9.189605712890625,1.453399658203125,-73.73237609863281,74.31705395718465
1782414360.219585,-0.18603515625,0.0688476487994194,0.9999999403953552,1.0194846535857633,2.5997161865234375,-0.3795623779296875,-64.32914733886719,64.3827755629943
1782414360.227615,-0.18212890625,0.08642578125,0.9887694716453552,1.0091112040872052,4.1866302490234375,0.9059906005859375,-57.79838562011719,57.95689839960518
1782414360.23561,-0.19140625,0.169921875,0.9814452528953552,1.0142704671700769,8.275985717773438,2.9773712158203125,-47.78861999511719,48.591242832379784
1782414360.243605,-0.19482421875,0.166015625,0.9672850966453552,1.0005788935151003,10.839462280273438,5.8460235595703125,-34.54399108886719,36.67365886208052
1782414360.2516,-0.1796874850988388,0.14794921875,0.9238280653953552,0.9526987236487753,12.119293212890625,8.655548095703125,-21.360397338867188,26.039630475322248
1782414360.259595,-0.130859375,0.1103515625,0.8940429091453552,0.9102825752285232,11.94000244140625,11.035919189453125,-10.740280151367188,19.48611783775257
1782414360.270452,-0.0795898362994194,0.06201171875,0.9067382216453552,0.9123344769858688,9.860992431640625,14.331817626953125,-1.9512176513671875,17.50563962133703
1782414360.281309,-0.0449218712747097,0.0302734337747097,0.8940429091453552,0.8956825211560306,7.907867431640625,17.749786376953125,4.8809051513671875,20.035281850788024
1782414360.292166,0.0273437537252903,-0.0375976599752903,0.9301757216453552,0.9313367479284087,5.405426025390625,20.069122314453125,8.913040161132812,22.614831104883738
1782414360.302579,0.0498046875,-0.10986328125,0.9316405653953552,0.9394171547050684,4.123687744140625,20.801544189453125,6.8340301513671875,22.28032785635666
1782414360.312993,0.0444335900247097,-0.1220703125,0.9360350966453552,0.945006458849997,3.5152435302734375,20.006179809570312,-0.2422332763671875,20.314104573181847
1782414360.323407,0.0561523474752903,-0.1015625,0.9506835341453552,0.9577406797397396,2.0503997802734375,20.128250122070312,-6.5288543701171875,21.25973968847613
1782414360.334075,0.0673828125,-0.078125,0.9853515028953552,0.9907378782016691,1.377105712890625,18.726348876953125,-10.862350463867188,21.692469200294266
1782414360.344744,0.0625,-0.0546875,0.9965819716453552,1.0000362987735962,2.0503997802734375,17.381668090820312,-13.853073120117188,22.32115946248536
1782414360.355413,0.04443359375,0.00439453125,0.9848632216453552,0.985874850834585,2.475738525390625,16.162872314453125,-14.341354370117188,21.749532589660358
1782414360.363475,0.0224609412252903,0.0371093712747097,0.9755858778953552,0.9765497450032851,0.4024505615234375,13.902664184570312,-5.1860809326171875,14.84390357429811
1782414360.371539,-0.0229492150247097,0.0532226525247097,0.9814452528953552,0.9831551767868815,-0.637054443359375,13.111114501953125,0.7915496826171875,13.15042633328596
1782414360.379603,-0.0434570237994194,0.05615234375,0.9960936903953552,0.9986211687479688,-1.552581787109375,11.219024658203125,7.3223114013671875,13.48678125964922
1782414360.387667,-0.0336913987994194,0.0722656175494194,1.00244140625,1.0056073800431946,-2.2220611572265625,9.141921997070312,13.856887817382812,16.748899473413328
1782414360.398235,-0.008300777524709702,0.0205078087747097,1.0126953125,1.0129369521780354,-2.4051666259765625,7.9822540283203125,18.739700317382812,20.510425979405323
1782414360.408803,-0.00439453125,-0.0126953125,0.9931640028953552,0.9932548613077637,-1.7337799072265625,6.2122344970703125,20.814895629882812,21.79123058242025
1782414360.419371,-0.015624996274709702,-0.0292968712747097,0.9897460341453552,0.9903028119123616,-2.285003662109375,3.040313720703125,21.242141723632812,21.579928967979736
1782414360.427394,0.1142578125,-0.08837890625,0.9643554091453552,0.9751138569085853,-3.6869049072265625,0.9632110595703125,21.730422973632812,22.062010922696928
1782414360.435419,0.1650390625,-0.17041015625,0.9760741591453552,1.0044890629844312,-4.9686431884765625,0.2346038818359375,22.092819213867188,22.645863086497414
1782414360.443444,0.16162109375,-0.1650390625,0.9721679091453552,0.9992345638877175,-4.543304443359375,1.514434814453125,17.026901245117188,17.687580221252706
1782414360.451469,0.10498046875,-0.11328125,0.9589843153953552,0.9713415761691818,-4.848480224609375,3.345489501953125,10.194778442382812,11.77427568835468
1782414360.462115,0.07080078125,-0.076171875,0.9726561903953552,0.9781998619305932,-5.2738189697265625,3.2825469970703125,4.7016143798828125,7.790600688685303
1782414360.472761,0.10302734375,-0.1171875,0.9995116591453552,1.0116180605761897,-6.191253662109375,2.490997314453125,1.2798309326171875,6.795193650314847
1782414360.483407,0.083984375,-0.1376953125,0.9912108778953552,1.004247170166137,-5.397796630859375,1.880645751953125,-2.4394989013671875,6.214836426023445
1782414360.494098,0.08251953125,-0.072265625,1.02197265625,1.0278423535333816,-2.1610260009765625,2.0656585693359375,-6.8988800048828125,7.51874484363844
1782414360.504789,0.05126953125,-0.05029296875,0.9960936903953552,0.9986794218295083,-2.4051666259765625,1.6345977783203125,-4.7626495361328125,5.5802837741128615
1782414360.51548,-0.015136715024709702,-0.0380859412252903,0.9975585341453552,0.9984000641561405,-3.078460693359375,1.087188720703125,-2.7446746826171875,4.265224339748443
1782414360.526101,-0.0039062462747097015,-0.0532226525247097,0.9863280653953552,0.9877707031939491,-4.238128662109375,1.575469970703125,-0.4253387451171875,4.541448362943057
1782414360.536723,0.009765625,-0.095703125,1.0048828125,1.0094770539365006,-4.6024322509765625,3.0994415283203125,1.7681121826171875,5.823670758432782
1782414360.547345,-0.0278320275247097,-0.11279296875,1.00048828125,1.007210840129391,-4.848480224609375,3.467559814453125,3.4809112548828125,6.902787460121324
1782414360.555366,-0.0356445275247097,-0.09912109375,1.02392578125,1.029329650343892,-3.932952880859375,6.824493408203125,0.6732940673828125,7.905387627614528
1782414360.563388,-0.0566406212747097,-0.08935546875,1.033203125,1.0386054386934833,-3.6869049072265625,6.3381195068359375,-1.2187957763671875,7.433067322603504
1782414360.57141,-0.0566406212747097,-0.10888671875,1.0556640625,1.062775183353719,-2.4662017822265625,4.0760040283203125,-3.1147003173828125,5.69186420574538
1782414360.579432,-0.0561523400247097,-0.13671875,1.04541015625,1.0558065621516388,-0.6961822509765625,1.0890960693359375,-5.8574676513671875,5.998393723458874
1782414360.590093,-0.0449218675494194,-0.11962890625,1.00927734375,1.0173346578200089,-0.820159912109375,-1.110076904296875,-7.5702667236328125,7.695054988876095
1782414360.600754,-0.0742187425494194,-0.07958984375,0.9833983778953552,0.989401503243745,-1.796722412109375,-1.781463623046875,-7.2612762451171875,7.689470513261534
1782414360.611415,-0.0751953050494194,-0.0517578125,0.9897460341453552,0.9939468885019557,-3.1986236572265625,-1.9664764404296875,-5.1250457763671875,6.353291831892628
1782414360.622074,-0.0205078087747097,-0.099609375,1.00439453125,1.0095300749425635,-3.9920806884765625,-2.1495819091796875,-3.2978057861328125,5.606508147736089
1782414360.632735,-0.0458984337747097,-0.0947265625,1.00537109375,1.0108663729762253,-2.8324127197265625,-2.0885467529296875,-2.6836395263671875,4.425664973935811
1782414360.643396,-0.0488281212747097,-0.10693359375,1.01025390625,1.017070269938558,-1.735687255859375,-3.063201904296875,-2.0732879638671875,4.085870670708656
1782414360.654073,-0.0703125,-0.1025390625,0.9956054091453552,1.003338545912654,-0.3910064697265625,-4.4689178466796875,-2.1381378173828125,4.969481472534412
1782414360.664751,-0.0620117150247097,-0.1220703125,0.9975585341453552,1.0069109409676624,-0.0858306884765625,-2.9430389404296875,-3.5381317138671875,4.602957868223716
1782414360.675429,-0.07958984375,-0.12353515625,0.9931640028953552,1.003977198299337,-0.02288818359375,-1.720428466796875,-4.8809051513671875,5.175290627100667
1782414360.683421,-0.0585937425494194,-0.1201171875,0.9702147841453552,0.9793763795258061,0.6465911865234375,-1.8444061279296875,-5.0029754638671875,5.371189590704415
1782414360.691414,-0.0556640587747097,-0.11572265625,0.9853515028953552,0.9936839562290242,1.2569427490234375,-2.0236968994140625,-5.4912567138671875,5.9857459445429315
1782414360.699407,-0.06201171875,-0.1005859375,0.9750975966453552,0.9822312900069061,1.316070556640625,-2.086639404296875,-5.4912567138671875,6.019967276589819
1782414360.7074,-0.0434570237994194,-0.09326171875,0.9702147841453552,0.9756551585862321,1.3790130615234375,-2.5119781494140625,-5.3081512451171875,6.0322616727082625
1782414360.71812,-0.0410156212747097,-0.10791015625,0.9707030653953552,0.9775435152351987,0.827789306640625,-3.124237060546875,-4.7626495361328125,5.755773010700581
1782414360.72884,-0.0322265587747097,-0.1064453125,0.9799804091453552,0.9862711381523745,0.9517669677734375,-3.6144256591796875,-4.8198699951171875,6.0992688067105325
1782414360.73956,-0.0366210900247097,-0.10009765625,0.9780272841453552,0.9838180795015309,1.6231536865234375,-3.9196014404296875,-5.4912567138671875,6.939150066073263
1782414360.747581,-0.0317382775247097,-0.07421875,0.9790038466453552,0.9823259504147288,3.330230712890625,-4.833221435546875,-5.9223175048828125,8.33812393016266
1782414360.755601,-0.0283203125,-0.06591796875,0.9760741591453552,0.9787073019322661,4.24957275390625,-5.870819091796875,-6.1054229736328125,9.476369298751097
1782414360.763621,-0.0185546875,-0.04736328125,0.9736327528953552,0.9749606629754747,5.6514739990234375,-5.1364898681640625,-5.3691864013671875,9.335461913586085
1782414360.771641,-0.0009765587747097015,-0.0488281212747097,0.9780272841453552,0.9792458872147473,6.748199462890625,-3.917694091796875,-2.6836395263671875,8.251572219603835
1782414360.779711,-0.0336913987994194,-0.0302734375,0.9770507216453552,0.9781000480721986,7.419586181640625,-3.185272216796875,-1.0967254638671875,8.148559685305452
1782414360.787781,-0.0366210900247097,-0.0229492224752903,0.9643554091453552,0.965323327281965,7.6656341552734375,-2.9430389404296875,2.4394989013671875,8.565896339388653
1782414360.795851,-0.0395507737994194,-0.00048828125,0.9594725966453552,0.9602875433119459,6.259918212890625,-2.574920654296875,6.2885284423828125,9.23917649894524
1782414360.803921,-0.01416015625,-0.01171875,0.9926757216453552,0.9928458729685659,5.53131103515625,-0.926971435546875,9.279251098632812,10.84247106343565
1782414360.814429,0.01953125,-0.04541015625,1.0302734375,1.0314586312767364,7.236480712890625,0.904083251953125,11.171340942382812,13.341022377818675
1782414360.824937,0.044921875,-0.0556640625,1.03173828125,1.0342148440745877,8.764266967773438,1.8177032470703125,11.537551879882812,14.602449245171236
1782414360.835445,0.0522460974752903,-0.0791015625,1.04931640625,1.0535898786134736,10.96343994140625,1.575469970703125,10.129928588867188,15.00981592801717
1782414360.846146,0.068359375,-0.0751953125,1.01708984375,1.0221541417182454,12.302398681640625,-1.049041748046875,7.4481964111328125,14.419609276606282
1782414360.856848,0.0732421875,-0.0810546875,1.00390625,1.009832678806034,13.219833374023438,-4.5909881591796875,4.0302276611328125,14.56310069027994
1782414360.86755,0.0751953125,-0.02783203125,0.9780272841453552,0.9813084762286592,12.302398681640625,-6.847381591796875,0.2460479736328125,14.081767914258512
1782414360.878178,0.07275390625,-0.017578125,0.9765624403953552,0.9794265267717028,7.1163177490234375,-6.4220428466796875,-2.5615692138671875,9.922008338390365
1782414360.888807,0.0566406287252903,-0.0029296912252902985,1.00341796875,1.0050195838507068,4.673004150390625,-5.504608154296875,-1.0967254638671875,7.3034570899687195
1782414360.899436,0.0673828125,0.00244140625,1.0087890625,1.0110399480260495,3.452301025390625,-5.687713623046875,0.7915496826171875,6.700374581152724
1782414360.910093,0.0546875,-0.01416015625,1.029296875,1.0308459097100982,3.940582275390625,-6.847381591796875,2.6874542236328125,8.344892661797592
1782414360.920748,0.076171875,-0.0224609375,1.03125,1.0343032489335005,4.4918060302734375,-7.7037811279296875,3.7860870361328125,9.688086504868718
1782414360.931403,0.05517578125,-0.02978515625,1.02392578125,1.025843812613698,5.100250244140625,-7.457733154296875,3.7860870361328125,9.79616207495202
1782414360.939438,0.0498046875,-0.03955078125,1.00537109375,1.0073806665518896,5.7125091552734375,-7.8868865966796875,0.8563995361328125,9.775948097420375
1782414360.947472,0.06201171875,-0.0361328125,0.9975585341453552,1.0001370218363677,5.588531494140625,-8.861541748046875,-1.2187957763671875,10.547230421199197
1782414360.955506,0.07275390625,-0.02734375,0.9785155653953552,0.9815974344198787,4.5528411865234375,-9.168624877929688,-2.9926300048828125,10.665265086626784
1782414360.96354,0.06396484375,-0.0234375,0.9687499403953552,0.971142247386147,3.635406494140625,-8.251190185546875,-4.6367645263671875,10.138930176733739
1782414360.9742,0.0634765625,-0.00830078125,0.9760741591453552,0.9781712227966477,3.025054931640625,-6.664276123046875,-5.3691864013671875,9.076987176166014
1782414360.98486,0.048828125,-0.00244140625,0.9775390028953552,0.9787607718115486,3.1490325927734375,-6.4220428466796875,-5.0640106201171875,8.76374601158653
1782414360.99552,0.0507812537252903,0.0058593712747097015,0.9648436903953552,0.9661968820366661,3.2100677490234375,-5.3195953369140625,-3.4160614013671875,7.090282434413243
1782414361.003571,0.0429687537252903,-0.0048828087747097015,0.9760741591453552,0.9770316882115683,3.76129150390625,-4.650115966796875,-1.4629364013671875,6.157197024333536
1782414361.011623,0.0429687537252903,0.0029296837747097015,0.9677733778953552,0.9687312361056137,3.6373138427734375,-3.3092498779296875,-0.2422332763671875,4.923399608562005
1782414361.019675,0.0458984375,-0.01513671875,0.9589843153953552,0.9602013872067443,3.269195556640625,-0.988006591796875,0.7915496826171875,3.505759192107218
1782414361.027727,0.0283203162252903,-0.0361328087747097,0.9643554091453552,0.9654475518271076,2.841949462890625,1.514434814453125,1.3446807861328125,3.4897501305174763
1782414361.03828,0.0434570275247097,-0.0336914025247097,0.9750975966453552,0.9766467871389908,3.08990478515625,2.490997314453125,0.9746551513671875,4.086873115969074
1782414361.048833,0.064453125,-0.03759765625,0.9829100966453552,0.9857383259086259,3.452301025390625,2.552032470703125,-0.2422332763671875,4.299991751342767
1782414361.059386,0.056640625,-0.04638671875,0.9863280653953552,0.9890414251502949,4.917144775390625,2.185821533203125,-0.4863739013671875,5.403025827172855
1782414361.067375,0.0429687537252903,-0.0375976599752903,0.9599608778953552,0.961657311583468,3.6983489990234375,1.1463165283203125,-3.5381317138671875,5.245016961493143
1782414361.075366,0.03857421875,-0.03955078125,0.9536132216453552,0.955212233561993,2.0503997802734375,0.2918243408203125,-4.1484832763671875,4.636724511887547
1782414361.083357,0.05126953125,-0.03125,0.9570311903953552,0.9589128358324053,-0.820159912109375,-0.621795654296875,-4.5146942138671875,4.630524372234704
1782414361.102059,0.0327148474752903,-0.0327148474752903,0.9663085341453552,0.967415477265486,-2.4662017822265625,-0.8678436279296875,-4.8809051513671875,5.537015341304229
1782414361.112772,0.02783203125,-0.02099609375,0.9829100966453552,0.983528197869101,-3.566741943359375,-0.255584716796875,-5.8574676513671875,6.862718042058277
1782414361.123485,0.0258789099752903,-0.0239257849752903,0.9936522841453552,0.9942771358909319,-3.6869049072265625,-0.8068084716796875,-5.9223175048828125,7.022681278083664
1782414361.131484,0.01513671875,-0.03369140625,1.0048828125,1.0055613844850693,-0.942230224609375,-1.964569091796875,-6.8988800048828125,7.234768471373697
1782414361.139483,0.0146484375,-0.01611328125,0.9873046278953552,0.9875447548427457,0.4634857177734375,-3.3092498779296875,-7.4443817138671875,8.159949317668449
1782414361.147482,0.0068359375,-0.00244140625,0.9624022841453552,0.9624296582266044,-0.0858306884765625,-3.4313201904296875,-7.1392059326171875,7.921463659239448
1782414361.155481,0.0048828125,0.00341796875,0.9648436903953552,0.9648620996101019,-1.2454986572265625,-2.1495819091796875,-7.0819854736328125,7.505097436953895
1782414361.166171,-0.0087890625,0.0126953125,0.9526366591453552,0.9527617870835948,-2.6493072509765625,-0.9899139404296875,-5.9795379638671875,6.614652884381989
1782414361.176861,0.009765625,-0.001953125,0.9682616591453552,0.9683128743850421,-2.895355224609375,-0.621795654296875,-4.5757293701171875,5.4504138357493845
1782414361.187551,0.0107421875,0.00439453125,0.9780272841453552,0.978096148152078,-3.261566162109375,-1.537322998046875,-3.2978057861328125,4.886378908065948
1782414361.19821,-0.0019531212747097015,-0.0175781287252903,0.9775390028953552,0.97769898612704,-3.444671630859375,-2.330780029296875,-2.6836395263671875,4.949769620588096
1782414361.208871,0.0,-0.017578125,0.9746093153953552,0.9747678226808262,-3.444671630859375,-2.758026123046875,-2.7446746826171875,5.196701824547578
1782414361.219532,0.001953125,-0.02587890625,0.9799804091453552,0.9803239948071555,-4.055023193359375,-3.185272216796875,-3.7212371826171875,6.358991929785195
1782414361.23019,0.0180664099752903,-0.0341796837747097,0.9790038466453552,0.9797668996749873,-4.6634674072265625,-4.1027069091796875,-5.3081512451171875,8.170471337807527
1782414361.240849,0.0029296875,-0.03173828125,0.9790038466453552,0.9795225537535897,-4.726409912109375,-4.100799560546875,-6.6509246826171875,9.131829325327633
1782414361.251508,0.00537109375,-0.00830078125,0.9814452528953552,0.9814950514639691,-4.421234130859375,-3.063201904296875,-7.5054168701171875,9.233731615149074
1782414361.259494,-0.009765617549419403,-0.015625,0.9956054091453552,0.9957758977955892,-4.238128662109375,-1.598358154296875,-7.4443817138671875,8.714086437932577
1782414361.26748,-0.0073242150247097015,-0.010253902524709702,1.00927734375,1.0093560042174268,-3.1986236572265625,-0.1964569091796875,-6.5288543701171875,7.272944933376862
1782414361.275466,-0.0014648400247097015,-0.0048828087747097015,1.01611328125,1.0161260689060536,-1.796722412109375,0.537872314453125,-5.1250457763671875,5.457436418565996
1782414361.283452,0.0034179724752902985,-0.008789066225290298,1.00341796875,1.0034622814193517,-0.148773193359375,1.331329345703125,-3.3550262451171875,3.612585278608353
1782414361.291436,-0.01220703125,-0.0009765625,1.0068359375,1.006910408292495,0.95367431640625,1.697540283203125,-1.8329620361328125,2.6741143469893767
1782414361.29942,0.0034179724752902985,-0.0302734337747097,0.9999999403953552,1.0004639144512248,1.3790130615234375,1.9397735595703125,0.0,2.379999681987442
1782414361.307404,0.009277351200580597,-0.0263671875,1.001953125,1.0023429365836947,1.1348724365234375,2.3059844970703125,1.1615753173828125,2.8204179062440815
1782414361.315388,0.003906257450580597,-0.03125,0.9995116591453552,1.0000076890278249,0.95367431640625,1.880645751953125,0.9174346923828125,2.2995672551373247
1782414361.326072,0.009765625,-0.02783203125,0.9799804091453552,0.980424189677019,0.7076263427734375,0.6580352783203125,0.5512237548828125,1.1124716160190824
1782414361.336756,0.0224609412252903,-0.0327148474752903,1.01220703125,1.0129846145119856,0.4634857177734375,-0.3795623779296875,-0.0591278076171875,0.6019823144854113
1782414361.34744,0.019042976200580597,-0.03662109375,0.9985350966453552,0.9993878519786855,0.095367431640625,-0.926971435546875,-1.2187957763671875,1.534221018571985
1782414361.355439,0.0161132849752903,-0.0288085974752903,0.9921874403953552,0.9927363648620285,-0.02288818359375,-1.110076904296875,-2.2563934326171875,2.5147775100711254
1782414361.363438,0.012207034975290298,-0.0283203162252903,1.00390625,1.0043798140161175,0.339508056640625,-1.659393310546875,-2.7446746826171875,3.225227277729644
1782414361.371437,-0.0029296837747097015,-0.0195312462747097,1.00634765625,1.0065414337561724,0.46539306640625,-1.598358154296875,-2.3784637451171875,2.9031757236693756
1782414361.379436,0.0043945349752902985,-0.0039062537252902985,1.0068359375,1.0068531053720395,0.7686614990234375,-1.7833709716796875,-1.9512176513671875,2.752908070698619
1782414361.3901,0.0063476599752902985,-0.0239257849752903,1.00439453125,1.0046995124805989,0.9517669677734375,-1.6613006591796875,-1.0356903076171875,2.176794582506051
1782414361.400764,0.00634765625,-0.02294921875,1.0078125,1.0080937429313572,1.44195556640625,-2.086639404296875,-0.0591278076171875,2.5370841445817285
1782414361.411428,0.0146484375,-0.015625,1.00927734375,1.0095045685648218,1.7452239990234375,-2.0885467529296875,0.4863739013671875,2.764849709816365
1782414361.419419,0.01611328125,-0.01708984375,1.0107421875,1.0110150692172328,2.1724700927734375,-2.6378631591796875,0.6732940673828125,3.4829977392650373
1782414361.42741,-0.0029296837747097015,-0.0283203162252903,1.01513671875,1.015535908332461,2.0503997802734375,-2.9430389404296875,0.0629425048828125,3.587419577182432
1782414361.435401,0.0029296875,0.00830078125,0.9970702528953552,0.9971091089981154,1.8672943115234375,-3.9196014404296875,-0.3681182861328125,4.3572439190676056
1782414361.443392,0.0229492224752903,0.00048827752470970154,0.9975585341453552,0.9978225965938992,1.5010833740234375,-5.4454803466796875,-0.7305145263671875,5.695626302267187
1782414361.454072,0.02099609375,-0.001953125,0.9970702528953552,0.9972932065640636,1.010894775390625,-6.847381591796875,-1.2187957763671875,7.028086941343374
1782414361.464752,0.0273437537252903,0.0073242150247097015,0.9794921278953552,0.9799010937857394,0.46539306640625,-7.640838623046875,-1.0356903076171875,7.724743360332178
1782414361.475432,0.013671878725290298,0.0278320275247097,0.9838866591453552,0.9843751825743189,-0.3910064697265625,-7.3986053466796875,-0.4253387451171875,7.421129306472375
1782414361.486177,-0.00048827752470970154,0.0385742150247097,0.9790038466453552,0.9797636144632622,-1.918792724609375,-6.175994873046875,0.1850128173828125,6.469846051840111
1782414361.496922,0.0170898474752903,0.0268554650247097,0.9975585341453552,0.9980662843391975,-2.407073974609375,-5.382537841796875,1.8329620361328125,6.174582460662525
1782414361.507667,0.0161132849752903,0.0058593712747097015,1.0029296875,1.0030762325233697,-2.2830963134765625,-4.9571990966796875,2.8095245361328125,6.138385763363563
1782414361.515936,0.01513671875,0.02099609375,1.00927734375,1.0096091881586315,-1.1234283447265625,-0.1964569091796875,3.5991668701171875,3.775538202938576
1782414361.524204,0.0039062537252902985,0.014160159975290298,1.0283203125,1.0284252204457016,-0.1468658447265625,2.2449493408203125,4.6405792236328125,5.157164206228973
1782414361.532472,0.014160163700580597,-0.00146484375,1.017578125,1.017677697742146,1.071929931640625,3.162384033203125,5.6781768798828125,6.587214831098258
1782414361.54074,0.0229492224752903,-0.0234375037252903,1.03564453125,1.0361638762768781,2.5997161865234375,2.7332305908203125,5.7392120361328125,6.8678692844840645
1782414361.550967,0.0458984375,-0.03466796875,1.0244140625,1.026027634164863,3.3931732177734375,2.3059844970703125,5.8574676513671875,7.15130171880313
1782414361.561194,0.04345703125,-0.0283203125,1.01953125,1.0208499024791664,3.147125244140625,1.575469970703125,5.9223175048828125,6.889147085056021
1782414361.571421,0.0498046875,-0.0224609375,0.9960936903953552,0.9975909184910363,1.6231536865234375,0.1697540283203125,5.6781768798828125,5.908056956347096
1782414361.579443,0.0473632849752903,-0.06689453125,1.00732421875,1.0106533731973122,0.64849853515625,-2.269744873046875,5.5522918701171875,6.03326090516495
1782414361.587467,0.0424804724752903,-0.0585937462747097,1.01904296875,1.0216097052216382,-0.759124755859375,-3.551483154296875,4.5757293701171875,5.841797861854351
1782414361.595491,0.03857421875,-0.0400390625,1.01416015625,1.0156829817433568,-1.735687255859375,-5.321502685546875,3.5419464111328125,6.623925230690022
1782414361.603515,0.041015625,-0.04541015625,1.02685546875,1.028677071527587,-2.15911865234375,-7.152557373046875,2.9277801513671875,8.024510386582199
1782414361.614148,0.05419921875,-0.04833984375,1.01220703125,1.0148090312560405,-2.223968505859375,-9.593963623046875,2.4394989013671875,10.146000631045359
1782414361.624781,0.05712890625,-0.06640625,1.00537109375,1.009180131649675,-1.430511474609375,-11.791229248046875,2.3212432861328125,12.102380784473848
1782414361.635414,0.0654296875,-0.08349609375,0.9907225966453552,0.9963854199964849,-0.99945068359375,-14.171600341796875,1.8939971923828125,14.332493965856301
1782414361.646139,0.07275390625,-0.05615234375,0.9809569716453552,0.9852526563287602,-2.0999908447265625,-15.089035034179688,0.4291534423828125,15.240508931388952
1782414361.656865,0.05126953125,-0.06591796875,0.9638671278953552,0.9674779499688672,-2.8934478759765625,-13.929367065429688,-0.5474090576171875,14.23723864135289
1782414361.667591,0.0439453125,-0.0712890625,0.9731444716453552,0.9767412572512585,-3.8700103759765625,-12.830734252929688,-1.8329620361328125,13.526436027474995
1782414361.675559,0.05029296875,-0.07177734375,0.9746093153953552,0.978542123486208,-3.932952880859375,-12.340545654296875,-2.0732879638671875,13.11700073911571
1782414361.683528,0.0522460974752903,-0.07861328125,0.9814452528953552,0.985973877504428,-3.078460693359375,-12.340545654296875,-2.1381378173828125,12.897194292266311
1782414361.691497,0.03466796875,-0.04150390625,0.9960936903953552,0.9975605657486154,-3.261566162109375,-11.119842529296875,-2.4394989013671875,11.842291441944338
1782414361.699466,0.0439453125,-0.0341796875,1.0078125,1.0093490361042459,-3.0155181884765625,-8.375167846679688,-1.5239715576171875,9.031017424051202
1782414361.710164,0.03466796875,-0.04736328125,1.0283203125,1.0299940842393782,-2.285003662109375,-6.847381591796875,-0.6732940673828125,7.249910433978123
1782414361.720862,0.0673828125,-0.06396484375,1.03564453125,1.0398036063432383,-0.453948974609375,-6.298065185546875,-0.9136199951171875,6.380156443883208
1782414361.73156,0.07861328125,-0.0615234375,1.01025390625,1.015173943934778,1.010894775390625,-6.481170654296875,-0.0591278076171875,6.559800103255027
1782414361.74218,0.07763671875,-0.0576171875,0.9975585341453552,1.0022326224185214,2.841949462890625,-8.617401123046875,-1.3446807861328125,9.17302814133417
1782414361.752801,0.0869140625,-0.046875,0.9682616591453552,0.9732841108618644,1.499176025390625,-9.777069091796875,-2.1953582763671875,10.132038627171223
1782414361.763422,0.0673828125,-0.04638671875,0.9545897841453552,0.9580886321690064,-0.1468658447265625,-9.717941284179688,-3.9691925048828125,10.498306602492095
1782414361.774086,0.0869140625,-0.03076171875,0.9775390028953552,0.9818772019872716,-1.552581787109375,-8.434295654296875,-5.7392120361328125,10.319225173696262
1782414361.784748,0.0849609375,-0.03173828125,0.9956054091453552,0.9997278680306322,-1.5506744384765625,-7.8258514404296875,-5.9795379638671875,9.970126189931047
1782414361.79541,0.08642578125,-0.0385742150247097,0.9970702528953552,1.0015520330658079,-0.331878662109375,-8.251190185546875,-6.4105987548828125,10.45409294585301
1782414361.803413,0.09619140625,-0.0268554724752903,0.9736327528953552,0.9787414063729047,2.292633056640625,-8.373260498046875,-6.5937042236328125,10.901586723468595
1782414361.811416,0.07373046875,-0.01025390625,0.9711913466453552,0.9740400178710816,2.41851806640625,-7.457733154296875,-6.4105987548828125,10.127328859790094
1782414361.819419,0.072265625,-0.0039062537252902985,0.9609374403953552,0.9636588316039987,1.7452239990234375,-5.5675506591796875,-6.5288543701171875,8.756104529726551
1782414361.827422,0.0810546875,-0.0283203162252903,0.9882811903953552,0.9920038376770945,1.377105712890625,-3.734588623046875,-6.6509246826171875,7.751023897635311
1782414361.838082,0.08251953125,-0.0263671875,1.00048828125,1.0042317972126549,2.0503997802734375,-3.0002593994140625,-6.3457489013671875,7.312607253361872
1782414361.848742,0.07177734375,-0.0048828087747097015,1.00244140625,1.0050197022256895,3.0269622802734375,-3.4923553466796875,-6.6509246826171875,8.09900275636
1782414361.859402,0.0693359375,-0.00439453125,1.00927734375,1.0116657257913637,3.452301025390625,-4.711151123046875,-6.5288543701171875,8.760095128495882
1782414361.867419,0.0605468787252903,-3.725290298461914e-09,1.013671875,1.0154785052818156,3.8204193115234375,-4.5909881591796875,-6.2274932861328125,8.628699126891526
1782414361.875436,0.0488281212747097,0.0053710900247097015,1.0185546875,1.0197385377946122,3.635406494140625,-5.199432373046875,-5.9223175048828125,8.678947056421595
1782414361.883453,0.04541015625,-0.00732421875,1.01025390625,1.0113004902423073,3.635406494140625,-5.016326904296875,-5.4340362548828125,8.240659318755588
1782414361.899467,0.0576171912252903,0.0063476525247097015,1.0078125,1.0094781169364277,4.06646728515625,-5.321502685546875,-3.4160614013671875,7.518245973060432
1782414361.907464,0.03857421875,-0.0048828125,0.9975585341453552,0.9983160027047111,4.795074462890625,-6.664276123046875,-3.0498504638671875,8.758247724335583
1782414361.915461,0.06298828125,-0.005859375,0.9736327528953552,0.9756857041900366,4.1866302490234375,-8.008956909179688,-3.2329559326171875,9.598086667528053
1782414361.923458,0.0615234412252903,-0.009277347475290298,0.9506835341453552,0.9527173689460489,3.2100677490234375,-8.497238159179688,-3.4809112548828125,9.72750401960902
1782414361.934117,0.05126953125,-0.0048828125,0.9365233778953552,0.937938400982192,1.2569427490234375,-8.314132690429688,-3.9043426513671875,9.270846725498117
1782414361.944776,0.0546875,-0.00341796875,0.9282225966453552,0.9298384774194235,-0.9403228759765625,-7.3986053466796875,-3.6602020263671875,8.307866576975377
1782414361.955435,0.0512695349752903,0.0063476525247097015,0.9555663466453552,0.9569618073623984,-2.3441314697265625,-6.7844390869140625,-3.1147003173828125,7.824635719221331
1782414361.966113,0.0244140625,0.015625,0.9541015028953552,0.9545417041177036,-2.64739990234375,-6.298065185546875,-2.3212432861328125,7.215436349781207
1782414361.976789,0.0307617224752903,0.015136715024709702,0.9648436903953552,0.9654526143768601,-2.3441314697265625,-6.6051483154296875,-1.1615753173828125,7.1043784973873
1782414361.987465,0.03466796875,0.015625,0.9609374403953552,0.9616895408788784,-1.5506744384765625,-5.8078765869140625,0.8563995361328125,6.072021230896483
1782414361.99546,0.0439453125,0.015625,0.9555663466453552,0.956703911331439,-0.820159912109375,-3.429412841796875,4.5185089111328125,5.731531863376423
1782414362.003457,0.0449218787252903,0.009765621274709702,0.9619140028953552,0.9630118854475557,-0.820159912109375,-1.903533935546875,6.2274932861328125,6.563366236470359
1782414362.011454,0.0527343787252903,0.00048827752470970154,0.9677733778953552,0.9692091952088927,-0.51116943359375,-0.255584716796875,7.5054168701171875,7.527144221518569
1782414362.019451,0.0424804724752903,0.0053710900247097015,0.9716796278953552,0.9726226084235516,0.0972747802734375,0.1697540283203125,7.9364776611328125,7.938888869273104
1782414362.03011,0.06005859375,-0.03125,0.9643554091453552,0.9667289963227197,-0.087738037109375,-0.255584716796875,7.9364776611328125,7.941076701321811
1782414362.040769,0.07275390625,-0.02587890625,0.9604491591453552,0.9635483568385916,-1.064300537109375,-0.438690185546875,7.6885223388671875,7.774224107102022
1782414362.051428,0.068359375,-0.03076171875,0.9672850966453552,0.9701854181975005,-1.918792724609375,-1.110076904296875,6.6547393798828125,7.0142421164107445
1782414362.062068,0.06103515625,-0.0224609375,0.9667968153953552,0.9689818709709905,-3.0155181884765625,-0.9899139404296875,5.7392120361328125,6.558340822965953
1782414362.072707,0.0571289099752903,-0.013671878725290298,0.9687499403953552,0.9705292780946118,-3.9920806884765625,-1.1119842529296875,5.0067901611328125,6.499320342904128
1782414362.083346,0.0522460974752903,-0.0195312462747097,0.9760741591453552,0.9776665527846153,-4.6634674072265625,-1.1119842529296875,4.8236846923828125,6.800909589794316
1782414362.091354,0.04931640625,-0.02099609375,0.9912108778953552,0.9926590292422945,-4.11224365234375,-2.391815185546875,6.4105987548828125,7.982925787839892
1782414362.099364,0.05078125,-0.01513671875,0.9726561903953552,0.9740985167427803,-3.261566162109375,-1.415252685546875,7.1430206298828125,7.97894088915916
1782414362.107374,0.078125,-0.02783203125,0.9814452528953552,0.9849431059809134,-2.46429443359375,0.537872314453125,8.913040161132812,9.263063132466643
1782414362.115384,0.0947265625,-0.04052734375,1.00048828125,1.0057794928079793,-1.5506744384765625,2.2449493408203125,9.767532348632812,10.141453393798276
1782414362.12612,0.07373046875,-0.04736328125,0.9995116591453552,1.0033459120365031,0.5855560302734375,3.0422210693359375,9.641647338867188,10.127158945448906
1782414362.136856,0.0849609375,-0.06494140625,1.00244140625,1.0081292179631953,2.60162353515625,3.528594970703125,9.096145629882812,10.09748943084302
1782414362.147592,0.07958984375,-0.0576171875,0.9902343153953552,0.9950971223504103,3.5152435302734375,2.7942657470703125,7.6885223388671875,8.903832539847064
1782414362.158225,0.07958984375,-0.05224609375,0.9750975966453552,0.9797344132589357,3.635406494140625,0.904083251953125,5.7392120361328125,6.853619605711548
1782414362.168856,0.0888671875,-0.03857421875,0.9604491591453552,0.9653227101178926,3.3321380615234375,-0.6847381591796875,3.6640167236328125,4.999702887047478
1782414362.179487,0.0673828125,-0.0390624962747097,0.9511718153953552,0.9543553554301026,2.41851806640625,-1.903533935546875,2.5653839111328125,4.006727554103359
1782414362.187517,0.06884765625,-0.02685546875,0.9667968153953552,0.9696170884588932,0.522613525390625,-3.429412841796875,2.3212432861328125,4.173987030384641
1782414362.19555,0.06884765625,-0.00390625,0.9677733778953552,0.9702270711143689,0.6465911865234375,-2.8209686279296875,3.8471221923828125,4.814176287318281
1782414362.203583,0.06640625,0.00244140625,0.9624022841453552,0.9646936855975253,1.194000244140625,-1.781463623046875,5.4950714111328125,5.898733680773894
1782414362.211616,0.06689453125,-0.00634765625,0.9741210341453552,0.9764358454171179,2.780914306640625,-0.499725341796875,7.4481964111328125,7.966105671965708
1782414362.222193,0.0849609375,-0.01708984375,0.9653319716453552,0.9692142379995184,4.611968994140625,0.720977783203125,8.729934692382812,9.899587198467216
1782414362.23277,0.1025390625,-0.02978515625,0.9521483778953552,0.9581168761690674,5.6514739990234375,2.2449493408203125,9.153366088867188,10.98922502551073
1782414362.243347,0.08349609375,-0.0263671875,0.9345702528953552,0.9386630832439599,5.893707275390625,3.528594970703125,8.852005004882812,11.204675832960726
1782414362.251581,0.0947265625,-0.041015625,0.9272460341453552,0.9329740676865013,5.405426025390625,5.115509033203125,7.9936981201171875,10.92182552599693
1782414362.259815,0.10400390625,-0.0361328125,0.9345702528953552,0.9410334479981608,4.0645599365234375,6.7005157470703125,7.0819854736328125,10.562768434604386
1782414362.268049,0.0947265625,-0.03759765625,0.9482421278953552,0.9537032234998846,3.3931732177734375,7.3719024658203125,5.4340362548828125,9.766643255016708
1782414362.276283,0.10009765625,-0.03955078125,0.9404296278953552,0.9465683758227003,2.5997161865234375,7.8601837158203125,5.0067901611328125,9.67517235063723
1782414362.286825,0.08056640625,-0.0283203125,0.9360350966453552,0.9399227032410788,1.5621185302734375,7.8601837158203125,4.8236846923828125,9.35364294596489
1782414362.297367,0.07666015625,-0.0292968712747097,0.9702147841453552,0.9736795230449182,0.6465911865234375,7.8601837158203125,4.0874481201171875,8.883006267226548
1782414362.307909,0.078125,-0.009765625,0.9887694716453552,0.9918991637835348,-0.20599365234375,8.899688720703125,4.7626495361328125,10.096025124485498
1782414362.31846,0.0605468787252903,-0.014160159975290298,1.001953125,1.0038807196829544,0.339508056640625,9.876251220703125,6.9599151611328125,12.087018778223612
1782414362.329013,0.08154296875,-0.013671878725290298,1.00927734375,1.0126583494088706,1.316070556640625,8.655548095703125,8.481979370117188,12.189935544627787
1782414362.339566,0.0556640662252903,-0.009277347475290298,0.9985350966453552,1.0001284400903014,2.1724700927734375,7.6770782470703125,9.218215942382812,12.191499574541101
1782414362.35019,0.0791015625,-0.0166015625,1.00146484375,1.0047211067428585,3.147125244140625,6.092071533203125,9.946823120117188,12.081267443893
1782414362.360815,0.0927734375,-0.02490234375,0.9916991591453552,0.9963404336266868,2.231597900390625,3.833770751953125,11.049270629882812,11.906477599187344
1782414362.37144,0.08251953125,-0.0263671875,0.9765624403953552,0.9803973182364952,1.682281494140625,2.185821533203125,10.683059692382812,11.03338801962284
1782414362.379442,0.1123046875,-0.044921875,0.9731444716453552,0.9806326939185261,-1.3675689697265625,-1.9664764404296875,8.852005004882812,9.170347162686609
1782414362.387442,0.10693359375,-0.0444335900247097,0.9653319716453552,0.972252514975139,-3.261566162109375,-2.941131591796875,7.5702667236328125,8.751971614272112
1782414362.395442,0.09130859375,-0.0278320349752903,0.9687499403953552,0.9734414869315323,-4.1751861572265625,-3.2482147216796875,5.5522918701171875,7.668834548782649
1782414362.403442,0.09326171875,-0.0205078125,0.9692382216453552,0.9739307207681612,-4.7855377197265625,-3.4923553466796875,5.1898956298828125,7.876098893709031
1782414362.414138,0.1249999925494194,-0.03076171875,0.9584960341453552,0.9671018193293729,-4.421234130859375,-3.368377685546875,4.7626495361328125,7.319570347799935
1782414362.424834,0.11962890625,-0.0341796875,0.9726561903953552,0.9805811496059744,-3.8089752197265625,-1.6613006591796875,4.0874481201171875,5.828845875414053
1782414362.43553,0.11767578125,-0.02490234375,0.9692382216453552,0.9766731523469311,-3.1375885009765625,1.1463165283203125,4.4574737548828125,5.57024016179103
1782414362.4462,0.06005859375,-0.0244140625,0.9853515028953552,0.9874819823111289,-2.407073974609375,2.979278564453125,5.0640106201171875,6.349355041617322
1782414362.456868,0.046875,-0.0107421875,0.9882811903953552,0.9894505402022608,-2.0389556884765625,4.0760040283203125,5.3691864013671875,7.042677882104269
1782414362.467536,0.06787109375,-0.00732421875,0.9980468153953552,1.0003787159210902,-1.8558502197265625,5.4836273193359375,6.1054229736328125,8.413711327493349
1782414362.475563,0.0791015625,-0.01416015625,0.9848632216453552,0.9881361913039285,-1.7337799072265625,7.1887969970703125,7.9364776611328125,10.847694349374425
1782414362.483592,0.1025390625,-0.04150390625,0.9873046278953552,0.9934823913064457,-1.6727447509765625,8.291244506835938,8.302688598632812,11.852318272807395
1782414362.491621,0.1103515625,-0.06396484375,0.9804686903953552,0.9887304088717693,-1.918792724609375,9.204864501953125,7.5054168701171875,12.030900980956094
1782414362.49965,0.0966796875,-0.0595703087747097,0.9819335341453552,0.9884781480345427,-2.5882720947265625,9.141921997070312,5.8002471923828125,11.13179040988479
1782414362.510446,0.0908203125,-0.0483398400247097,1.0009765625,1.006250042469827,-3.078460693359375,9.998321533203125,3.7212371826171875,11.103646243066494
1782414362.521242,0.09130859375,-0.0532226525247097,1.0107421875,1.0162527636501923,-2.8324127197265625,10.732650756835938,1.6498565673828125,11.22204886711941
1782414362.532038,0.08447265625,-0.06591796875,1.021484375,1.027088670284702,-1.8558502197265625,10.667800903320312,-0.4863739013671875,10.838944400764861
1782414362.542529,0.060546875,-0.04931640625,1.03125,1.0342023953258281,-0.99945068359375,10.059356689453125,-2.1953582763671875,10.344523026036303
1782414362.553022,0.0400390625,-0.029296875,1.0341796875,1.0353690450502382,-0.270843505859375,9.265899658203125,-2.7446746826171875,9.667651824199853
1782414362.563515,0.0146484375,-0.01220703125,1.03466796875,1.034843656737761,-0.0247955322265625,8.348464965820312,-2.6264190673828125,8.751888894487838
1782414362.574236,0.01220703125,-0.00244140625,1.0419921875,1.0420665482047926,-0.0858306884765625,6.2122344970703125,-1.4629364013671875,6.382742926682852
1782414362.584958,0.0024414099752902985,-0.0039062537252902985,1.044921875,1.044932028485274,0.64849853515625,4.627227783203125,1.0395050048828125,4.7866854881977705
1782414362.59568,0.014160163700580597,-0.021484375,1.0439453125,1.044262373206988,1.2569427490234375,2.9163360595703125,2.5653839111328125,4.082415424497093
1782414362.603616,0.0244140625,-0.0283203125,1.021484375,1.022168486560309,1.5621185302734375,1.9397735595703125,3.7860870361328125,4.53181981219517
1782414362.611553,0.0390625,-0.0439453125,1.013671875,1.01537566425584,1.8672943115234375,0.7801055908203125,3.8471221923828125,4.346918672094204
1782414362.61949,0.04931640625,-0.05029296875,0.9931640028953552,0.9956586901535228,1.987457275390625,0.720977783203125,3.7212371826171875,4.279883357600803
1782414362.627427,0.0478515625,-0.04638671875,1.0078125,1.0100136310299643,2.2335052490234375,-0.1354217529296875,2.3822784423828125,3.2683536108603177
1782414362.638084,0.06103515625,-0.0419921875,0.9868163466453552,0.9895934196001825,1.865386962890625,-1.049041748046875,1.2798309326171875,2.493616716047463
1782414362.648741,0.0527343787252903,-0.0424804724752903,0.9887694716453552,0.9910855529665948,1.682281494140625,-1.781463623046875,0.1201629638671875,2.4531862553937196
1782414362.659398,0.06396484375,-0.05126953125,0.9775390028953552,0.980970217821215,1.7452239990234375,-1.9664764404296875,-0.7915496826171875,2.7457944747529344
1782414362.670082,0.0522460974752903,-0.0229492224752903,0.9746093153953552,0.9762784639481816,0.5245208740234375,-2.1495819091796875,-1.3446807861328125,2.5892066252336177
1782414362.680768,0.03466796875,-0.03271484375,0.9863280653953552,0.9874792056774573,-0.2689361572265625,-1.6613006591796875,-1.0967254638671875,2.008744204708343
1782414362.691454,0.0385742150247097,-0.0190429724752903,0.9956054091453552,0.9965343624707366,-0.2689361572265625,-0.3795623779296875,-0.2422332763671875,0.5244723210837837
1782414362.699452,0.025390625,-0.01806640625,1.01025390625,1.0107344032761842,0.827789306640625,1.087188720703125,1.2226104736328125,1.8335732384743497
1782414362.70745,0.0322265662252903,-0.014160159975290298,1.0029296875,1.0035472185054606,2.2335052490234375,1.3942718505859375,2.6874542236328125,3.762306459457207
1782414362.715448,0.02978515625,-0.0126953125,0.9897460341453552,0.9902754862152088,3.452301025390625,1.331329345703125,3.4160614013671875,5.035900683547505
1782414362.723446,0.0400390625,-0.029296875,0.9697265028953552,0.9709948114322239,3.940582275390625,1.148223876953125,4.2095184326171875,5.8793411344530675
1782414362.7341,0.05517578125,-0.03515625,0.9790038466453552,0.9811874746943178,2.9048919677734375,1.0242462158203125,4.3354034423828125,5.3181952449380425
1782414362.744754,0.05419921875,-0.02294921875,0.9682616591453552,0.9700488969764678,1.3790130615234375,1.7566680908203125,4.2743682861328125,4.822632481400224
1782414362.755408,0.0478515625,-0.021484375,0.9912108778953552,0.9925977810074496,0.339508056640625,2.063751220703125,3.4160614013671875,4.0054725463281216
1782414362.766087,0.0712890625,-0.013671878725290298,1.00146484375,1.0040920694673472,-0.759124755859375,0.415802001953125,3.2978057861328125,3.4094991865137376
1782414362.776768,0.0390625,-0.0078125,1.0009765625,1.0017689318085365,-0.270843505859375,0.232696533203125,3.9043426513671875,3.920637119208549
1782414362.787449,0.06005859375,-0.037109375,1.00048828125,1.0029760422436307,-0.148773193359375,0.354766845703125,4.6405792236328125,4.656497450733223
1782414362.795448,0.0424804724752903,-0.0273437537252903,0.9951171278953552,0.9963987001397653,0.46539306640625,1.026153564453125,5.4340362548828125,5.549624479501265
1782414362.803448,0.04541015625,-0.02392578125,1.001953125,1.0032669584892835,1.0738372802734375,1.2683868408203125,6.4105987548828125,6.622515238078071
1782414362.811448,0.0366210974752903,-0.0380859412252903,0.9941405653953552,0.9955436240888229,1.2569427490234375,1.5125274658203125,7.2002410888671875,7.463987951959378
1782414362.819448,0.0571289099752903,-0.0336914025247097,0.9946288466453552,0.9968376826435267,1.194000244140625,2.002716064453125,7.6313018798828125,7.979553659179781
1782414362.830105,0.05126953125,-0.0263671875,1.0126953125,1.0143350478864108,1.0738372802734375,2.6111602783203125,7.2650909423828125,7.794410234563975
1782414362.840762,0.05029296875,-0.04052734375,1.02197265625,1.0240116983803456,1.4400482177734375,3.0994415283203125,6.5937042236328125,7.426790157648337
1782414362.851419,0.04638671875,-0.03173828125,1.0087890625,1.0103536107683906,2.2335052490234375,2.3708343505859375,6.6547393798828125,7.409113133803301
1782414362.859549,0.06787109375,-0.037109375,0.9941405653953552,0.9971454532034474,3.452301025390625,0.965118408203125,6.8988800048828125,7.774598461241427
1782414362.867681,0.07763671875,-0.041015625,0.9882811903953552,0.9921741041176532,3.269195556640625,1.270294189453125,6.8988800048828125,7.739239771262359
1782414362.875813,0.05859375,-0.02490234375,0.9780272841453552,0.9800973027184827,2.9048919677734375,1.0242462158203125,7.3223114013671875,7.94378511250454
1782414362.883945,0.06005859375,-0.01513671875,0.9731444716453552,0.9751134896162916,2.3555755615234375,0.9632110595703125,8.176803588867188,8.563680791706119
1782414362.894447,0.04833984375,-0.03076171875,0.9628905653953552,0.9645938340885325,1.804351806640625,1.148223876953125,8.913040161132812,9.166045408337174
1782414362.904949,0.0712890625,-0.0302734375,0.9721679091453552,0.9752482017528907,1.7452239990234375,2.5539398193359375,9.340286254882812,9.839174900910637
1782414362.915451,0.05322265625,-0.056640625,0.9604491591453552,0.9635888121194207,1.7452239990234375,2.6721954345703125,8.546829223632812,9.123306693587015
1782414362.926122,0.048828125,-0.0400390625,0.9677733778953552,0.9698312344319916,2.658843994140625,4.322052001953125,7.6313018798828125,9.164406869768913
1782414362.936793,0.05419921875,-0.0361328125,0.9614257216453552,0.9636298841845673,2.2335052490234375,4.8084259033203125,6.8340301513671875,8.649478219807992
1782414362.947464,0.0458984375,-0.04541015625,0.9672850966453552,0.9694375725377086,2.2945404052734375,5.8460235595703125,6.1054229736328125,8.758829648842754
1782414362.955441,0.04052734375,-0.03125,0.9794921278953552,0.9808281484033794,2.658843994140625,8.106231689453125,4.8236846923828125,9.80042741924045
1782414362.963419,0.0234375037252903,-0.0205078087747097,0.9648436903953552,0.9653461729852878,2.2945404052734375,8.470535278320312,4.8236846923828125,10.014130895101664
1782414362.971397,0.0009765662252902985,-3.725290298461914e-09,0.9589843153953552,0.9589848126304663,1.5621185302734375,7.3719024658203125,5.3119659423828125,9.219660646749759
1782414362.979375,0.0170898474752903,0.0053710900247097015,0.9765624403953552,0.9767267332707311,0.64849853515625,6.763458251953125,6.7119598388671875,9.550671324811605
1782414362.990466,0.013671878725290298,0.011718746274709702,0.9809569716453552,0.9811222296440726,-0.270843505859375,6.092071533203125,8.607864379882812,10.549029384392925
1782414363.001557,0.0205078125,0.00439453125,0.9907225966453552,0.9909445725075432,-0.087738037109375,5.481719970703125,10.618209838867188,11.950034810935792
1782414363.012648,0.03466796875,-0.0185546875,0.9999999403953552,1.000772714094558,-0.8792877197265625,4.5642852783203125,13.185501098632812,13.980818510301912
1782414363.022888,0.0224609412252903,-0.008300784975290298,0.9980468153953552,0.9983340335943387,-0.820159912109375,2.552032470703125,14.589309692382812,14.83352585575019
1782414363.033128,0.04150390625,-0.0263671875,1.001953125,1.0031589442894553,-1.1844635009765625,0.9632110595703125,15.016555786132812,15.093961607492682
1782414363.043368,0.0493164025247097,-0.07763671875,1.0009765625,1.0051933377865983,-2.46429443359375,-0.743865966796875,15.077590942382812,15.295745560704912
1782414363.051569,0.06884765625,-0.0654296875,1.0087890625,1.0132504213653675,-3.383636474609375,-2.391815185546875,10.801315307617188,11.568845579775234
1782414363.05977,0.0566406287252903,-0.0732421875,1.00048828125,1.0047633451568385,-3.62396240234375,-3.551483154296875,7.8144073486328125,9.317247356339857
1782414363.067971,0.0473632849752903,-0.0625,1.015625,1.0186479624426932,-3.932952880859375,-5.199432373046875,5.4340362548828125,8.487105830866534
1782414363.076172,0.0517578162252903,-0.0488281212747097,1.01611328125,1.0186016185439086,-3.5037994384765625,-6.7272186279296875,3.2329559326171875,8.245246208287387
1782414363.086611,0.06298828125,-0.0634765625,1.02197265625,1.0258776280260362,-3.3206939697265625,-7.3375701904296875,1.7681121826171875,8.245796834168305
1782414363.09705,0.0439453125,-0.03662109375,1.0078125,1.0094346586849587,-2.712249755859375,-7.457733154296875,0.9746551513671875,7.995250790497109
1782414363.107489,0.04248046875,-0.0263671875,1.0107421875,1.0119780572691115,-1.5506744384765625,-6.7844390869140625,2.0160675048828125,7.245531941992688
1782414363.1155,0.0327148474752903,-0.008789066225290298,1.01318359375,1.0137497243277598,-0.99945068359375,-6.969451904296875,4.7016143798828125,8.46624706067359
1782414363.123512,0.0332031287252903,-0.013671878725290298,0.9897460341453552,0.9903971830187553,-0.0247955322265625,-7.7610015869140625,6.7119598388671875,10.26080724548839
1782414363.131524,0.0571289099752903,-0.0224609412252903,0.9785155653953552,0.9804391454632371,-0.148773193359375,-8.373260498046875,8.790969848632812,12.141448666068879
1782414363.139536,0.046875,-0.04150390625,0.9833983778953552,0.9853893694911797,-0.942230224609375,-9.593963623046875,10.499954223632812,14.254156393659313
1782414363.150185,0.04541015625,-0.0478515625,0.9980468153953552,1.0002246247944264,-2.407073974609375,-9.899139404296875,10.927200317382812,14.93956735789748
1782414363.160834,0.05078125,-0.037109375,1.00048828125,1.002463287099848,-3.566741943359375,-9.593963623046875,10.618209838867188,14.74829367327223
1782414363.171483,0.03369140625,-0.02490234375,1.0068359375,1.0077072206850806,-3.932952880859375,-9.654998779296875,9.889602661132812,14.369807256409858
1782414363.182131,0.0556640625,-0.04638671875,1.00537109375,1.0079787952523935,-2.6493072509765625,-10.816574096679688,9.706497192382812,14.772717821876055
1782414363.192781,0.06005859375,-0.04296875,1.01318359375,1.0158712235337484,-0.759124755859375,-8.922576904296875,9.584426879882812,13.1167788585411
1782414363.203431,0.06884765625,-0.037109375,1.00634765625,1.0093823411987535,0.705718994140625,-7.335662841796875,9.096145629882812,11.70682937209074
1782414363.211464,0.04345703125,-0.0146484375,1.02099609375,1.022025495640404,2.5386810302734375,-4.7740936279296875,9.035110473632812,10.529486816196618
1782414363.219497,0.0180664099752903,0.0009765587747097015,1.02099609375,1.0211563897313645,4.611968994140625,-3.551483154296875,9.035110473632812,10.747860804314424
1782414363.22753,0.013183597475290298,0.0209960900247097,1.00146484375,1.001771668747888,6.931304931640625,-2.758026123046875,9.889602661132812,12.387652600306478
1782414363.235563,-0.0063476525247097015,0.0292968712747097,1.01318359375,1.0136269501168693,8.457183837890625,-1.903533935546875,11.842727661132812,14.676430028021706
1782414363.246262,-0.0058593712747097015,0.0415039025247097,1.03759765625,1.0384439332058368,10.473251342773438,-0.6847381591796875,15.016555786132812,18.32088446864892
1782414363.256961,0.0039062537252902985,0.0556640587747097,1.0224609375,1.0239824778631808,12.790679931640625,0.598907470703125,18.617630004882812,22.595936145042785
1782414363.26766,0.08544921875,0.00341796875,1.0380859375,1.0416024506166521,14.316558837890625,0.904083251953125,24.110794067382812,28.05550951319524
1782414363.278374,0.0771484375,-0.04541015625,1.0029296875,1.0069170381755332,17.614364624023438,-1.7833709716796875,28.932571411132812,33.91960998583235
1782414363.289089,0.0849609375,-0.02978515625,0.9614257216453552,0.965631883625954,17.065048217773438,-3.7975311279296875,27.406692504882812,32.507905306244005
1782414363.299804,0.06884765625,-0.05615234375,0.9467772841453552,0.9509365442832614,13.767242431640625,-4.833221435546875,24.045944213867188,28.126578653526433
1782414363.30771,0.0634765625,-0.044921875,0.9477538466453552,0.9509388006971845,10.778427124023438,-5.7506561279296875,18.861770629882812,22.472448208058893
1782414363.315616,0.0849609375,-0.0419921875,0.9892577528953552,0.9937870025188907,8.82720947265625,-6.175994873046875,14.219284057617188,17.839578998879425
1782414363.323522,0.08056640625,-0.013671875,0.9760741591453552,0.9794889637629246,9.006500244140625,-5.870819091796875,11.777877807617188,15.946848249966928
1782414363.331428,0.0361328125,0.017578125,0.9707030653953552,0.9715343595496843,9.008407592773438,-7.0934295654296875,11.659622192382812,16.352826667776917
1782414363.34213,0.0927734375,0.0615234375,0.9609374403953552,0.9673638449006453,9.862899780273438,-7.3986053466796875,14.345169067382812,18.915602785093363
1782414363.352832,0.02734375,0.02734375,0.9565429091453552,0.9573242388889902,7.602691650390625,-6.298065185546875,21.116256713867188,23.31014463743754
1782414363.363534,0.0458984412252903,0.0502929650247097,0.9472655653953552,0.9497094822216265,7.1163177490234375,-6.7272186279296875,24.534225463867188,26.416390137278395
1782414363.371514,0.02001953125,0.08056640625,0.9575194716453552,0.9611114742981222,4.6749114990234375,-7.3986053466796875,29.237747192382812,30.519502281087544
1782414363.379494,0.0205078125,0.03662109375,0.9819335341453552,0.9828301686253679,2.4166107177734375,-7.8258514404296875,33.63227844238281,34.61522947135987
1782414363.387474,0.013183597475290298,-0.012207034975290298,0.9819335341453552,0.9820978996131017,0.3414154052734375,-9.046554565429688,36.31782531738281,37.42914839758162
1782414363.395454,0.029296875,-0.01318359375,1.0166015625,1.0171090653938604,0.522613525390625,-9.593963623046875,35.03227233886719,36.32598750373934
1782414363.406103,0.03466796875,-0.00341796875,1.0107421875,1.0113423357893765,1.5621185302734375,-10.816574096679688,33.51020812988281,35.247305406224314
1782414363.416752,0.06787109375,-0.013671878725290298,0.9907225966453552,0.9931387965125598,3.2100677490234375,-13.010025024414062,32.04536437988281,34.734286581541625
1782414363.427401,0.08837890625,-0.009765625,0.9824218153953552,0.9864374394082437,4.4918060302734375,-15.394210815429688,30.153274536132812,34.152276839105305
1782414363.435391,0.09521484375,-0.01953125,0.9628905653953552,0.9677838483485278,6.69097900390625,-13.011932373046875,29.294967651367188,32.74560602288663
1782414363.443384,0.099609375,0.013671875,0.9594725966453552,0.9647261847111266,5.7125091552734375,-10.873794555664062,30.885696411132812,33.23850796423532
1782414363.451377,0.15966796875,-0.0048828087747097015,0.9624022841453552,0.975569504748113,4.611968994140625,-8.129119873046875,34.42573547363281,35.67189525121732
1782414363.45937,0.18701171875,-0.072265625,0.9374999403953552,0.9586979929820257,4.24957275390625,-4.894256591796875,33.75434875488281,34.371044151194305
1782414363.470072,0.20068359375,-0.12353515625,0.9663085341453552,0.9946290880485409,4.4918060302734375,-1.4781951904296875,28.444290161132812,28.834684413139104
1782414363.480774,0.189453125,-0.10888671875,0.9736327528953552,0.9978524648478827,4.3087005615234375,1.2683868408203125,21.181106567382812,21.652089532552413
1782414363.491476,0.1318359375,-0.0986328125,0.9985350966453552,1.0120185202607277,5.1631927490234375,3.5305023193359375,12.514114379882812,13.99021317575949
1782414363.502123,0.10546875,-0.08349609375,1.03125,1.0399864505838867,6.0176849365234375,3.7708282470703125,5.0640106201171875,8.72214888802204
1782414363.512769,0.1064453125,-0.0444335900247097,1.01806640625,1.0245799900498236,8.274078369140625,1.697540283203125,-1.9512176513671875,8.668867642015595
1782414363.523415,0.10009765625,-0.00537109375,0.9746093153953552,0.9797508392903869,10.534286499023438,-1.3561248779296875,-5.7964324951171875,12.0999543965462
1782414363.53407,0.07763671875,0.0454101525247097,0.9580077528953552,0.9622205551006443,8.518218994140625,-2.941131591796875,-1.4629364013671875,9.12964910535169
1782414363.544728,0.078125,0.06982421875,0.9360350966453552,0.9418814359041839,4.917144775390625,-2.208709716796875,3.5419464111328125,6.449968661517733
1782414363.555386,0.0703125,0.0498046837747097,0.9458007216453552,0.949717515499753,1.4400482177734375,-1.9664764404296875,8.302688598632812,8.653057634509594
1782414363.563403,0.0732421875,0.0195312462747097,0.9594725966453552,0.9624622337132034,-1.7337799072265625,-1.7833709716796875,12.266159057617188,12.515792536475525
1782414363.571423,0.0463867224752903,0.015624996274709702,0.9775390028953552,0.9787636950317627,-3.0155181884765625,-1.2302398681640625,13.856887817382812,14.234471541359921
1782414363.579443,0.060546875,0.01220703125,1.0009765625,1.002880358945433,-3.566741943359375,-0.621795654296875,13.731002807617188,14.200306899113574
1782414363.587463,0.0751953125,-0.0205078125,1.01904296875,1.0220193136894826,-2.2220611572265625,-0.0133514404296875,12.392044067382812,12.589697780938753
1782414363.598115,0.0830078125,-0.04541015625,1.02685546875,1.0312053786363156,-0.942230224609375,0.232696533203125,10.072708129882812,10.119357417471699
1782414363.608767,0.11279296875,-0.03271484375,1.01318359375,1.0199674060700128,1.987457275390625,-0.560760498046875,6.6547393798828125,6.96778264384273
1782414363.619419,0.1328125,-0.0400390625,1.0048828125,1.0144120235584941,3.940582275390625,-0.743865966796875,5.0640106201171875,6.459545557261832
1782414363.62765,0.111328125,-0.03076171875,0.9892577528953552,0.995977477867867,5.0411224365234375,-0.5588531494140625,2.3212432861328125,5.577938925449675
1782414363.635882,0.09326171875,-0.02294921875,0.9711913466453552,0.9759288122728307,3.76129150390625,-2.025604248046875,-0.4253387451171875,4.29316892227184
1782414363.644114,0.09033203125,-0.001953125,0.9482421278953552,0.9525370458320914,1.377105712890625,-3.673553466796875,-1.4629364013671875,4.187075128575616
1782414363.652346,0.0830078125,0.01806640625,0.9355468153953552,0.9393958355066389,-1.3675689697265625,-3.9806365966796875,-1.6498565673828125,4.520811795985408
1782414363.662875,0.06884765625,0.00830078125,0.9458007216453552,0.9483395530111318,-3.749847412109375,-3.002166748046875,-2.1381378173828125,5.257945808327076
1782414363.673404,0.08642578125,0.01220703125,0.9716796278953552,0.9755919877405038,-4.9686431884765625,-1.2302398681640625,-1.7070770263671875,5.395833322255749
1782414363.683933,0.0703125,0.03173828125,0.9687499403953552,0.9718166561491722,-4.11224365234375,-0.438690185546875,0.1850128173828125,4.139713356952694
1782414363.69451,0.06005859375,0.025390625,0.9975585341453552,0.9996873249008151,-3.383636474609375,-0.133514404296875,2.1991729736328125,4.0377201062503945
1782414363.705085,0.0605468787252903,0.0341796837747097,0.9946288466453552,0.9970560254496152,-2.2220611572265625,1.1463165283203125,4.2095184326171875,4.896084435965054
1782414363.71566,0.0751953125,0.0195312462747097,0.9936522841453552,0.9966848380457575,-1.735687255859375,3.467559814453125,6.2885284423828125,7.387974775783986
1782414363.723665,0.06103515625,0.01416015625,1.00830078125,1.0102456462627527,0.339508056640625,6.885528564453125,8.729934692382812,11.123737189707999
1782414363.731669,0.09130859375,-0.0043945349752902985,0.9970702528953552,1.001252046409424,1.25885009765625,7.434844970703125,8.665084838867188,11.486745342851677
1782414363.739673,0.08544921875,-0.0205078125,1.01513671875,1.018933117095051,2.7217864990234375,7.5550079345703125,7.4481964111328125,10.952711829336986
1782414363.747677,0.0751953125,-0.02880859375,1.01708984375,1.0202725225915008,3.330230712890625,7.251739501953125,5.3691864013671875,9.618020847237423
1782414363.755607,0.091796875,-0.03125,1.01171875,1.016355281317182,3.5152435302734375,5.8460235595703125,3.4160614013671875,7.629050008624348
1782414363.763537,0.06982421875,-0.01171875,0.9858397841453552,0.9883788902184075,2.5997161865234375,3.2253265380859375,1.0395050048828125,4.2710450925891426
1782414363.771467,0.0947265625,-0.0166015625,0.9833983778953552,0.9880896230442477,2.292633056640625,3.162384033203125,0.0,3.906000397575428
1782414363.779397,0.09326171875,-0.015625,0.9946288466453552,0.999113823039334,1.6231536865234375,2.3059844970703125,-0.7305145263671875,2.9130471784776715
1782414363.79008,0.08984375,-0.00537109375,0.9877929091453552,0.9918848619774262,0.339508056640625,1.514434814453125,-0.7305145263671875,1.7153512762653138
1782414363.800763,0.078125,0.0078125,0.9892577528953552,0.9923686071439471,-0.453948974609375,0.843048095703125,0.4291534423828125,1.0492723384930085
1782414363.811446,0.0576171912252903,0.0078124962747097015,1.0068359375,1.0085134510080853,-1.308441162109375,-0.255584716796875,1.7681121826171875,2.2143989054552895
1782414363.822144,0.0908203125,0.0048828087747097015,1.02294921875,1.0269845544726384,-1.67083740234375,-1.903533935546875,3.8471221923828125,4.606027380723407
1782414363.832844,0.0859375,-0.008789066225290298,1.0068359375,1.0105350595762952,-1.125335693359375,-2.513885498046875,5.5522918701171875,6.197898493119133
1782414363.843544,0.099609375,-0.01123046875,1.005859375,1.0108418438567064,0.034332275390625,-2.574920654296875,5.4950714111328125,6.068542238009661
1782414363.854176,0.08740234375,-0.0224609375,1.0009765625,1.0050361894383149,0.339508056640625,-4.100799560546875,4.8236846923828125,6.34032781233223
1782414363.86481,0.09814453125,-0.0263671875,1.00244140625,1.0075794512371816,0.0972747802734375,-3.9806365966796875,2.8705596923828125,4.908670191124659
1782414363.875444,0.10205078125,-0.0332031287252903,0.9970702528953552,1.0028289479864905,0.705718994140625,-3.673553466796875,0.5512237548828125,3.7811217912219255
1782414363.886096,0.0927734375,-0.009765625,1.00390625,1.0082311426088115,1.5621185302734375,-2.3326873779296875,-1.2798309326171875,3.0853868350435256
1782414363.896748,0.1025390625,-3.725290298461914e-09,0.9892577528953552,0.9945577715758631,2.9048919677734375,-2.2716522216796875,-2.1953582763671875,4.291666240786998
1782414363.9074,0.06982421875,0.0224609375,0.9824218153953552,0.9851560985966296,4.123687744140625,-1.964569091796875,-2.9926300048828125,5.46078443758258
1782414363.915391,0.06494140625,0.025390625,0.9809569716453552,0.9834320771172986,4.489898681640625,-1.232147216796875,-1.2187957763671875,4.812778831376838
1782414363.923382,0.07421875,0.025390625,0.9770507216453552,0.9801944803747685,3.3931732177734375,-0.7419586181640625,0.0,3.473345228577613
1782414363.931373,0.0693359375,0.0336913987994194,0.9628905653953552,0.9659714403177002,2.0503997802734375,-0.8068084716796875,1.7681121826171875,2.8251194415880523
1782414363.939364,0.0712890625,0.0312499962747097,0.9794921278953552,0.982580033029508,1.1959075927734375,-0.6847381591796875,3.4809112548828125,3.743768753737306
1782414363.950049,0.0693359375,0.03125,0.9741210341453552,0.9770853718552029,-0.20599365234375,-0.743865966796875,4.5185089111328125,4.58396037737579
1782414363.960734,0.07373046875,0.015625,0.9907225966453552,0.9935852183636842,-0.7572174072265625,-1.4781951904296875,4.7626495361328125,5.043933963370503
1782414363.971419,0.0859375,0.0126953125,0.9863280653953552,0.990146189939782,-1.247406005859375,-2.696990966796875,5.0640106201171875,5.871455150054171
1782414363.98209,0.10546875,-0.01123046875,0.9873046278953552,0.9929855028742832,-1.0623931884765625,-2.8209686279296875,4.6405792236328125,5.533671368765715
1782414363.99276,0.1083984375,-0.0146484375,1.0078125,1.013731144401652,-0.6351470947265625,-2.8209686279296875,3.7860870361328125,4.764003660459975
1782414364.00343,0.09423828125,-0.017578125,0.9980468153953552,1.0026401597045074,0.0362396240234375,-2.1495819091796875,2.1991729736328125,3.0754475223256432
1782414364.014139,0.099609375,-0.02490234375,0.9863280653953552,0.9916578073603202,0.095367431640625,-2.880096435546875,-0.6084442138671875,2.9452087848667032
1782414364.024851,0.09326171875,-0.00634765625,0.9848632216453552,0.9892894451442107,-0.2079010009765625,-3.0651092529296875,-1.6498565673828125,3.487139838254044
1782414364.035563,0.080078125,0.00244140625,0.9946288466453552,0.9978501937400537,-0.637054443359375,-1.720428466796875,-2.1381378173828125,2.8173295510627625
1782414364.043554,0.08056640625,0.00390625,1.0009765625,1.0042212322389021,-0.5130767822265625,-0.8678436279296875,-2.0122528076171875,2.250680276885497
1782414364.051546,0.07177734375,0.0209960900247097,1.00830078125,1.0110703676507842,0.2803802490234375,-1.3561248779296875,-0.9136199951171875,1.6590326289920232
1782414364.059538,0.07958984375,0.009765621274709702,1.001953125,1.005156691906439,0.827789306640625,-1.415252685546875,-0.1850128173828125,1.6499712248194314
1782414364.06753,0.0888671875,0.010253902524709702,0.9897460341453552,0.9937805248834398,0.8296966552734375,-1.8444061279296875,0.6084442138671875,2.11197416317174
1782414364.078152,0.08837890625,0.014648433774709702,0.9672850966453552,0.9714246578475412,0.400543212890625,-1.720428466796875,1.5277862548828125,2.3354742163780444
1782414364.088774,0.0859375,0.0048828087747097015,0.9775390028953552,0.9813213530283674,-0.51116943359375,-1.598358154296875,2.0160675048828125,2.6230842844812052
1782414364.099396,0.095703125,0.0200195275247097,0.9692382216453552,0.9741573794389329,-1.3675689697265625,-0.8068084716796875,1.5888214111328125,2.246227564920159
1782414364.107403,0.087890625,0.0068359375,0.9858397841453552,0.9897734953049385,-1.613616943359375,-0.804901123046875,1.4057159423828125,2.2864082681025653
1782414364.115411,0.08642578125,0.00390625,0.9829100966453552,0.9867101562977433,-0.8792877197265625,-1.3561248779296875,0.5512237548828125,1.7076502002895249
1782414364.123419,0.09228515625,0.00341796875,0.9829100966453552,0.9872388214924717,-0.5741119384765625,-1.7833709716796875,0.0,1.8735038138554907
1782414364.131427,0.0888671875,0.00390625,0.9790038466453552,0.9830367071221832,-0.392913818359375,-2.391815185546875,-0.3681182861328125,2.4516672333446348
1782414364.142084,0.0908203125,0.0166015625,0.9819335341453552,0.986264369486816,-0.4520416259765625,-2.3326873779296875,-0.2422332763671875,2.3883988349828837
1782414364.152741,0.0830078125,0.01806640625,0.9775390028953552,0.9812233151288602,-1.430511474609375,-2.513885498046875,0.0629425048828125,2.8930857462578596
1782414364.163398,0.09033203125,0.001953125,0.9765624403953552,0.9807333432477701,-1.918792724609375,-2.391815185546875,0.8563995361328125,3.183703121730259
1782414364.171433,0.0986328125,-0.0029296875,0.9916991591453552,0.9965963260117471,-1.918792724609375,-2.391815185546875,0.7915496826171875,3.1668748478394075
1782414364.17947,0.0927734375,-0.0043945349752902985,0.9775390028953552,0.9819413041647962,-1.7337799072265625,-2.0236968994140625,1.1005401611328125,2.8831459473406604
1782414364.187507,0.08740234375,0.0087890625,0.9892577528953552,0.9931501996053718,-1.1234283447265625,-1.3561248779296875,1.2226104736328125,2.143814894180821
1782414364.195544,0.09912109375,-3.725290298461914e-09,0.9843749403953552,0.9893528260962089,-0.7572174072265625,-1.2950897216796875,0.9746551513671875,1.7890187961823887
1782414364.206172,0.083984375,0.0029296875,0.9794921278953552,0.9830904266251194,-1.1234283447265625,-0.6847381591796875,0.7915496826171875,1.535418018789418
1782414364.2168,0.08642578125,0.00830078125,0.9853515028953552,0.9891692994084321,-1.0623931884765625,0.1125335693359375,0.3681182861328125,1.1299797182844664
1782414364.227428,0.1083984375,-0.00146484375,0.9941405653953552,1.0000339148170174,-0.8792877197265625,0.5359649658203125,0.4291534423828125,1.1156065685346805
1782414364.235477,0.09375,-0.0087890625,0.9921874403953552,0.9966454871206288,-0.148773193359375,1.331329345703125,0.3681182861328125,1.389274041497219
1782414364.243526,0.10009765625,0.01220703125,0.9858397841453552,0.9909836690896789,0.5855560302734375,-0.0705718994140625,0.0629425048828125,0.5931424925744389
1782414364.251575,0.0791015625,-0.00341796875,0.9877929091453552,0.9909609331644519,0.705718994140625,-1.293182373046875,-0.0591278076171875,1.4744002327331671
1782414364.259624,0.10107421875,0.0073242150247097015,0.9614257216453552,0.9667518089266465,0.2803802490234375,-1.8444061279296875,-0.3032684326171875,1.8900843343642402
1782414364.270222,0.095703125,0.0087890625,0.9804686903953552,0.9851675941686153,-1.125335693359375,-1.781463623046875,0.0,2.1071291044897853
1782414364.28082,0.08837890625,0.00634765625,0.9819335341453552,0.9859232167308983,-1.9779205322265625,-1.2950897216796875,0.4863739013671875,2.413708058348175
1782414364.291418,0.0849609375,0.00390625,0.9912108778953552,0.9948530666123627,-1.8558502197265625,-1.2302398681640625,0.4291534423828125,2.2675631961179117
1782414364.302082,0.09033203125,-0.00830078125,0.9882811903953552,0.9924356352572048,-1.6727447509765625,-2.1495819091796875,1.0395050048828125,2.915364135295735
1782414364.312745,0.06640625,0.014648433774709702,0.9687499403953552,0.9711337774308537,-1.48773193359375,-2.391815185546875,1.0395050048828125,3.0024484746992157
1782414364.323408,0.08984375,0.015625,0.9804686903953552,0.9847004076797397,-1.796722412109375,-2.208709716796875,1.2226104736328125,3.098610399757561
1782414364.331396,0.09619140625,0.0014648400247097015,0.9824218153953552,0.9871208415170637,-1.3675689697265625,-1.8444061279296875,1.4629364013671875,2.7225469263446556
1782414364.339386,0.095703125,-0.0009765625,0.9951171278953552,0.9997090276874481,-0.453948974609375,-0.621795654296875,2.0160675048828125,2.158061095403879
1782414364.347376,0.103515625,0.0009765625,0.9765624403953552,0.9820339292938858,-0.02288818359375,-0.255584716796875,2.3822784423828125,2.3960588459906904
1782414364.355366,0.1015625,-0.010253902524709702,0.9711913466453552,0.9765412002174075,0.522613525390625,0.415802001953125,2.4394989013671875,2.529262954206454
1782414364.366113,0.1025390625,-0.001953125,0.9677733778953552,0.9731923679307347,0.888824462890625,0.049591064453125,2.0771026611328125,2.2598282378073367
1782414364.37686,0.0869140625,0.0058593712747097015,0.9643554091453552,0.9682818503100707,1.2569427490234375,-0.4405975341796875,1.6498565673828125,2.1203909909221963
1782414364.387607,0.0927734375,0.014648433774709702,0.9580077528953552,0.9626008216936169,0.7686614990234375,0.5359649658203125,2.0160675048828125,2.2232019991247167
1782414364.395678,0.0859375,0.014648433774709702,0.9682616591453552,0.9721782095321917,0.339508056640625,2.613067626953125,2.6264190673828125,3.7204119746429067
1782414364.403752,0.09814453125,0.02294921875,0.9843749403953552,0.9895216212563911,1.3179779052734375,3.8928985595703125,3.8471221923828125,5.629571397275099
1782414364.411826,0.08935546875,0.015625,0.9995116591453552,1.003619498210369,2.475738525390625,3.711700439453125,5.6171417236328125,7.173442865299512
1782414364.4199,0.08642578125,0.0068359337747097015,0.9990233778953552,1.0027780687852577,3.635406494140625,2.185821533203125,6.9599151611328125,8.15073096125867
1782414364.430425,0.0888671875,0.01220703125,0.9975585341453552,1.001583455171025,4.123687744140625,2.368927001953125,7.8144073486328125,9.147763549749454
1782414364.44095,0.09619140625,0.0019531212747097015,1.00244140625,1.0070478510396335,3.635406494140625,2.124786376953125,7.8144073486328125,8.876703201960282
1782414364.451475,0.09765625,-0.017578125,0.9868163466453552,0.9917924357692309,3.5762786865234375,2.2449493408203125,7.1430206298828125,8.297729237897729
1782414364.459491,0.0986328125,-0.017578125,0.9799804091453552,0.985088333343195,3.147125244140625,0.720977783203125,5.6781768798828125,6.5319138807408805
1782414364.467507,0.09228515625,-0.009765621274709702,0.9858397841453552,0.9901979587066055,2.841949462890625,-0.926971435546875,3.8471221923828125,4.871991579946386
1782414364.475523,0.10595703125,-0.0200195275247097,0.9731444716453552,0.9791005242811096,1.987457275390625,-2.025604248046875,2.0771026611328125,3.5167334923325773
1782414364.483539,0.1123046875,-0.0166015625,0.9775390028953552,0.9841089659654358,1.1348724365234375,-2.1495819091796875,0.4863739013671875,2.478950867480913
1782414364.494166,0.10498046875,0.0053710900247097015,0.9697265028953552,0.9754072164202389,0.400543212890625,-1.903533935546875,-0.7305145263671875,2.077866160849826
1782414364.504793,0.08056640625,0.0048828087747097015,0.9799804091453552,0.9832987287423228,-0.392913818359375,-1.903533935546875,-0.8563995361328125,2.123968662180498
1782414364.51542,0.08447265625,0.014648430049419403,0.9775390028953552,0.9812913473268216,-0.5130767822265625,-1.5354156494140625,-0.7915496826171875,1.8020266093975807
1782414364.526164,0.07763671875,0.01220703125,0.9711913466453552,0.9743660007969406,-1.48773193359375,0.843048095703125,1.7681121826171875,2.459735166277577
1782414364.536909,0.0830078125,0.011230465024709702,0.9912108778953552,0.9947438990709052,-1.3675689697265625,1.6956329345703125,3.0536651611328125,3.7510381032555222
1782414364.547654,0.09375,0.014648433774709702,0.9995116591453552,1.0040055756217456,-1.0013580322265625,1.3294219970703125,4.1522979736328125,4.473439305147018
1782414364.558246,0.0888671875,-3.725290298461914e-09,0.9892577528953552,0.9932412993214327,-0.759124755859375,1.209259033203125,4.8236846923828125,5.030557803650623
1782414364.56884,0.1044921875,-0.0009765625,0.9965819716453552,1.0020455065172416,-0.6961822509765625,0.6008148193359375,5.0067901611328125,5.090539842818717
1782414364.579434,0.10986328125,-0.0283203125,0.9902343153953552,0.9967125864829952,-1.613616943359375,0.659942626953125,5.1288604736328125,5.417055811855666
1782414364.590119,0.10546875,-0.021484375,1.005859375,1.0116018573881198,-1.0013580322265625,1.1463165283203125,2.8095245361328125,3.195338418843501
1782414364.600804,0.11279296875,-0.0302734375,0.9995116591453552,1.006311229980569,-0.331878662109375,0.293731689453125,1.2226104736328125,1.3004607345049468
1782414364.611489,0.10302734375,-0.01123046875,1.00439453125,1.0097272559426296,-0.2079010009765625,0.3528594970703125,-0.3032684326171875,0.5096120025096114
1782414364.619536,0.0986328125,-0.00146484375,0.9999999403953552,1.0048534511358291,-0.0247955322265625,0.9632110595703125,-1.1615753173828125,1.5091877224685948
1782414364.627582,0.0859375,-0.0009765625,1.0107421875,1.0143894603025267,-0.0858306884765625,1.7566680908203125,-1.4019012451171875,2.249128006462007
1782414364.635628,0.083984375,0.0048828087747097015,1.029296875,1.0327290418838992,0.7686614990234375,3.0994415283203125,-1.4629364013671875,3.5124864700099114
1782414364.643674,0.0654296875,0.02392578125,1.03857421875,1.0409082067439681,1.987457275390625,3.772735595703125,-0.1850128173828125,4.268225631241215
1782414364.654256,0.06298828125,0.0258789025247097,1.03125,1.0334959137174722,3.513336181640625,3.528594970703125,1.2226104736328125,5.127308257042204
1782414364.664838,0.0625,0.0283203125,1.0205078125,1.0228120479705118,4.8580169677734375,2.1228790283203125,3.2329559326171875,6.2095851947051575
1782414364.67542,0.08203125,0.02392578125,1.00341796875,1.0070497450450804,5.100250244140625,0.843048095703125,5.1288604736328125,7.282066492591109
1782414364.68342,0.099609375,0.01416015625,0.9882811903953552,0.9933892735993154,3.513336181640625,-1.110076904296875,7.1430206298828125,8.037322040182906
1782414364.691423,0.0888671875,0.00341796875,0.9785155653953552,0.9825486101183635,1.93023681640625,-2.391815185546875,7.3223114013671875,7.941211387931609
1782414364.699426,0.115234375,-0.0029296875,0.9692382216453552,0.9760687857670375,0.4634857177734375,-3.7975311279296875,7.0171356201171875,7.992262132168358
1782414364.707429,0.10693359375,-0.01708984375,0.9711913466453552,0.97721005317716,-0.6961822509765625,-4.7130584716796875,5.7392120361328125,7.458964048695918
1782414364.718104,0.1064453125,-0.0166015625,0.9619140028953552,0.9679280786281744,-1.3675689697265625,-4.6482086181640625,3.6640167236328125,6.074628119975293
1782414364.728779,0.1162109375,-0.015136715024709702,0.9687499403953552,0.975812763368246,-1.8558502197265625,-4.6482086181640625,2.4394989013671875,5.5678701750135575
1782414364.739454,0.13134765625,-0.0239257849752903,0.9731444716453552,0.9822600534904031,-1.613616943359375,-3.185272216796875,0.9174346923828125,3.686652295753164
1782414364.74746,0.1279296875,-0.00634765625,0.9858397841453552,0.9941259365329306,-0.8182525634765625,-0.8678436279296875,-1.4629364013671875,1.887557346047877
1782414364.755466,0.10302734375,-0.0107421875,0.9921874403953552,0.9975800444228786,0.4634857177734375,0.7801055908203125,-3.2329559326171875,3.357884424106008
1782414364.763472,0.08740234375,0.0126953125,1.00341796875,1.007297354639057,1.316070556640625,2.124786376953125,-3.1147003173828125,3.9935093495378906
1782414364.771478,0.06689453125,0.012207027524709702,0.9980468153953552,1.0003606027593033,2.475738525390625,2.613067626953125,-2.3784637451171875,4.314451698184911
1782414364.779458,0.0869140625,0.0258789025247097,0.9965819716453552,1.0006994544141017,2.8438568115234375,2.6111602783203125,-1.4019012451171875,4.107433099222334
1782414364.787438,0.08447265625,0.02685546875,1.013671875,1.0175399333793875,3.513336181640625,3.040313720703125,0.1201629638671875,4.64773899691088
1782414364.795418,0.06005859375,0.0380859375,0.9975585341453552,1.000090297105572,3.208160400390625,2.857208251953125,2.3212432861328125,4.883042345001754
1782414364.803398,0.0556640625,0.02880859375,0.9921874403953552,0.9941651471491761,2.8438568115234375,2.3059844970703125,4.5185089111328125,5.815669251699542
1782414364.814052,0.06640625,0.017578125,0.9941405653953552,0.996511035705162,2.0503997802734375,0.6580352783203125,5.6781768798828125,6.072795267889011
1782414364.824706,0.09375,0.0048828087747097015,0.9960936903953552,1.0005076433326074,0.888824462890625,-0.743865966796875,6.5288543701171875,6.630933937884599
1782414364.83536,0.099609375,-0.00048828125,0.9843749403953552,0.9894019856887436,-0.2079010009765625,-1.5354156494140625,5.7392120361328125,5.944684923388658
1782414364.843394,0.09814453125,-0.01806640625,0.9716796278953552,0.9767906855186163,-1.2454986572265625,-1.8444061279296875,4.4574737548828125,4.98218557917776
1782414364.851428,0.11474609375,-0.01220703125,0.9833983778953552,0.9901454677420072,-1.8558502197265625,-2.3326873779296875,3.1147003173828125,4.311260663462162
1782414364.859462,0.103515625,-0.0087890625,0.9877929091453552,0.9932409393478571,-1.796722412109375,-2.452850341796875,1.8939971923828125,3.5821657681049817
1782414364.867496,0.11474609375,-0.02685546875,0.9912108778953552,0.9981918085672447,-1.3675689697265625,-3.0651092529296875,0.8563995361328125,3.463893731747938
1782414364.878147,0.12060546875,-0.0175781287252903,0.9838866591453552,0.9914068931302115,-1.1844635009765625,-3.6716461181640625,-0.3032684326171875,3.8698721870879624
1782414364.888798,0.10791015625,-0.0224609375,0.9882811903953552,0.9944087724997898,-0.99945068359375,-4.039764404296875,-1.5850067138671875,4.453183624572892
1782414364.899449,0.103515625,-0.0029296875,0.9658202528953552,0.971356180085779,-1.3675689697265625,-3.7364959716796875,-1.8901824951171875,4.405046753234855
1782414364.907429,0.10400390625,-0.00439453125,0.9731444716453552,0.978696217993144,-1.48773193359375,-3.246307373046875,-1.8329620361328125,4.013926717372559
1782414364.915411,0.103515625,-0.00341796875,0.9799804091453552,0.9854383640990513,-1.918792724609375,-2.513885498046875,-2.0122528076171875,3.7484059517436887
1782414364.923393,0.10400390625,0.013671875,0.9990233778953552,1.004515526143185,-1.4896392822265625,-1.1730194091796875,-0.9746551513671875,2.1318893943052784
1782414364.931375,0.08642578125,-0.00048828125,0.9990233778953552,1.0027548871307972,-0.331878662109375,-0.743865966796875,-0.3032684326171875,0.8691672826011365
1782414364.942055,0.0888671875,0.0068359375,0.9780272841453552,0.9820801777800036,1.0738372802734375,-0.5016326904296875,0.4291534423828125,1.2605294672167715
1782414364.952735,0.09375,0.017578125,0.9794921278953552,0.9841254399656004,1.2569427490234375,-0.8068084716796875,1.4057159423828125,2.0510685739306496
1782414364.963415,0.09716796875,0.00048827752470970154,0.9716796278953552,0.9765260630586354,1.194000244140625,-0.438690185546875,2.0160675048828125,2.3838233672290894
1782414364.971431,0.08544921875,0.00048827752470970154,0.9702147841453552,0.9739704999506631,0.0972747802734375,-0.8678436279296875,2.0771026611328125,2.253213352148531
1782414364.979449,0.10791015625,-0.009277347475290298,0.9790038466453552,0.9849767523878312,-1.0623931884765625,-1.6002655029296875,2.0160675048828125,2.784610771909175
1782414364.987467,0.109375,-0.00927734375,0.9799804091453552,0.9861087982777323,-1.613616943359375,-1.720428466796875,1.2798309326171875,2.683579878696604
1782414364.995485,0.12353515625,-0.01953125,0.9868163466453552,0.9947104636841618,-1.7337799072265625,-1.8444061279296875,-0.2422332763671875,2.5429321051940637
1782414365.006129,0.10986328125,-0.009765625,0.9838866591453552,0.9900496280706668,-1.430511474609375,-1.903533935546875,-1.2798309326171875,2.7032890594332386
1782414365.016773,0.107421875,-0.0048828125,0.9868163466453552,0.9926579486877197,-0.759124755859375,-1.781463623046875,-1.9512176513671875,2.7490240737768628
1782414365.027417,0.1044921875,0.0029296875,0.9838866591453552,0.9894241549313374,-0.331878662109375,-1.598358154296875,-2.3212432861328125,2.8377918579746964
1782414365.038091,0.09423828125,0.001953125,0.9765624403953552,0.9811008451434294,0.2803802490234375,-0.7419586181640625,-2.6836395263671875,2.798398967729704
1782414365.048767,0.0859375,0.0195312462747097,0.9672850966453552,0.9712915019084165,0.2803802490234375,0.0476837158203125,-2.1381378173828125,2.156970131207063
1782414365.059443,0.07275390625,0.01904296875,0.9790038466453552,0.9818881286989112,-0.0858306884765625,0.2918243408203125,-1.0967254638671875,1.1381278909130854
1782414365.070089,0.0869140625,0.0209960900247097,0.9653319716453552,0.9694641331876536,-0.9403228759765625,1.2683868408203125,0.8563995361328125,1.7962272836530078
1782414365.080737,0.09033203125,0.02197265625,0.9819335341453552,0.9863245606653112,-0.8792877197265625,1.3942718505859375,1.8329620361328125,2.4651350294258565
1782414365.091385,0.091796875,0.00390625,0.9843749403953552,0.9886536038103474,-0.8792877197265625,1.6956329345703125,2.7446746826171875,3.343883529111208
1782414365.099454,0.0849609375,-0.00048828125,0.9863280653953552,0.989980632086306,-0.3910064697265625,2.1839141845703125,2.8705596923828125,3.6280132541748453
1782414365.107521,0.09814453125,0.00048827752470970154,0.9907225966453552,0.9955721224165222,0.095367431640625,1.209259033203125,2.6264190673828125,2.8930052668312043
1782414365.115588,0.10546875,0.0058593712747097015,0.9873046278953552,0.9929392819915441,-0.0247955322265625,0.1125335693359375,2.3212432861328125,2.3241017654273537
1782414365.123655,0.1123046875,-0.0078125,0.9848632216453552,0.9912764212571541,-0.820159912109375,-0.011444091796875,1.8939971923828125,2.063981253166387
1782414365.134224,0.09228515625,-0.017578125,0.9941405653953552,0.9985694789583743,-1.18255615234375,0.232696533203125,1.2226104736328125,1.7167886009195943
1782414365.144793,0.11083984375,0.009765621274709702,1.00927734375,1.015392335468641,-1.67083740234375,0.232696533203125,0.6732940673828125,1.816361803938977
1782414365.155362,0.1181640625,0.00146484375,1.00927734375,1.0161720563176158,-1.247406005859375,0.049591064453125,0.2460479736328125,1.272407412135141
1782414365.166075,0.1044921875,0.0009765625,0.9965819716453552,1.0020455065172416,-0.0858306884765625,-2.8209686279296875,-0.6084442138671875,2.8871153887983634
1782414365.176789,0.09033203125,0.0053710900247097015,0.9975585341453552,1.001654508063551,-0.2079010009765625,-4.3430328369140625,-1.1615753173828125,4.500490447348361
1782414365.187503,0.09521484375,0.01806640625,0.9794921278953552,0.9842749057626624,-0.637054443359375,-4.589080810546875,-0.7915496826171875,4.700218287439942
1782414365.195483,0.099609375,0.015136715024709702,0.9721679091453552,0.9773748468738499,-1.247406005859375,-4.711151123046875,-0.3032684326171875,4.8829231398683675
1782414365.203464,0.10791015625,0.0161132775247097,0.9902343153953552,0.9962270017024211,-1.796722412109375,-3.185272216796875,0.1201629638671875,3.6590449107874523
1782414365.211445,0.087890625,0.021484375,0.9965819716453552,1.0006807515589449,-1.3675689697265625,-1.9054412841796875,0.6084442138671875,2.4230467877867667
1782414365.219426,0.08544921875,0.0258789025247097,0.9931640028953552,0.9971690043457999,-0.51116943359375,-1.598358154296875,1.2226104736328125,2.0762512732047917
1782414365.227428,0.10107421875,0.014160159975290298,0.9941405653953552,0.9993657846809871,0.64849853515625,-1.232147216796875,1.7108917236328125,2.2058757000237668
1782414365.23543,0.10498046875,0.00390625,0.9736327528953552,0.9792838685072985,2.170562744140625,-1.232147216796875,2.0160675048828125,3.2084353779304915
1782414365.243432,0.11474609375,0.0185546875,0.9785155653953552,0.985395176657618,2.1724700927734375,-0.5016326904296875,2.0160675048828125,3.00595905566712
1782414365.251434,0.119140625,-0.00048828125,0.9560546278953552,0.9634496242482509,1.8672943115234375,0.4749298095703125,2.1991729736328125,2.923817391326495
1782414365.262095,0.12841796875,-0.00537109375,0.9599608778953552,0.9685271862139794,1.194000244140625,2.002716064453125,1.7681121826171875,2.9262140913039496
1782414365.272756,0.11962890625,-0.00439453125,0.9707030653953552,0.9780566590353638,0.28228759765625,3.833770751953125,1.2798309326171875,4.051598657617206
1782414365.283417,0.1005859375,-0.00732421875,0.9995116591453552,1.00458684630576,0.034332275390625,4.444122314453125,0.3032684326171875,4.454590171180261
1782414365.294059,0.09228515625,-0.008789066225290298,1.017578125,1.02179207191469,2.841949462890625,5.481719970703125,-0.7915496826171875,6.225149113626207
1782414365.304703,0.1064453125,0.0126953125,1.0126953125,1.0183533627735355,4.428863525390625,4.322052001953125,-0.8563995361328125,6.247270267853872
1782414365.315347,0.09765625,0.0029296875,1.0234375,1.0280902891473882,5.832672119140625,3.833770751953125,-0.4863739013671875,6.996743656863724
1782414365.326056,0.06494140625,0.0048828087747097015,0.9863280653953552,0.9884757359964897,6.9942474365234375,3.7136077880859375,-0.4863739013671875,7.9339107367664745
1782414365.336763,0.06640625,0.03271484375,0.9960936903953552,0.9988406735241048,5.893707275390625,2.490997314453125,-0.1201629638671875,6.3996321930631614
1782414365.34747,0.0634765625,0.0200195275247097,0.9853515028953552,0.987596901436646,5.283355712890625,1.148223876953125,0.7343292236328125,5.456327067654618
1782414365.355486,0.08251953125,0.03759765625,0.9897460341453552,0.9938914774258161,3.4542083740234375,-2.3326873779296875,1.7108917236328125,4.505567265541751
1782414365.363501,0.0732421875,0.01708984375,0.9819335341453552,0.9848095989928064,1.9283294677734375,-4.2858123779296875,2.3212432861328125,5.241642172880114
1782414365.371516,0.08984375,0.0078125,0.9809569716453552,0.9850936578772288,1.6231536865234375,-5.2623748779296875,3.2329559326171875,6.385861046733227
1782414365.379531,0.09619140625,0.01806640625,0.9809569716453552,0.9858274503637889,0.0972747802734375,-5.2013397216796875,3.4809112548828125,6.2594041607464534
1782414365.390158,0.09423828125,0.01025390625,0.9785155653953552,0.9830964896526331,0.095367431640625,-5.016326904296875,3.4160614013671875,6.069769851954945
1782414365.400785,0.10107421875,0.0048828087747097015,0.9692382216453552,0.974506321075294,0.4634857177734375,-4.2858123779296875,3.3588409423828125,5.464871382349482
1782414365.411412,0.0986328125,0.009765621274709702,0.9726561903953552,0.9776931337464464,0.4024505615234375,-4.2858123779296875,2.9277801513671875,5.20596300486524
1782414365.42208,0.1005859375,0.00244140625,0.9731444716453552,0.9783320775591225,0.339508056640625,-3.856658935546875,1.9512176513671875,4.335473928956826
1782414365.43275,0.09814453125,0.015136715024709702,0.9667968153953552,0.9718835071214152,0.034332275390625,-2.880096435546875,1.7108917236328125,3.3501171133526912
1782414365.44342,0.10595703125,0.010742183774709702,0.9750975966453552,0.9808963298774804,-0.087738037109375,-1.720428466796875,1.4629364013671875,2.2600342888916596
1782414365.451413,0.09814453125,0.0263671875,0.9746093153953552,0.9798933080934604,-0.087738037109375,0.415802001953125,2.8095245361328125,2.841481547910584
1782414365.459406,0.115234375,0.009765621274709702,0.9902343153953552,0.9969645570064312,0.4024505615234375,1.4514923095703125,3.1147003173828125,3.4597910986527616
1782414365.467399,0.10498046875,0.017578125,0.9770507216453552,0.9828316244226143,0.705718994140625,1.880645751953125,3.6640167236328125,4.178502877118923
