timestamp,accel_x,accel_y,accel_z,accel_rms,gyro_x,gyro_y,gyro_z,gyro_rms
1785340011.401799,0.0278320349752903,0.19189453125,0.9643554091453552,0.9836561840614985,-0.23651123046875,-0.301361083984375,-0.3566741943359375,0.5234238683736823
1785340011.412422,0.03466796875,0.23779296875,0.9868163466453552,1.0156544028608725,-0.54168701171875,-0.301361083984375,0.0705718994140625,0.6238779645026223
1785340011.423045,0.0356445349752903,0.2270507663488388,0.9882811903953552,1.0146537806870184,-1.6384124755859375,-0.2422332763671875,0.0095367431640625,1.656249784846899
1785340011.433709,0.03515625,0.1650390625,0.9809569716453552,0.9953644730874052,-1.0929107666015625,-0.1811981201171875,0.0705718994140625,1.1100752656800017
1785340011.444372,0.037109375,0.17529296875,0.9814452528953552,0.9976670361583101,-1.02996826171875,0.431060791015625,0.3147125244140625,1.1600396539437916
1785340011.455035,0.0278320349752903,0.1684570163488388,0.9809569716453552,0.9957052619865203,-0.7266998291015625,0.4291534423828125,0.0095367431640625,0.8440120071393744
1785340011.463028,0.0463867224752903,0.16259765625,0.9716796278953552,0.9862814127351528,-0.23651123046875,0.370025634765625,-0.1125335693359375,0.4533435085550825
1785340011.471023,0.03564453125,0.16748046875,0.9858397841453552,1.0005999800242416,-0.41961669921875,0.186920166015625,0.0705718994140625,0.4647555440373533
1785340011.479018,0.03369140625,0.16748046875,0.9975585341453552,1.0120809489927434,-0.7266998291015625,0.4291534423828125,0.0705718994140625,0.8469036023728832
1785340011.487013,0.03662109375,0.20849609375,0.9897460341453552,1.012130889619971,-0.48065185546875,0.492095947265625,-0.2346038818359375,0.726789934474395
1785340011.497653,0.019042976200580597,0.19482421875,0.9672850966453552,0.9868938997411717,0.3719329833984375,0.0667572021484375,-0.3566741943359375,0.5196221214339704
1785340011.508293,0.0322265662252903,0.1977538913488388,0.9570311903953552,0.9777800634620405,0.12969970703125,0.370025634765625,-0.6008148193359375,0.7174394967670591
1785340011.518933,0.02587890625,0.19384765625,0.9858397841453552,1.0050506015251546,-0.05340576171875,0.003814697265625,-0.1125335693359375,0.1246215532220431
1785340011.529627,0.0224609412252903,0.18115234375,0.9765624403953552,0.9934761524655616,0.49591064453125,0.125885009765625,-0.5397796630859375,0.743731462104609
1785340011.540319,0.029296875,0.19384765625,0.9731444716453552,0.9926960176268974,0.25177001953125,-0.118255615234375,-0.5397796630859375,0.6072352245632616
1785340011.551011,0.0322265662252903,0.1889648288488388,0.9653319716453552,0.9841809150726571,0.31280517578125,-0.667572021484375,-0.2346038818359375,0.7736526761000468
1785340011.559135,0.02734375,0.18603515625,0.9799804091453552,0.9978568846952564,0.3719329833984375,-0.7305145263671875,0.0095367431640625,0.8198027609390663
1785340011.567261,0.0268554724752903,0.177734375,0.9711913466453552,0.9876858590955578,0.3719329833984375,-0.9098052978515625,-0.1735687255859375,0.9981011605243024
1785340011.575387,0.025390625,0.1884765625,0.9648436903953552,0.9834080767135458,0.49591064453125,-0.972747802734375,-0.3566741943359375,1.1486436070379464
1785340011.583513,0.0278320349752903,0.20556640625,0.9692382216453552,0.9911886298014403,0.86212158203125,-0.789642333984375,-0.2346038818359375,1.1924041341746712
1785340011.59401,0.03466796875,0.19140625,0.9711913466453552,0.9904801120644129,0.74005126953125,-0.667572021484375,0.0095367431640625,0.9967041862427021
1785340011.604507,0.03662109375,0.20068359375,0.9736327528953552,0.994774219015777,0.55694580078125,-0.667572021484375,0.0705718994140625,0.8722507792278039
1785340011.615004,0.0312500037252903,0.1728515625,0.9663085341453552,0.9821437820164964,0.67901611328125,-0.667572021484375,0.1316070556640625,0.9612677582572265
1785340011.625672,0.0244140625,0.18310546875,0.9697265028953552,0.9871641958415867,0.37384033203125,-0.484466552734375,-0.1125335693359375,0.6221963024633387
1785340011.636341,0.02734375,0.18603515625,0.9746093153953552,0.9925825294052013,0.25177001953125,-0.484466552734375,0.1316070556640625,0.5616194446007533
1785340011.64701,0.041015625,0.18212890625,0.9750975966453552,0.9928084120158883,0.49591064453125,-0.606536865234375,-0.0514984130859375,0.785153757424692
1785340011.655042,0.0317382849752903,0.1874999850988388,0.9741210341453552,0.9925096232831467,0.12969970703125,0.125885009765625,-0.0514984130859375,0.18793918228526335
1785340011.663072,0.0322265625,0.18603515625,0.9716796278953552,0.9898529840124666,0.3719329833984375,0.0667572021484375,-0.3566741943359375,0.5196221214339704
1785340011.671102,0.0341796875,0.17626953125,0.9707030653953552,0.9871695091789614,0.49591064453125,-0.057220458984375,0.0095367431640625,0.4992919964869852
1785340011.679132,0.04931640625,0.18994140625,0.9707030653953552,0.990340490387817,0.3719329833984375,0.1239776611328125,-0.2346038818359375,0.456884652808688
1785340011.689753,0.03662109375,0.19091796875,0.9643554091453552,0.9837541005998286,0.5550384521484375,0.0667572021484375,-0.2346038818359375,0.6062698976318314
1785340011.700374,0.0361328125,0.17724609375,0.9697265028953552,0.9864538754074867,0.67901611328125,0.308990478515625,-0.4177093505859375,0.854996549394099
1785340011.710995,0.03125,0.19140625,0.9746093153953552,0.9937183870163948,0.43487548828125,0.492095947265625,-0.4177093505859375,0.7783034197471023
1785340011.72166,0.0239257849752903,0.1733398288488388,0.9619140028953552,0.9777002037527629,0.80108642578125,0.431060791015625,0.0095367431640625,0.9097493152468826
1785340011.732326,0.03857421875,0.18310546875,0.9711913466453552,0.9890542021735454,0.55694580078125,0.492095947265625,-0.1735687255859375,0.7631992851311163
1785340011.742992,0.02587890625,0.1962890625,0.9790038466453552,0.9988231302849506,0.55694580078125,0.675201416015625,-0.5397796630859375,1.028322742079811
1785340011.753646,0.028808601200580597,0.1953125,0.9746093153953552,0.9944044578614816,0.37384033203125,0.675201416015625,-0.2346038818359375,0.8066551477646634
1785340011.764301,0.02490234375,0.1826171875,0.9672850966453552,0.9846875758771751,0.43487548828125,0.370025634765625,-0.1125335693359375,0.5819789213700489
1785340011.774956,0.0283203162252903,0.1840820163488388,0.9628905653953552,0.9807377172218582,0.19073486328125,0.125885009765625,-0.5397796630859375,0.5861645745315703
1785340011.782987,0.029296875,0.1865234375,0.9667968153953552,0.9850611056580107,0.49591064453125,-0.301361083984375,-0.0514984130859375,0.5825787130079567
1785340011.791018,0.0278320349752903,0.19140625,0.9638671278953552,0.9830823032417831,0.1926422119140625,0.2460479736328125,-0.4177093505859375,0.5216624662623155
1785340011.799049,0.0229492224752903,0.19189453125,0.9667968153953552,0.9859240641116729,0.12969970703125,0.064849853515625,0.0095367431640625,0.1453219425109897
1785340011.80708,0.03076171875,0.18359375,0.9682616591453552,0.9859937063442306,0.12969970703125,-0.240325927734375,0.2536773681640625,0.37273418499518585
1785340011.817788,0.03515625,0.1884765625,0.9731444716453552,0.9918515711636476,-0.1163482666015625,-0.0591278076171875,-0.0514984130859375,0.1403036112335433
1785340011.828496,0.029296875,0.181640625,0.9775390028953552,0.9947030339336468,0.12969970703125,-0.057220458984375,-0.0514984130859375,0.15082533434653636
1785340011.839204,0.0278320349752903,0.1884765475988388,0.9814452528953552,0.9997663805092022,-0.05340576171875,-0.179290771484375,-0.2346038818359375,0.3000605563827289
1785340011.849815,0.0361328125,0.19580078125,0.9750975966453552,0.9952179907240516,0.43487548828125,-0.179290771484375,0.3147125244140625,0.565955690907327
1785340011.860426,0.03076171875,0.1962890625,0.9814452528953552,1.0013543148298762,0.67901611328125,-0.118255615234375,-0.1125335693359375,0.6983631411074915
1785340011.871037,0.0332031287252903,0.1894531100988388,0.9750975966453552,0.993886438013327,0.55694580078125,0.003814697265625,-0.0514984130859375,0.5593346614268295
1785340011.879051,0.02978515625,0.18212890625,0.9604491591453552,0.9780187530552152,0.49591064453125,-0.057220458984375,0.1316070556640625,0.5162576540704709
1785340011.887066,0.04345703125,0.1884765625,0.9692382216453552,0.9883494617164167,0.00762939453125,0.125885009765625,0.3147125244140625,0.33904161450724135
1785340011.895081,0.0371093787252903,0.1782226413488388,0.9672850966453552,0.9842666681702413,0.12969970703125,-0.057220458984375,0.1926422119140625,0.23918030174225716
1785340011.903096,0.025390625,0.18701171875,0.9741210341453552,0.9922347786447198,0.12969970703125,-0.118255615234375,0.3147125244140625,0.36034757882012264
1785340011.913733,0.02490234375,0.18505859375,0.9760741591453552,0.993774408000268,0.1277923583984375,0.2460479736328125,0.2536773681640625,0.3757960874097723
1785340011.92437,0.04638671875,0.1943359375,0.9599608778953552,0.9805320348514966,0.31280517578125,0.125885009765625,0.2536773681640625,0.42195535403390194
1785340011.935007,0.03515625,0.1953125,0.9814452528953552,1.0013080040632554,0.5550384521484375,-0.1811981201171875,0.0705718994140625,0.5881163448538432
1785340011.943013,0.0380859412252903,0.1806640625,0.9726561903953552,0.9900253062989984,0.5550384521484375,0.3070831298828125,0.2536773681640625,0.6831690414096667
1785340011.951017,0.03564453125,0.2001953125,0.9609374403953552,0.9822166054942167,0.1926422119140625,0.4291534423828125,0.2536773681640625,0.5344491613229512
1785340011.959021,0.0302734375,0.20361328125,0.9750975966453552,0.9965892696106083,-0.1163482666015625,0.4291534423828125,-0.1735687255859375,0.4773213788965802
1785340011.967025,0.03662109375,0.19384765625,0.9677733778953552,0.9876757207221663,-0.48065185546875,0.186920166015625,-0.4177093505859375,0.6636614017673369
1785340011.977774,0.03076171875,0.201171875,0.9555663466453552,0.9769971593984401,-0.2994537353515625,0.2460479736328125,-0.5397796630859375,0.6645105188226782
1785340011.988523,0.02734375,0.205078125,0.9624022841453552,0.9843895948991818,-0.6046295166015625,0.1239776611328125,-0.6008148193359375,0.8613511246521228
1785340011.999272,0.0239257849752903,0.1874999850988388,0.9804686903953552,0.9985226789834728,-0.6046295166015625,-0.1811981201171875,-0.1125335693359375,0.641150072375671
1785340012.009865,0.0322265662252903,0.1787109225988388,0.9755858778953552,0.9923426578433743,-0.66375732421875,0.064849853515625,-0.2346038818359375,0.7069782672243351
1785340012.020459,0.0317382849752903,0.1933593600988388,0.9780272841453552,0.997463046635686,-0.54168701171875,-0.179290771484375,0.0705718994140625,0.5749351201580576
1785340012.031053,0.0341796875,0.19140625,0.9667968153953552,0.9861544938980203,-0.2994537353515625,-0.3643035888671875,0.0705718994140625,0.47683334349060047
1785340012.041715,0.0361328125,0.18896484375,0.9755858778953552,0.99437472688191,0.00762939453125,0.003814697265625,0.0705718994140625,0.0710855299132699
1785340012.052378,0.02587890625,0.19580078125,0.9731444716453552,0.9929843032096349,0.31280517578125,0.308990478515625,0.1926422119140625,0.48003459835723944
1785340012.063041,0.02001953125,0.19482421875,0.9809569716453552,1.0003168688283948,0.25177001953125,0.064849853515625,-0.1735687255859375,0.3126015814695929
1785340012.071027,0.02978515625,0.197265625,0.9584960341453552,0.9790380635153322,0.49591064453125,0.308990478515625,0.1316070556640625,0.5989348046935312
1785340012.079013,0.02734375,0.2001953125,0.9667968153953552,0.9876851350858915,0.49591064453125,0.370025634765625,-0.3566741943359375,0.7141868233510708
1785340012.086999,0.0302734375,0.19873046875,0.9741210341453552,0.9946467058167324,0.7381439208984375,0.1239776611328125,-0.1735687255859375,0.7683443309615864
1785340012.094985,0.0244140625,0.1923828125,0.9638671278953552,0.9831820956620422,0.06866455078125,-0.179290771484375,-0.3566741943359375,0.40506355325879834
1785340012.103027,0.0219726599752903,0.1831054538488388,0.9731444716453552,0.9904648240646896,0.3719329833984375,-0.2422332763671875,0.0095367431640625,0.4439617706395697
1785340012.111069,0.0302734375,0.1904296875,0.9697265028953552,0.9887109978740347,0.2498626708984375,-0.5474090576171875,-0.0514984130859375,0.603937179862449
1785340012.119111,0.029296875,0.2041015625,0.9731444716453552,0.9947491731052731,0.00762939453125,-0.179290771484375,-0.1125335693359375,0.2118187730770389
1785340012.127153,0.0419921875,0.18603515625,0.9711913466453552,0.9897398925833067,0.12969970703125,-0.057220458984375,-0.4177093505859375,0.4411091661905251
1785340012.137776,0.03857421875,0.19482421875,0.9711913466453552,0.991290612465658,-0.11444091796875,-0.301361083984375,-0.3566741943359375,0.4807615911769136
1785340012.148399,0.0302734375,0.18994140625,0.9741210341453552,0.9929279973848608,-0.05340576171875,0.064849853515625,-0.2956390380859375,0.307343650863551
1785340012.159022,0.0361328125,0.18505859375,0.9667968153953552,0.9850118504457133,0.25177001953125,0.064849853515625,-0.2346038818359375,0.35018941675649556
1785340012.169674,0.04345703125,0.18798828125,0.9711913466453552,0.9901720755763672,-0.05340576171875,0.125885009765625,-0.6008148193359375,0.6161798911049651
1785340012.180327,0.03564453125,0.1826171875,0.9633788466453552,0.9811821298526473,-0.11444091796875,0.186920166015625,-0.3566741943359375,0.418631524223904
1785340012.19098,0.0302734375,0.1943359375,0.9863280653953552,1.005746484064754,-0.05340576171875,-0.057220458984375,-0.1125335693359375,0.13707720648827323
1785340012.201681,0.0332031287252903,0.1796874850988388,0.9672850966453552,0.9843934671921121,0.12969970703125,0.003814697265625,-0.2346038818359375,0.2680961530714512
1785340012.212384,0.029296875,0.1826171875,0.9648436903953552,0.9824106529099244,0.19073486328125,0.125885009765625,-0.0514984130859375,0.23426248164180813
1785340012.223087,0.03466796875,0.1845703125,0.9721679091453552,0.9901406525770217,0.06866455078125,0.003814697265625,-0.1125335693359375,0.1318831933064463
1785340012.233714,0.0390625,0.20556640625,0.9702147841453552,0.9925221174659072,0.3719329833984375,-0.0591278076171875,-0.3566741943359375,0.5186971396474707
1785340012.244344,0.0317382849752903,0.2021484225988388,0.9614257216453552,0.9829601831883443,0.37384033203125,0.186920166015625,-0.2346038818359375,0.4793065028653738
1785340012.254974,0.02587890625,0.20068359375,0.9692382216453552,0.9901345125220926,0.06866455078125,0.370025634765625,-0.3566741943359375,0.5185077355477782
1785340012.262984,0.0458984375,0.18603515625,0.9716796278953552,0.9903923693126676,0.00762939453125,0.553131103515625,-0.4787445068359375,0.7315794749464418
1785340012.270997,0.0307617224752903,0.1874999850988388,0.9750975966453552,0.9934373915679132,0.0667572021484375,0.4291534423828125,-0.3566741943359375,0.5620014964863487
1785340012.27901,0.0283203162252903,0.1982421725988388,0.9804686903953552,1.0007101739032092,0.00762939453125,0.553131103515625,-0.7839202880859375,0.9594494480742931
1785340012.287023,0.0283203162252903,0.201171875,0.9663085341453552,0.9874332112929265,0.00762939453125,0.370025634765625,-0.3566741943359375,0.5139977227087755
1785340012.297679,0.04443359375,0.18798828125,0.9809569716453552,0.9997952382165537,-0.1163482666015625,-0.0591278076171875,-0.7839202880859375,0.7947100319283397
1785340012.308335,0.03271484375,0.18505859375,0.9814452528953552,0.9992756019002677,-0.29754638671875,0.186920166015625,-0.4787445068359375,0.5938596665360241
1785340012.318991,0.02490234375,0.19677734375,0.9775390028953552,0.9974587469761315,0.00762939453125,0.186920166015625,-0.4177093505859375,0.45768816643119353
1785340012.326978,0.0166015662252903,0.1874999850988388,0.9672850966453552,0.9854300150723092,0.12969970703125,0.003814697265625,-0.4177093505859375,0.43739875112549886
1785340012.334966,0.04736328125,0.189453125,0.9677733778953552,0.9872796351318193,-0.05340576171875,0.064849853515625,-0.2956390380859375,0.307343650863551
1785340012.342954,0.03173828125,0.1865234375,0.9687499403953552,0.9870535741536651,0.1926422119140625,-0.2422332763671875,-0.4787445068359375,0.5700739292550658
1785340012.350942,0.0234375037252903,0.1938476413488388,0.9765624403953552,0.9958917735518819,-0.05340576171875,0.186920166015625,-0.3566741943359375,0.4062115271053479
1785340012.361665,0.0278320349752903,0.19580078125,0.9570311903953552,0.9772518956228874,0.19073486328125,0.370025634765625,-0.1735687255859375,0.4510264526124242
1785340012.372388,0.0224609375,0.1904296875,0.9702147841453552,0.9889816413710342,0.19073486328125,0.308990478515625,-0.3566741943359375,0.5089905547153327
1785340012.383111,0.04443359375,0.1826171875,0.9731444716453552,0.99112741063794,0.0667572021484375,0.2460479736328125,-0.0514984130859375,0.26009270639114507
1785340012.393728,0.02685546875,0.19873046875,0.9628905653953552,0.9835513491113537,0.00762939453125,0.125885009765625,0.0705718994140625,0.14451863662349407
1785340012.404345,0.04443359375,0.201171875,0.9697265028953552,0.9913697382723617,0.2498626708984375,0.2460479736328125,-0.0514984130859375,0.3544334157323262
1785340012.414962,0.04345703125,0.1904296875,0.9711913466453552,0.9906384866565753,-0.23651123046875,0.064849853515625,-0.1735687255859375,0.3004482786443728
1785340012.425643,0.0302734375,0.1962890625,0.9560546278953552,0.9764662454971608,-0.1163482666015625,0.2460479736328125,-0.4787445068359375,0.5507021221092093
1785340012.436327,0.0224609412252903,0.1972656100988388,0.9824218153953552,1.0022828134678847,0.31280517578125,-0.179290771484375,-0.3566741943359375,0.5071575096951549
1785340012.447011,0.0419921912252903,0.1831054538488388,0.9736327528953552,0.9915904844559968,0.12969970703125,0.186920166015625,-0.5397796630859375,0.5857672294934816
1785340012.455007,0.0366210974752903,0.19677734375,0.9794921278953552,0.9997335927148648,-0.05340576171875,-0.118255615234375,-0.4787445068359375,0.4960170044915854
1785340012.463004,0.0332031287252903,0.1889648288488388,0.9667968153953552,0.9856501593149669,0.25177001953125,0.064849853515625,-0.8449554443359375,0.8840494042465645
1785340012.471001,0.02978515625,0.1865234375,0.9624022841453552,0.9807631236939174,-0.05340576171875,-0.118255615234375,-0.4787445068359375,0.4960170044915854
1785340012.478998,0.02685546875,0.18994140625,0.9833983778953552,1.0019337920527611,0.19073486328125,0.064849853515625,-0.6008148193359375,0.6336905701567528
1785340012.489644,0.0429687537252903,0.18701171875,0.9599608778953552,0.9789507565940969,0.3719329833984375,0.1239776611328125,-0.7839202880859375,0.8764905148787202
1785340012.50029,0.041015625,0.1962890625,0.9731444716453552,0.9935903784986986,0.1926422119140625,-0.0591278076171875,-0.6008148193359375,0.6337077927392347
1785340012.510936,0.03369140625,0.19482421875,0.9809569716453552,1.0006838498178516,0.19073486328125,0.003814697265625,-0.7839202880859375,0.8067994534324405
1785340012.518954,0.0288085974752903,0.1928710788488388,0.9785155653953552,0.9977584377321997,0.0667572021484375,0.1239776611328125,-0.4177093505859375,0.440803908859229
1785340012.526973,0.03564453125,0.20458984375,0.9863280653953552,1.0079536642922757,0.00762939453125,0.308990478515625,-0.6008148193359375,0.6756565478169391
1785340012.534992,0.0390625,0.181640625,0.9658202528953552,0.9835283201105541,0.00762939453125,-0.179290771484375,-0.2956390380859375,0.3458407570555475
1785340012.543011,0.03564453125,0.1962890625,0.9667968153953552,0.9871656451294087,0.06866455078125,0.370025634765625,-0.3566741943359375,0.5185077355477782
1785340012.553684,0.03564453125,0.19189453125,0.9755858778953552,0.9949180111348574,0.0667572021484375,0.0667572021484375,-0.2956390380859375,0.3103473681501957
1785340012.564357,0.03076171875,0.1943359375,0.9755858778953552,0.9952288908051801,-0.1163482666015625,0.1239776611328125,-0.2956390380859375,0.3410422560937708
1785340012.57503,0.04345703125,0.19287109375,0.9677733778953552,0.9877616530987477,0.2498626708984375,0.2460479736328125,-0.5397796630859375,0.6436870701812195
1785340012.583032,0.02587890625,0.1884765625,0.9760741591453552,0.9944414998137522,-0.0553131103515625,0.2460479736328125,-0.1125335693359375,0.27615747270907515
1785340012.591036,0.03271484375,0.1904296875,0.9697265028953552,0.9887887627297298,-0.2384185791015625,0.2460479736328125,-0.4787445068359375,0.5887098835718713
1785340012.59904,0.0380859412252903,0.19580078125,0.9765624403953552,0.9967259828298138,0.19073486328125,0.308990478515625,-0.2956390380859375,0.4682492335547496
1785340012.607044,0.0244140625,0.2001953125,0.9780272841453552,0.998604815794249,-0.23651123046875,0.186920166015625,-0.0514984130859375,0.3058247817812037
1785340012.617709,0.0361328125,0.19384765625,0.9677733778953552,0.9876577367366512,0.06866455078125,0.492095947265625,-0.4787445068359375,0.6899779305708471
1785340012.628374,0.0390625,0.18798828125,0.9638671278953552,0.9828048193974326,-0.2994537353515625,0.2460479736328125,-0.6008148193359375,0.7149759381115508
1785340012.639039,0.0371093787252903,0.1938476413488388,0.9663085341453552,0.9862586867592246,-0.23651123046875,0.186920166015625,-0.5397796630859375,0.6182546362804886
1785340012.647028,0.048828125,0.18798828125,0.9707030653953552,0.9899435442722399,0.00762939453125,-0.179290771484375,-0.7228851318359375,0.7448263570993152
1785340012.655018,0.03515625,0.20361328125,0.9677733778953552,0.9895855906279356,0.0667572021484375,0.0667572021484375,-0.6008148193359375,0.608187056102849
1785340012.663008,0.0302734375,0.20556640625,0.9565429091453552,0.9788505327336068,-0.05340576171875,0.308990478515625,-0.6618499755859375,0.7323746864694197
1785340012.670998,0.008789066225290298,0.19140625,0.9697265028953552,0.9884751340533713,0.31280517578125,0.186920166015625,-0.6008148193359375,0.7026839073100527
1785340012.681683,0.0244140625,0.197265625,0.9770507216453552,0.9970646347765545,-0.05340576171875,0.003814697265625,-0.5397796630859375,0.5424286238586202
1785340012.692368,0.02001953125,0.203125,0.9750975966453552,0.9962308318055698,0.00762939453125,-0.118255615234375,-0.4177093505859375,0.4341931595065722
1785340012.703053,0.02294921875,0.19970703125,0.9755858778953552,0.9960810058026279,-0.17547607421875,0.492095947265625,-0.0514984130859375,0.5249784381180306
1785340012.711042,0.0288085974752903,0.20068359375,0.9584960341453552,0.9797032650559465,-0.2384185791015625,0.2460479736328125,-0.0514984130859375,0.3464608357953191
1785340012.719031,0.0322265625,0.1845703125,0.9814452528953552,0.9991694230798608,-0.05340576171875,0.064849853515625,-0.2956390380859375,0.307343650863551
1785340012.72702,0.0332031287252903,0.1997070163488388,0.9604491591453552,0.9815538331844685,-0.23651123046875,0.064849853515625,0.1316070556640625,0.2783226234775101
1785340012.735009,0.02685546875,0.19384765625,0.9824218153953552,1.0017238908003072,-0.11444091796875,0.003814697265625,0.0705718994140625,0.13450527353106675
1785340012.745683,0.03564453125,0.18603515625,0.9702147841453552,0.9885324169409987,-0.23651123046875,0.308990478515625,-0.1125335693359375,0.40506355325879834
1785340012.756357,0.0327148474752903,0.1938476413488388,0.9707030653953552,0.9904098194534315,-0.23651123046875,0.186920166015625,0.0095367431640625,0.30160845490690125
1785340012.767031,0.03369140625,0.17431640625,0.9770507216453552,0.9930505692112195,-0.2994537353515625,-0.0591278076171875,0.1316070556640625,0.3323989385515279
1785340012.777698,0.0146484375,0.19677734375,0.9804686903953552,1.0001273681787135,0.0667572021484375,0.2460479736328125,0.1926422119140625,0.31954209609790557
1785340012.788366,0.0400390625,0.19384765625,0.9663085341453552,0.9863732678462258,-0.1163482666015625,0.3070831298828125,0.0705718994140625,0.335882956975672
1785340012.799034,0.0302734375,0.1875,0.9633788466453552,0.9819223661684264,-0.05340576171875,0.308990478515625,0.0095367431640625,0.31371681604315077
1785340012.807035,0.03515625,0.1806640625,0.9780272841453552,0.9951948723369739,0.2498626708984375,-0.0591278076171875,0.3147125244140625,0.4061667452724163
1785340012.815035,0.03564453125,0.18505859375,0.9667968153953552,0.9849940598741499,0.19073486328125,-0.118255615234375,0.0095367431640625,0.22462218963307024
1785340012.823035,0.0429687537252903,0.1865234375,0.9819335341453552,1.0004152997694051,0.25177001953125,-0.423431396484375,0.1926422119140625,0.5289549244260956
1785340012.831035,0.03662109375,0.18408203125,0.9755858778953552,0.993476272432021,0.25177001953125,-0.423431396484375,0.0705718994140625,0.49765719451283186
1785340012.841693,0.03466796875,0.19677734375,0.9692382216453552,0.9896190789232023,0.00762939453125,-0.667572021484375,-0.2956390380859375,0.7301459116984952
1785340012.852351,0.0380859412252903,0.1972656100988388,0.9614257216453552,0.9821932997572196,0.1926422119140625,-0.5474090576171875,-0.1125335693359375,0.591127314882307
1785340012.863009,0.03955078125,0.2021484375,0.9750975966453552,0.9966160635193096,0.31280517578125,-0.362396240234375,-0.2956390380859375,0.562654915353921
1785340012.873691,0.0375976599752903,0.2026367038488388,0.9755858778953552,0.9971173566492514,0.5550384521484375,-0.4215240478515625,-0.2346038818359375,0.7353837009704459
1785340012.884376,0.0371093787252903,0.19140625,0.9692382216453552,0.9886537254401514,0.25177001953125,-0.423431396484375,-0.2956390380859375,0.5745300088801736
1785340012.895061,0.0371093787252903,0.1982421725988388,0.9638671278953552,0.9847420500939958,0.3719329833984375,-0.4215240478515625,-0.1125335693359375,0.5733066119314472
1785340012.903127,0.03662109375,0.20068359375,0.9663085341453552,0.9876068005385576,-0.4215240478515625,-0.2422332763671875,-0.4787445068359375,0.6823164851609066
1785340012.911193,0.0375976599752903,0.1879882663488388,0.9731444716453552,0.9918484435710816,-0.4215240478515625,0.1239776611328125,-0.5397796630859375,0.6959993305013281
1785340012.919259,0.0341796875,0.1865234375,0.9619140028953552,0.9804273520973288,-0.72479248046875,-0.179290771484375,-0.6008148193359375,0.9583568060055613
1785340012.927325,0.0317382849752903,0.2026367038488388,0.9643554091453552,0.9859261167185908,-0.6046295166015625,-0.1811981201171875,-0.6618499755859375,0.9145791388736941
1785340012.937893,0.02978515625,0.18408203125,0.9687499403953552,0.9865342349751312,-0.60272216796875,0.003814697265625,-0.2346038818359375,0.6467824557366015
1785340012.948461,0.0214843787252903,0.1826171875,0.9741210341453552,0.9913235621450941,-0.2994537353515625,0.1239776611328125,-0.1125335693359375,0.3430842524853806
1785340012.959029,0.023925788700580597,0.1796875,0.9770507216453552,0.9937243851737282,-0.23651123046875,0.308990478515625,-0.2956390380859375,0.488687137943629
1785340012.967013,0.0419921912252903,0.1874999850988388,0.9667968153953552,0.9857056714834133,0.19073486328125,-0.118255615234375,-0.0514984130859375,0.23025261161547664
1785340012.974997,0.0244140625,0.18701171875,0.9755858778953552,0.9936484461550946,0.49591064453125,0.186920166015625,0.0095367431640625,0.5300542097681009
1785340012.982981,0.04541015625,0.19091796875,0.9804686903953552,0.9999152993768314,0.49591064453125,-0.057220458984375,-0.2346038818359375,0.5515800301481851
1785340012.990965,0.03173828125,0.1953125,0.9716796278953552,0.9916227056798418,0.67901611328125,0.370025634765625,-0.1125335693359375,0.7814381976245884
1785340013.001675,0.03125,0.19873046875,0.9799804091453552,1.0004158955246025,0.67901611328125,0.064849853515625,-0.2346038818359375,0.7213233442562801
1785340013.012385,0.0341796875,0.1875,0.9599608778953552,0.9786978022491002,0.67901611328125,0.003814697265625,-0.2956390380859375,0.7405942714139653
1785340013.023095,0.0341796875,0.19091796875,0.9628905653953552,0.9822301984548278,0.19073486328125,0.064849853515625,-0.1125335693359375,0.2307576559930383
1785340013.033779,0.02685546875,0.18408203125,0.9790038466453552,0.9965219225773764,0.12969970703125,-0.301361083984375,-0.4177093505859375,0.5311512200034518
1785340013.044465,0.03125,0.193359375,0.9580077528953552,0.9778257845894629,0.06866455078125,-0.301361083984375,-0.2956390380859375,0.4277099067295575
1785340013.055151,0.0327148474752903,0.2021484225988388,0.9594725966453552,0.9810820096800832,0.31280517578125,-0.301361083984375,-0.0514984130859375,0.43739875112549886
1785340013.065779,0.03076171875,0.2138671875,0.9658202528953552,0.9896940022716426,0.19073486328125,-0.301361083984375,0.1316070556640625,0.38015616279592035
1785340013.076407,0.029296875,0.19775390625,0.9609374403953552,0.9815119350652218,-0.1163482666015625,0.0667572021484375,-0.2956390380859375,0.32464732252130774
1785340013.087035,0.0302734375,0.18701171875,0.9814452528953552,0.9995622283773649,0.19073486328125,-0.362396240234375,-0.2346038818359375,0.47196377443551585
1785340013.095026,0.0434570275247097,0.1923827975988388,0.9614257216453552,0.9814474373569535,0.25177001953125,0.003814697265625,-0.3566741943359375,0.4365995597285738
1785340013.103017,0.03173828125,0.19140625,0.9663085341453552,0.9855941630295463,0.1926422119140625,0.2460479736328125,-0.3566741943359375,0.4742015479151727
1785340013.111008,0.0317382849752903,0.1982421725988388,0.9697265028953552,0.9902912542012758,0.31280517578125,0.247955322265625,-0.6008148193359375,0.7213233442562801
1785340013.118999,0.04638671875,0.18115234375,0.9794921278953552,0.9971823945154069,-0.1163482666015625,0.1239776611328125,-0.3566741943359375,0.39512512006494965
1785340013.129656,0.0371093787252903,0.1977538913488388,0.9755858778953552,0.9961182222416355,0.3719329833984375,-0.2422332763671875,-0.7839202880859375,0.900856327275323
1785340013.140313,0.0190429724752903,0.18603515625,0.9765624403953552,0.994306750531539,0.00762939453125,-0.301361083984375,-0.2956390380859375,0.42223115877624356
1785340013.15097,0.03515625,0.20703125,0.9682616591453552,0.990771689624578,0.12969970703125,-0.240325927734375,-0.3566741943359375,0.44921603538895427
1785340013.158985,0.03076171875,0.1826171875,0.9638671278953552,0.981496388555814,0.49591064453125,-0.057220458984375,-0.2956390380859375,0.5801758260442783
1785340013.167,0.0341796875,0.1904296875,0.9663085341453552,0.9854866311021628,0.4978179931640625,-0.2422332763671875,-0.1735687255859375,0.5801946371684276
1785340013.175015,0.0263671875,0.20068359375,0.9702147841453552,0.991103355231579,0.61798095703125,0.186920166015625,-0.1735687255859375,0.6685549448011696
1785340013.18303,0.04150390625,0.19482421875,0.9663085341453552,0.986626187371743,0.0667572021484375,0.1239776611328125,-0.1735687255859375,0.22350187247577213
1785340013.193709,0.03076171875,0.205078125,0.9711913466453552,0.9930840611412451,0.31280517578125,0.003814697265625,-0.2956390380859375,0.4304231298979476
1785340013.204388,0.03662109375,0.1904296875,0.9731444716453552,0.9922775484120919,0.31280517578125,0.370025634765625,-0.1735687255859375,0.514676744064436
1785340013.215067,0.0283203162252903,0.20068359375,0.9614257216453552,0.982555526854746,0.0667572021484375,0.3070831298828125,-0.6618499755859375,0.7326677029052241
1785340013.223047,0.02099609375,0.18798828125,0.9643554091453552,0.9827317970779176,0.19073486328125,0.308990478515625,-0.4787445068359375,0.6008753670353087
1785340013.231028,0.02490234375,0.19580078125,0.9580077528953552,0.9781292998729573,0.3719329833984375,-0.0591278076171875,-0.2956390380859375,0.47878250032102876
1785340013.239009,0.029296875,0.19189453125,0.9726561903953552,0.9918376292129818,0.0667572021484375,-0.2422332763671875,-0.2346038818359375,0.34376222246017685
1785340013.24699,0.03515625,0.19580078125,0.9785155653953552,0.9985322326160355,0.06866455078125,0.003814697265625,-0.1735687255859375,0.186696210327756
1785340013.257677,0.0419921912252903,0.19140625,0.9643554091453552,0.9840635405352997,0.0667572021484375,-0.0591278076171875,-0.1735687255859375,0.19513770566917343
1785340013.268364,0.0234375037252903,0.1928710788488388,0.9658202528953552,0.9851686812622679,0.12969970703125,-0.057220458984375,-0.0514984130859375,0.15082533434653636
1785340013.279051,0.04736328125,0.18017578125,0.9541015028953552,0.9721194733092172,0.06866455078125,-0.301361083984375,-0.4177093505859375,0.5196291225875952
1785340013.28969,0.0302734375,0.20947265625,0.9702147841453552,0.9930317226094619,0.12969970703125,-0.057220458984375,-0.2346038818359375,0.2741079646833801
1785340013.300329,0.03955078125,0.19287109375,0.9663085341453552,0.9861621095255849,0.25177001953125,-0.118255615234375,-0.2956390380859375,0.40592483800527035
1785340013.310968,0.03955078125,0.1943359375,0.9648436903953552,0.9850147551164994,0.3719329833984375,-0.1811981201171875,-0.4177093505859375,0.5879183654561156
1785340013.318982,0.03515625,0.197265625,0.9775390028953552,0.9978638138054453,0.19073486328125,-0.301361083984375,-0.4177093505859375,0.5492534866326114
1785340013.326997,0.03466796875,0.1943359375,0.9628905653953552,0.9829173747516328,0.43487548828125,0.003814697265625,-0.5397796630859375,0.6931762596225092
1785340013.335012,0.02978515625,0.19091796875,0.9726561903953552,0.9916636985585731,0.37384033203125,-0.301361083984375,-0.6008148193359375,0.7691251809212516
1785340013.343027,0.03955078125,0.19287109375,0.9633788466453552,0.9832915769320622,0.25177001953125,0.003814697265625,-0.7228851318359375,0.7654839047814495
1785340013.353689,0.0332031287252903,0.1933593600988388,0.9667968153953552,0.9865020892798865,0.31280517578125,-0.240325927734375,-0.6618499755859375,0.770486222926817
1785340013.364351,0.02490234375,0.19921875,0.9746093153953552,0.9950736428683099,0.31280517578125,-0.057220458984375,-0.2956390380859375,0.4341931595065722
1785340013.375013,0.015625,0.19482421875,0.9667968153953552,0.986355260083885,0.4978179931640625,-0.2422332763671875,-0.9059906005859375,1.0617526467344194
1785340013.383004,0.0283203162252903,0.19189453125,0.9628905653953552,0.9822340822645814,0.3719329833984375,-0.4215240478515625,-1.0890960693359375,1.2256210324973287
1785340013.390996,0.03076171875,0.19384765625,0.9736327528953552,0.993218976200445,0.31280517578125,0.186920166015625,-0.5397796630859375,0.6512666973982438
1785340013.398988,0.0327148474752903,0.19189453125,0.9687499403953552,0.988114476862369,0.43487548828125,-0.118255615234375,-0.7839202880859375,0.9042301139173896
1785340013.40698,0.0302734375,0.193359375,0.9838866591453552,1.0031636391749181,0.31280517578125,-0.362396240234375,-0.7228851318359375,0.8670300033799351
1785340013.417663,0.0380859412252903,0.1997070163488388,0.9682616591453552,0.9893755969645136,0.43487548828125,-0.179290771484375,-1.2111663818359375,1.299302072474632
1785340013.428346,0.044921875,0.19677734375,0.9726561903953552,0.9933777542210349,0.31280517578125,-0.423431396484375,-0.6618499755859375,0.8456870672461255
1785340013.439029,0.0239257849752903,0.1982421725988388,0.9711913466453552,0.9915064467678514,0.19073486328125,-0.423431396484375,-1.3332366943359375,1.4118052339906675
1785340013.449685,0.0322265625,0.1953125,0.9809569716453552,1.0007307850798048,0.1926422119140625,-0.7305145263671875,-0.9670257568359375,1.2271517059551915
1785340013.460341,0.0239257849752903,0.1933593600988388,0.9692382216453552,0.9886268333515771,0.25177001953125,-0.606536865234375,-1.0280609130859375,1.2199116167322122
1785340013.470997,0.0288085974752903,0.2021484225988388,0.9692382216453552,0.9905133266877043,0.3719329833984375,-0.9098052978515625,-0.9059906005859375,1.3367493379420468
1785340013.481694,0.0400390625,0.197265625,0.9746093153953552,0.9951784618790354,0.12969970703125,-0.911712646484375,-1.0890960693359375,1.426244092715733
1785340013.492391,0.0229492224752903,0.185546875,0.9687499403953552,0.9866259456605073,0.0667572021484375,-0.7305145263671875,-0.9670257568359375,1.2137737893266114
1785340013.503088,0.0380859412252903,0.1894531100988388,0.9663085341453552,0.9854416284119949,0.06866455078125,-0.667572021484375,-0.7228851318359375,0.9863722107968099
1785340013.51374,0.0361328125,0.19140625,0.9711913466453552,0.9905324651302658,0.12969970703125,-0.545501708984375,-0.4787445068359375,0.737285854560123
1785340013.524391,0.025390625,0.197265625,0.9736327528953552,0.9937399801533191,0.00762939453125,-0.362396240234375,-0.5397796630859375,0.6501932999332526
1785340013.535042,0.02587890625,0.1904296875,0.9687499403953552,0.9876282856854841,-0.17547607421875,-0.423431396484375,-0.2956390380859375,0.5454250095038828
1785340013.543028,0.0371093787252903,0.1977538913488388,0.9697265028953552,0.990380329949379,-0.7877349853515625,-0.4863739013671875,-0.1735687255859375,0.9419193604441367
1785340013.551016,0.02001953125,0.20654296875,0.9687499403953552,0.9907256061026875,-0.7877349853515625,-0.7305145263671875,-0.2346038818359375,1.0996439704526157
1785340013.559004,0.03515625,0.20947265625,0.9658202528953552,0.9889001549870144,-0.60272216796875,-0.484466552734375,0.1926422119140625,0.7969271449075013
1785340013.566992,0.0341796875,0.14208984375,0.9521483778953552,0.9632986599509278,0.06866455078125,-0.972747802734375,-0.1125335693359375,0.9816399097866955
1785340013.575092,0.0371093787252903,0.201171875,0.9746093153953552,0.9958466483027373,-0.54168701171875,-0.606536865234375,0.3757476806640625,0.895822586831541
1785340013.583192,0.0380859412252903,0.2089843600988388,0.9829100966453552,1.0056029334545116,-0.6046295166015625,-0.6046295166015625,-0.0514984130859375,0.8566246501485048
1785340013.591292,0.044921875,0.13330078125,0.9643554091453552,0.9745606334565754,0.43487548828125,-0.789642333984375,-0.1735687255859375,0.9180293069557601
1785340013.599392,0.0375976599752903,0.2211913913488388,0.9790038466453552,1.0043842628142154,-0.23651123046875,-0.423431396484375,-0.1125335693359375,0.49789106629265445
1785340013.609928,0.033203125,0.18505859375,0.9736327528953552,0.9916198203651846,0.12969970703125,-0.362396240234375,0.0095367431640625,0.3850246724694149
1785340013.620464,0.03173828125,0.17529296875,0.9775390028953552,0.9936384883706638,0.0095367431640625,-0.2422332763671875,0.0705718994140625,0.2524842621564126
1785340013.631,0.0400390625,0.21044921875,0.9799804091453552,1.0031219280361994,0.12969970703125,0.003814697265625,-0.1125335693359375,0.17175671790851937
1785340013.639052,0.0327148474752903,0.1928710788488388,0.9785155653953552,0.9978788634010834,0.0667572021484375,0.0667572021484375,0.0705718994140625,0.11787044186004926
1785340013.647106,0.0361328125,0.17431640625,0.9633788466453552,0.9796890281057608,-0.0553131103515625,0.4291534423828125,-0.1125335693359375,0.44709732890419773
1785340013.65516,0.03955078125,0.19189453125,0.9794921278953552,0.9988956922672725,-0.11444091796875,0.370025634765625,-0.2346038818359375,0.45282963182826763
1785340013.663214,0.0327148474752903,0.1923827975988388,0.9619140028953552,0.9815090172909532,0.06866455078125,0.492095947265625,-0.2956390380859375,0.5781657916978676
1785340013.673818,0.0424804724752903,0.1767578125,0.9755858778953552,0.9923788187836134,0.0667572021484375,0.6122589111328125,-0.2346038818359375,0.6590572658523044
1785340013.684422,0.0239257849752903,0.1840820163488388,0.9731444716453552,0.9906910692156539,0.3719329833984375,0.4901885986328125,-0.2956390380859375,0.6826576354290936
1785340013.695026,0.03857421875,0.1865234375,0.9697265028953552,0.9882552572623353,0.61798095703125,0.370025634765625,-0.0514984130859375,0.7221298499489778
1785340013.705683,0.0268554724752903,0.1923827975988388,0.9770507216453552,0.9961729116381033,1.04522705078125,0.675201416015625,0.0705718994140625,1.246345430794081
1785340013.716338,0.0278320349752903,0.1928710788488388,0.9658202528953552,0.9852830233643675,1.0433197021484375,0.4291534423828125,0.1316070556640625,1.1357856730478184
1785340013.726993,0.03125,0.19189453125,0.9716796278953552,0.9909396413962422,1.0433197021484375,0.6122589111328125,0.0095367431640625,1.209738783631747
1785340013.737671,0.0288085974752903,0.2060546875,0.9541015028953552,0.9765235006677471,0.92315673828125,0.308990478515625,0.3147125244140625,1.0231018777572756
1785340013.748352,0.0327148474752903,0.1865234375,0.9541015028953552,0.972713180649529,0.80108642578125,0.614166259765625,0.3147125244140625,1.0573474496250261
1785340013.759033,0.02685546875,0.19384765625,0.9609374403953552,0.9806624773024495,0.67901611328125,0.675201416015625,0.7419586181640625,1.2113886351427463
1785340013.7697,0.0302734375,0.2041015625,0.9873046278953552,1.008634897818132,0.8602142333984375,0.4901885986328125,0.7419586181640625,1.2372372370078373
1785340013.780367,0.0263671875,0.1904296875,0.9799804091453552,0.9986592495775051,0.9212493896484375,0.4291534423828125,0.6809234619140625,1.2233273789226122
1785340013.791034,0.0371093787252903,0.1982421725988388,0.9672850966453552,0.9880878114713788,0.67901611328125,0.125885009765625,0.6809234619140625,0.9698281697106444
1785340013.799033,0.03857421875,0.21337890625,0.9643554091453552,0.9884330443345795,0.8602142333984375,0.0019073486328125,0.6198883056640625,1.0602988620285938
1785340013.807033,0.048828125,0.201171875,0.9702147841453552,0.9920539483597903,0.31280517578125,-0.179290771484375,0.3757476806640625,0.5207480948207333
1785340013.815033,0.0302734375,0.19580078125,0.9667968153953552,0.9868893095047576,-0.17547607421875,0.064849853515625,0.1926422119140625,0.26853003171966605
1785340013.823033,0.0214843787252903,0.2128906100988388,0.9643554091453552,0.9878083546646955,-0.1163482666015625,-0.0591278076171875,0.0095367431640625,0.13085857344851615
1785340013.833697,0.03564453125,0.17578125,0.9707030653953552,0.9871342470138162,-0.54168701171875,-0.118255615234375,-0.1125335693359375,0.565749956629902
1785340013.844361,0.029296875,0.203125,0.9550780653953552,0.9768787967343237,-0.54168701171875,0.125885009765625,-0.0514984130859375,0.5585015137838487
1785340013.855025,0.03466796875,0.20947265625,0.9736327528953552,0.9965146257252171,-0.60272216796875,-0.118255615234375,0.1926422119140625,0.6437153284694666
1785340013.86567,0.0302734375,0.19384765625,0.9672850966453552,0.9869821948971008,-0.4215240478515625,-0.0591278076171875,0.3757476806640625,0.5677719084942506
1785340013.876318,0.0341796875,0.2001953125,0.9760741591453552,0.9969790260260657,-0.1163482666015625,0.1239776611328125,0.4978179931640625,0.5260514555811487
1785340013.886966,0.02783203125,0.19970703125,0.9687499403953552,0.9895119844196905,0.00762939453125,0.003814697265625,0.3757476806640625,0.375844487920954
1785340013.894976,0.04345703125,0.1767578125,0.9760741591453552,0.9929011038346975,-0.05340576171875,0.125885009765625,0.3147125244140625,0.34313726712719983
1785340013.902987,0.0468750037252903,0.18701171875,0.9780272841453552,0.996849044468025,0.25177001953125,0.064849853515625,0.5588531494140625,0.6163687928876513
1785340013.910998,0.0244140625,0.19091796875,0.9833983778953552,1.0020569279669673,0.19073486328125,0.308990478515625,0.3147125244140625,0.48051938244706
1785340013.919009,0.0429687537252903,0.1977538913488388,0.9804686903953552,1.0011352397083502,-0.05340576171875,0.308990478515625,0.1926422119140625,0.3680194465095797
1785340013.929686,0.037109375,0.20458984375,0.9799804091453552,1.0017962428494318,0.25177001953125,0.064849853515625,-0.1125335693359375,0.28329745933073647
1785340013.940363,0.03271484375,0.18994140625,0.9648436903953552,0.9839061671244583,0.19073486328125,0.370025634765625,-0.0514984130859375,0.4194649508659701
1785340013.95104,0.03271484375,0.2001953125,0.9692382216453552,0.9902379282004958,0.06866455078125,-0.179290771484375,-0.1125335693359375,0.22253944706711998
1785340013.959034,0.0478515662252903,0.1972656100988388,0.9716796278953552,0.9926554249006734,-0.05340576171875,-0.118255615234375,-0.1735687255859375,0.2167087179158857
1785340013.96703,0.0424804724752903,0.1884765475988388,0.9794921278953552,0.9983650775870879,0.3719329833984375,-0.2422332763671875,-0.4787445068359375,0.6528456227507615
1785340013.975026,0.0419921912252903,0.19677734375,0.9726561903953552,0.9932495818532281,0.4329681396484375,-0.2422332763671875,-1.0890960693359375,1.196774255393723
1785340013.983022,0.0332031287252903,0.201171875,0.9599608778953552,0.9813752891416132,0.3719329833984375,0.0019073486328125,-0.6008148193359375,0.7066231168396239
1785340013.993706,0.04052734375,0.2001953125,0.9687499403953552,0.9900490269448314,0.25177001953125,0.003814697265625,-0.8449554443359375,0.8816759027913466
1785340014.00439,0.0400390625,0.20263671875,0.9741210341453552,0.9957793708829591,-0.05340576171875,0.125885009765625,-0.6618499755859375,0.6758288254074085
1785340014.015074,0.0361328125,0.2001953125,0.9570311903953552,0.9784132269525405,-0.05340576171875,0.308990478515625,-0.8449554443359375,0.9012641089664097
1785340014.023051,0.0375976599752903,0.19091796875,0.9682616591453552,0.9876203194538676,-0.35858154296875,0.553131103515625,-1.0890960693359375,1.273053411635683
1785340014.031028,0.05029296875,0.20654296875,0.9648436903953552,0.9879841737302678,-0.48065185546875,0.492095947265625,-1.4553070068359375,1.6096903775653815
1785340014.039005,0.0322265662252903,0.20654296875,0.9770507216453552,0.9991629807886429,-0.41961669921875,0.492095947265625,-1.0280609130859375,1.2145558186405363
1785340014.046982,0.04443359375,0.19775390625,0.9838866591453552,1.004546618995297,-0.1163482666015625,0.5550384521484375,-0.9670257568359375,1.1210456801079247
1785340014.057658,0.03564453125,0.20556640625,0.9594725966453552,0.9818939574617784,0.19073486328125,0.003814697265625,-0.9670257568359375,0.9856638140716454
1785340014.068334,0.0288085974752903,0.1943359225988388,0.9736327528953552,0.9932558198225787,-0.0553131103515625,0.4291534423828125,-0.7228851318359375,0.842493401229495
1785340014.07901,0.0263671875,0.2001953125,0.9682616591453552,0.9890925296930256,0.2498626708984375,0.7343292236328125,-0.7228851318359375,1.0602988620285938
1785340014.089678,0.03125,0.1962890625,0.9736327528953552,0.9937135885493952,0.0667572021484375,0.9174346923828125,-0.1125335693359375,0.9267182651991486
1785340014.100347,0.0239257849752903,0.1972656100988388,0.9692382216453552,0.989398248640355,0.1277923583984375,0.7343292236328125,-0.5397796630859375,0.9202892915966001
1785340014.111016,0.03564453125,0.20166015625,0.9584960341453552,0.9801285623320956,0.00762939453125,1.041412353515625,-0.4177093505859375,1.1220868947112752
1785340014.119022,0.02978515625,0.19873046875,0.9658202528953552,0.9865037838981052,0.0667572021484375,0.7343292236328125,-0.3566741943359375,0.8190924328945095
1785340014.127026,0.029296875,0.20166015625,0.9741210341453552,0.9952069707693754,-0.05340576171875,0.553131103515625,-0.2956390380859375,0.6294510575903033
1785340014.13503,0.04150390625,0.2001953125,0.9755858778953552,0.9967790841153482,-0.05340576171875,0.370025634765625,-0.2956390380859375,0.4766273036753581
1785340014.143034,0.0268554724752903,0.20166015625,0.9609374403953552,0.982236631048864,0.31280517578125,0.064849853515625,-0.2346038818359375,0.3963477801994446
1785340014.1537,0.02734375,0.2001953125,0.9775390028953552,0.9982025575967437,0.31280517578125,0.064849853515625,-0.3566741943359375,0.4788204907914101
1785340014.164366,0.029296875,0.19970703125,0.9604491591453552,0.9814294638528405,0.1926422119140625,-0.2422332763671875,-0.2956390380859375,0.42800750324159414
1785340014.175032,0.03857421875,0.19873046875,0.9746093153953552,0.9954120188229448,0.06866455078125,-0.606536865234375,-0.3566741943359375,0.7069782672243351
1785340014.183029,0.0239257849752903,0.1987304538488388,0.9741210341453552,0.9944737430611558,0.31280517578125,-0.301361083984375,-0.3566741943359375,0.5620338618277073
1785340014.191026,0.025390625,0.19189453125,0.9746093153953552,0.9936455668984544,-0.23651123046875,-0.301361083984375,-0.1735687255859375,0.4205736173128388
1785340014.199023,0.0229492224752903,0.1889648288488388,0.9604491591453552,0.9791307168387228,-0.05340576171875,-0.423431396484375,-0.0514984130859375,0.42988185523913164
1785340014.20702,0.03857421875,0.193359375,0.9682616591453552,0.9881328143642835,-0.05340576171875,-0.362396240234375,-0.2346038818359375,0.4349967720492432
1785340014.217694,0.0366210974752903,0.18701171875,0.9809569716453552,0.9992952856637272,0.00762939453125,-0.179290771484375,-0.1735687255859375,0.249658748899177
1785340014.228368,0.037109375,0.1943359375,0.9794921278953552,0.999273931875472,-0.05340576171875,-0.179290771484375,-0.2956390380859375,0.3498568235215667
1785340014.239042,0.03515625,0.20556640625,0.9853515028953552,1.0071797722108689,-0.17547607421875,-0.362396240234375,-0.3566741943359375,0.5379027500063791
1785340014.247078,0.029296875,0.19140625,0.9731444716453552,0.9922221636900406,-0.05340576171875,0.186920166015625,-0.2956390380859375,0.35382730913320853
1785340014.255112,0.04052734375,0.203125,0.9726561903953552,0.9944658344713689,0.0667572021484375,0.1239776611328125,-0.1125335693359375,0.1802520144856531
1785340014.263146,0.03955078125,0.1865234375,0.9838866591453552,1.002191705752203,-0.05340576171875,0.186920166015625,-0.1735687255859375,0.2606097203666724
1785340014.27118,0.03515625,0.1953125,0.9648436903953552,0.9850412587633274,-0.05340576171875,0.003814697265625,-0.1735687255859375,0.18163928485191397
1785340014.281944,0.0361328125,0.19140625,0.9804686903953552,0.9996303244318899,-0.17547607421875,-0.057220458984375,-0.3566741943359375,0.4015999432953109
1785340014.292708,0.02490234375,0.20556640625,0.9746093153953552,0.9963638852137237,0.0095367431640625,0.2460479736328125,-0.3566741943359375,0.43341323895813405
1785340014.303472,0.046875,0.18505859375,0.9711913466453552,0.9897760254444165,-0.1163482666015625,0.2460479736328125,-0.4177093505859375,0.49855553957099613
1785340014.31398,0.0434570275247097,0.1923827975988388,0.9707030653953552,0.9905372760382006,-0.1163482666015625,0.3070831298828125,-0.2346038818359375,0.4035789255799949
1785340014.324486,0.0439453125,0.19921875,0.9726561903953552,0.9938205902257664,-0.2384185791015625,0.4291534423828125,-0.5397796630859375,0.7296425019494096
1785340014.334992,0.0375976599752903,0.20068359375,0.9731444716453552,0.9943327670000371,-0.2384185791015625,0.4291534423828125,-0.2956390380859375,0.5730781245259711
1785340014.342983,0.0410156287252903,0.1977538913488388,0.9843749403953552,1.0048795483149702,0.0667572021484375,0.3070831298828125,-0.4177093505859375,0.5227214117139619
1785340014.350974,0.04541015625,0.19580078125,0.9624022841453552,0.9831674245808578,0.31280517578125,0.186920166015625,-0.5397796630859375,0.6512666973982438
1785340014.358965,0.0361328125,0.19970703125,0.9633788466453552,0.98452388525296,0.0667572021484375,0.0667572021484375,-0.4787445068359375,0.48796449758456784
1785340014.366956,0.03662109375,0.1962890625,0.9721679091453552,0.9924620618122523,-0.1163482666015625,-0.0591278076171875,-0.2346038818359375,0.268462284403776
1785340014.377656,0.02197265625,0.205078125,0.9648436903953552,0.9866423779019045,0.19073486328125,0.308990478515625,-0.1125335693359375,0.38015616279592035
1785340014.388356,0.03515625,0.20556640625,0.9716796278953552,0.9938082353047083,-0.1163482666015625,-0.1811981201171875,-0.1125335693359375,0.24296806807207655
1785340014.399056,0.029296875,0.20751953125,0.9667968153953552,0.989251608537275,0.3719329833984375,0.0667572021484375,-0.1125335693359375,0.39427715176742867
1785340014.409713,0.0356445349752903,0.2021484225988388,0.9667968153953552,0.9883474085013851,-0.1163482666015625,-0.0591278076171875,0.1316070556640625,0.18534679353948114
1785340014.42037,0.0244140625,0.2001953125,0.9741210341453552,0.9947793719006958,0.12969970703125,0.003814697265625,-0.1735687255859375,0.2167087179158857
1785340014.431027,0.0244140625,0.20654296875,0.9746093153953552,0.9965537426768415,-0.2384185791015625,0.2460479736328125,-0.1125335693359375,0.3606200610297595
1785340014.441669,0.03515625,0.1875,0.9711913466453552,0.9897498894735381,-0.05340576171875,-0.179290771484375,-0.1735687255859375,0.25519298310445127
1785340014.45231,0.029296875,0.19482421875,0.9550780653953552,0.9751865945016102,-0.1163482666015625,-0.1163482666015625,0.0095367431640625,0.1648174376470943
1785340014.462951,0.0234375037252903,0.1953125,0.9697265028953552,0.9894775286254753,0.12969970703125,-0.179290771484375,0.1316070556640625,0.2574638068622813
1785340014.470978,0.03076171875,0.1943359375,0.9726561903953552,0.9923571961037334,-0.05340576171875,0.003814697265625,0.1316070556640625,0.1420814709965797
1785340014.479005,0.03369140625,0.1904296875,0.9726561903953552,0.9916948328245215,-0.1163482666015625,0.1239776611328125,0.0705718994140625,0.18408631830763336
1785340014.487032,0.0478515662252903,0.2041015475988388,0.9770507216453552,0.9992874095024733,0.19073486328125,0.064849853515625,-0.4177093505859375,0.4637525128113494
1785340014.495059,0.0288085974752903,0.1884765475988388,0.9736327528953552,0.9921260412839986,0.12969970703125,0.064849853515625,-0.1735687255859375,0.22617166048494355
1785340014.505708,0.0322265662252903,0.2070312350988388,0.9829100966453552,1.0049939014564244,0.25177001953125,0.308990478515625,-0.2956390380859375,0.4962516492551529
1785340014.516357,0.0390625,0.19580078125,0.9604491591453552,0.9809823709666654,0.12969970703125,0.064849853515625,-0.2956390380859375,0.3292870455170815
1785340014.527006,0.0332031287252903,0.1879882663488388,0.9736327528953552,0.9921707381053817,-0.11444091796875,0.003814697265625,0.1316070556640625,0.174446819178001
1785340014.537671,0.03369140625,0.19775390625,0.9658202528953552,0.9864332107117462,0.00762939453125,-0.118255615234375,0.1316070556640625,0.17709606233888334
1785340014.548335,0.03466796875,0.20068359375,0.9702147841453552,0.9913589159491553,0.06866455078125,0.186920166015625,0.2536773681640625,0.3224998854510571
1785340014.558999,0.0361328125,0.20849609375,0.9692382216453552,0.9920680075208653,-0.05340576171875,0.003814697265625,0.1316070556640625,0.1420814709965797
1785340014.566998,0.02734375,0.20068359375,0.9707030653953552,0.9916077987956815,-0.11444091796875,0.186920166015625,-0.2346038818359375,0.3210527270423497
1785340014.574998,0.03369140625,0.19775390625,0.9672850966453552,0.9878674893347035,-0.0553131103515625,0.2460479736328125,-0.1735687255859375,0.3061457953444793
1785340014.582998,0.0322265662252903,0.2060546875,0.9702147841453552,0.9923778580689988,-0.23651123046875,0.186920166015625,-0.3566741943359375,0.46700448767259306
1785340014.590998,0.03564453125,0.19384765625,0.9736327528953552,0.9933821942999775,0.25177001953125,0.186920166015625,-0.1735687255859375,0.3584039532421501
1785340014.601658,0.03564453125,0.19091796875,0.9672850966453552,0.9865904224103701,0.06866455078125,0.003814697265625,-0.2956390380859375,0.30353222776106925
1785340014.612318,0.03857421875,0.18701171875,0.9770507216453552,0.9955347638177742,0.12969970703125,-0.118255615234375,-0.3566741943359375,0.3975209245356057
1785340014.622978,0.0380859412252903,0.1972656100988388,0.9824218153953552,1.0027546475640932,0.1926422119140625,-0.0591278076171875,-0.0514984130859375,0.20798847563056844
1785340014.633655,0.0380859412252903,0.1845702975988388,0.9624022841453552,0.9806808299354777,0.31280517578125,0.125885009765625,-0.1735687255859375,0.3792363592546958
1785340014.644331,0.0263671875,0.18994140625,0.9731444716453552,0.9918584218923613,0.00762939453125,0.125885009765625,-0.3566741943359375,0.37831431938243504
1785340014.655007,0.0224609412252903,0.18212890625,0.9838866591453552,1.00085383069495,0.19073486328125,0.003814697265625,-0.2956390380859375,0.3518476670755739
1785340014.66566,0.03369140625,0.20458984375,0.9648436903953552,0.9868715528965661,-0.23651123046875,-0.179290771484375,0.0095367431640625,0.2969405535582532
1785340014.676314,0.03515625,0.185546875,0.9687499403953552,0.9869853351252654,-0.1163482666015625,0.1239776611328125,-0.1125335693359375,0.20389012685423735
1785340014.686968,0.0375976599752903,0.1923827975988388,0.9672850966453552,0.9869474064203155,0.31280517578125,0.125885009765625,-0.4177093505859375,0.5368195369452903
1785340014.69498,0.03662109375,0.19384765625,0.9790038466453552,0.9986824070181004,0.0667572021484375,0.0667572021484375,-0.3566741943359375,0.36895735388058715
1785340014.702993,0.0273437537252903,0.1987304538488388,0.9711913466453552,0.9916925460814825,0.00762939453125,0.186920166015625,-0.4177093505859375,0.45768816643119353
1785340014.711006,0.02490234375,0.201171875,0.9790038466453552,0.9997693642844139,0.06866455078125,0.553131103515625,-0.5397796630859375,0.7759065168508202
1785340014.719019,0.0478515662252903,0.19580078125,0.9624022841453552,0.9832832119265135,0.0667572021484375,0.4291534423828125,-0.6008148193359375,0.741355278042438
1785340014.72972,0.0419921875,0.1953125,0.9731444716453552,0.9934387143458839,-0.29754638671875,0.186920166015625,-0.6008148193359375,0.6960254649410235
1785340014.740421,0.0322265625,0.1943359375,0.9653319716453552,0.9852262803109137,-0.23651123046875,0.186920166015625,-1.0280609130859375,1.0713477267517968
1785340014.751122,0.02978515625,0.19580078125,0.9697265028953552,0.9897447104625529,-0.48065185546875,0.370025634765625,-0.5397796630859375,0.8119773772898011
1785340014.759109,0.0332031287252903,0.1865234375,0.9726561903953552,0.9909356715793262,-0.54168701171875,0.186920166015625,-0.6008148193359375,0.8302664718400793
1785340014.767098,0.0244140625,0.19970703125,0.9721679091453552,0.9927685472205966,-0.66375732421875,0.370025634765625,-0.6008148193359375,0.9687472337877481
1785340014.775087,0.025390625,0.2021484375,0.9721679091453552,0.9932870270941998,-0.54168701171875,0.308990478515625,-0.4177093505859375,0.7505871275508459
1785340014.783076,0.03955078125,0.18603515625,0.9809569716453552,0.9992246613640365,-0.17547607421875,0.064849853515625,0.0095367431640625,0.18731872729228002
1785340014.793716,0.0400390625,0.1865234375,0.9804686903953552,0.9988558314933533,-0.17547607421875,0.370025634765625,-0.1735687255859375,0.44478863014746056
1785340014.804356,0.025390625,0.1953125,0.9775390028953552,0.9971831119086333,0.0667572021484375,0.1239776611328125,-0.2956390380859375,0.32745904375819007
1785340014.814996,0.0380859412252903,0.1889648288488388,0.9624022841453552,0.9815173977006644,0.25177001953125,0.370025634765625,-0.4177093505859375,0.612199489288741
1785340014.822995,0.04296875,0.18505859375,0.9697265028953552,0.9881611644944085,0.31280517578125,0.431060791015625,-0.4787445068359375,0.716140200220697
1785340014.830996,0.0205078125,0.20654296875,0.9711913466453552,0.9931229531696552,0.12969970703125,0.308990478515625,-0.6618499755859375,0.7418507397047017
1785340014.838997,0.02490234375,0.20849609375,0.9790038466453552,1.0012688348189283,0.3719329833984375,0.3719329833984375,-0.4177093505859375,0.6716765515084254
1785340014.846998,0.0278320349752903,0.1879882663488388,0.9731444716453552,0.9915262846488868,0.12969970703125,-0.057220458984375,-0.3566741943359375,0.3838133346244822
1785340014.857694,0.0375976599752903,0.1982421725988388,0.9643554091453552,0.9852384981212573,0.0667572021484375,0.0667572021484375,-0.2956390380859375,0.3103473681501957
1785340014.86839,0.03955078125,0.18603515625,0.9697265028953552,0.9882018184946345,-0.17547607421875,-0.240325927734375,-0.2956390380859375,0.4194649508659701
1785340014.879086,0.02587890625,0.20751953125,0.9726561903953552,0.9948839823584062,-0.05340576171875,-0.362396240234375,-0.5397796630859375,0.6523383286316533
1785340014.887068,0.0283203162252903,0.19189453125,0.9609374403953552,0.9803194967908853,-0.05340576171875,0.125885009765625,-0.4177093505859375,0.4395228237934602
1785340014.89505,0.0268554724752903,0.1831054538488388,0.9765624403953552,0.9939431692113951,0.12969970703125,0.003814697265625,-0.1125335693359375,0.17175671790851937
1785340014.903032,0.0375976599752903,0.20068359375,0.9614257216453552,0.9828666781803749,0.06866455078125,0.186920166015625,0.0095367431640625,0.19936127624861597
1785340014.911014,0.0415039099752903,0.2075195163488388,0.9672850966453552,0.9901653308418282,-0.17547607421875,0.247955322265625,-0.0514984130859375,0.30810027752899555
1785340014.921668,0.03125,0.18310546875,0.9643554091453552,0.9820822421437334,-0.17547607421875,0.553131103515625,-0.0514984130859375,0.5825787130079567
1785340014.932322,0.041015625,0.19287109375,0.9692382216453552,0.9890926501580692,-0.1163482666015625,0.4901885986328125,-0.2956390380859375,0.5841440081103009
1785340014.942976,0.0419921912252903,0.19677734375,0.9741210341453552,0.9946840987477498,-0.2384185791015625,0.2460479736328125,-0.2956390380859375,0.45253228064967876
1785340014.953676,0.0263671912252903,0.1928710788488388,0.9711913466453552,0.9905085126480461,0.00762939453125,0.431060791015625,-0.1125335693359375,0.44557313365980233
1785340014.964379,0.044921875,0.1904296875,0.9799804091453552,0.9993212911989623,-0.05340576171875,0.186920166015625,-0.1735687255859375,0.2606097203666724
1785340014.975082,0.028808601200580597,0.2001953125,0.9697265028953552,0.9905945634152058,0.00762939453125,-0.057220458984375,-0.2346038818359375,0.24160167623546516
1785340014.983076,0.041015625,0.19970703125,0.9794921278953552,1.0004848866593639,0.06866455078125,0.186920166015625,-0.4177093505859375,0.46274730746296655
1785340014.991068,0.03955078125,0.18896484375,0.9682616591453552,0.9873209291015071,-0.1163482666015625,0.1239776611328125,-0.9059906005859375,0.9218060251219985
1785340014.99906,0.0415039099752903,0.1928710788488388,0.9658202528953552,0.9857639618602416,-0.05340576171875,0.614166259765625,-0.9670257568359375,1.1468178514495555
1785340015.007052,0.03369140625,0.2041015625,0.9672850966453552,0.9891577310329521,0.00762939453125,0.370025634765625,-0.9059906005859375,0.9786706015788381
1785340015.015125,0.03857421875,0.2060546875,0.9755858778953552,0.9978548540452897,0.12969970703125,0.614166259765625,-0.9670257568359375,1.1528924594352272
1785340015.023198,0.02197265625,0.189453125,0.9711913466453552,0.9897413379230782,0.0095367431640625,0.2460479736328125,-0.7228851318359375,0.7636710473943943
1785340015.031271,0.02197265625,0.19873046875,0.9638671278953552,0.98438632511302,0.25177001953125,0.492095947265625,-0.8449554443359375,1.0097010780240656
1785340015.039344,0.03466796875,0.201171875,0.9614257216453552,0.982858794328849,-0.11444091796875,0.186920166015625,-0.6618499755859375,0.6971952827952475
1785340015.049911,0.0341796875,0.20166015625,0.9633788466453552,0.9848522081104895,0.0667572021484375,0.0667572021484375,-0.5397796630859375,0.5479736606430485
1785340015.060478,0.0380859412252903,0.2070312350988388,0.9721679091453552,0.9946973986080483,0.06866455078125,0.003814697265625,-0.2346038818359375,0.24447567122662686
1785340015.071045,0.029296875,0.193359375,0.9682616591453552,0.9878141502104899,-0.05340576171875,0.064849853515625,-0.0514984130859375,0.09853814203712075
1785340015.079069,0.01953125,0.19287109375,0.9736327528953552,0.992744411236584,-0.11444091796875,0.003814697265625,-0.0514984130859375,0.1255522288576686
1785340015.087093,0.03564453125,0.18896484375,0.9687499403953552,0.9876510982110527,0.12969970703125,-0.057220458984375,-0.0514984130859375,0.15082533434653636
1785340015.095117,0.0288085974752903,0.201171875,0.9692382216453552,0.9903144898857936,0.0667572021484375,0.3070831298828125,-0.0514984130859375,0.31844726289871217
1785340015.103141,0.03564453125,0.19091796875,0.9633788466453552,0.9827609096638882,0.1926422119140625,0.4291534423828125,-0.1125335693359375,0.48368119991131225
1785340015.113776,0.03955078125,0.1923828125,0.9721679091453552,0.9918093841131708,0.25177001953125,0.003814697265625,0.0705718994140625,0.2615016015952922
1785340015.124411,0.03466796875,0.2041015625,0.9653319716453552,0.9872816879456953,-0.0553131103515625,0.4291534423828125,0.1926422119140625,0.4736488563238854
1785340015.135046,0.0234375037252903,0.19189453125,0.9833983778953552,1.0022201341779888,0.3719329833984375,0.0019073486328125,0.0095367431640625,0.37206011824521956
1785340015.143042,0.0302734375,0.2080078125,0.9628905653953552,0.9855668277729768,-0.05340576171875,0.064849853515625,0.1926422119140625,0.21016350943230008
1785340015.151039,0.05029296875,0.19384765625,0.9775390028953552,0.99784207103176,-0.1163482666015625,-0.1163482666015625,-0.1125335693359375,0.1993430272416439
1785340015.159036,0.01513671875,0.19287109375,0.9628905653953552,0.9821337077945267,0.19073486328125,0.308990478515625,0.0095367431640625,0.3632435179798937
1785340015.167033,0.025390625,0.20556640625,0.9682616591453552,0.9901681027923221,0.19073486328125,-0.118255615234375,0.1926422119140625,0.29576206723736603
1785340015.177707,0.0375976599752903,0.1992187350988388,0.9799804091453552,1.0007313779225155,0.1926422119140625,-0.0591278076171875,-0.4177093505859375,0.4637760461814337
1785340015.188381,0.0312500037252903,0.2070312350988388,0.9687499403953552,0.9911180262992827,0.3719329833984375,-0.0591278076171875,-0.2346038818359375,0.4436994739074727
1785340015.199055,0.029296875,0.2060546875,0.9775390028953552,0.9994495201395284,0.31280517578125,0.370025634765625,-0.4787445068359375,0.6811478189092492
1785340015.207048,0.03466796875,0.19482421875,0.9736327528953552,0.9935386664742277,0.25177001953125,0.186920166015625,-0.2956390380859375,0.4309637247361467
1785340015.215042,0.03076171875,0.19482421875,0.9663085341453552,0.9862327021114982,0.43487548828125,-0.118255615234375,-0.4177093505859375,0.6144771618288525
1785340015.223036,0.03955078125,0.1953125,0.9711913466453552,0.9914251705260231,0.4978179931640625,0.2460479736328125,-0.2346038818359375,0.602827787198963
1785340015.23103,0.0258789099752903,0.1923827975988388,0.9721679091453552,0.9913583117952441,0.31280517578125,0.064849853515625,-0.1735687255859375,0.3635638650884645
1785340015.241678,0.03369140625,0.1953125,0.9741210341453552,0.9940794096427955,0.3719329833984375,-0.1811981201171875,-0.0514984130859375,0.41691604601410454
1785340015.252326,0.0327148474752903,0.1987304538488388,0.9707030653953552,0.9913770703926111,0.12969970703125,0.003814697265625,0.0705718994140625,0.14770564954032395
1785340015.262974,0.0341796875,0.19482421875,0.9638671278953552,0.9839535392925758,0.00762939453125,0.003814697265625,-0.0514984130859375,0.05220005868302921
1785340015.273654,0.0332031287252903,0.1831054538488388,0.9731444716453552,0.9907775823464391,0.25177001953125,0.064849853515625,-0.2956390380859375,0.39369542425095877
1785340015.284333,0.01513671875,0.19140625,0.9677733778953552,0.9866360948985017,0.1277923583984375,0.2460479736328125,0.3147125244140625,0.41942158410949687
1785340015.295012,0.04052734375,0.193359375,0.9819335341453552,1.0016105924814338,0.3719329833984375,-0.0591278076171875,-0.1735687255859375,0.4146761920761837
1785340015.305725,0.02978515625,0.19677734375,0.9741210341453552,0.9942435655867021,0.25177001953125,0.064849853515625,-0.0514984130859375,0.2650391155775575
1785340015.31644,0.04345703125,0.19873046875,0.9848632216453552,1.0056529610776903,0.2498626708984375,-0.2422332763671875,-0.1125335693359375,0.36574870979344465
1785340015.327155,0.0429687537252903,0.2070312350988388,0.9716796278953552,0.994419200020852,0.12969970703125,-0.423431396484375,0.1926422119140625,0.48293600336260145
1785340015.337774,0.044921875,0.19384765625,0.9663085341453552,0.9865835351602412,0.19073486328125,-0.606536865234375,0.1316070556640625,0.6492974465218719
1785340015.348392,0.02685546875,0.18408203125,0.9750975966453552,0.9926846092362146,0.12969970703125,-0.057220458984375,0.3757476806640625,0.4015999432953109
1785340015.35901,0.0332031287252903,0.1938476413488388,0.9672850966453552,0.9870763972489011,-0.05340576171875,0.003814697265625,0.1926422119140625,0.19994436503970506
1785340015.367011,0.0327148474752903,0.1879882663488388,0.9663085341453552,0.9849680363810384,-0.17547607421875,-0.179290771484375,0.1316070556640625,0.28329745933073647
1785340015.375011,0.0312500037252903,0.1923827975988388,0.9614257216453552,0.9809827326645859,0.2498626708984375,-0.0591278076171875,0.3757476806640625,0.45509754060699814
1785340015.383011,0.02197265625,0.19482421875,0.9804686903953552,0.9998790560261833,-0.17547607421875,0.186920166015625,0.3147125244140625,0.40592483800527035
1785340015.391011,0.0429687537252903,0.1972656100988388,0.9721679091453552,0.9929101058486732,0.2498626708984375,-0.0591278076171875,0.0705718994140625,0.26628526983110534
1785340015.40167,0.03173828125,0.201171875,0.9750975966453552,0.9961389284488723,0.1277923583984375,0.2460479736328125,0.0095367431640625,0.27741925251147437
1785340015.412329,0.03857421875,0.17919921875,0.9536132216453552,0.9710708042411823,0.49591064453125,-0.057220458984375,0.0095367431640625,0.4992919964869852
1785340015.422988,0.03369140625,0.201171875,0.9868163466453552,1.0076764044834057,0.3719329833984375,-0.1811981201171875,-0.0514984130859375,0.41691604601410454
1785340015.433658,0.0375976599752903,0.1943359225988388,0.9755858778953552,0.9954636306750791,0.19073486328125,0.003814697265625,0.1316070556640625,0.23176444310270966
1785340015.44433,0.0561523474752903,0.1928710788488388,0.9790038466453552,0.9994002556181897,0.3719329833984375,-0.4215240478515625,-0.0514984130859375,0.5645075319313274
1785340015.455002,0.0224609412252903,0.1923827975988388,0.9736327528953552,0.992711625903147,0.25177001953125,-0.362396240234375,-0.0514984130859375,0.44426485818838596
1785340015.463004,0.0332031287252903,0.19677734375,0.9707030653953552,0.9910036387109752,0.00762939453125,-0.057220458984375,-0.0514984130859375,0.07735938946027086
1785340015.471008,0.0361328162252903,0.1923827975988388,0.9755858778953552,0.9950299122987094,-0.2994537353515625,-0.1811981201171875,0.1926422119140625,0.3995201123362238
1785340015.479012,0.0424804724752903,0.1992187350988388,0.9633788466453552,0.9846783724241333,-0.17547607421875,-0.118255615234375,0.0705718994140625,0.2230619558431992
1785340015.487016,0.0341796875,0.1884765625,0.9692382216453552,0.987985018078546,-0.17547607421875,-0.118255615234375,-0.2346038818359375,0.3159354752638192
1785340015.497666,0.03369140625,0.20068359375,0.9843749403953552,1.005188061475999,0.00762939453125,0.125885009765625,0.0095367431640625,0.12647605629043887
1785340015.508316,0.0375976599752903,0.20166015625,0.9682616591453552,0.9897530213266883,-0.05340576171875,0.186920166015625,0.1316070556640625,0.23475889961539767
1785340015.518966,0.0419921912252903,0.1962890625,0.9594725966453552,0.9802450733844117,0.19073486328125,0.308990478515625,-0.2346038818359375,0.4323122543448457
1785340015.529661,0.03369140625,0.17822265625,0.9746093153953552,0.9913434035243848,0.31280517578125,0.186920166015625,-0.1125335693359375,0.3813791167412471
1785340015.540356,0.0390625,0.20166015625,0.9760741591453552,0.9974534884777018,0.0667572021484375,0.4291534423828125,0.0095367431640625,0.4344193257877492
1785340015.551051,0.03955078125,0.19287109375,0.9716796278953552,0.9914256514578703,0.25177001953125,0.492095947265625,-0.1125335693359375,0.5641013812051031
1785340015.559037,0.02587890625,0.19287109375,0.9589843153953552,0.9785294547264869,0.12969970703125,-0.118255615234375,-0.3566741943359375,0.3975209245356057
1785340015.567024,0.03564453125,0.2001953125,0.9687499403953552,0.9898611734839432,0.12969970703125,0.370025634765625,-0.6008148193359375,0.7174394967670591
1785340015.575011,0.00732421875,0.18896484375,0.9726561903953552,0.990869023165103,0.31280517578125,0.125885009765625,-0.2346038818359375,0.4107713415657435
1785340015.582998,0.0327148474752903,0.20166015625,0.9609374403953552,0.9824142935735833,0.4329681396484375,-0.2422332763671875,-0.2956390380859375,0.5775299221430779
1785340015.593681,0.0278320349752903,0.1992187350988388,0.9721679091453552,0.9927603790227019,0.00762939453125,-0.362396240234375,-0.0514984130859375,0.3661165513156899
1785340015.604364,0.0366210974752903,0.1982421725988388,0.9809569716453552,1.0014577594669827,0.31280517578125,0.003814697265625,-0.2346038818359375,0.39102507756313737
1785340015.615047,0.03955078125,0.197265625,0.9614257216453552,0.9822511946266179,0.19073486328125,0.003814697265625,-0.1125335693359375,0.2214907316653041
1785340015.625718,0.04052734375,0.1962890625,0.9580077528953552,0.9787495676914333,-0.1163482666015625,0.4291534423828125,-0.6008148193359375,0.7474543754530315
1785340015.636389,0.03955078125,0.19482421875,0.9697265028953552,0.9898940503542228,-0.48065185546875,0.370025634765625,-0.4787445068359375,0.7727492991746034
1785340015.64706,0.0263671875,0.19873046875,0.9589843153953552,0.9797142159632843,-0.66375732421875,0.370025634765625,-0.6618499755859375,1.007739125974994
1785340015.655041,0.0234375037252903,0.1992187350988388,0.9770507216453552,0.9974294630012509,-0.41961669921875,0.003814697265625,-0.2956390380859375,0.5133178031384121
1785340015.663023,0.03125,0.2001953125,0.9785155653953552,0.999273454749982,-0.1163482666015625,-0.4215240478515625,-0.1125335693359375,0.451534324593204
1785340015.671005,0.0332031287252903,0.1933593600988388,0.9814452528953552,1.000862165498231,0.12969970703125,-0.545501708984375,0.1316070556640625,0.5759466517043306
1785340015.678987,0.0283203162252903,0.1938476413488388,0.9843749403953552,1.0036797156692805,0.3719329833984375,-0.6046295166015625,0.1316070556640625,0.7219635818973594
1785340015.689765,0.0356445349752903,0.1923827975988388,0.9726561903953552,0.9921399792367839,0.61798095703125,-0.179290771484375,0.1316070556640625,0.6567846382896647
1785340015.700543,0.0317382849752903,0.19677734375,0.9692382216453552,0.9895207789858327,0.7381439208984375,-0.2422332763671875,0.1926422119140625,0.80040266738064
1785340015.711321,0.0288085974752903,0.1987304538488388,0.9707030653953552,0.9912558548343601,0.80108642578125,0.003814697265625,-0.0514984130859375,0.802749089091091
1785340015.719237,0.0458984375,0.205078125,0.9682616591453552,0.990804897287742,0.61798095703125,0.064849853515625,-0.0514984130859375,0.6235046537954849
1785340015.727154,0.02734375,0.20068359375,0.9672850966453552,0.9882621330682926,0.55694580078125,-0.118255615234375,-0.3566741943359375,0.6718552645083006
1785340015.735071,0.0317382849752903,0.19189453125,0.9790038466453552,0.9981379471812662,0.4329681396484375,-0.0591278076171875,-0.1735687255859375,0.4701952893062312
1785340015.742988,0.0375976599752903,0.2070312350988388,0.9672850966453552,0.9899070534824885,0.2384185791015625,-0.2689361572265625,0.0,0.3594023866428802
1785340015.753724,0.0273437537252903,0.1840820163488388,0.9672850966453552,0.985025039175684,0.1773834228515625,-0.0858306884765625,-0.1201629638671875,0.2308049472438664
1785340015.76446,0.0400390625,0.20947265625,0.9726561903953552,0.9957620122080953,-0.1277923583984375,-0.2689361572265625,-0.4863739013671875,0.5702781036125828
1785340015.775196,0.0278320349752903,0.1962890625,0.9687499403953552,0.9888278238621722,0.2384185791015625,-0.3910064697265625,0.0629425048828125,0.46226749523383115
1785340015.785813,0.02587890625,0.19091796875,0.9804686903953552,0.9992188155884102,-0.0057220458984375,-0.6351470947265625,0.0629425048828125,0.6382838966085387
1785340015.796429,0.0302734375,0.2021484375,0.9780272841453552,0.9991585661617965,0.3604888916015625,-0.2689361572265625,-0.1201629638671875,0.465529843852422
1785340015.807045,0.0244140625,0.20361328125,0.9760741591453552,0.9973841681621268,0.2994537353515625,-0.3910064697265625,-0.1850128173828125,0.5261067777361919
1785340015.817711,0.01513671875,0.20947265625,0.9750975966453552,0.9974583885829499,0.35858154296875,-0.38909912109375,-0.1201629638671875,0.5426029735258785
1785340015.828378,0.0322265662252903,0.19677734375,0.9638671278953552,0.9842762390819052,-0.12969970703125,-0.331878662109375,-0.2422332763671875,0.4308624148693908
1785340015.839045,0.03173828125,0.21533203125,0.9716796278953552,0.9957592587798574,-0.0057220458984375,-0.0858306884765625,-0.2422332763671875,0.25705370853813175
1785340015.847038,0.0332031287252903,0.1933593600988388,0.9501952528953552,0.9702377587580524,0.05340576171875,-0.38909912109375,-0.0591278076171875,0.3971730089700253
1785340015.855031,0.0322265625,0.19482421875,0.9731444716453552,0.9929779404579095,0.23651123046875,-0.514984130859375,-0.1850128173828125,0.5961341793344465
1785340015.863024,0.0371093787252903,0.2075195163488388,0.9746093153953552,0.9971483206175679,0.23651123046875,-0.209808349609375,-0.0591278076171875,0.3216414204316152
1785340015.871017,0.0439453125,0.18505859375,0.9731444716453552,0.9915583877439431,0.05340576171875,-0.38909912109375,0.0,0.39274712146709445
1785340015.881683,0.03564453125,0.19873046875,0.9824218153953552,1.0029541141958251,-0.1888275146484375,0.0362396240234375,-0.4253387451171875,0.4667785221446353
1785340015.892349,0.0458984375,0.1953125,0.9824218153953552,1.0026994876760917,-0.0057220458984375,-0.1468658447265625,-0.3681182861328125,0.396375315505229
1785340015.903015,0.0390625,0.19775390625,0.9697265028953552,0.9904554390587389,0.1163482666015625,0.0972747802734375,-0.5474090576171875,0.5680281492846733
1785340015.911021,0.0361328125,0.201171875,0.9624022841453552,0.9838667897425813,0.1163482666015625,-0.0247955322265625,-0.3681182861328125,0.38686277947735676
1785340015.919029,0.0263671875,0.193359375,0.9873046278953552,1.0064062324631324,-0.2498626708984375,-0.1468658447265625,-0.6084442138671875,0.673947543985589
1785340015.927037,0.0463867224752903,0.1928710788488388,0.9785155653953552,0.9984205991461246,-0.1888275146484375,-0.1468658447265625,-0.6732940673828125,0.7145280315064231
1785340015.943042,0.03173828125,0.1953125,0.9833983778953552,1.0031084990170156,-0.3719329833984375,-0.3299713134765625,-0.2422332763671875,0.5530751956440394
1785340015.951041,0.03125,0.19189453125,0.9609374403953552,0.9804085056634475,-0.2498626708984375,-0.4520416259765625,-0.0591278076171875,0.5198741035651329
1785340015.95904,0.03515625,0.19677734375,0.9599608778953552,0.9805519731340044,-0.3108978271484375,-0.5741119384765625,0.0,0.6528874151237225
1785340015.967039,0.0375976599752903,0.19677734375,0.9731444716453552,0.9935517448743376,-0.12969970703125,-0.57220458984375,-0.1850128173828125,0.6151990322149183
1785340015.977681,0.041015625,0.205078125,0.9726561903953552,0.9948866184455702,-0.3108978271484375,-0.3910064697265625,-0.3032684326171875,0.5843930702153599
1785340015.988323,0.03076171875,0.20458984375,0.9667968153953552,0.9886856779405192,-0.2498626708984375,-0.3910064697265625,0.0629425048828125,0.46827254093898457
1785340015.998965,0.0400390625,0.20068359375,0.9809569716453552,1.0020746536790162,-0.3108978271484375,-0.3910064697265625,0.0629425048828125,0.5034930756371648
1785340016.009656,0.0439453125,0.19677734375,0.9726561903953552,0.9933340718098991,-0.0667572021484375,-0.1468658447265625,0.0,0.16132606852562334
1785340016.020347,0.03515625,0.19140625,0.9741210341453552,0.9933700738483827,-0.25177001953125,-0.026702880859375,-0.1850128173828125,0.3135776286294702
1785340016.031038,0.04345703125,0.2060546875,0.9599608778953552,0.9827878381906276,-0.2498626708984375,0.0972747802734375,0.0629425048828125,0.2754187649864644
1785340016.039035,0.04443359375,0.197265625,0.9731444716453552,0.9939306986677181,0.1773834228515625,-0.1468658447265625,-0.2422332763671875,0.3342325765531619
1785340016.047033,0.041015625,0.2001953125,0.9682616591453552,0.9895913728464034,-0.3108978271484375,0.2193450927734375,-0.4863739013671875,0.617518664155624
1785340016.055031,0.0322265625,0.1943359375,0.9833983778953552,1.0029343834876667,-0.1888275146484375,-0.1468658447265625,-0.2422332763671875,0.3404443666961386
1785340016.063029,0.037109375,0.19091796875,0.9736327528953552,0.9928683266249883,-0.37384033203125,0.278472900390625,-0.3032684326171875,0.5561254285925863
1785340016.073691,0.05126953125,0.1865234375,0.9760741591453552,0.9950579489269574,-0.308990478515625,-0.209808349609375,-0.9136199951171875,0.9870137561640437
1785340016.084353,0.03076171875,0.20166015625,0.9692382216453552,0.9904725297843849,-0.1888275146484375,0.3414154052734375,-0.4253387451171875,0.5771770589205666
1785340016.095015,0.04541015625,0.1953125,0.9711913466453552,0.9916762005542524,-0.5550384521484375,0.0972747802734375,-0.7305145263671875,0.9225950029531134
1785340016.105691,0.0361328125,0.19970703125,0.9628905653953552,0.9840460961749888,-0.3108978271484375,-0.1468658447265625,-0.8563995361328125,0.9228473333988472
1785340016.116368,0.03955078125,0.208984375,0.9721679091453552,0.9951628896133927,-0.3108978271484375,0.1583099365234375,-0.6732940673828125,0.7583168177619205
1785340016.127045,0.03955078125,0.2099609375,0.9672850966453552,0.9905999786824036,-0.4940032958984375,-0.0247955322265625,-0.6732940673828125,0.8354513606128181
1785340016.137688,0.0400390625,0.20361328125,0.9755858778953552,0.9974112993024099,-0.43487548828125,-0.331878662109375,-1.0967254638671875,1.225588381050531
1785340016.148329,0.02001953125,0.19189453125,0.9667968153953552,0.9858602208293666,-0.5550384521484375,-0.3299713134765625,-1.2187957763671875,1.379279484213144
1785340016.15897,0.03759765625,0.1953125,0.9838866591453552,1.003789576781883,-0.3108978271484375,-0.5741119384765625,-1.2798309326171875,1.436742563200073
1785340016.166983,0.0415039099752903,0.1982421725988388,0.9677733778953552,0.9887405344694485,-0.4940032958984375,-0.3299713134765625,-1.2798309326171875,1.4109881431676692
1785340016.174997,0.0380859412252903,0.2026367038488388,0.9750975966453552,0.9966581638903512,-0.4329681396484375,-0.5741119384765625,-0.9746551513671875,1.211205429288748
1785340016.183011,0.03857421875,0.1953125,0.9858397841453552,1.0057410317831244,0.05340576171875,-0.514984130859375,-1.0967254638671875,1.2127932938124466
1785340016.191025,0.04931640625,0.18603515625,0.9638671278953552,0.9828942097314533,-0.1888275146484375,-0.4520416259765625,-1.3446807861328125,1.4311407612455873
1785340016.199041,0.0434570275247097,0.2021484225988388,0.9672850966453552,0.9891374809361418,-0.492095947265625,-0.209808349609375,-1.6498565673828125,1.7344176710980719
1785340016.207057,0.0361328125,0.205078125,0.9746093153953552,0.9966072120690672,-0.0667572021484375,-0.3910064697265625,-1.7681121826171875,1.8120605049848726
1785340016.215073,0.0439453125,0.2001953125,0.9833983778953552,1.0045305984811568,-0.3108978271484375,-0.0858306884765625,-1.8901824951171875,1.9175020810568673
1785340016.223089,0.0478515662252903,0.1987304538488388,0.9711913466453552,0.9924697463781943,-0.1888275146484375,-0.2689361572265625,-2.2563934326171875,2.280196002476557
1785340016.233774,0.03515625,0.19482421875,0.9736327528953552,0.9935558241166916,-0.1888275146484375,-0.2079010009765625,-2.0122528076171875,2.031757864081893
1785340016.244459,0.0273437537252903,0.20654296875,0.9599608778953552,0.9823098115653095,-0.0667572021484375,-0.5741119384765625,-2.3212432861328125,2.392118608128924
1785340016.255144,0.0322265625,0.19970703125,0.9892577528953552,1.009728850397384,-0.3108978271484375,-0.3910064697265625,-2.1381378173828125,2.195717842623725
1785340016.26576,0.025390625,0.1982421875,0.9702147841453552,0.9905863799371027,-0.3108978271484375,-0.4520416259765625,-1.7681121826171875,1.851275176968694
1785340016.276374,0.0283203162252903,0.1977538913488388,0.9824218153953552,1.002527438636676,0.1163482666015625,-0.4520416259765625,-1.2798309326171875,1.3622943025794767
1785340016.286988,0.0263671875,0.193359375,0.9770507216453552,0.9963489294141687,-0.1888275146484375,-0.2689361572265625,-1.2798309326171875,1.321343900366546
1785340016.294995,0.0322265625,0.19091796875,0.9711913466453552,0.9903034150809594,-0.0667572021484375,-0.0858306884765625,-1.0356903076171875,1.04138265993593
1785340016.303002,0.03515625,0.19970703125,0.9770507216453552,0.9978712206053747,0.05340576171875,-0.026702880859375,-0.8563995361328125,0.8584785289798728
1785340016.311009,0.0419921912252903,0.19140625,0.9619140028953552,0.9816711494330111,-0.25177001953125,-0.026702880859375,-0.5474090576171875,0.6031234226443981
1785340016.319016,0.0424804724752903,0.2128906100988388,0.9716796278953552,0.9956346225784013,-0.25177001953125,-0.026702880859375,-0.6732940673828125,0.7193233541001204
1785340016.329677,0.04638671875,0.19580078125,0.9755858778953552,0.9961212169025178,-0.06866455078125,-0.026702880859375,-1.0356903076171875,1.0383074100055172
1785340016.340338,0.04052734375,0.21435546875,0.9663085341453552,0.9906275363306877,-0.12969970703125,0.034332275390625,-0.7305145263671875,0.742732921292012
1785340016.350999,0.0317382849752903,0.1933593600988388,0.9697265028953552,0.9893253515849376,0.1163482666015625,-0.0247955322265625,-0.9136199951171875,0.9213323141177219
1785340016.361678,0.0380859412252903,0.2036132663488388,0.9785155653953552,1.0002007862790607,-0.0667572021484375,0.0362396240234375,-1.3446807861328125,1.3468245063789144
1785340016.37236,0.0341796875,0.20556640625,0.9731444716453552,0.9952064916940883,0.1163482666015625,0.0362396240234375,-1.0356903076171875,1.0428349067722718
1785340016.383042,0.0283203162252903,0.20556640625,0.9575194716453552,0.9797464601975557,0.179290771484375,-0.026702880859375,-1.2798309326171875,1.2926041314607626
1785340016.391045,0.0317382849752903,0.1972656100988388,0.9829100966453552,1.0030121124633646,0.2994537353515625,-0.1468658447265625,-1.3446807861328125,1.3854272021863903
1785340016.399047,0.03857421875,0.21337890625,0.9658202528953552,0.9898622575325655,0.2994537353515625,-0.2079010009765625,-1.2187957763671875,1.272147204655796
1785340016.407049,0.0429687537252903,0.20068359375,0.9746093153953552,0.9959837028046807,0.23651123046875,-0.026702880859375,-1.2798309326171875,1.3017748738041506
1785340016.415051,0.0302734375,0.1943359375,0.9760741591453552,0.9956925739270042,0.0553131103515625,0.0362396240234375,-1.2187957763671875,1.2205883806659064
1785340016.424646,0.03515625,0.203125,0.9873046278953552,1.0085961311658143,0.23651123046875,0.156402587890625,-0.7305145263671875,0.7836139386650821
1785340016.434245,0.03564453125,0.19091796875,0.9799804091453552,0.9990404424788598,0.2994537353515625,0.0362396240234375,-0.8563995361328125,0.907968069622418
1785340016.443844,0.0283203162252903,0.20068359375,0.9726561903953552,0.9935471855055104,0.2994537353515625,0.4024505615234375,-0.6732940673828125,0.8396212808519238
1785340016.453443,0.0400390625,0.19287109375,0.9746093153953552,0.9943167015521781,-0.12969970703125,0.40435791015625,-0.3681182861328125,0.5619950231944063
1785340016.463042,0.0263671875,0.20166015625,0.9658202528953552,0.9870009159561517,-0.0667572021484375,0.5245208740234375,-0.2422332763671875,0.5815974823746922
1785340016.472645,0.03955078125,0.21044921875,0.9780272841453552,1.0011945397887017,-0.3719329833984375,0.5245208740234375,-0.1850128173828125,0.6690934419211558
1785340016.482248,0.03173828125,0.1904296875,0.9785155653953552,0.997378311424027,-0.3719329833984375,0.7076263427734375,-0.2422332763671875,0.8353120047659767
1785340016.491851,0.0126953125,0.20068359375,0.9560546278953552,0.9769726338439648,-0.74005126953125,0.461578369140625,-0.3032684326171875,0.9234187644917227
1785340016.501454,0.04150390625,0.1953125,0.9643554091453552,0.9848100842488181,-0.3108978271484375,0.4024505615234375,-0.0591278076171875,0.5119765727352815
1785340016.511057,0.03466796875,0.19384765625,0.9628905653953552,0.9828209515564145,-0.74005126953125,0.156402587890625,0.1850128173828125,0.7786959571165278
1785340016.521746,0.0283203162252903,0.1987304538488388,0.9780272841453552,0.9984153455004612,-0.1888275146484375,0.3414154052734375,0.2460479736328125,0.46125905365113934
1785340016.532435,0.03466796875,0.1923828125,0.9775390028953552,0.9968929314546806,-0.003814697265625,0.278472900390625,-0.0591278076171875,0.28470652574328265
1785340016.543124,0.0322265662252903,0.1928710788488388,0.9785155653953552,0.9978629747354993,-0.0667572021484375,0.1583099365234375,0.1201629638671875,0.20966091177443918
1785340016.551096,0.029296875,0.201171875,0.9741210341453552,0.9951081445452035,0.179290771484375,-0.026702880859375,-0.3032684326171875,0.3533128455175922
1785340016.559067,0.03857421875,0.19140625,0.9682616591453552,0.9877524808686392,0.1773834228515625,0.5855560302734375,-0.2422332763671875,0.6580408068438501
1785340016.567038,0.041015625,0.21044921875,0.9697265028953552,0.9931468398903968,0.1163482666015625,0.4024505615234375,-0.5474090576171875,0.6893185402794965
1785340016.575009,0.0322265662252903,0.1982421725988388,0.9711913466453552,0.9917414695202572,0.2994537353515625,0.4024505615234375,-0.4863739013671875,0.6987120766221752
1785340016.585685,0.0390625,0.20458984375,0.9780272841453552,0.9999601250073119,0.23651123046875,0.156402587890625,-0.4253387451171875,0.5111872257153837
1785340016.596361,0.03759765625,0.2099609375,0.9814452528953552,1.0043564922188735,0.41961669921875,0.278472900390625,-0.3032684326171875,0.587875048575198
1785340016.607037,0.0375976599752903,0.201171875,0.9716796278953552,0.9929979892192577,0.4825592041015625,0.0972747802734375,-0.3681182861328125,0.6146843425090135
1785340016.615019,0.0468750037252903,0.1831054538488388,0.9633788466453552,0.9817452191720467,0.05340576171875,-0.026702880859375,-0.1850128173828125,0.19440926373729162
1785340016.623002,0.04345703125,0.20068359375,0.9614257216453552,0.9831082527406484,0.60272216796875,-0.209808349609375,0.0,0.6381955463075246
1785340016.630985,0.04052734375,0.19140625,0.9584960341453552,0.9782604283128635,0.1163482666015625,0.0362396240234375,0.1201629638671875,0.17114136664142712
1785340016.638968,0.0332031287252903,0.1987304538488388,0.9853515028953552,1.0057404363464009,0.2384185791015625,-0.1468658447265625,0.0,0.2800232047671314
1785340016.649666,0.0419921912252903,0.2021484225988388,0.9746093153953552,0.9962382478797444,-0.0057220458984375,0.2193450927734375,0.0,0.21941971546114933
1785340016.660364,0.03125,0.19677734375,0.9604491591453552,0.9808977891790386,-0.1277923583984375,-0.2689361572265625,-0.1201629638671875,0.32108671946091455
1785340016.671062,0.0341796875,0.20068359375,0.9589843153953552,0.9803535449073006,-0.12969970703125,0.156402587890625,-0.1201629638671875,0.23605702994874728
1785340016.67908,0.0322265625,0.19970703125,0.9736327528953552,0.9944255563750576,-0.25177001953125,0.156402587890625,0.1850128173828125,0.3493989908823101
1785340016.687099,0.029296875,0.2080078125,0.9765624403953552,0.9988992726680366,-0.25177001953125,-0.026702880859375,0.2460479736328125,0.3530450281618043
1785340016.695118,0.02978515625,0.2021484375,0.9687499403953552,0.990064438979874,-0.0057220458984375,-0.1468658447265625,0.4291534423828125,0.4536242886635685
1785340016.703137,0.0380859412252903,0.1894531100988388,0.9663085341453552,0.9854416284119949,0.179290771484375,-0.026702880859375,0.3032684326171875,0.3533128455175922
1785340016.713751,0.0366210974752903,0.1928710788488388,0.9648436903953552,0.9846134798652402,0.4215240478515625,0.0362396240234375,0.4291534423828125,0.6026346408691957
1785340016.724365,0.03271484375,0.19970703125,0.9624022841453552,0.9834486849147099,0.54168701171875,-0.026702880859375,0.6732940673828125,0.8645592887037131
1785340016.734979,0.03662109375,0.19482421875,0.9829100966453552,1.002701270970759,0.2994537353515625,0.0362396240234375,0.3681182861328125,0.475916928203571
1785340016.742987,0.0322265625,0.2041015625,0.9746093153953552,0.9962727120627719,0.4215240478515625,0.4024505615234375,0.1201629638671875,0.5950530356808909
1785340016.750995,0.0273437537252903,0.2075195163488388,0.9648436903953552,0.9872868769659472,-0.0057220458984375,0.5855560302734375,-0.0591278076171875,0.5885615550071767
1785340016.759003,0.04736328125,0.2099609375,0.9663085341453552,0.9899894236045104,-0.12969970703125,0.461578369140625,0.2460479736328125,0.5389027836180885
1785340016.767011,0.0366210974752903,0.1972656100988388,0.9638671278953552,0.9845276359479214,0.179290771484375,0.461578369140625,0.0629425048828125,0.49916082630641634
1785340016.777679,0.0390625,0.21240234375,0.9770507216453552,1.000634172514837,-0.12969970703125,0.522613525390625,-0.1201629638671875,0.5517119255649242
1785340016.788347,0.0375976599752903,0.2041015475988388,0.9838866591453552,1.005536664578705,-0.25177001953125,0.461578369140625,-0.1850128173828125,0.5573800105755596
1785340016.799015,0.0322265662252903,0.1982421725988388,0.9697265028953552,0.990307023596741,0.2384185791015625,-0.0858306884765625,-0.2422332763671875,0.3505528292921781
1785340016.807019,0.0317382849752903,0.20654296875,0.9682616591453552,0.9905543686462406,-0.3108978271484375,-0.0858306884765625,-0.1201629638671875,0.3441852755353248
1785340016.815026,0.0302734375,0.2001953125,0.9775390028953552,0.9982871061707069,-0.12969970703125,-0.209808349609375,0.0,0.24666081482432878
1785340016.823033,0.02978515625,0.2060546875,0.9682616591453552,0.9903920084211482,-0.1888275146484375,-0.1468658447265625,-0.3032684326171875,0.386260467635038
1785340016.83104,0.028808601200580597,0.2001953125,0.9838866591453552,1.004460579960366,-0.1888275146484375,-0.1468658447265625,0.1850128173828125,0.3024155241244711
1785340016.841706,0.0410156287252903,0.1923827975988388,0.9614257216453552,0.9813423667879517,-0.25177001953125,-0.026702880859375,0.3681182861328125,0.44677987775448796
1785340016.852372,0.01953125,0.2099609375,0.9785155653953552,1.0009784097189276,-0.4329681396484375,0.2193450927734375,0.1850128173828125,0.5194260508198859
1785340016.863038,0.0341796875,0.2080078125,0.9643554091453552,0.9871255524230635,0.2384185791015625,0.2193450927734375,0.2460479736328125,0.40681112805995007
1785340016.87369,0.0361328125,0.19921875,0.9765624403953552,0.9973303818101875,-0.12969970703125,0.522613525390625,0.3681182861328125,0.6522714032598461
1785340016.884341,0.02734375,0.19970703125,0.9663085341453552,0.9871082828934706,-0.3719329833984375,-0.0858306884765625,0.2460479736328125,0.45413726620135053
1785340016.894992,0.03076171875,0.2001953125,0.9892577528953552,1.0097798513294838,-0.12969970703125,0.40435791015625,0.4863739013671875,0.6456677980518005
1785340016.902999,0.03564453125,0.205078125,0.9741210341453552,0.9961121217643947,-0.25177001953125,-0.026702880859375,0.1201629638671875,0.2802504673792766
1785340016.911008,0.04541015625,0.20361328125,0.9790038466453552,1.0009840070343,-0.1888275146484375,0.0972747802734375,0.4291534423828125,0.4788432836268766
1785340016.919017,0.03955078125,0.18017578125,0.9609374403953552,0.9784826727132729,-0.0667572021484375,-0.2689361572265625,0.1201629638671875,0.3020303272650359
1785340016.927026,0.0322265625,0.20068359375,0.9707030653953552,0.991754454136164,-0.1888275146484375,-0.0247955322265625,0.0629425048828125,0.20058017755408247
1785340016.937707,0.03515625,0.193359375,0.9755858778953552,0.9951842115725631,-0.0057220458984375,0.0362396240234375,0.1850128173828125,0.1886154679620679
1785340016.948388,0.0400390625,0.2060546875,0.9726561903953552,0.9950486045822119,0.1163482666015625,-0.1468658447265625,0.0629425048828125,0.19765691085655948
1785340016.959069,0.03857421875,0.19189453125,0.9711913466453552,0.990718988045878,-0.1277923583984375,-0.2689361572265625,0.0629425048828125,0.3043341953342541
1785340016.969712,0.025390625,0.2099609375,0.9643554091453552,0.98727383955095,-0.3719329833984375,-0.0247955322265625,-0.1850128173828125,0.4161474560224859
1785340016.980356,0.02978515625,0.19677734375,0.9731444716453552,0.9932867870056765,-0.06866455078125,-0.209808349609375,-0.1850128173828125,0.2880349053426104
1785340016.991,0.0322265662252903,0.201171875,0.9682616591453552,0.9894641557088385,-0.3108978271484375,-0.3910064697265625,0.1201629638671875,0.5137924251864715
1785340017.001677,0.0332031287252903,0.20654296875,0.9780272841453552,1.0001498958805881,-0.0667572021484375,0.0972747802734375,0.1850128173828125,0.21942800530437956
1785340017.012353,0.029296875,0.197265625,0.9741210341453552,0.9943258132301618,0.1163482666015625,-0.0247955322265625,0.1850128173828125,0.21995790541717905
1785340017.023029,0.05078125,0.19873046875,0.9687499403953552,0.9902267324088769,-0.12969970703125,0.156402587890625,-0.1850128173828125,0.274797245435253
1785340017.031028,0.0283203162252903,0.19189453125,0.9628905653953552,0.9822340822645814,0.1163482666015625,0.0972747802734375,0.0629425048828125,0.1641982367120813
1785340017.039028,0.03466796875,0.18798828125,0.9765624403953552,0.9950958054054453,0.1773834228515625,0.2193450927734375,0.0629425048828125,0.2890309799091561
1785340017.047028,0.0239257849752903,0.2089843600988388,0.9653319716453552,0.9879841706390411,0.11444091796875,0.278472900390625,0.0629425048828125,0.30758029663556147
1785340017.055028,0.03662109375,0.2138671875,0.9697265028953552,0.9937050713437372,-0.0667572021484375,0.0972747802734375,-0.3032684326171875,0.32540843433755445
1785340017.065693,0.0229492224752903,0.19677734375,0.9687499403953552,0.9887994927393169,-0.2498626708984375,0.0972747802734375,-0.3032684326171875,0.4048030130913455
1785340017.076358,0.025390625,0.19775390625,0.9697265028953552,0.990010495748747,-0.43487548828125,0.156402587890625,-0.2422332763671875,0.5217810076903169
1785340017.087023,0.0332031287252903,0.2084960788488388,0.9770507216453552,0.9996005078631157,-0.3719329833984375,0.0972747802734375,0.0,0.38444313886049253
1785340017.097677,0.03125,0.19921875,0.9790038466453552,0.9995565039546113,-0.3108978271484375,0.1583099365234375,-0.3681182861328125,0.5071790290548632
1785340017.108333,0.03076171875,0.1884765625,0.9716796278953552,0.9902681440999335,-0.3108978271484375,-0.1468658447265625,-0.1201629638671875,0.36423367932992345
1785340017.118989,0.03173828125,0.18603515625,0.9628905653953552,0.9812108024196701,-0.308990478515625,-0.026702880859375,-0.1201629638671875,0.3326068212542429
1785340017.126995,0.0424804724752903,0.19677734375,0.9672850966453552,0.9880113216695666,-0.3108978271484375,-0.1468658447265625,-0.3681182861328125,0.5037242379102138
1785340017.135003,0.041015625,0.1953125,0.9809569716453552,1.0010523634505923,-0.3719329833984375,0.2193450927734375,0.0629425048828125,0.4363578494588738
1785340017.143011,0.0229492224752903,0.2080077975988388,0.9677733778953552,0.9901410109863775,-0.12969970703125,-0.08392333984375,-0.0591278076171875,0.1654123290693193
1785340017.151019,0.0278320349752903,0.1977538913488388,0.9721679091453552,0.9924674640946805,-0.308990478515625,-0.026702880859375,0.1201629638671875,0.3326068212542429
1785340017.161722,0.029296875,0.208984375,0.9663085341453552,0.9890828878516964,-0.3108978271484375,0.0362396240234375,0.0629425048828125,0.3192687397724724
1785340017.172425,0.0390625,0.1982421875,0.9697265028953552,0.9905530446314779,-0.12969970703125,0.034332275390625,0.1850128173828125,0.22853984714577832
1785340017.183128,0.0498046875,0.19970703125,0.9692382216453552,0.9908512176537464,-0.3719329833984375,0.0362396240234375,-0.1850128173828125,0.4169858475835222
1785340017.191088,0.03466796875,0.203125,0.9721679091453552,0.9937666110583021,-0.1888275146484375,-0.0247955322265625,0.0,0.19044854608713707
1785340017.199047,0.03125,0.1943359375,0.9721679091453552,0.9918938767207183,0.05340576171875,0.156402587890625,-0.2422332763671875,0.29324205882380994
1785340017.207006,0.0361328125,0.19677734375,0.9736327528953552,0.9939756740801324,-0.0667572021484375,0.0972747802734375,-0.4863739013671875,0.5004782501238906
1785340017.214965,0.0278320349752903,0.20654296875,0.9658202528953552,0.9880502927552712,0.05340576171875,-0.026702880859375,0.0,0.059709456796640505
1785340017.226008,0.03515625,0.2041015625,0.9697265028953552,0.9915961376218946,-0.1888275146484375,0.2803802490234375,-0.0591278076171875,0.3431690719810948
1785340017.237051,0.03076171875,0.20458984375,0.9692382216453552,0.991073164708012,-0.0057220458984375,0.2193450927734375,-0.1201629638671875,0.25016824222590434
1785340017.248094,0.0419921912252903,0.2031249850988388,0.9663085341453552,0.9883194255186174,-0.1888275146484375,-0.0247955322265625,-0.1201629638671875,0.225188335825929
1785340017.258405,0.03466796875,0.19775390625,0.9711913466453552,0.9917263268125956,-0.61798095703125,0.034332275390625,-0.2422332763671875,0.6646473715936441
1785340017.268714,0.03564453125,0.20068359375,0.9785155653953552,0.999518458623671,-0.3108978271484375,0.1583099365234375,-0.3032684326171875,0.46226749523383115
1785340017.279023,0.04443359375,0.1884765625,0.9677733778953552,0.9869564680513232,-0.0057220458984375,0.0972747802734375,-0.5474090576171875,0.5560142093938307
1785340017.287026,0.03466796875,0.19921875,0.9804686903953552,1.0011038064328777,0.1163482666015625,-0.1468658447265625,-0.4863739013671875,0.5212159508491405
1785340017.29503,0.0332031287252903,0.2070312350988388,0.9794921278953552,1.0016831877757906,0.05340576171875,-0.209808349609375,-0.3032684326171875,0.3726170435885283
1785340017.303034,0.0341796875,0.20849609375,0.9731444716453552,0.9958157635027295,-0.0057220458984375,-0.0247955322265625,-0.4253387451171875,0.42609929397445157
1785340017.311038,0.046875,0.19873046875,0.9790038466453552,1.0000697958547677,0.05340576171875,0.278472900390625,-0.3681182861328125,0.4646616018373867
1785340017.3217,0.025390625,0.19189453125,0.9624022841453552,0.9816752780271819,-0.37384033203125,0.278472900390625,-0.9136199951171875,1.0256730695417189
1785340017.332362,0.04052734375,0.1962890625,0.9609374403953552,0.9816173521297066,-0.61798095703125,0.58746337890625,-0.7305145263671875,1.1227934618809838
1785340017.343024,0.0263671875,0.1982421875,0.9697265028953552,0.9901336697128831,-0.308990478515625,0.278472900390625,-0.6084442138671875,0.7370390989993283
1785340017.353675,0.0268554724752903,0.1972656100988388,0.9692382216453552,0.9894734294703365,-0.4940032958984375,0.0362396240234375,-0.6084442138671875,0.7845743611005518
1785340017.364327,0.0283203162252903,0.2089843600988388,0.9619140028953552,0.9847614188437659,-0.5550384521484375,0.0972747802734375,-0.3681182861328125,0.6730833074931647
1785340017.374979,0.02685546875,0.1943359375,0.9687499403953552,0.988414953256875,-0.5550384521484375,0.0972747802734375,-0.1201629638671875,0.5761676875059256
1785340017.383149,0.02978515625,0.19921875,0.9873046278953552,1.0076436344998092,-0.3108978271484375,-0.2689361572265625,-0.4863739013671875,0.6368231210631008
1785340017.391318,0.02685546875,0.19921875,0.9760741591453552,0.9965591255438169,-0.4329681396484375,0.0362396240234375,-0.1850128173828125,0.4722334834548636
1785340017.399487,0.0332031287252903,0.18212890625,0.9770507216453552,0.9944352663279189,-0.1888275146484375,0.0972747802734375,-0.2422332763671875,0.32217258316798725
1785340017.407656,0.02099609375,0.21044921875,0.9770507216453552,0.9996788595808924,-0.0057220458984375,0.2193450927734375,-0.4863739013671875,0.5335771579295635
1785340017.418117,0.0429687537252903,0.18701171875,0.9770507216453552,0.9957147229072407,0.1163482666015625,0.1583099365234375,-0.3032684326171875,0.36134567572523774
1785340017.428578,0.0234375037252903,0.1953125,0.9794921278953552,0.9990501077754278,0.3604888916015625,0.2193450927734375,-0.5474090576171875,0.6911737748592957
1785340017.439039,0.0371093787252903,0.19677734375,0.9653319716453552,0.9858824699138288,0.1773834228515625,0.0972747802734375,-0.1850128173828125,0.27414777798790874
1785340017.447076,0.03125,0.19970703125,0.9731444716453552,0.9939163060965476,0.2994537353515625,0.1583099365234375,-0.4863739013671875,0.5927007234255726
1785340017.455113,0.0263671912252903,0.2075195163488388,0.9648436903953552,0.9872603128529451,0.179290771484375,-0.209808349609375,-0.2422332763671875,0.36720795809030926
1785340017.46315,0.0332031287252903,0.20068359375,0.9609374403953552,0.9822306841629109,0.0553131103515625,-0.4520416259765625,-0.2422332763671875,0.5158276184655886
1785340017.471187,0.0263671875,0.1884765625,0.9570311903953552,0.9757701279389666,0.179290771484375,-0.514984130859375,-0.1201629638671875,0.558384252698619
1785340017.481879,0.03564453125,0.1982421875,0.9682616591453552,0.98898995853534,-0.2498626708984375,-0.5741119384765625,0.2460479736328125,0.6727373020270471
1785340017.492571,0.0410156287252903,0.1977538913488388,0.9604491591453552,0.9814537536972178,-0.12969970703125,-0.637054443359375,0.1850128173828125,0.6759364766040084
1785340017.503263,0.0327148474752903,0.1933593600988388,0.9760741591453552,0.9955796640824259,-0.12969970703125,-0.209808349609375,0.0629425048828125,0.25456495534681256
1785340017.513843,0.03125,0.19482421875,0.9760741591453552,0.9958181575282006,-0.1888275146484375,-0.2689361572265625,0.0,0.32860688816897343
1785340017.524423,0.0390625,0.20703125,0.9775390028953552,0.9999851596721112,-0.2498626708984375,0.0362396240234375,0.0629425048828125,0.2602045802417472
1785340017.535003,0.03076171875,0.19921875,0.9658202528953552,0.9866322286418909,-0.2498626708984375,0.0972747802734375,-0.3032684326171875,0.4048030130913455
1785340017.545682,0.0429687537252903,0.2041015475988388,0.9819335341453552,1.0038412329687068,-0.2498626708984375,0.0972747802734375,0.0629425048828125,0.2754187649864644
1785340017.556361,0.03759765625,0.19482421875,0.9755858778953552,0.995559071635577,-0.12969970703125,0.156402587890625,0.1850128173828125,0.274797245435253
1785340017.56704,0.0415039099752903,0.2124023288488388,0.9589843153953552,0.983101338122345,0.0553131103515625,-0.0858306884765625,0.1201629638671875,0.1576882530389371
1785340017.575037,0.03515625,0.1982421875,0.9707030653953552,0.991362884107927,0.05340576171875,0.09918212890625,0.2460479736328125,0.27060834319722865
1785340017.583035,0.03515625,0.19677734375,0.9692382216453552,0.9896363045208169,0.05340576171875,0.278472900390625,0.1201629638671875,0.307958551630043
1785340017.591033,0.03466796875,0.2041015625,0.9726561903953552,0.9944442571540136,-0.06866455078125,0.278472900390625,-0.0591278076171875,0.2928447957870738
1785340017.599031,0.025390625,0.20166015625,0.9687499403953552,0.9898423861770466,-0.25177001953125,0.278472900390625,0.1201629638671875,0.3941756421597864
1785340017.609688,0.02099609375,0.20556640625,0.9687499403953552,0.9905426948634285,-0.0667572021484375,0.5245208740234375,-0.3681182861328125,0.6442745873541478
1785340017.620345,0.0332031287252903,0.1972656100988388,0.9682616591453552,0.9887096688390031,-0.1888275146484375,0.4024505615234375,-0.4253387451171875,0.6152522514031946
1785340017.631002,0.02001953125,0.20361328125,0.9711913466453552,0.9925078245191218,-0.3719329833984375,0.1583099365234375,-0.2422332763671875,0.4712463690271782
1785340017.640602,0.02978515625,0.197265625,0.9624022841453552,0.9828626754881247,-0.4940032958984375,0.1583099365234375,-0.4253387451171875,0.6708310819114137
1785340017.650204,0.03173828125,0.19384765625,0.9653319716453552,0.9851142308438302,-0.6771087646484375,-0.0858306884765625,-0.3681182861328125,0.7754703468434193
1785340017.659806,0.0239257849752903,0.2026367038488388,0.9653319716453552,0.9866609814997828,-0.5550384521484375,-0.1468658447265625,-0.1850128173828125,0.6032138943248124
1785340017.669408,0.04052734375,0.18798828125,0.9760741591453552,0.994838089153241,-0.7381439208984375,-0.2689361572265625,-0.1201629638671875,0.7947466530338181
1785340017.67901,0.0341796875,0.21435546875,0.9721679091453552,0.9961058987842013,-0.8602142333984375,-0.0858306884765625,0.0,0.8644856473219334
1785340017.688657,0.04736328125,0.20068359375,0.9785155653953552,1.0000049484538431,-0.797271728515625,-0.209808349609375,-0.1850128173828125,0.8449209994147548
1785340017.698306,0.0371093787252903,0.1865234375,0.9785155653953552,0.9968253660733083,-1.0433197021484375,0.0972747802734375,0.1850128173828125,1.0640526896560507
1785340017.707955,0.0185546912252903,0.1972656100988388,0.9804686903953552,1.0002883835873113,-1.10626220703125,0.09918212890625,-0.2422332763671875,1.13680698695056
1785340017.717604,0.03515625,0.1953125,0.9775390028953552,0.9974795420217689,-1.0433197021484375,0.2193450927734375,-0.3032684326171875,1.1084223079841806
1785340017.727253,0.0322265662252903,0.1972656100988388,0.9736327528953552,0.9939381318819235,-0.8602142333984375,0.4024505615234375,0.0,0.9497025754475933
1785340017.736792,0.0273437537252903,0.1972656100988388,0.9760741591453552,0.9961838012870761,-1.1653900146484375,0.3414154052734375,-0.2422332763671875,1.2382953304361175
1785340017.746334,0.046875,0.2001953125,0.9824218153953552,1.003707154570833,-1.1653900146484375,0.2193450927734375,-0.5474090576171875,1.3061021523324317
1785340017.755876,0.0327148474752903,0.1982421725988388,0.9819335341453552,1.0022792453808602,-0.7991790771484375,0.1583099365234375,-0.3681182861328125,0.8940135938223994
1785340017.765418,0.03857421875,0.19970703125,0.9687499403953552,0.9898723734395589,-0.6771087646484375,0.1583099365234375,-0.3681182861328125,0.7867969164601163
1785340017.77496,0.0288085974752903,0.19140625,0.9731444716453552,0.9922078665891908,-0.9822845458984375,0.0362396240234375,-0.4253387451171875,1.0710318798047627
1785340017.784579,0.0239257849752903,0.1889648288488388,0.9755858778953552,0.9940060135016315,-0.6771087646484375,0.0972747802734375,-0.9746551513671875,1.1907524201644832
1785340017.794199,0.02099609375,0.19970703125,0.9643554091453552,0.9850406536947359,-0.5550384521484375,0.1583099365234375,-0.9746551513671875,1.1327322646821636
1785340017.803819,0.0214843787252903,0.2070312350988388,0.9638671278953552,0.9860848599755517,-0.4940032958984375,-0.0858306884765625,-0.9136199951171875,1.0421648904663838
1785340017.813439,0.02490234375,0.203125,0.9687499403953552,0.990129455861832,-0.43487548828125,0.156402587890625,-1.0967254638671875,1.1901198271188653
1785340017.823059,0.0322265662252903,0.2026367038488388,0.9658202528953552,0.987374774956421,-0.1888275146484375,0.0972747802734375,-1.0356903076171875,1.057247665619431
1785340017.832768,0.02978515625,0.20263671875,0.9697265028953552,0.9911197131205992,0.1163482666015625,0.0362396240234375,-1.2187957763671875,1.2248727991024388
1785340017.842474,0.0288085974752903,0.2021484225988388,0.9687499403953552,0.9900355382831953,0.1773834228515625,0.2193450927734375,-0.9136199951171875,0.9561791902694043
1785340017.85218,0.025390625,0.205078125,0.9902343153953552,1.0115659744069658,-0.003814697265625,0.278472900390625,-0.9136199951171875,0.9551247058081604
1785340017.861886,0.0327148474752903,0.1987304538488388,0.9707030653953552,0.9913770703926111,0.1163482666015625,0.2193450927734375,-0.4863739013671875,0.546084939177153
1785340017.871592,0.025390625,0.1982421875,0.9648436903953552,0.9853263396653943,0.1163482666015625,0.1583099365234375,-0.3032684326171875,0.36134567572523774
1785340017.881071,0.03857421875,0.19140625,0.9736327528953552,0.9930181571360229,0.1773834228515625,0.0972747802734375,-0.2422332763671875,0.3156013652685362
1785340017.890555,0.0405273474752903,0.1972656100988388,0.9682616591453552,0.9889827235053027,0.05340576171875,0.339508056640625,-0.1201629638671875,0.3640838279764713
1785340017.900039,0.0283203162252903,0.1987304538488388,0.9697265028953552,0.9902854760197795,-0.1277923583984375,0.2193450927734375,0.0,0.2538565669602081
1785340017.909523,0.03857421875,0.1953125,0.9633788466453552,0.9837345908181524,-0.2498626708984375,0.0362396240234375,-0.1201629638671875,0.279613666588756
1785340017.919007,0.04443359375,0.19140625,0.9633788466453552,0.9832138622681931,-0.2498626708984375,0.0972747802734375,0.1201629638671875,0.29382456512533706
1785340017.929648,0.03857421875,0.1884765625,0.9726561903953552,0.991499596408589,-0.43487548828125,0.156402587890625,0.4863739013671875,0.6709232681446359
1785340017.940292,0.0380859375,0.18994140625,0.9780272841453552,0.9970284073065425,-0.3108978271484375,0.2193450927734375,0.0629425048828125,0.3856572151150948
1785340017.950936,0.03369140625,0.19580078125,0.9785155653953552,0.9984817316877683,-0.3719329833984375,0.1583099365234375,0.2460479736328125,0.47321853880689246
1785340017.961682,0.03271484375,0.1953125,0.9741210341453552,0.9940467910628017,0.05340576171875,-0.148773193359375,-0.3032684326171875,0.34199032247885536
1785340017.972429,0.028808601200580597,0.19482421875,0.9804686903953552,1.0000526308951267,0.2994537353515625,-0.0247955322265625,-0.3032684326171875,0.4269181423370149
1785340017.983176,0.0380859412252903,0.2084960788488388,0.9716796278953552,0.9945262455466992,-0.0667572021484375,-0.2689361572265625,-0.3032684326171875,0.41079791007813476
1785340017.991128,0.03515625,0.20263671875,0.9741210341453552,0.9955949933905078,0.35858154296875,-0.08392333984375,-0.1201629638671875,0.38737964300376715
1785340017.99908,0.0322265625,0.19482421875,0.9711913466453552,0.9910639027534667,0.3604888916015625,-0.2689361572265625,0.1850128173828125,0.486321539958739
1785340018.007032,0.03466796875,0.20068359375,0.9809569716453552,1.001874419813827,0.1163482666015625,-0.3299713134765625,0.0629425048828125,0.3554992908284896
1785340018.014984,0.0366210974752903,0.19189453125,0.9736327528953552,0.9930384450838445,0.1163482666015625,-0.0247955322265625,0.0,0.11896107581720486
1785340018.02569,0.0322265625,0.20556640625,0.9760741591453552,0.998006444298041,-0.0667572021484375,0.0972747802734375,-0.0591278076171875,0.1319659219251244
1785340018.036396,0.02685546875,0.19384765625,0.9726561903953552,0.9921482725630307,0.1163482666015625,-0.0247955322265625,-0.1201629638671875,0.16908836578822853
1785340018.047102,0.023925788700580597,0.18505859375,0.9853515028953552,1.0028642533981393,-0.0667572021484375,-0.1468658447265625,-0.0591278076171875,0.17182024915460126
1785340018.057854,0.0473632849752903,0.1938476413488388,0.9838866591453552,1.0039188945648783,0.4215240478515625,0.4024505615234375,0.2460479736328125,0.6326046021935896
1785340018.068608,0.0361328125,0.205078125,0.9765624403953552,0.9985173095563279,0.1163482666015625,0.1583099365234375,0.3032684326171875,0.36134567572523774
1785340018.079362,0.02978515625,0.1982421875,0.9653319716453552,0.9859274496220962,0.4825592041015625,0.0972747802734375,0.3032684326171875,0.5781846682180916
1785340018.087395,0.04052734375,0.1943359375,0.9741210341453552,0.9941432046540634,0.8487701416015625,0.2193450927734375,0.0629425048828125,0.878911134255931
1785340018.095428,0.0302734375,0.19677734375,0.9594725966453552,0.9799109488850263,0.23651123046875,0.156402587890625,0.1201629638671875,0.307958551630043
1785340018.103461,0.0327148474752903,0.1943359225988388,0.9658202528953552,0.9857207885403053,0.1163482666015625,0.5245208740234375,0.5512237548828125,0.7697445643683403
1785340018.111494,0.0322265625,0.2041015625,0.9682616591453552,0.9900639573868063,0.2994537353515625,0.2193450927734375,-0.1201629638671875,0.39015887433856805
1785340018.122013,0.0283203162252903,0.19140625,0.9707030653953552,0.9897993907949743,0.1773834228515625,0.0362396240234375,0.0629425048828125,0.1916766756097862
1785340018.132532,0.03564453125,0.19970703125,0.9707030653953552,0.991674277223454,0.2994537353515625,-0.0858306884765625,0.0629425048828125,0.3178068684300061
1785340018.143051,0.0317382849752903,0.1977538913488388,0.9707030653953552,0.9911500196462291,-0.0057220458984375,0.0362396240234375,0.1850128173828125,0.1886154679620679
1785340018.151053,0.01953125,0.20703125,0.9809569716453552,1.0027561959034466,0.4215240478515625,0.1583099365234375,-0.1201629638671875,0.46602971665395776
1785340018.159056,0.0244140625,0.19677734375,0.9780272841453552,0.9979252166338913,0.6046295166015625,-0.1468658447265625,0.0,0.6222109197796885
1785340018.167059,0.03662109375,0.2041015625,0.9633788466453552,0.9854427200431908,0.2994537353515625,0.1583099365234375,-0.1201629638671875,0.3594074477572849
1785340018.175062,0.025390625,0.20849609375,0.9692382216453552,0.9917348613642409,0.179290771484375,-0.209808349609375,-0.3032684326171875,0.41004446896325486
1785340018.185741,0.029296875,0.20458984375,0.9794921278953552,1.0010595085505087,-0.003814697265625,-0.209808349609375,-0.0591278076171875,0.2180142039286735
1785340018.19642,0.0341796875,0.1982421875,0.9711913466453552,0.9918068600998893,-0.3719329833984375,-0.0247955322265625,-0.0591278076171875,0.3774189451944298
1785340018.207099,0.03515625,0.19677734375,0.9648436903953552,0.9853327518270649,-0.5550384521484375,0.0972747802734375,-0.1850128173828125,0.5930934233630524
1785340018.217744,0.03466796875,0.20361328125,0.9672850966453552,0.9890908424158302,-0.74005126953125,0.156402587890625,-0.1201629638671875,0.7658830125541671
1785340018.228389,0.0341796875,0.19482421875,0.9780272841453552,0.9978286905986843,-1.10626220703125,-0.148773193359375,-0.1201629638671875,1.122670330797668
1785340018.239034,0.0361328125,0.201171875,0.9687499403953552,0.9900768406776214,-0.8602142333984375,-0.2689361572265625,0.0629425048828125,0.9034693923570265
1785340018.24974,0.02587890625,0.189453125,0.9775390028953552,0.9960646096225924,-0.3719329833984375,-0.0858306884765625,0.2460479736328125,0.45413726620135053
1785340018.260445,0.0209960974752903,0.1923827975988388,0.9814452528953552,1.0003433217410789,-0.12969970703125,-0.148773193359375,0.1201629638671875,0.231072748180492
1785340018.27115,0.0180664099752903,0.1982421725988388,0.9770507216453552,0.9971230951260794,0.4215240478515625,0.0972747802734375,0.4291534423828125,0.6093583370262771
1785340018.279124,0.03515625,0.1943359375,0.9697265028953552,0.9896322089219418,0.7877349853515625,0.2803802490234375,0.5512237548828125,1.0014924458708503
1785340018.287098,0.03173828125,0.2001953125,0.9824218153953552,1.0031142033728673,0.35858154296875,0.278472900390625,0.5512237548828125,0.7141256942282104
1785340018.295072,0.03369140625,0.1953125,0.9692382216453552,0.989295109565191,0.1773834228515625,-0.0858306884765625,0.4291534423828125,0.4722334834548636
1785340018.303046,0.0341796875,0.19677734375,0.9711913466453552,0.9915151062135775,-0.0057220458984375,0.0362396240234375,0.2460479736328125,0.24876828071005583
1785340018.313767,0.04345703125,0.193359375,0.9731444716453552,0.9931195920730653,0.2384185791015625,-0.1468658447265625,0.3032684326171875,0.4127768615488765
1785340018.324488,0.0341796875,0.2021484375,0.9667968153953552,0.9882956663265754,-0.1888275146484375,-0.1468658447265625,0.4291534423828125,0.49132278976714544
1785340018.335209,0.013671878725290298,0.1923827975988388,0.9716796278953552,0.9906358363933191,-0.2498626708984375,-0.2689361572265625,0.5512237548828125,0.6622730848520104
1785340018.343162,0.0380859412252903,0.1982421725988388,0.9643554091453552,0.9852572522258486,-0.12969970703125,-0.38909912109375,0.1201629638671875,0.4273865673196431
1785340018.351114,0.03125,0.19921875,0.9726561903953552,0.9933401922634401,-0.3719329833984375,-0.2689361572265625,0.1850128173828125,0.4948641666148183
1785340018.359066,0.03466796875,0.1884765625,0.9672850966453552,0.9860860717306992,-0.2498626708984375,-0.0858306884765625,0.3032684326171875,0.4022064191617871
1785340018.367018,0.0341796875,0.20361328125,0.9780272841453552,0.9995819065347915,-0.2498626708984375,0.0362396240234375,0.0,0.25247705768616086
1785340018.377699,0.0473632849752903,0.1933593600988388,0.9702147841453552,0.9904281146432088,0.0553131103515625,-0.2689361572265625,-0.1850128173828125,0.33108297968406714
1785340018.38838,0.0263671912252903,0.1826171875,0.9858397841453552,1.002957798687104,-0.1888275146484375,-0.0858306884765625,-0.1201629638671875,0.23971206740173429
1785340018.399061,0.0268554724752903,0.2021484225988388,0.9643554091453552,0.9856807578059822,-0.4329681396484375,-0.0858306884765625,0.0,0.4413936078320455
1785340018.409697,0.0166015625,0.205078125,0.9726561903953552,0.9941794173816729,-0.308990478515625,-0.026702880859375,-0.1201629638671875,0.3326068212542429
1785340018.420333,0.0375976599752903,0.19189453125,0.9760741591453552,0.9954686631484625,-0.2498626708984375,-0.4520416259765625,0.1201629638671875,0.5302943746725797
1785340018.430969,0.0317382849752903,0.1977538913488388,0.9707030653953552,0.9911500196462291,0.1773834228515625,-0.5741119384765625,0.2460479736328125,0.6493142551435828
1785340018.438994,0.021484375,0.21142578125,0.9750975966453552,0.9979868547881086,0.179290771484375,-0.698089599609375,0.2460479736328125,0.7615864200148615
