timestamp,accel_x,accel_y,accel_z,accel_rms,gyro_x,gyro_y,gyro_z,gyro_rms
1785944144.992183,0.0634765625,-0.4248046875,0.8950194716453552,0.9927477782060858,1.270294189453125,-0.141143798828125,-0.0171661376953125,1.2782267310572801
1785944145.000212,0.06494140625,-0.416015625,0.8867186903953552,0.9816090985653719,1.6345977783203125,-0.3833770751953125,-0.2040863037109375,1.6913128326945925
1785944145.00824,0.048828125,-0.42578125,0.8950194716453552,0.9923374996778611,1.514434814453125,-0.202178955078125,0.2841949462890625,1.5540771874654093
1785944145.016268,0.07763671875,-0.42236328125,0.8989257216453552,0.9962357424235269,1.453399658203125,-0.385284423828125,0.2269744873046875,1.5206354170532648
1785944145.026973,0.0712890625,-0.43310546875,0.8930663466453552,0.9951029981885131,1.2073516845703125,-0.0782012939453125,0.1659393310546875,1.2212081698876607
1785944145.037678,0.0468750037252903,-0.41162109375,0.8852538466453552,0.9773963186929805,1.087188720703125,-0.385284423828125,0.0438690185546875,1.1542737510909704
1785944145.048383,0.0556640625,-0.4150390625,0.8959960341453552,0.9890221455857737,0.7190704345703125,0.0438690185546875,0.2841949462890625,0.7744375689223326
1785944145.056403,0.06396484375,-0.42626953125,0.8955077528953552,0.9938467437204517,0.782012939453125,-0.202178955078125,0.1010894775390625,0.8140268114857889
1785944145.064423,0.07080078125,-0.4208984375,0.8916015028953552,0.988494555008174,0.4787445068359375,0.0438690185546875,0.1659393310546875,0.5085829875304656
1785944145.072443,0.0625,-0.4248046875,0.8896483778953552,0.9878458932514774,0.598907470703125,-0.324249267578125,-0.0171661376953125,0.6812653097526246
1785944145.080463,0.0693359375,-0.4296875,0.8881835341453552,0.989094944993749,0.2956390380859375,-0.1392364501953125,-0.0171661376953125,0.327236773891237
1785944145.090032,0.06201171875,-0.4296875,0.8955077528953552,0.9951939189998438,-0.0095367431640625,-0.2613067626953125,-0.0171661376953125,0.2620436032110994
1785944145.0996,0.06494140625,-0.41943359375,0.8847655653953552,0.9813011930702674,0.0476837158203125,-0.1392364501953125,-0.2040863037109375,0.2516182528748999
1785944145.109168,0.0615234375,-0.42333984375,0.8872069716453552,0.9849558199250427,-0.3185272216796875,-0.3223419189453125,0.0438690185546875,0.45528935244444135
1785944145.118736,0.0624999962747097,-0.4130859375,0.8872069716453552,0.9806540938734283,-0.4405975341796875,-0.0171661376953125,-0.0171661376953125,0.4412658378936327
1785944145.128304,0.0561523474752903,-0.431640625,0.8842772841453552,0.9856028766865799,-0.4405975341796875,-0.0171661376953125,-0.0171661376953125,0.4412658378936327
1785944145.138949,0.05078125,-0.41455078125,0.8911132216453552,0.984131017384226,-0.4978179931640625,0.0438690185546875,-0.2613067626953125,0.5639401292133328
1785944145.149594,0.06640625,-0.4228515625,0.9023436903953552,0.9987178628341753,-0.9288787841796875,0.1659393310546875,-0.1392364501953125,0.9538021002037076
1785944145.160239,0.06591796875,-0.42236328125,0.8886718153953552,0.9861407178645799,-0.8068084716796875,0.1049041748046875,-0.0782012939453125,0.8173495202422809
1785944145.168233,0.0732421875,-0.42529296875,0.8994140028953552,0.9975891318083911,-0.6237030029296875,-0.0171661376953125,-0.2613067626953125,0.6764475858314438
1785944145.176229,0.0620117224752903,-0.421875,0.8969725966453552,0.9931685700232683,-0.621795654296875,-0.385284423828125,-0.2613067626953125,0.7767593882132057
1785944145.184223,0.0576171912252903,-0.42041015625,0.8964843153953552,0.9918409993303966,-0.682830810546875,-0.2593994140625,-0.1392364501953125,0.7435944868751129
1785944145.192219,0.0478515662252903,-0.41748046875,0.8847655653953552,0.9794844663838705,-0.499725341796875,-0.019073486328125,-0.3223419189453125,0.5949735522055237
1785944145.202868,0.05908203125,-0.40673828125,0.8959960341453552,0.9857665083857509,-0.682830810546875,0.102996826171875,-0.2613067626953125,0.7383410365568787
1785944145.213519,0.06396484375,-0.4228515625,0.8979491591453552,0.9945891802922973,-0.6237030029296875,-0.0782012939453125,-0.2613067626953125,0.6807364412667617
1785944145.224169,0.0556640625,-0.4345703125,0.8945311903953552,0.9960601864096782,-0.2574920654296875,-0.1392364501953125,-0.3871917724609375,0.4853930587510297
1785944145.232189,0.07080078125,-0.42822265625,0.8920897841453552,0.992074380743663,-0.1354217529296875,0.1659393310546875,-0.1392364501953125,0.25546369961389476
1785944145.240206,0.0527343787252903,-0.41748046875,0.8925780653953552,0.9867960576087529,-0.011444091796875,-0.202178955078125,-0.3871917724609375,0.43694938582744364
1785944145.248224,0.0590820275247097,-0.42236328125,0.8872069716453552,0.9843869350315552,0.0476837158203125,0.0438690185546875,0.0438690185546875,0.0782478008146897
1785944145.256243,0.0634765625,-0.41064453125,0.8945311903953552,0.9863286752510443,-0.1354217529296875,0.1659393310546875,0.0438690185546875,0.21863074702881571
1785944145.266932,0.0546875,-0.4130859375,0.8881835341453552,0.981071202687877,0.3528594970703125,-0.2002716064453125,-0.0171661376953125,0.4060950840680966
1785944145.277622,0.060546875,-0.42919921875,0.8940429091453552,0.9935746659617313,-0.0095367431640625,-0.2613067626953125,0.0438690185546875,0.26513518153846194
1785944145.288313,0.0673828125,-0.4140625,0.8940429091453552,0.9875732482807288,0.2307891845703125,-0.2613067626953125,-0.1392364501953125,0.37540865867468465
1785944145.298954,0.06787109375,-0.43212890625,0.8896483778953552,0.9913708253098229,0.2956390380859375,-0.1392364501953125,-0.2613067626953125,0.41841421358944597
1785944145.309597,0.0620117224752903,-0.42724609375,0.8935546278953552,0.9923832683908939,0.598907470703125,-0.141143798828125,-0.0782012939453125,0.6202637929029631
1785944145.320239,0.0625,-0.42431640625,0.8906249403953552,0.9885157798776634,0.7190704345703125,-0.1392364501953125,-0.1392364501953125,0.7455440080901472
1785944145.330907,0.0634765625,-0.41845703125,0.8964843153953552,0.9913726286010012,0.782012939453125,0.4119873046875,0.1659393310546875,0.8993406686493528
1785944145.341577,0.0551757849752903,-0.41748046875,0.8950194716453552,0.9891380912995364,0.9021759033203125,0.2269744873046875,0.0438690185546875,0.9313233966823764
1785944145.352247,0.0634765625,-0.4326171875,0.8979491591453552,0.9987490161782774,0.965118408203125,0.4119873046875,-0.0782012939453125,1.0522844308697747
1785944145.362895,0.0654296875,-0.421875,0.8930663466453552,0.989862141483262,1.1463165283203125,0.2269744873046875,-0.0171661376953125,1.1686974275966102
1785944145.373543,0.0522460974752903,-0.4326171875,0.8925780653953552,0.9932687896268173,1.087188720703125,-0.0762939453125,0.2269744873046875,1.1132463781224127
1785944145.384191,0.0625,-0.4150390625,0.8916015028953552,0.9854526438982926,0.7839202880859375,-0.4444122314453125,-0.0782012939453125,0.9045157223098239
1785944145.392205,0.04931640625,-0.419921875,0.8881835341453552,0.9836851525543445,0.7839202880859375,0.0438690185546875,-0.1392364501953125,0.7973972021048747
1785944145.400221,0.046875,-0.40869140625,0.8916015028953552,0.9819262554453153,0.8411407470703125,0.0438690185546875,-0.2040863037109375,0.8666564870427891
1785944145.408236,0.06591796875,-0.41943359375,0.8857421278953552,0.9822468301291473,0.6580352783203125,-0.1392364501953125,-0.8754730224609375,1.1040155024427747
1785944145.416251,0.0610351599752903,-0.42236328125,0.8979491591453552,0.9941975279145118,0.3528594970703125,-0.2613067626953125,-0.3871917724609375,0.5854131170075203
1785944145.42738,0.060546875,-0.42578125,0.8959960341453552,0.9938634162338569,0.1697540283203125,-0.0782012939453125,-0.8106231689453125,0.8318904943179933
1785944145.438509,0.0634765625,-0.4189453125,0.8793944716453552,0.9761552569202055,0.110626220703125,-0.4425048828125,-0.7495880126953125,0.877457076327081
1785944145.449638,0.06005859375,-0.41845703125,0.8911132216453552,0.9863042611065589,0.293731689453125,-0.2593994140625,-0.4444122314453125,0.592510415826724
1785944145.45729,0.0556640625,-0.4208984375,0.8857421278953552,0.9822388200801968,0.049591064453125,-0.385284423828125,-0.3871917724609375,0.54847135711868
1785944145.464941,0.0454101599752903,-0.41748046875,0.8823241591453552,0.9771632137101045,-0.1354217529296875,-0.2613067626953125,-0.2613067626953125,0.3935752782215342
1785944145.472592,0.06689453125,-0.4072265625,0.8959960341453552,0.9864670520199487,-0.377655029296875,-0.385284423828125,-0.3223419189453125,0.6284677566169486
1785944145.480243,0.06298828125,-0.42529296875,0.8959960341453552,0.9938060807054977,0.0476837158203125,-0.2613067626953125,-0.2040863037109375,0.3349719097881637
1785944145.490902,0.064453125,-0.40869140625,0.8950194716453552,0.9860236941824466,0.1697540283203125,-0.0171661376953125,-0.3871917724609375,0.42311768466443267
1785944145.501563,0.0751953125,-0.4306640625,0.8876952528953552,0.9895093388967712,-0.3185272216796875,-0.3833770751953125,-0.0171661376953125,0.49873063773911813
1785944145.512223,0.06640625,-0.42529296875,0.8798827528953552,0.9795292533405828,-0.072479248046875,-0.507354736328125,-0.2613067626953125,0.5752767108986128
1785944145.522885,0.0546875,-0.42138671875,0.8950194716453552,0.9907660389917856,0.110626220703125,-0.019073486328125,-0.3223419189453125,0.34133014999720157
1785944145.533547,0.0595703125,-0.4150390625,0.8935546278953552,0.9870389650694816,0.1697540283203125,-0.1392364501953125,-0.3223419189453125,0.3900096561667565
1785944145.544211,0.0615234375,-0.41357421875,0.8901366591453552,0.9834490529412002,0.2956390380859375,-0.4444122314453125,-0.5054473876953125,0.7351066140544485
1785944145.554919,0.06494140625,-0.419921875,0.9062499403953552,1.000919937765168,0.5359649658203125,-0.5054473876953125,-0.6923675537109375,1.0109937367493689
1785944145.565627,0.0625,-0.42919921875,0.9086913466453552,1.006895318711811,0.598907470703125,-0.2593994140625,-0.3223419189453125,0.7279303037992918
1785944145.576334,0.0498046875,-0.42333984375,0.8886718153953552,0.9856138826545228,0.415802001953125,-0.019073486328125,-0.6923675537109375,0.8078539051961089
1785944145.584318,0.05419921875,-0.42724609375,0.8999022841453552,0.997647683778082,1.087188720703125,0.347137451171875,-0.0782012939453125,1.1439401937185898
1785944145.592301,0.07177734375,-0.42431640625,0.8969725966453552,0.9948649349642552,0.965118408203125,-0.019073486328125,-0.3223419189453125,1.017704108492537
1785944145.600284,0.0522460974752903,-0.41552734375,0.8959960341453552,0.9890407076099208,0.965118408203125,0.164031982421875,-0.0171661376953125,0.9791091406953356
1785944145.608267,0.05029296875,-0.42333984375,0.8920897841453552,0.9887214921242834,1.2073516845703125,0.1659393310546875,-0.1392364501953125,1.2266298304250718
1785944145.618895,0.05517578125,-0.4052734375,0.8720702528953552,0.9632224311988291,1.1463165283203125,-0.0171661376953125,-0.0171661376953125,1.146573563129328
1785944145.629523,0.0624999962747097,-0.416015625,0.8911132216453552,0.9854227638783485,1.270294189453125,-0.568389892578125,0.0438690185546875,1.3923501314440616
1785944145.640151,0.064453125,-0.40625,0.8989257216453552,0.9885649805945426,0.782012939453125,-0.324249267578125,-0.0782012939453125,0.850174845177031
1785944145.650844,0.0654296875,-0.41650390625,0.8964843153953552,0.9906768775325965,0.598907470703125,-0.0762939453125,-0.0171661376953125,0.6039913913614462
1785944145.661536,0.05615234375,-0.4150390625,0.8930663466453552,0.9863964763825847,0.293731689453125,-0.2593994140625,-0.2040863037109375,0.44183433633812164
1785944145.67223,0.05517578125,-0.42626953125,0.8940429091453552,0.9919993969260932,0.110626220703125,-0.019073486328125,0.0438690185546875,0.12052572080978072
1785944145.680218,0.0478515662252903,-0.41455078125,0.8940429091453552,0.9866381535387169,-0.011444091796875,-0.385284423828125,-0.1392364501953125,0.4098314818856859
1785944145.688205,0.06298828125,-0.43017578125,0.8906249403953552,0.9910759359418969,0.1697540283203125,-0.2002716064453125,-0.1392364501953125,0.29717324163213504
1785944145.696192,0.0551757849752903,-0.4130859375,0.8950194716453552,0.9872913519484632,0.110626220703125,-0.4425048828125,-0.0171661376953125,0.45644650103088236
1785944145.704179,0.064453125,-0.41259765625,0.8969725966453552,0.9894194612993874,0.0476837158203125,-0.2613067626953125,-0.1392364501953125,0.29990290103253153
1785944145.714971,0.05859375,-0.4248046875,0.9052733778953552,1.0017046165347856,0.1697540283203125,-0.1392364501953125,0.0438690185546875,0.2238921838361418
1785944145.725763,0.0581054650247097,-0.41748046875,0.8930663466453552,0.9875392075071953,-0.1354217529296875,0.0438690185546875,0.0438690185546875,0.14895647936378048
1785944145.736554,0.06396484375,-0.4111328125,0.8803710341453552,0.9737427013910216,-0.0743865966796875,-0.1392364501953125,0.2269744873046875,0.2764734575249566
1785944145.744632,0.0615234375,-0.4248046875,0.8974608778953552,0.9948267101543318,-0.072479248046875,0.102996826171875,0.5321502685546875,0.546850524295027
1785944145.75271,0.06884765625,-0.404296875,0.8989257216453552,0.9880604313206285,-0.377655029296875,-0.2593994140625,0.3490447998046875,0.5759719172319829
1785944145.760788,0.06005859375,-0.421875,0.8950194716453552,0.9912847244523434,-0.3185272216796875,-0.3833770751953125,0.1010894775390625,0.5085829875304656
1785944145.768866,0.05322265625,-0.41845703125,0.8935546278953552,0.9881188244204621,-0.3185272216796875,-0.1392364501953125,0.2841949462890625,0.44901352709046044
1785944145.779298,0.05810546875,-0.43505859375,0.9042968153953552,1.005189014976072,-0.011444091796875,-0.019073486328125,0.1010894775390625,0.10350771752330884
1785944145.78973,0.06689453125,-0.423828125,0.9003905653953552,0.997400786096111,0.293731689453125,-0.324249267578125,0.1010894775390625,0.44903783290838445
1785944145.800162,0.0556640662252903,-0.42236328125,0.8837890028953552,0.9811076552834385,0.6580352783203125,-0.0782012939453125,-0.1392364501953125,0.6771356281807981
1785944145.810868,0.06494140625,-0.41162109375,0.8891600966453552,0.9819648611493444,0.598907470703125,-0.202178955078125,-0.0171661376953125,0.6323457635059093
1785944145.821577,0.0532226525247097,-0.421875,0.8847655653953552,0.9816421303490028,0.476837158203125,0.164031982421875,0.1659393310546875,0.5308634742486618
1785944145.832286,0.06103515625,-0.423828125,0.8925780653953552,0.9899753394223477,0.598907470703125,0.286102294921875,0.1010894775390625,0.6713894280465688
1785944145.840353,0.0595703125,-0.4169921875,0.8881835341453552,0.9830061530297337,0.598907470703125,0.2288818359375,0.2841949462890625,0.7013157782214644
1785944145.848422,0.05419921875,-0.4169921875,0.8959960341453552,0.9897620587562195,0.0476837158203125,0.4100799560546875,0.2841949462890625,0.5012046234907355
1785944145.856489,0.0541992150247097,-0.41259765625,0.8847655653953552,0.9777445916811048,-0.0095367431640625,0.3490447998046875,0.5321502685546875,0.636480266829772
1785944145.864558,0.0595703125,-0.41943359375,0.8916015028953552,0.9871303873666557,0.2307891845703125,0.0438690185546875,0.2841949462890625,0.36872063408470157
1785944145.87513,0.06494140625,-0.41845703125,0.8872069716453552,0.9830869156816264,0.049591064453125,0.102996826171875,-0.0782012939453125,0.13850293227868715
1785944145.885702,0.0522460974752903,-0.43017578125,0.8974608778953552,0.9966026714935833,-0.072479248046875,0.164031982421875,0.0438690185546875,0.18461913076288236
1785944145.896274,0.0634765625,-0.4267578125,0.8959960341453552,0.9944648800841617,-0.4405975341796875,-0.0782012939453125,0.1659393310546875,0.4772604017628314
1785944145.904267,0.0576171875,-0.41943359375,0.8969725966453552,0.9918690029404897,-0.499725341796875,0.102996826171875,-0.0171661376953125,0.5105178152805809
1785944145.91226,0.0595703125,-0.4189453125,0.8916015028953552,0.9869230147090129,-0.377655029296875,-0.019073486328125,0.3490447998046875,0.5146060544772351
1785944145.920253,0.0576171912252903,-0.4228515625,0.8911132216453552,0.9880313549804718,-0.4405975341796875,0.0438690185546875,0.3490447998046875,0.5638110944144916
1785944145.928246,0.04833984375,-0.41064453125,0.8940429091453552,0.9850271036536997,-0.194549560546875,-0.0762939453125,0.2841949462890625,0.3527563820777337
1785944145.938883,0.0502929724752903,-0.42236328125,0.8916015028953552,0.9878630291664543,-0.011444091796875,-0.0762939453125,0.3490447998046875,0.3574688875959647
1785944145.94952,0.0581054650247097,-0.43212890625,0.8823241591453552,0.9841786212340304,-0.682830810546875,-0.2593994140625,0.2841949462890625,0.7837810531929907
1785944145.960157,0.0541992150247097,-0.41748046875,0.8891600966453552,0.9837851260124804,-0.560760498046875,-0.0762939453125,0.2269744873046875,0.609746275223024
1785944145.96822,0.0605468787252903,-0.42724609375,0.8974608778953552,0.9958118178153493,-0.1354217529296875,-0.0782012939453125,0.5893707275390625,0.6097641741043781
1785944145.976282,0.05908203125,-0.41845703125,0.8935546278953552,0.9884517420958882,-0.194549560546875,-0.0762939453125,0.2841949462890625,0.3527563820777337
1785944145.984344,0.05078125,-0.4248046875,0.9047850966453552,1.000836564572398,0.0476837158203125,-0.3223419189453125,0.2269744873046875,0.397108886013653
1785944145.992405,0.0546875,-0.41748046875,0.9013671278953552,0.9948584641517061,-0.133514404296875,0.102996826171875,0.2269744873046875,0.28275759979787385
1785944146.003041,0.0615234375,-0.42431640625,0.9096679091453552,1.0056466829377073,0.110626220703125,-0.324249267578125,0.4100799560546875,0.534360663400499
1785944146.013675,0.06787109375,-0.41650390625,0.8916015028953552,0.9864254808416022,0.0476837158203125,-0.3223419189453125,0.0438690185546875,0.3287895075161771
1785944146.024311,0.06689453125,-0.4189453125,0.8989257216453552,0.99401081795547,0.232696533203125,-0.385284423828125,0.1659393310546875,0.4797161925557657
1785944146.032289,0.0673828125,-0.4306640625,0.9018554091453552,1.0016761737977748,0.110626220703125,-0.019073486328125,0.5321502685546875,0.543861992522544
1785944146.040267,0.0581054650247097,-0.412109375,0.8881835341453552,0.9808569581521873,0.232696533203125,-0.0762939453125,-0.0171661376953125,0.24548547602551607
1785944146.048244,0.0571289099752903,-0.421875,0.8935546278953552,0.9897889174026812,0.4138946533203125,0.0438690185546875,0.2841949462890625,0.5039841687318525
1785944146.056223,0.06298828125,-0.427734375,0.8989257216453552,0.9974926927888206,0.5359649658203125,-0.0782012939453125,0.3490447998046875,0.6443649270655444
1785944146.06689,0.05419921875,-0.43017578125,0.8833007216453552,0.9839760784421354,0.110626220703125,0.102996826171875,0.1010894775390625,0.18183946045250074
1785944146.077559,0.0585937462747097,-0.4228515625,0.8901366591453552,0.9872081558443745,0.415802001953125,0.102996826171875,0.5321502685546875,0.6831424151321099
1785944146.088227,0.05859375,-0.423828125,0.8847655653953552,0.9827886918302635,0.293731689453125,0.102996826171875,0.4711151123046875,0.5646557363848568
1785944146.098879,0.0615234375,-0.4248046875,0.8911132216453552,0.9891041045688533,-0.0743865966796875,0.0438690185546875,0.1659393310546875,0.18706607962272365
1785944146.109533,0.07080078125,-0.4267578125,0.8940429091453552,0.9932007372875261,-0.011444091796875,0.102996826171875,0.5321502685546875,0.5421468636461533
1785944146.120187,0.06640625,-0.42333984375,0.8920897841453552,0.9896719639970829,0.2307891845703125,0.0438690185546875,0.2841949462890625,0.36872063408470157
1785944146.130874,0.06689453125,-0.419921875,0.8940429091453552,0.9900111023659092,0.1697540283203125,0.1659393310546875,0.2269744873046875,0.32843524416401537
1785944146.141561,0.06689453125,-0.41845703125,0.9047850966453552,0.9991082205773635,0.2307891845703125,0.0438690185546875,-0.0782012939453125,0.24759559947281465
1785944146.152248,0.0595703125,-0.4091796875,0.8989257216453552,0.9894665693339861,0.2307891845703125,0.1659393310546875,0.4100799560546875,0.49896400638054184
1785944146.160241,0.0634765625,-0.41162109375,0.8945311903953552,0.9867356532511096,-0.1926422119140625,0.0438690185546875,0.2841949462890625,0.3461246597634112
1785944146.168235,0.07177734375,-0.40576171875,0.8925780653953552,0.9831023152773443,-0.3185272216796875,-0.1392364501953125,0.1010894775390625,0.36202964309997204
1785944146.176229,0.0624999962747097,-0.42138671875,0.8979491591453552,0.9938740909607618,-0.560760498046875,-0.019073486328125,0.0438690185546875,0.5627971435956654
1785944146.184223,0.0654296875,-0.42919921875,0.8920897841453552,0.9921276109243531,-0.3185272216796875,0.0438690185546875,0.1659393310546875,0.3618286104370541
1785944146.194928,0.0434570275247097,-0.41162109375,0.8881835341453552,0.9798930698745466,-0.4978179931640625,0.0438690185546875,0.0438690185546875,0.501668950500026
1785944146.205632,0.0654296875,-0.4150390625,0.8852538466453552,0.9799045057594259,-0.4405975341796875,0.1659393310546875,-0.1392364501953125,0.49096724715513335
1785944146.216338,0.06640625,-0.41552734375,0.8999022841453552,0.9934268390037693,-0.377655029296875,0.0457763671875,0.0438690185546875,0.3829403187639816
1785944146.224319,0.07080078125,-0.421875,0.8852538466453552,0.9831915577602406,-0.3185272216796875,0.0438690185546875,-0.1392364501953125,0.35038674461646524
1785944146.232301,0.04931640625,-0.4208984375,0.8979491591453552,0.9929251205530087,-0.2574920654296875,-0.1392364501953125,-0.2040863037109375,0.35684754753904535
1785944146.240285,0.07177734375,-0.42333984375,0.8979491591453552,0.9953297457586258,-0.072479248046875,-0.202178955078125,-0.6923675537109375,0.7249154438316174
1785944146.248267,0.068359375,-0.41162109375,0.8984374403953552,0.990603232012946,-0.1354217529296875,0.0438690185546875,-0.4444122314453125,0.4666538046707675
1785944146.258918,0.0595703125,-0.4267578125,0.8872069716453552,0.9863098210994631,0.2307891845703125,-0.1392364501953125,-0.0171661376953125,0.2700835297847611
1785944146.269567,0.0576171912252903,-0.4248046875,0.8955077528953552,0.9928307503005499,0.232696533203125,-0.0762939453125,0.1659393310546875,0.2958112645708019
1785944146.280218,0.064453125,-0.4267578125,0.8935546278953552,0.9923287302528621,0.1697540283203125,0.0438690185546875,-0.3871917724609375,0.4250392800452299
1785944146.290906,0.0634765625,-0.41015625,0.8828124403953552,0.9755076772212926,0.5359649658203125,-0.1392364501953125,-0.2613067626953125,0.6123123858620408
1785944146.301594,0.0693359375,-0.41552734375,0.8906249403953552,0.985232576647344,0.293731689453125,-0.202178955078125,-0.5054473876953125,0.6185723053883718
1785944146.312282,0.06640625,-0.41845703125,0.8916015028953552,0.9871521245516732,-0.0095367431640625,0.0438690185546875,-0.4444122314453125,0.4466740105684803
1785944146.320259,0.06884765625,-0.4091796875,0.8818358778953552,0.9745781302580043,0.415802001953125,-0.0762939453125,-0.6275177001953125,0.7566310428326262
1785944146.328236,0.06201171875,-0.41357421875,0.8969725966453552,0.9896711205292964,0.4138946533203125,-0.1392364501953125,-0.0782012939453125,0.4436338754929053
1785944146.336212,0.05908203125,-0.41015625,0.8984374403953552,0.989398135299863,0.3528594970703125,-0.3223419189453125,-0.1392364501953125,0.497796069133789
1785944146.34419,0.05615234375,-0.41845703125,0.8823241591453552,0.9781386887976263,0.2307891845703125,-0.2613067626953125,-0.1392364501953125,0.37540865867468465
1785944146.354885,0.0590820275247097,-0.41259765625,0.8974608778953552,0.9895269270071054,0.232696533203125,-0.202178955078125,0.2269744873046875,0.3828072939854481
1785944146.36558,0.0546875,-0.41015625,0.8867186903953552,0.9785136217584129,0.1697540283203125,0.0438690185546875,0.2269744873046875,0.2868071456696132
1785944146.376275,0.0620117224752903,-0.4072265625,0.8994140028953552,0.9892545049349863,0.110626220703125,0.102996826171875,0.2841949462890625,0.3218901589126003
1785944146.384269,0.072265625,-0.41064453125,0.8916015028953552,0.984278665606153,-0.2574920654296875,-0.1392364501953125,0.2841949462890625,0.4079898532052989
1785944146.392264,0.0673828125,-0.427734375,0.8935546278953552,0.9929436096829757,-0.3185272216796875,0.1049041748046875,-0.0782012939453125,0.34435435123888647
1785944146.400259,0.0546875,-0.42822265625,0.9023436903953552,1.0002947073629673,-0.560760498046875,-0.0762939453125,-0.3871917724609375,0.68570443408408
1785944146.408254,0.05810546875,-0.416015625,0.8984374403953552,0.991783786944995,-0.1926422119140625,-0.1392364501953125,-0.2613067626953125,0.3532407608196408
1785944146.418883,0.0537109337747097,-0.4169921875,0.8872069716453552,0.9817859030252515,-0.255584716796875,-0.202178955078125,0.0438690185546875,0.3288227001372819
1785944146.429512,0.06982421875,-0.40673828125,0.8906249403953552,0.9815927034225967,-0.377655029296875,-0.202178955078125,-0.1392364501953125,0.45042917322560017
1785944146.44014,0.0517578125,-0.42041015625,0.8686522841453552,0.9664265938931303,-0.255584716796875,-0.0762939453125,-0.0171661376953125,0.2672807322551702
1785944146.450832,0.056640625,-0.42919921875,0.8969725966453552,0.9959819119385211,-0.377655029296875,0.347137451171875,0.1659393310546875,0.539132259051716
1785944146.461524,0.0537109375,-0.42529296875,0.8930663466453552,0.9906192374397941,-0.1354217529296875,-0.0171661376953125,0.1010894775390625,0.16986114893949228
1785944146.472218,0.06591796875,-0.408203125,0.8896483778953552,0.9810449562358131,-0.377655029296875,-0.141143798828125,0.2269744873046875,0.4626686838203808
1785944146.480281,0.0537109337747097,-0.41748046875,0.8906249403953552,0.985082529866864,-0.377655029296875,-0.324249267578125,0.1010894775390625,0.5079173073909715
1785944146.488343,0.0576171912252903,-0.42626953125,0.8867186903953552,0.9855432460796635,-0.072479248046875,0.102996826171875,0.4100799560546875,0.4289838667790833
1785944146.496407,0.0498046875,-0.41943359375,0.8769530653953552,0.9733713193685762,-0.011444091796875,-0.568389892578125,0.2841949462890625,0.6355822564533019
1785944146.504469,0.0673828125,-0.4130859375,0.8813475966453552,0.9756813113374714,-0.0095367431640625,0.0438690185546875,0.3490447998046875,0.3519200371246616
1785944146.515039,0.0810546875,-0.4140625,0.9003905653953552,0.9943444003588194,0.049591064453125,-0.385284423828125,-0.0782012939453125,0.3962559820278874
1785944146.525608,0.05029296875,-0.404296875,0.8916015028953552,0.9802747501622747,0.1697540283203125,-0.3223419189453125,-0.2040863037109375,0.4175786898330815
1785944146.536177,0.0556640625,-0.4189453125,0.8920897841453552,0.9871361839666465,-0.255584716796875,-0.019073486328125,-0.3223419189453125,0.4118150774925493
1785944146.544191,0.0556640625,-0.423828125,0.8886718153953552,0.986137091317985,-0.377655029296875,-0.2593994140625,-0.1392364501953125,0.47885088099760614
1785944146.552205,0.0561523474752903,-0.4228515625,0.8818358778953552,0.9795871812039748,-0.072479248046875,-0.202178955078125,-0.2040863037109375,0.2962782317962559
1785944146.560219,0.05029296875,-0.4208984375,0.8969725966453552,0.9920910827783611,-0.1354217529296875,-0.4444122314453125,-0.3223419189453125,0.5654605161583767
1785944146.568233,0.0620117224752903,-0.42236328125,0.8989257216453552,0.9951400143237341,-0.255584716796875,-0.0762939453125,0.1659393310546875,0.3141340082550164
1785944146.578881,0.06396484375,-0.4130859375,0.8959960341453552,0.9887064206327479,-0.4405975341796875,0.0438690185546875,0.1010894775390625,0.45416930805955286
1785944146.589529,0.0419921912252903,-0.42626953125,0.8959960341453552,0.9931152755849648,-0.4978179931640625,-0.4444122314453125,-0.2040863037109375,0.6978368040870943
1785944146.600177,0.0610351599752903,-0.4267578125,0.8989257216453552,0.9969528445812355,-0.438690185546875,-0.202178955078125,-0.1392364501953125,0.502704881450962
1785944146.608442,0.0561523474752903,-0.421875,0.8886718153953552,0.9853269494081962,-0.1354217529296875,-0.0782012939453125,0.0438690185546875,0.16241608396406437
1785944146.616707,0.0615234375,-0.41845703125,0.8876952528953552,0.9833078268667084,0.0476837158203125,0.0438690185546875,-0.0782012939453125,0.10155624017314252
1785944146.624972,0.06396484375,-0.41943359375,0.9038085341453552,0.9984417395101117,-0.0095367431640625,0.2269744873046875,-0.2613067626953125,0.3462507640247273
1785944146.633236,0.07177734375,-0.41455078125,0.8955077528953552,0.989413196195846,0.293731689453125,0.102996826171875,-0.1392364501953125,0.34098891573401363
1785944146.643561,0.0576171912252903,-0.43505859375,0.8852538466453552,0.988063810551129,0.598907470703125,0.286102294921875,-0.2613067626953125,0.7133203388757974
1785944146.653885,0.0634765625,-0.4228515625,0.8876952528953552,0.9853098902926208,0.598907470703125,0.2288818359375,-0.2613067626953125,0.6923570448232903
1785944146.664209,0.0590820275247097,-0.41748046875,0.8881835341453552,0.9831839187512598,0.8411407470703125,0.3490447998046875,-0.2040863037109375,0.9332744762475244
1785944146.672273,0.0488281212747097,-0.4169921875,0.8920897841453552,0.9859466784972498,0.4138946533203125,0.3490447998046875,-0.2040863037109375,0.5786123708323466
1785944146.680337,0.056640625,-0.40966796875,0.8955077528953552,0.9863924880674174,0.3528594970703125,0.1659393310546875,-0.0171661376953125,0.3903080354629731
1785944146.688401,0.0595703125,-0.42431640625,0.8959960341453552,0.9931776920312232,0.3528594970703125,0.2880096435546875,0.1010894775390625,0.46656024468693497
1785944146.696465,0.0610351599752903,-0.41650390625,0.8925780653953552,0.9868618938329887,0.598907470703125,0.2288818359375,-0.1392364501953125,0.6560974335791346
1785944146.704403,0.0551757849752903,-0.4326171875,0.8969725966453552,0.9973774798443971,0.6580352783203125,0.1049041748046875,-0.1392364501953125,0.6807364412667617
1785944146.712341,0.04541015625,-0.42138671875,0.8901366591453552,0.9858864645505563,0.720977783203125,0.102996826171875,0.0438690185546875,0.7296175716516998
1785944146.720279,0.05224609375,-0.41943359375,0.8818358778953552,0.9779001530941928,0.904083251953125,0.164031982421875,0.0438690185546875,0.9198899436934505
1785944146.728217,0.060546875,-0.42578125,0.8847655653953552,0.9837508336124502,0.7839202880859375,0.0438690185546875,0.1010894775390625,0.7916278111150539
1785944146.738886,0.0571289099752903,-0.4169921875,0.8930663466453552,0.9872758967489694,0.6580352783203125,0.1049041748046875,0.1659393310546875,0.6866958387790192
1785944146.749555,0.0654296875,-0.4150390625,0.8881835341453552,0.9825520127373206,0.598907470703125,0.102996826171875,0.2269744873046875,0.6487032623262502
1785944146.760223,0.06494140625,-0.4150390625,0.8935546278953552,0.9873776798570105,0.415802001953125,0.102996826171875,-0.1392364501953125,0.45042917322560017
1785944146.770991,0.05712890625,-0.40869140625,0.9033202528953552,0.993116235273018,0.293731689453125,0.102996826171875,-0.2613067626953125,0.40640850854869026
1785944146.78176,0.0615234412252903,-0.4169921875,0.8979491591453552,0.9919578169791734,0.232696533203125,-0.0762939453125,-0.0171661376953125,0.24548547602551607
1785944146.792529,0.0620117224752903,-0.4111328125,0.9057616591453552,0.9966342490684631,0.0476837158203125,0.2269744873046875,-0.2613067626953125,0.34938857862265965
1785944146.80045,0.06640625,-0.41748046875,0.8925780653953552,0.9876210481007871,-0.0095367431640625,-0.1392364501953125,0.0438690185546875,0.14629500785098767
1785944146.808372,0.06298828125,-0.419921875,0.8891600966453552,0.9853464274785403,0.232696533203125,-0.0762939453125,0.2269744873046875,0.3338949843039358
1785944146.816294,0.0620117224752903,-0.40625,0.8774413466453552,0.9689106424367352,-0.0743865966796875,0.0438690185546875,0.0438690185546875,0.09686251774287889
1785944146.824216,0.07373046875,-0.40576171875,0.8994140028953552,0.9894565695518398,-0.1354217529296875,0.1659393310546875,-0.0171661376953125,0.2148710986633636
1785944146.834872,0.0551757849752903,-0.4033203125,0.8779296278953552,0.9677148718807694,0.110626220703125,0.286102294921875,0.0438690185546875,0.3098663819383632
1785944146.84553,0.0566406287252903,-0.4208984375,0.9003905653953552,0.9955233928769855,0.1697540283203125,-0.1392364501953125,-0.0782012939453125,0.23306364274310648
1785944146.856187,0.04443359375,-0.41455078125,0.9101561903953552,1.001104882319286,-0.2574920654296875,0.0438690185546875,0.1010894775390625,0.280081661337044
1785944146.86688,0.06640625,-0.4111328125,0.8969725966453552,0.9889387335350627,-0.194549560546875,-0.0762939453125,-0.1392364501953125,0.25111170156589807
1785944146.877577,0.05712890625,-0.41357421875,0.8959960341453552,0.9884919016098204,0.0476837158203125,-0.0171661376953125,-0.0171661376953125,0.05350784354822364
1785944146.888273,0.0517578162252903,-0.41650390625,0.9086913466453552,1.0009367307328014,0.0476837158203125,-0.1392364501953125,-0.2040863037109375,0.2516182528748999
1785944146.898917,0.0522460974752903,-0.4072265625,0.8920897841453552,0.9820322351549721,0.0476837158203125,-0.4444122314453125,-0.0782012939453125,0.4537525874167061
1785944146.909559,0.06689453125,-0.41650390625,0.8945311903953552,0.9890078022052189,-0.0095367431640625,-0.1392364501953125,0.1010894775390625,0.17232765594149319
1785944146.920201,0.05908203125,-0.43310546875,0.8959960341453552,0.9969352670469571,0.2307891845703125,0.1659393310546875,0.4100799560546875,0.49896400638054184
1785944146.930875,0.0483398400247097,-0.412109375,0.8925780653953552,0.98431015433217,0.354766845703125,0.102996826171875,0.2269744873046875,0.4335726915972108
1785944146.941549,0.0712890625,-0.41796875,0.8979491591453552,0.9930220031895275,0.1697540283203125,0.0438690185546875,0.1659393310546875,0.24140584605763413
1785944146.952223,0.05419921875,-0.41455078125,0.8989257216453552,0.9913916272511678,0.110626220703125,-0.019073486328125,0.4100799560546875,0.42516764804672064
1785944146.960605,0.0624999962747097,-0.40283203125,0.8916015028953552,0.9803739770621188,0.3528594970703125,-0.2002716064453125,0.4100799560546875,0.5768744329390187
1785944146.968989,0.0620117224752903,-0.416015625,0.8930663466453552,0.9871585249993918,0.476837158203125,-0.202178955078125,-0.2613067626953125,0.580113117891691
1785944146.977373,0.06494140625,-0.421875,0.8945311903953552,0.9911518311847377,0.4138946533203125,-0.1392364501953125,0.1010894775390625,0.4482350450146151
1785944146.985757,0.0634765625,-0.419921875,0.8940429091453552,0.9897860266155619,0.5359649658203125,-0.4444122314453125,0.0438690185546875,0.6976282440053028
1785944146.995966,0.0561523474752903,-0.41162109375,0.8872069716453552,0.9796536232174381,0.598907470703125,-0.324249267578125,-0.0782012939453125,0.6855240246436927
1785944147.006175,0.0654296875,-0.41552734375,0.8935546278953552,0.987615254258198,0.293731689453125,-0.324249267578125,-0.0171661376953125,0.43784765523788294
1785944147.016383,0.072265625,-0.43017578125,0.8901366591453552,0.9912702937570271,0.3528594970703125,-0.2613067626953125,-0.2040863037109375,0.48419238765743855
1785944147.024442,0.064453125,-0.42431640625,0.8930663466453552,0.9908411161461067,0.3528594970703125,-0.2002716064453125,-1.1157989501953125,1.1872766477438448
1785944147.032501,0.07861328125,-0.41357421875,0.8906249403953552,0.9851073377342159,0.6580352783203125,-0.5054473876953125,-1.0585784912109375,1.345018925999382
1785944147.04056,0.0712890625,-0.4140625,0.8925780653953552,0.9865219141830018,0.4787445068359375,-0.1392364501953125,-1.7871856689453125,1.8554287125007203
1785944147.048619,0.068359375,-0.41943359375,0.9033202528953552,0.9982910512507658,0.537872314453125,-0.202178955078125,-2.2754669189453125,2.346898518416618
1785944147.059137,0.07080078125,-0.42919921875,0.8896483778953552,0.9903024569761794,0.5359649658203125,-0.2613067626953125,-2.6416778564453125,2.708136179376985
1785944147.069654,0.06494140625,-0.41748046875,0.8916015028953552,0.9866410532704908,0.3528594970703125,-0.0782012939453125,-2.7027130126953125,2.72677151518788
1785944147.080173,0.0498046875,-0.41650390625,0.9008788466453552,0.9937498212083093,0.415802001953125,-0.507354736328125,-3.3740997314453125,3.4372735025077854
1785944147.090883,0.06005859375,-0.40966796875,0.8876952528953552,0.9795089286555417,0.4138946533203125,-0.1392364501953125,-3.6182403564453125,3.644497064084376
1785944147.101596,0.0615234375,-0.42041015625,0.8999022841453552,0.9951652897132182,0.354766845703125,-0.568389892578125,-3.3740997314453125,3.43998191601852
1785944147.112308,0.0458984412252903,-0.4228515625,0.8979491591453552,0.9935908630947918,0.415802001953125,-0.202178955078125,-3.0117034912109375,3.046986306775411
1785944147.120285,0.0532226525247097,-0.41650390625,0.8881835341453552,0.9824348044477089,0.1697540283203125,-0.3833770751953125,-2.3403167724609375,2.377577970830455
1785944147.128261,0.05224609375,-0.423828125,0.8964843153953552,0.9929975133921677,0.1697540283203125,-0.2613067626953125,-2.0923614501953125,2.115437092570873
1785944147.136236,0.05517578125,-0.40966796875,0.9067382216453552,0.9965171418740775,0.4787445068359375,0.0438690185546875,-1.6040802001953125,1.6745728059039924
1785944147.144212,0.068359375,-0.4208984375,0.8950194716453552,0.991407259134541,0.293731689453125,-0.0762939453125,-1.4209747314453125,1.4530203917655153
1785944147.154857,0.07275390625,-0.41455078125,0.9101561903953552,1.0027610742468045,0.232696533203125,-0.202178955078125,-1.8520355224609375,1.8775142031149574
1785944147.165503,0.0634765625,-0.43505859375,0.8989257216453552,1.000686118130039,0.7839202880859375,0.0438690185546875,-1.4820098876953125,1.677143051766415
1785944147.176148,0.07421875,-0.41552734375,0.8945311903953552,0.989119531121302,0.598907470703125,-0.2593994140625,-1.7871856689453125,1.9026326050405755
1785944147.186924,0.07275390625,-0.41455078125,0.8974608778953552,0.991252494807615,0.6580352783203125,-0.1392364501953125,-2.0923614501953125,2.197811105359265
1785944147.197702,0.06640625,-0.4130859375,0.8916015028953552,0.9848873142469511,0.782012939453125,-0.141143798828125,-2.6416778564453125,2.758609741636764
1785944147.208479,0.078125,-0.431640625,0.9018554091453552,1.002876026126922,0.9021759033203125,-0.1392364501953125,-3.0689239501953125,3.2018123557880798
1785944147.216412,0.076171875,-0.41357421875,0.8989257216453552,0.9924279530481349,1.0242462158203125,-0.1392364501953125,-3.8051605224609375,3.943058926947506
1785944147.224344,0.0703125,-0.41943359375,0.8969725966453552,0.9926873759421951,0.782012939453125,0.2288818359375,-4.3506622314453125,4.426306923883493
1785944147.232276,0.05908203125,-0.423828125,0.8979491591453552,0.9947027990146062,1.1463165283203125,-0.1392364501953125,-4.1065216064453125,4.265788095576891
1785944147.240208,0.06689453125,-0.41943359375,0.9013671278953552,0.9964246670609469,1.087188720703125,-0.141143798828125,-4.0454864501953125,4.191403285903851
1785944147.250874,0.0693359375,-0.41357421875,0.9057616591453552,0.9981258887642497,1.3294219970703125,0.1659393310546875,-3.8623809814453125,4.088139620134781
1785944147.26154,0.0693359375,-0.40869140625,0.8989257216453552,0.9899007984678208,1.575469970703125,0.286102294921875,-3.7403106689453125,4.068646464362933
1785944147.272206,0.06396484375,-0.40478515625,0.8989257216453552,0.9879321722628135,1.758575439453125,0.286102294921875,-3.2520294189453125,3.7081177760547335
1785944147.282875,0.0571289099752903,-0.41552734375,0.8969725966453552,0.9901951953486781,1.7604827880859375,0.0438690185546875,-3.5572052001953125,3.9692484142759774
1785944147.293543,0.06982421875,-0.41162109375,0.8999022841453552,0.9920340051399558,1.880645751953125,0.164031982421875,-3.2520294189453125,3.7602433800596433
1785944147.304211,0.06005859375,-0.41015625,0.8989257216453552,0.9899003167657402,2.185821533203125,0.102996826171875,-3.4351348876953125,4.072907538586829
1785944147.312248,0.0703125,-0.40478515625,0.8964843153953552,0.986143497735733,2.063751220703125,-0.324249267578125,-4.0454864501953125,4.5530393483026765
1785944147.320287,0.068359375,-0.41162109375,0.8901366591453552,0.9830809737375611,2.3059844970703125,-0.1392364501953125,-4.1065216064453125,4.711737576944816
1785944147.328327,0.076171875,-0.41455078125,0.8886718153953552,0.983560928592671,2.429962158203125,-0.385284423828125,-4.4765472412109375,5.1080950833296965
1785944147.336365,0.07958984375,-0.40576171875,0.9072265028953552,0.9970140636855829,2.8553009033203125,-0.4444122314453125,-5.0220489501953125,5.7940677540151215
1785944147.346987,0.087890625,-0.41650390625,0.8964843153953552,0.9924134187092989,2.7942657470703125,-0.5054473876953125,-6.3648223876953125,6.969530985215998
1785944147.357608,0.08935546875,-0.4228515625,0.9130858778953552,1.010204763459446,3.4656524658203125,-0.4444122314453125,-7.3413848876953125,8.13044779299306
1785944147.368229,0.0927734375,-0.4228515625,0.9067382216453552,1.0047808503384403,3.4656524658203125,-0.2002716064453125,-8.260726928710938,8.960494691752494
1785944147.378891,0.08349609375,-0.41064453125,0.8886718153953552,0.9825162208305354,3.9539337158203125,-0.4444122314453125,-9.237289428710938,10.057763670435573
1785944147.389551,0.0810546875,-0.41064453125,0.8891600966453552,0.9827535148131663,4.1370391845703125,-0.9326934814453125,-10.213851928710938,11.059284857830226
1785944147.400211,0.08740234375,-0.40966796875,0.8940429091453552,0.9873093424584992,4.1370391845703125,-0.6275177001953125,-11.491775512695312,12.229872285224904
1785944147.408205,0.0830078125,-0.4033203125,0.8974608778953552,0.9874176415093233,3.8318634033203125,-0.3223419189453125,-11.491775512695312,12.118085075151043
1785944147.416201,0.0732421875,-0.3955078125,0.8828124403953552,0.9701281630254442,3.5915374755859375,-0.2613067626953125,-11.373519897460938,11.929978102272793
1785944147.424197,0.06298828125,-0.3984375,0.9028319716453552,0.9888506125831741,3.406524658203125,-0.690460205078125,-10.942459106445312,11.481226277622543
1785944147.432193,0.0517578162252903,-0.39794921875,0.8920897841453552,0.9781956017181087,3.406524658203125,-0.2593994140625,-10.030746459960938,10.596583074131999
1785944147.441362,0.0561523474752903,-0.39794921875,0.9101561903953552,0.9949376652563251,3.528594970703125,-0.385284423828125,-9.843826293945312,10.464241141137999
1785944147.450531,0.0693359375,-0.416015625,0.9125975966453552,1.0053411589485546,3.711700439453125,-0.324249267578125,-9.660720825195312,10.35429305177924
1785944147.4597,0.076171875,-0.40576171875,0.9008788466453552,0.9909729679850179,4.383087158203125,-0.507354736328125,-9.660720825195312,10.620658582557022
1785944147.468868,0.06982421875,-0.41162109375,0.9111327528953552,1.002232627558424,4.1370391845703125,-0.9937286376953125,-10.149002075195312,11.004764102077097
1785944147.477535,0.0732421875,-0.400390625,0.9062499403953552,0.9934616374497108,4.9304962158203125,-1.1768341064453125,-10.087966918945312,11.289898494054158
1785944147.486203,0.0732421875,-0.39404296875,0.9106444716453552,0.9949410198546177,4.9915313720703125,-1.2378692626953125,-10.759353637695312,11.92524198709927
1785944147.494869,0.08642578125,-0.40576171875,0.9033202528953552,0.9940319247179918,4.871368408203125,-1.300811767578125,-10.942459106445312,12.048226123348496
1785944147.503537,0.07177734375,-0.39892578125,0.8959960341453552,0.9834137782367771,4.5680999755859375,-1.2989044189453125,-11.373519897460938,12.325244213987963
1785944147.512203,0.0791015625,-0.400390625,0.8979491591453552,0.9863480127154323,4.871368408203125,-1.361846923828125,-11.373519897460938,12.447562495136124
1785944147.522953,0.0654296875,-0.4013671875,0.8969725966453552,0.9848535435996151,4.8084259033203125,-1.4209747314453125,-11.308670043945312,12.370373762257708
1785944147.533702,0.06884765625,-0.38525390625,0.9018554091453552,0.9831092264121714,4.8084259033203125,-1.1157989501953125,-10.396957397460938,11.509243680172752
1785944147.544451,0.072265625,-0.38330078125,0.9082030653953552,0.9884202635807406,4.4422149658203125,-0.9326934814453125,-9.908676147460938,10.89885562470436
1785944147.552378,0.08056640625,-0.39404296875,0.8950194716453552,0.9812342542235694,4.7473907470703125,-0.8716583251953125,-9.542465209960938,10.693743471047263
1785944147.560307,0.09423828125,-0.3955078125,0.9033202528953552,0.9906032317191469,5.298614501953125,-1.056671142578125,-9.237289428710938,10.701373067678754
1785944147.568236,0.099609375,-0.3759765625,0.9160155653953552,0.995170799000744,5.176544189453125,-1.178741455078125,-9.542465209960938,10.919921402949539
1785944147.576165,0.08154296875,-0.37109375,0.8969725966453552,0.9741250772741338,5.420684814453125,-1.056671142578125,-10.332107543945312,11.715495041220056
1785944147.586855,0.08984375,-0.38818359375,0.8999022841453552,0.9841659021124208,5.542755126953125,-1.178741455078125,-11.003494262695312,12.376932245288147
1785944147.597545,0.09765625,-0.392578125,0.9052733778953552,0.9915514187971518,5.176544189453125,-1.2359619140625,-11.491775512695312,12.664324539135814
1785944147.608234,0.0888671875,-0.38818359375,0.9145507216453552,0.9974903016735878,5.2967071533203125,-1.4209747314453125,-11.735916137695312,12.953995655644551
1785944147.618888,0.08984375,-0.38671875,0.9008788466453552,0.9844825988044128,4.9304962158203125,-0.7495880126953125,-11.796951293945312,12.807799770245978
1785944147.629541,0.08154296875,-0.3857421875,0.8994140028953552,0.9820345409271991,4.627227783203125,-0.873565673828125,-11.613845825195312,12.532189305765545
1785944147.640193,0.087890625,-0.37646484375,0.9194335341453552,0.9974009044780442,4.566192626953125,-1.361846923828125,-11.373519897460938,12.33132989617588
1785944147.648179,0.07568359375,-0.396484375,0.9091796278953552,0.9947539704680712,4.810333251953125,-0.873565673828125,-10.942459106445312,11.984983699511846
1785944147.656167,0.07763671875,-0.380859375,0.9150390028953552,0.9941718666525337,4.688262939453125,-0.629425048828125,-10.271072387695312,11.308002178759033
1785944147.664155,0.095703125,-0.36865234375,0.9096679091453552,0.9861842341145066,4.9915313720703125,-0.9326934814453125,-10.271072387695312,11.4577585313171
1785944147.672143,0.10205078125,-0.37158203125,0.9091796278953552,0.9874690697341096,5.1136016845703125,-0.7495880126953125,-10.271072387695312,11.498075159368803
1785944147.682834,0.1025390625,-0.37890625,0.9057616591453552,0.9871617845141637,5.115509033203125,-1.056671142578125,-10.396957397460938,11.635364613838187
1785944147.693525,0.12939453125,-0.38427734375,0.9130858778953552,0.9990684871663676,5.420684814453125,-1.056671142578125,-11.247634887695312,12.530349888494767
1785944147.704216,0.12841796875,-0.3798828125,0.9204100966453552,1.003970553321908,5.6018829345703125,-0.9326934814453125,-12.655258178710938,13.87106950140438
1785944147.712213,0.11572265625,-0.36474609375,0.9082030653953552,0.9855273989438139,5.7277679443359375,-1.4209747314453125,-14.974594116210938,16.095495138604083
1785944147.720212,0.107421875,-0.37060546875,0.8979491591453552,0.9773436269326021,5.6018829345703125,-1.4209747314453125,-15.581130981445312,16.61842063076366
1785944147.728211,0.10107421875,-0.35986328125,0.8974608778953552,0.9721901080759057,5.176544189453125,-1.7242431640625,-15.768051147460938,16.6853546927574
1785944147.73621,0.09033203125,-0.36767578125,0.8950194716453552,0.9718051299575855,4.3201446533203125,-1.2378692626953125,-15.825271606445312,16.450993634273345
1785944147.746991,0.09716796875,-0.36669921875,0.9033202528953552,0.9797435432161775,4.2591094970703125,-1.1768341064453125,-15.336990356445312,15.960834107772186
1785944147.757771,0.09521484375,-0.35791015625,0.9023436903953552,0.9753920657938248,3.5266876220703125,-1.1157989501953125,-14.848709106445312,15.302506167577677
1785944147.768553,0.0791015625,-0.36181640625,0.9057616591453552,0.9785562590875156,2.9773712158203125,-1.4820098876953125,-13.689041137695312,14.087261619404126
1785944147.779094,0.0791015625,-0.3583984375,0.9072265028953552,0.978655416757154,3.1032562255859375,-1.4209747314453125,-12.529373168945312,12.985937024170827
1785944147.789638,0.0966796875,-0.36669921875,0.9150390028953552,0.9905108055072817,2.4890899658203125,-1.1768341064453125,-11.980056762695312,12.292366224996796
1785944147.80018,0.099609375,-0.38525390625,0.9233397841453552,1.0054347103886785,2.918243408203125,-1.667022705078125,-11.373519897460938,11.859682295352892
1785944147.810877,0.099609375,-0.36767578125,0.9135741591453552,0.9898107152197492,2.857208251953125,-1.667022705078125,-10.576248168945312,11.08149940330252
1785944147.821573,0.11181640625,-0.35986328125,0.9184569716453552,0.9927576233213414,2.7942657470703125,-1.3599395751953125,-10.702133178710938,11.144191818534814
1785944147.832268,0.10595703125,-0.373046875,0.9243163466453552,1.0023729705525761,3.040313720703125,-1.300811767578125,-10.213851928710938,10.735846030779202
1785944147.842916,0.0947265625,-0.3662109375,0.9003905653953552,0.9766200605356531,3.040313720703125,-1.2359619140625,-9.294509887695312,9.856927686950668
1785944147.853563,0.08935546875,-0.36767578125,0.9067382216453552,0.9825192529950298,2.5501251220703125,-1.1157989501953125,-8.077621459960938,8.543776324664202
1785944147.86421,0.0986328125,-0.37548828125,0.9028319716453552,0.9827641884413467,2.246856689453125,-1.300811767578125,-6.6127777099609375,7.104175200469524
1785944147.872197,0.11181640625,-0.365234375,0.9062499403953552,0.9834571733710068,1.5125274658203125,-0.7495880126953125,-4.8389434814453125,5.124938588925667
1785944147.880185,0.11279296875,-0.35107421875,0.9023436903953552,0.9747817686367908,1.3904571533203125,-0.6275177001953125,-4.2934417724609375,4.556401190939024
1785944147.888173,0.10205078125,-0.37353515625,0.9135741591453552,0.9922502805071864,1.270294189453125,-0.7476806640625,-3.9234161376953125,4.191165457566584
1785944147.896161,0.1064453125,-0.3544921875,0.9101561903953552,0.9825373308260322,1.087188720703125,-0.507354736328125,-3.3168792724609375,3.5271909858951043
1785944147.906842,0.11376953125,-0.36767578125,0.8999022841453552,0.9787507892046219,0.965118408203125,-0.385284423828125,-2.9468536376953125,3.124715025581565
1785944147.917523,0.111328125,-0.36083984375,0.9086913466453552,0.9840321680319649,0.782012939453125,-0.568389892578125,-2.3403167724609375,2.532132283850721
1785944147.928204,0.10986328125,-0.3623046875,0.9091796278953552,0.9848564478803121,0.843048095703125,-0.385284423828125,-2.4585723876953125,2.627499260599528
1785944147.93624,0.11279296875,-0.34326171875,0.9072265028953552,0.9765299733824756,0.4787445068359375,-0.3223419189453125,-2.7027130126953125,2.7636494431326675
1785944147.944274,0.1162109375,-0.35986328125,0.9145507216453552,0.9896512444536638,0.354766845703125,-0.568389892578125,-2.7027130126953125,2.7845258508025545
1785944147.952308,0.10205078125,-0.3623046875,0.9057616591453552,0.9808584157338687,-0.072479248046875,-0.324249267578125,-2.3975372314453125,2.4204494634445157
1785944147.969923,0.099609375,-0.36328125,0.9125975966453552,0.9872839852809989,-0.072479248046875,-0.2593994140625,-1.6651153564453125,1.686757376650065
1785944147.979508,0.10986328125,-0.369140625,0.9218749403953552,0.9990936629372378,-0.0743865966796875,-0.1392364501953125,-0.8754730224609375,0.8895915736367265
1785944147.989092,0.1083984375,-0.3662109375,0.9194335341453552,0.9955996663860873,0.0476837158203125,0.0438690185546875,-0.3223419189453125,0.3287895075161771
1785944147.998676,0.11181640625,-0.3642578125,0.9218749403953552,0.9975169514363603,-0.133514404296875,0.102996826171875,0.3490447998046875,0.3876425087976333
1785944148.00826,0.103515625,-0.361328125,0.9150390028953552,0.9892269079209695,0.1697540283203125,0.2880096435546875,0.5321502685546875,0.6284503904321308
1785944148.01624,0.11865234375,-0.36279296875,0.9331054091453552,1.008158133145851,0.354766845703125,0.102996826171875,0.2841949462890625,0.4660843577163553
1785944148.024222,0.11181640625,-0.3564453125,0.9008788466453552,0.9752634853427832,0.293731689453125,0.2288818359375,0.3490447998046875,0.5103895301451649
1785944148.032203,0.10986328125,-0.3505859375,0.8999022841453552,0.9720105766656031,0.1697540283203125,0.0438690185546875,-0.0782012939453125,0.1919801117164123
1785944148.040186,0.11572265625,-0.35888671875,0.9125975966453552,0.9874339387865781,0.2307891845703125,-0.1392364501953125,-0.0782012939453125,0.280652595128466
1785944148.04818,0.125,-0.3720703125,0.9160155653953552,0.9965670240833879,-0.011444091796875,-0.202178955078125,-0.3871917724609375,0.43694938582744364
1785944148.056174,0.11376953125,-0.37158203125,0.9047850966453552,0.9847094918300856,0.0476837158203125,-0.3223419189453125,-0.4444122314453125,0.5510719380643336
1785944148.064168,0.10986328125,-0.35546875,0.9223632216453552,0.9945762341005228,0.1697540283203125,-0.4444122314453125,-0.8106231689453125,0.9399088166519751
1785944148.072161,0.1123046875,-0.36181640625,0.9145507216453552,0.9899123583066218,0.293731689453125,-0.507354736328125,-0.3871917724609375,0.7025699983097846
1785944148.082843,0.1142578125,-0.36669921875,0.9033202528953552,0.9815857802760154,0.2307891845703125,0.0438690185546875,-0.2040863037109375,0.311190227780331
1785944148.093524,0.10400390625,-0.36376953125,0.9038085341453552,0.9798035266190254,0.293731689453125,-0.385284423828125,-0.3871917724609375,0.6201934063620796
1785944148.104205,0.12255859375,-0.35498046875,0.9086913466453552,0.9832353256286597,0.293731689453125,-0.385284423828125,-0.2613067626953125,0.550457643115128
1785944148.114879,0.1044921875,-0.3505859375,0.9042968153953552,0.9754905674354162,0.0476837158203125,-0.0782012939453125,-0.4444122314453125,0.4537525874167061
1785944148.125554,0.11669921875,-0.349609375,0.9018554091453552,0.9742631070452616,-0.1926422119140625,-0.4444122314453125,-0.5702972412109375,0.748232715538522
1785944148.136229,0.11962890625,-0.345703125,0.9067382216453552,0.9777504428216426,-0.4405975341796875,-0.7495880126953125,-0.5702972412109375,1.0398304281153419
1785944148.14426,0.12451171875,-0.3720703125,0.9160155653953552,0.9965058964183298,-0.4405975341796875,-0.3223419189453125,-0.5054473876953125,0.7439808879014184
1785944148.152291,0.10400390625,-0.361328125,0.9145507216453552,0.9888265009056515,-0.4405975341796875,-0.4444122314453125,-0.8106231689453125,1.0240792648102799
1785944148.160321,0.11865234375,-0.35498046875,0.9067382216453552,0.9809504138660217,-0.560760498046875,-0.385284423828125,-0.3223419189453125,0.7528616978726544
1785944148.168353,0.1123046875,-0.35400390625,0.9145507216453552,0.9870836494121313,-0.4405975341796875,0.0438690185546875,-0.4444122314453125,0.62733795467226
1785944148.178974,0.1181640625,-0.369140625,0.9091796278953552,0.9883497065673825,-0.1354217529296875,-0.1392364501953125,-0.3223419189453125,0.37633781757735624
1785944148.189595,0.1298828125,-0.36767578125,0.9057616591453552,0.9861334637250957,-0.194549560546875,-0.2593994140625,0.1659393310546875,0.36424366722817253
1785944148.200216,0.1142578125,-0.37353515625,0.9062499403953552,0.9868496922726288,-0.011444091796875,0.102996826171875,0.5321502685546875,0.5421468636461533
1785944148.210932,0.12158203125,-0.35546875,0.9204100966453552,0.9941302573386199,-0.194549560546875,-0.324249267578125,0.5893707275390625,0.7002463662982169
1785944148.221649,0.125,-0.3564453125,0.9145507216453552,0.9894853628352784,-0.194549560546875,-0.324249267578125,0.2841949462890625,0.47302630638282245
1785944148.232366,0.126953125,-0.36572265625,0.9125975966453552,0.9913145467734747,-0.0095367431640625,-0.1392364501953125,0.0438690185546875,0.14629500785098767
1785944148.240328,0.1220703125,-0.35205078125,0.9272460341453552,0.99931282470049,-0.255584716796875,-0.385284423828125,0.0438690185546875,0.46442666320277154
1785944148.248291,0.1328125,-0.3681640625,0.9121093153953552,0.992535813108896,-0.0095367431640625,-0.1392364501953125,-0.0782012939453125,0.15997868891789993
1785944148.256255,0.1181640625,-0.3603515625,0.9130858778953552,0.9887071430280187,0.110626220703125,0.0457763671875,-0.1392364501953125,0.18363122164526677
1785944148.26422,0.12109375,-0.36767578125,0.9067382216453552,0.9859124601096396,-0.011444091796875,-0.0762939453125,-0.3871917724609375,0.3948027380728817
1785944148.272213,0.1162109375,-0.357421875,0.9160155653953552,0.9901211515616242,0.3528594970703125,0.0438690185546875,-0.4444122314453125,0.5691542382516952
1785944148.280208,0.11767578125,-0.35986328125,0.9111327528953552,0.9866671495917368,0.110626220703125,-0.019073486328125,-0.3223419189453125,0.34133014999720157
1785944148.288202,0.12255859375,-0.3486328125,0.9077147841453552,0.9800569249843024,0.1697540283203125,0.2880096435546875,-0.7495880126953125,0.8207607286462844
1785944148.296196,0.1240234375,-0.3642578125,0.9101561903953552,0.9881547742796103,0.049591064453125,0.102996826171875,-0.5702972412109375,0.5816412667683404
1785944148.306932,0.123046875,-0.3701171875,0.9096679091453552,0.9897590468690135,-0.011444091796875,0.102996826171875,-0.5054473876953125,0.515961602414899
1785944148.317667,0.103515625,-0.36279296875,0.9096679091453552,0.984799435277286,0.049591064453125,0.102996826171875,-0.5702972412109375,0.5816412667683404
1785944148.328404,0.1142578125,-0.35888671875,0.9243163466453552,0.9981058226902813,-0.255584716796875,-0.019073486328125,-0.5054473876953125,0.5667136905606424
1785944148.339112,0.1162109375,-0.36572265625,0.9174804091453552,0.9944990419576647,-0.3185272216796875,-0.2002716064453125,-0.2040863037109375,0.4280415010972183
1785944148.349822,0.11328125,-0.35400390625,0.9223632216453552,0.994437187501463,-0.194549560546875,-0.2593994140625,-0.4444122314453125,0.5501270934821811
1785944148.360532,0.12255859375,-0.36328125,0.9116210341453552,0.9889624792679381,-0.377655029296875,-0.202178955078125,-0.5702972412109375,0.7132591354918016
1785944148.368438,0.1123046875,-0.38037109375,0.9091796278953552,0.9919183976391307,-0.377655029296875,-0.202178955078125,-0.3223419189453125,0.5361007029831731
1785944148.376343,0.119140625,-0.357421875,0.9125975966453552,0.987309099855149,-0.3185272216796875,-0.4444122314453125,-0.3871917724609375,0.669984545396851
1785944148.38425,0.10595703125,-0.3642578125,0.9047850966453552,0.9810946526967433,-0.4405975341796875,-0.3223419189453125,-0.3223419189453125,0.6339832904295772
1785944148.392156,0.1201171875,-0.3525390625,0.9106444716453552,0.9838624309625493,-0.2574920654296875,-0.3223419189453125,-0.3871917724609375,0.565794967395465
1785944148.402844,0.12109375,-0.3701171875,0.9057616591453552,0.9859282995987686,-0.560760498046875,-0.2593994140625,-0.6923675537109375,0.9279618643120069
1785944148.413532,0.11279296875,-0.35595703125,0.9213866591453552,0.9941735449843709,-0.2574920654296875,-0.2613067626953125,-0.1392364501953125,0.3923903376136351
1785944148.42422,0.11962890625,-0.3505859375,0.9194335341453552,0.9912515313957115,-0.377655029296875,-0.385284423828125,-0.4444122314453125,0.6989775674912577
1785944148.43222,0.11572265625,-0.3525390625,0.9165038466453552,0.9887642917670861,-0.133514404296875,-0.385284423828125,-0.5702972412109375,0.7010771189620482
1785944148.44022,0.12646484375,-0.3583984375,0.9160155653953552,0.9917294554230632,-0.3185272216796875,-0.1392364501953125,-0.3871917724609375,0.5203497368841604
1785944148.44822,0.1279296875,-0.3642578125,0.9125975966453552,0.990900667228563,-0.4405975341796875,-0.0171661376953125,-0.5054473876953125,0.6707443068238529
1785944148.45622,0.13037109375,-0.35107421875,0.9165038466453552,0.9900651645584885,-0.2574920654296875,-0.1392364501953125,-0.6923675537109375,0.7517059147392058
1785944148.466889,0.12060546875,-0.35888671875,0.9199218153953552,0.99478716438635,-0.4978179931640625,0.0438690185546875,-0.8754730224609375,1.0080675861090542
1785944148.477557,0.126953125,-0.3623046875,0.9106444716453552,0.9882586383482749,-0.377655029296875,-0.019073486328125,-0.6923675537109375,0.7888979328567166
1785944148.488227,0.11328125,-0.37060546875,0.9150390028953552,0.9937189904035726,-0.377655029296875,0.164031982421875,-1.1157989501953125,1.1893431421029994
1785944148.498893,0.12109375,-0.37109375,0.9130858778953552,0.9930257237302851,-0.072479248046875,0.164031982421875,-0.7495880126953125,0.7707411507316829
1785944148.509564,0.10009765625,-0.36376953125,0.9287108778953552,1.0024229184200395,0.3528594970703125,-0.1392364501953125,-0.5054473876953125,0.6319601850304505
1785944148.520233,0.10693359375,-0.36083984375,0.9218749403953552,0.9957377124718909,0.1697540283203125,-0.2002716064453125,-0.4444122314453125,0.5161660371792798
1785944148.530921,0.10546875,-0.3583984375,0.9238280653953552,0.9965096043898065,0.4787445068359375,-0.1392364501953125,-0.5054473876953125,0.7099719386120781
1785944148.541607,0.12109375,-0.36181640625,0.9184569716453552,0.9945541799644122,0.4787445068359375,-0.2613067626953125,0.0438690185546875,0.5471764046857658
1785944148.552293,0.11767578125,-0.3671875,0.9018554091453552,0.9808248715513814,-0.072479248046875,-0.202178955078125,-0.3871917724609375,0.4427719954280818
1785944148.562943,0.1171875,-0.35546875,0.9077147841453552,0.9818538953117523,0.049591064453125,-0.202178955078125,-0.0171661376953125,0.20887862464467472
1785944148.573594,0.1201171875,-0.361328125,0.9169921278953552,0.9929051894672408,0.1697540283203125,-0.2002716064453125,-0.3223419189453125,0.41572762620315
1785944148.584244,0.11083984375,-0.36083984375,0.9086913466453552,0.9839770461083927,0.1697540283203125,-0.2002716064453125,0.1010894775390625,0.281325841238021
1785944148.594905,0.119140625,-0.353515625,0.9179686903953552,0.9908755230555929,-0.194549560546875,-0.202178955078125,0.2269744873046875,0.3608923375089729
1785944148.605568,0.11767578125,-0.3642578125,0.9121093153953552,0.9891788244251222,0.232696533203125,-0.0762939453125,0.3490447998046875,0.42638095047362773
1785944148.616233,0.10595703125,-0.36376953125,0.9184569716453552,0.9935383098306351,0.293731689453125,-0.0762939453125,0.3490447998046875,0.46252712758391606
1785944148.624302,0.115234375,-0.36083984375,0.9116210341453552,0.9871865395736572,0.110626220703125,-0.4425048828125,0.8373260498046875,0.9535007318830347
1785944148.632372,0.1171875,-0.37158203125,0.9179686903953552,0.997232486760379,0.0476837158203125,-0.1392364501953125,0.5893707275390625,0.6074688307208428
1785944148.640442,0.13037109375,-0.34716796875,0.8999022841453552,0.9733171844890031,-0.0095367431640625,0.0438690185546875,0.5893707275390625,0.59107807837802
1785944148.648511,0.12255859375,-0.35302734375,0.9277343153953552,1.0001699227127592,0.232696533203125,-0.568389892578125,0.4100799560546875,0.7384986912023203
1785944148.659161,0.13232421875,-0.33837890625,0.9038085341453552,0.9741046398907665,-0.072479248046875,-0.202178955078125,0.2269744873046875,0.3124851823065354
1785944148.66981,0.12255859375,-0.36181640625,0.9082030653953552,0.9852738343867468,-0.377655029296875,-0.324249267578125,0.3490447998046875,0.607941757859146
1785944148.680459,0.1181640625,-0.35888671875,0.9213866591453552,0.9958492848883733,-0.255584716796875,-0.0762939453125,0.2269744873046875,0.3502309687030992
1785944148.691054,0.11669921875,-0.35986328125,0.9091796278953552,0.9847476248404022,-0.499725341796875,-0.202178955078125,0.1010894775390625,0.54847135711868
1785944148.701647,0.12744140625,-0.357421875,0.9125975966453552,0.9883451230002461,-0.255584716796875,-0.385284423828125,0.2841949462890625,0.5427102377889624
1785944148.71224,0.12939453125,-0.35546875,0.9282225966453552,1.0023463303005682,-0.255584716796875,-0.019073486328125,0.7152557373046875,0.7597882040990898
1785944148.720237,0.115234375,-0.37109375,0.9238280653953552,1.0022214460301815,0.0476837158203125,-0.2613067626953125,0.3490447998046875,0.43861969091164965
1785944148.728236,0.12255859375,-0.37158203125,0.9287108778953552,1.0077686786018976,0.1697540283203125,-0.0171661376953125,0.5893707275390625,0.6135706649557748
1785944148.736236,0.11865234375,-0.35400390625,0.9169921278953552,0.9900867168787179,0.110626220703125,0.102996826171875,-0.0782012939453125,0.17018210623698699
1785944148.744235,0.12109375,-0.35693359375,0.9204100966453552,0.9945954115332851,0.0476837158203125,-0.0171661376953125,0.1659393310546875,0.17350583456669094
1785944148.754897,0.1181640625,-0.34716796875,0.9179686903953552,0.9885114368274494,0.110626220703125,-0.019073486328125,0.1659393310546875,0.2003442541692745
1785944148.765558,0.11572265625,-0.34716796875,0.8994140028953552,0.9710112668243365,0.1697540283203125,0.0438690185546875,0.0438690185546875,0.18073575105351042
1785944148.776221,0.126953125,-0.35791015625,0.9116210341453552,0.9875574341730267,-0.0095367431640625,0.1659393310546875,0.1659393310546875,0.23486735118345342
1785944148.784201,0.10009765625,-0.37109375,0.9121093153953552,0.9897845802530919,0.110626220703125,-0.019073486328125,0.1659393310546875,0.2003442541692745
1785944148.792181,0.11181640625,-0.3623046875,0.9169921278953552,0.9922913674486891,0.2307891845703125,0.2269744873046875,0.1010894775390625,0.3391167174749368
1785944148.800163,0.1279296875,-0.35986328125,0.9189452528953552,0.9951522315479038,0.3528594970703125,0.0438690185546875,0.5321502685546875,0.6400142371732768
1785944148.808144,0.11767578125,-0.36865234375,0.9150390028953552,0.9935031539280044,0.0476837158203125,-0.1392364501953125,0.2269744873046875,0.27051422089171173
1785944148.818819,0.111328125,-0.3544921875,0.9184569716453552,0.9907683236652793,0.476837158203125,0.102996826171875,0.5893707275390625,0.765075078750207
1785944148.829494,0.125,-0.3623046875,0.9238280653953552,1.0001739753645849,0.3528594970703125,-0.0171661376953125,0.5893707275390625,0.6871407100703699
1785944148.840169,0.12548828125,-0.36474609375,0.9052733778953552,0.9840258687468686,0.5359649658203125,-0.0782012939453125,0.8983612060546875,1.0490122704265774
1785944148.850834,0.123046875,-0.35595703125,0.9179686903953552,0.9922260115970265,0.3528594970703125,0.0438690185546875,0.7724761962890625,0.8503844949755867
1785944148.861499,0.12451171875,-0.34814453125,0.9125975966453552,0.9846533177460175,0.9021759033203125,0.0438690185546875,0.7152557373046875,1.152144357738233
1785944148.872164,0.11083984375,-0.359375,0.9150390028953552,0.9893089701439335,0.782012939453125,-0.0762939453125,1.0204315185546875,1.287884112652722
1785944148.880171,0.11572265625,-0.36083984375,0.9096679091453552,0.9854404248537617,0.720977783203125,-0.019073486328125,0.8983612060546875,1.1520527845099955
1785944148.88818,0.12548828125,-0.361328125,0.9082030653953552,0.9854634090825568,0.6580352783203125,0.1049041748046875,0.7152557373046875,0.977551064217525
1785944148.896191,0.1123046875,-0.353515625,0.9101561903953552,0.9828376930442785,0.293731689453125,0.2288818359375,0.8373260498046875,0.9163951734337266
1785944148.904201,0.11181640625,-0.3603515625,0.9091796278953552,0.9843595649369152,0.415802001953125,-0.324249267578125,0.8983612060546875,1.0416725727872505
1785944148.914883,0.12158203125,-0.35400390625,0.9155272841453552,0.9890860245588878,0.354766845703125,0.102996826171875,1.3866424560546875,1.4350070250507487
1785944148.925565,0.11962890625,-0.35888671875,0.9150390028953552,0.990155103468865,0.8411407470703125,0.0438690185546875,1.5087127685546875,1.7279052245915876
1785944148.936247,0.12255859375,-0.37451171875,0.9145507216453552,0.9958326460028797,0.9021759033203125,-0.1392364501953125,1.6918182373046875,1.9223831818010564
1785944148.946951,0.11865234375,-0.35888671875,0.9213866591453552,0.9959073406816262,0.904083251953125,0.164031982421875,2.1800994873046875,2.3658205325564214
1785944148.957654,0.13037109375,-0.3603515625,0.9262694716453552,1.0024095993075526,0.7839202880859375,0.0438690185546875,1.8138885498046875,1.9765240145199965
1785944148.968357,0.1181640625,-0.36083984375,0.9028319716453552,0.979425192410869,1.026153564453125,0.102996826171875,1.8749237060546875,2.1398454120723716
1785944148.976321,0.1083984375,-0.36767578125,0.9077147841453552,0.9853333602016568,1.0242462158203125,0.1659393310546875,1.6918182373046875,1.9846574314701888
1785944148.984287,0.1064453125,-0.36083984375,0.9047850966453552,0.9798837015188546,1.0852813720703125,0.5321502685546875,1.6307830810546875,2.0298948303643383
1785944148.992253,0.1162109375,-0.3603515625,0.9042968153953552,0.9803626680596327,0.965118408203125,0.164031982421875,1.5659332275390625,1.8467557787159323
1785944149.000219,0.125,-0.35009765625,0.9140624403953552,0.9867641632392491,0.6580352783203125,0.0438690185546875,1.6307830810546875,1.7590873701318142
1785944149.010943,0.10791015625,-0.359375,0.9042968153953552,0.979054504499663,0.6580352783203125,-0.0782012939453125,1.3256072998046875,1.4820123424534246
1785944149.021667,0.1064453125,-0.36669921875,0.9208983778953552,0.9969216338285469,0.476837158203125,0.102996826171875,1.0776519775390625,1.1829267966947759
1785944149.032391,0.1142578125,-0.35791015625,0.9155272841453552,0.98961847985916,0.476837158203125,-0.0762939453125,1.1425018310546875,1.2403648154869165
1785944149.040349,0.11328125,-0.35107421875,0.9218749403953552,0.9929446884904642,0.5359649658203125,0.2269744873046875,1.2035369873046875,1.3368908490540423
1785944149.048308,0.107421875,-0.357421875,0.9174804091453552,0.9904848091326589,0.598907470703125,0.102996826171875,1.3866424560546875,1.5139603051595738
1785944149.056268,0.1123046875,-0.35205078125,0.9184569716453552,0.9900077293522334,0.598907470703125,-0.202178955078125,1.5659332275390625,1.6887016792350868
1785944149.064229,0.11376953125,-0.35498046875,0.9165038466453552,0.9894109057164001,1.270294189453125,0.2288818359375,1.2035369873046875,1.7648046640891835
1785944149.074979,0.1103515625,-0.3525390625,0.9208983778953552,0.9922273329962579,0.904083251953125,-0.0762939453125,1.5659332275390625,1.8097884311886818
1785944149.085728,0.1103515625,-0.3603515625,0.9267577528953552,1.0004552206341026,0.965118408203125,0.164031982421875,1.4476776123046875,1.747607078916192
1785944149.096479,0.1103515625,-0.35791015625,0.9204100966453552,0.9936960769268454,0.4787445068359375,0.2269744873046875,1.4476776123046875,1.5415849603187661
1785944149.107085,0.12109375,-0.35986328125,0.9062499403953552,0.982575305993217,0.476837158203125,-0.202178955078125,1.2607574462890625,1.3629964576964362
1785944149.117691,0.1201171875,-0.35205078125,0.9077147841453552,0.980976055093953,0.4138946533203125,-0.1392364501953125,1.1425018310546875,1.2231132437650436
1785944149.128297,0.12109375,-0.36865234375,0.9106444716453552,0.9898694866393644,0.3528594970703125,-0.1392364501953125,0.7724761962890625,0.8605905458282259
1785944149.13628,0.11083984375,-0.34814453125,0.9145507216453552,0.9848315125257958,0.110626220703125,0.0457763671875,0.3490447998046875,0.36900665139077876
1785944149.144265,0.11572265625,-0.35693359375,0.9169921278953552,0.9907915452500072,0.1697540283203125,-0.1392364501953125,0.5893707275390625,0.6289364623504421
1785944149.15225,0.11767578125,-0.3466796875,0.9072265028953552,0.978311976198611,0.2307891845703125,-0.3223419189453125,0.2841949462890625,0.4877855347590981
1785944149.160234,0.1162109375,-0.3466796875,0.9052733778953552,0.9763255996058862,0.3528594970703125,0.0438690185546875,0.2269744873046875,0.4218432568489049
1785944149.170892,0.11572265625,-0.3505859375,0.9062499403953552,0.9785658829168808,0.415802001953125,-0.2593994140625,0.1659393310546875,0.5174120431871219
1785944149.181549,0.12353515625,-0.35498046875,0.9135741591453552,0.9878713541154154,0.0476837158203125,0.0438690185546875,0.4100799560546875,0.4151671927081887
1785944149.192206,0.11962890625,-0.35546875,0.8974608778953552,0.9726793586736769,0.0476837158203125,-0.1392364501953125,0.2841949462890625,0.32004264296132034
1785944149.203268,0.10888671875,-0.36962890625,0.9189452528953552,0.9964648632413595,-0.072479248046875,-0.0762939453125,0.2841949462890625,0.3030524294326483
1785944149.214331,0.11474609375,-0.36669921875,0.9165038466453552,0.9937878465640828,0.110626220703125,0.0457763671875,0.4100799560546875,0.42719925896208644
1785944149.225394,0.11083984375,-0.3681640625,0.9135741591453552,0.9911851452363333,0.293731689453125,0.102996826171875,0.6542205810546875,0.7244937682727157
1785944149.23333,0.12158203125,-0.353515625,0.9248046278953552,0.9975064346753273,0.232696533203125,0.286102294921875,0.8373260498046875,0.9149410436775905
1785944149.241266,0.1142578125,-0.35498046875,0.9077147841453552,0.9813318043696045,0.232696533203125,-0.019073486328125,0.6542205810546875,0.6946337474676818
1785944149.249202,0.109375,-0.35693359375,0.9042968153953552,0.9783236741009956,0.476837158203125,-0.202178955078125,0.7152557373046875,0.8830859386645145
1785944149.257138,0.11181640625,-0.34912109375,0.9047850966453552,0.9762297464835857,0.3528594970703125,-0.1392364501953125,0.6542205810546875,0.756241484190889
1785944149.267497,0.123046875,-0.3583984375,0.9252929091453552,0.9998784631965936,-0.0095367431640625,0.1659393310546875,0.4100799560546875,0.4424843290093661
1785944149.277855,0.103515625,-0.34912109375,0.9218749403953552,0.9911883920069265,0.415802001953125,0.164031982421875,0.5893707275390625,0.7396997029642507
1785944149.288214,0.11376953125,-0.373046875,0.9243163466453552,1.0032288800986178,0.3528594970703125,-0.0782012939453125,0.5893707275390625,0.6913632341449456
1785944149.296226,0.10888671875,-0.3466796875,0.9160155653953552,0.9854580860147283,0.415802001953125,-0.2593994140625,0.3490447998046875,0.6016740256275729
1785944149.304237,0.11376953125,-0.361328125,0.9199218153953552,0.994865652536636,0.6580352783203125,-0.0782012939453125,0.9593963623046875,1.1660048241290768
1785944149.312248,0.11376953125,-0.35791015625,0.9130858778953552,0.9873039079228217,0.7190704345703125,-0.1392364501953125,1.0776519775390625,1.3029899706559456
1785944149.320259,0.11572265625,-0.35302734375,0.9135741591453552,0.9862240023761738,0.4787445068359375,0.0438690185546875,0.6542205810546875,0.8118653597057024
1785944149.32989,0.111328125,-0.341796875,0.9072265028953552,0.975847827651175,0.293731689453125,-0.0762939453125,0.9593963623046875,1.0062506901780495
1785944149.339523,0.1103515625,-0.34716796875,0.9165038466453552,0.9862466054633219,0.4787445068359375,0.0438690185546875,0.9593963623046875,1.073108649493612
1785944149.349154,0.11083984375,-0.35693359375,0.9155272841453552,0.9888767715566912,0.293731689453125,0.4119873046875,0.5893707275390625,0.7767687552242185
1785944149.358787,0.10400390625,-0.36083984375,0.9106444716453552,0.9850358161463122,-0.0743865966796875,0.0438690185546875,0.7724761962890625,0.7772884473525618
1785944149.368418,0.09912109375,-0.35546875,0.9096679091453552,0.9816713953159891,-0.0095367431640625,-0.1392364501953125,0.6542205810546875,0.6689411836691638
1785944149.379016,0.126953125,-0.36767578125,0.9140624403953552,0.9933844779372062,-0.011444091796875,-0.0762939453125,1.0204315185546875,1.0233436457946214
1785944149.389615,0.1103515625,-0.36474609375,0.9238280653953552,0.9993375178908275,0.354766845703125,0.102996826171875,1.0776519775390625,1.1392109750636519
1785944149.400213,0.11376953125,-0.35595703125,0.9096679091453552,0.9834351118737018,0.110626220703125,0.2288818359375,0.9593963623046875,0.9925051312374382
1785944149.408232,0.1162109375,-0.3515625,0.9125975966453552,0.9848530584832224,-0.1354217529296875,0.0438690185546875,0.8983612060546875,0.9095693478232066
1785944149.416249,0.1083984375,-0.357421875,0.9287108778953552,1.001001754594925,0.232696533203125,-0.019073486328125,0.7724761962890625,0.8069888154607103
1785944149.424266,0.12109375,-0.359375,0.9169921278953552,0.9923147935691143,-0.194549560546875,-0.019073486328125,0.3490447998046875,0.4000569980145151
1785944149.432283,0.1142578125,-0.3427734375,0.9140624403953552,0.9828828119945754,-0.1354217529296875,-0.3223419189453125,0.5321502685546875,0.636731711318607
1785944149.442921,0.11181640625,-0.36474609375,0.9008788466453552,0.9783278172195731,-0.2574920654296875,-0.2613067626953125,0.3490447998046875,0.5063750193880472
1785944149.453561,0.11328125,-0.35107421875,0.9199218153953552,0.9911316235055622,-0.377655029296875,-0.2593994140625,0.4100799560546875,0.614879620354266
1785944149.4642,0.11376953125,-0.34375,0.9262694716453552,0.9945263711149194,-0.0743865966796875,0.3490447998046875,0.2841949462890625,0.4562153061138173
1785944149.472213,0.111328125,-0.3388671875,0.9091796278953552,0.9766434958366909,0.110626220703125,-0.019073486328125,0.4100799560546875,0.42516764804672064
1785944149.480223,0.1171875,-0.35546875,0.9106444716453552,0.9845629975380248,-0.133514404296875,0.102996826171875,0.1010894775390625,0.19660499694908432
1785944149.488235,0.109375,-0.35009765625,0.9228515028953552,0.9930690589948712,0.2307891845703125,0.0438690185546875,0.5893707275390625,0.6344651235359633
1785944149.496246,0.11865234375,-0.35009765625,0.9155272841453552,0.9873383187153638,0.110626220703125,-0.2593994140625,0.4100799560546875,0.49768643449549566
1785944149.506949,0.109375,-0.3564453125,0.9174804091453552,0.9903466325452674,-0.1926422119140625,0.0438690185546875,0.5893707275390625,0.6216054754263495
1785944149.517652,0.111328125,-0.3515625,0.9287108778953552,0.9992467350676844,-0.1354217529296875,0.0438690185546875,0.0438690185546875,0.14895647936378048
1785944149.528355,0.12744140625,-0.34814453125,0.9272460341453552,0.9986146075962183,-0.1926422119140625,-0.1392364501953125,0.0438690185546875,0.2417070575367749
1785944149.53636,0.10693359375,-0.34716796875,0.9165038466453552,0.9858700182650976,-0.560760498046875,-0.202178955078125,-0.1392364501953125,0.6121400616764545
1785944149.544364,0.11767578125,-0.3515625,0.9204100966453552,0.9922693822273062,-0.072479248046875,0.164031982421875,-0.0782012939453125,0.1956404227899028
1785944149.55237,0.1064453125,-0.3515625,0.9140624403953552,0.9851075783390284,-0.377655029296875,0.164031982421875,-0.0782012939453125,0.41910053064294134
1785944149.560374,0.1083984375,-0.359375,0.9121093153953552,0.9863285533271482,-0.4405975341796875,-0.0171661376953125,-0.1392364501953125,0.4623933957914917
1785944149.568351,0.1005859375,-0.35791015625,0.9072265028953552,0.9804474174199193,-0.3185272216796875,-0.4444122314453125,0.1659393310546875,0.5713997584879258
1785944149.576327,0.10791015625,-0.3486328125,0.9184569716453552,0.988307972515408,-0.377655029296875,0.102996826171875,0.2269744873046875,0.45249208307099553
1785944149.584303,0.10986328125,-0.345703125,0.9218749403953552,0.9906735067269751,-0.194549560546875,-0.0762939453125,0.1659393310546875,0.2668448223054105
1785944149.592278,0.109375,-0.35498046875,0.9101561903953552,0.9830352560991675,-0.194549560546875,-0.2593994140625,0.7152557373046875,0.7853205442825386
1785944149.602932,0.10888671875,-0.3564453125,0.9248046278953552,0.997082332658658,-0.2574920654296875,-0.2613067626953125,0.2841949462890625,0.46405835353519276
1785944149.613585,0.1201171875,-0.35595703125,0.9121093153953552,0.9864466280849701,-0.3185272216796875,-0.0782012939453125,0.4100799560546875,0.525110087204118
1785944149.624238,0.1123046875,-0.36474609375,0.9179686903953552,0.994142128815855,-0.2574920654296875,-0.2613067626953125,1.0204315185546875,1.0843725706828702
1785944149.634936,0.10986328125,-0.36474609375,0.9091796278953552,0.9857571958919888,-0.0743865966796875,0.0438690185546875,0.6542205810546875,0.6598957684589825
1785944149.645635,0.11181640625,-0.3525390625,0.9160155653953552,0.9878619414379807,-0.4405975341796875,-0.0171661376953125,0.2269744873046875,0.4959216483435877
1785944149.656334,0.11279296875,-0.349609375,0.9125975966453552,0.9837597990821781,-0.2574920654296875,0.0438690185546875,0.4100799560546875,0.4862018355642155
1785944149.664303,0.10986328125,-0.345703125,0.9165038466453552,0.9856773772982289,-0.194549560546875,-0.0762939453125,0.1659393310546875,0.2668448223054105
1785944149.672272,0.10693359375,-0.3544921875,0.9204100966453552,0.9920958877434869,0.110626220703125,0.0457763671875,0.2269744873046875,0.25661460283305604
1785944149.680241,0.1181640625,-0.3466796875,0.9155272841453552,0.9860728976126316,-0.072479248046875,-0.202178955078125,0.0438690185546875,0.21921236749525433
1785944149.68821,0.12158203125,-0.35546875,0.9189452528953552,0.992774194048348,-0.011444091796875,-0.0762939453125,0.4100799560546875,0.41727365563406527
1785944149.698891,0.1162109375,-0.36083984375,0.9218749403953552,0.9967766954343852,-0.194549560546875,0.286102294921875,-0.0782012939453125,0.3547104411252464
1785944149.709574,0.10498046875,-0.34423828125,0.9248046278953552,0.9923630852029867,-0.0095367431640625,-0.1392364501953125,-0.0171661376953125,0.14061441894963497
1785944149.720255,0.115234375,-0.353515625,0.8989257216453552,0.9727896542091737,-0.0743865966796875,0.0438690185546875,-0.0782012939453125,0.1165045017553364
1785944149.730909,0.10693359375,-0.3544921875,0.9272460341453552,0.9984411411340753,0.049591064453125,-0.202178955078125,-0.2613067626953125,0.33409104714191434
1785944149.741564,0.11376953125,-0.35595703125,0.9116210341453552,0.9852420130269542,-0.1354217529296875,-0.0782012939453125,-0.2613067626953125,0.3045253975805218
1785944149.752219,0.11181640625,-0.3525390625,0.9199218153953552,0.9914851717173232,0.0476837158203125,0.0438690185546875,-0.2613067626953125,0.2692200805543453
1785944149.762868,0.10595703125,-0.36474609375,0.9179686903953552,0.9934450774569075,0.110626220703125,-0.202178955078125,-0.1392364501953125,0.2692606165901927
1785944149.773515,0.111328125,-0.3662109375,0.9199218153953552,0.9963736992719803,0.0476837158203125,-0.0782012939453125,-0.2040863037109375,0.22369711328389222
1785944149.784163,0.11328125,-0.35693359375,0.9218749403953552,0.9950314757221463,0.293731689453125,0.2288818359375,-0.0171661376953125,0.37277322395054363
1785944149.792196,0.12548828125,-0.35205078125,0.9082030653953552,0.9820997247241923,0.2307891845703125,0.0438690185546875,-0.0782012939453125,0.24759559947281465
1785944149.800228,0.11767578125,-0.3623046875,0.9082030653953552,0.9848579004459427,0.110626220703125,0.102996826171875,0.0438690185546875,0.15738804814053536
1785944149.808259,0.1181640625,-0.35888671875,0.9067382216453552,0.9823118777426174,-0.0095367431640625,0.0438690185546875,-0.1392364501953125,0.14629500785098767
1785944149.816292,0.11865234375,-0.3603515625,0.9155272841453552,0.9910206028575438,-0.194549560546875,-0.2593994140625,0.1010894775390625,0.33964197325135054
1785944149.826935,0.115234375,-0.3525390625,0.9106444716453552,0.9832782441955419,-0.377655029296875,-0.019073486328125,-0.2040863037109375,0.429695634602361
1785944149.837578,0.10693359375,-0.3505859375,0.9184569716453552,0.9888925633298092,-0.194549560546875,0.102996826171875,-0.4444122314453125,0.49594365523581774
1785944149.848221,0.11279296875,-0.35693359375,0.9340819716453552,1.006296662967538,0.1697540283203125,-0.2002716064453125,-0.0782012939453125,0.2739353734987155
1785944149.858894,0.11376953125,-0.3544921875,0.9174804091453552,0.9901406558691085,-0.072479248046875,-0.202178955078125,-0.2040863037109375,0.2962782317962559
1785944149.869567,0.09765625,-0.34521484375,0.9165038466453552,0.9842201646101,-0.0095367431640625,0.0438690185546875,0.0438690185546875,0.0627688700557874
1785944149.880242,0.1103515625,-0.34619140625,0.9101561903953552,0.9800052285689755,0.3528594970703125,0.0438690185546875,0.1659393310546875,0.3923903376136351
1785944149.890916,0.11279296875,-0.361328125,0.9199218153953552,0.9947544491761472,0.4138946533203125,0.0438690185546875,0.2269744873046875,0.4740787832452734
1785944149.901591,0.1083984375,-0.3515625,0.9248046278953552,0.9952939326828824,0.110626220703125,-0.324249267578125,0.0438690185546875,0.3453986667909396
1785944149.912266,0.115234375,-0.3486328125,0.9121093153953552,0.9832432061114302,0.293731689453125,-0.507354736328125,0.1010894775390625,0.5949001734179348
1785944149.920255,0.11181640625,-0.3525390625,0.9179686903953552,0.9896732874242931,0.0476837158203125,-0.1392364501953125,0.1010894775390625,0.1785486160308858
1785944149.928244,0.11279296875,-0.3603515625,0.9145507216453552,0.9894334362945645,0.1697540283203125,-0.0782012939453125,-0.0782012939453125,0.20260136939422646
1785944149.936233,0.10498046875,-0.3623046875,0.9179686903953552,0.9924475310814199,-0.133514404296875,0.102996826171875,0.1659393310546875,0.23658043864002368
1785944149.944222,0.1181640625,-0.35546875,0.9145507216453552,0.9882933776744163,0.110626220703125,-0.0762939453125,0.1010894775390625,0.16816066504246432
1785944149.95489,0.1015625,-0.36669921875,0.9262694716453552,1.0013782464884464,0.1697540283203125,-0.0171661376953125,-0.0171661376953125,0.1714811438547175
1785944149.965559,0.10791015625,-0.3544921875,0.9194335341453552,0.9912957866002723,0.4787445068359375,-0.1392364501953125,0.1010894775390625,0.5087260307451323
1785944149.976229,0.1142578125,-0.3564453125,0.9160155653953552,0.989541623463652,0.1697540283203125,-0.0171661376953125,-0.0171661376953125,0.1714811438547175
1785944149.986871,0.11279296875,-0.34912109375,0.9169921278953552,0.987665102412091,0.1697540283203125,-0.1392364501953125,-0.0171661376953125,0.2202223773310506
1785944149.997514,0.11962890625,-0.34375,0.9150390028953552,0.9847697774253114,0.049591064453125,0.102996826171875,-0.2040863037109375,0.23392058318469208
1785944150.008156,0.10693359375,-0.35693359375,0.9121093153953552,0.9852815775455074,0.354766845703125,0.102996826171875,0.0438690185546875,0.3720112253690416
1785944150.016161,0.10302734375,-0.3505859375,0.9101561903953552,0.9807698119578929,0.0476837158203125,0.0438690185546875,-0.1392364501953125,0.15357414042206316
1785944150.02417,0.11572265625,-0.3583984375,0.9189452528953552,0.9931271575135309,0.354766845703125,0.102996826171875,-0.0782012939453125,0.3776020436734228
1785944150.03218,0.109375,-0.35498046875,0.9140624403953552,0.9866530133539765,0.3528594970703125,0.1659393310546875,-0.1392364501953125,0.4140440499833113
1785944150.040189,0.1064453125,-0.35302734375,0.9091796278953552,0.9811047374099974,-0.0095367431640625,0.0438690185546875,-0.0782012939453125,0.09017140696390391
1785944150.05095,0.11083984375,-0.3564453125,0.9189452528953552,0.991866477699824,0.2956390380859375,-0.1392364501953125,0.1010894775390625,0.34206477803552177
1785944150.061711,0.10986328125,-0.35009765625,0.9160155653953552,0.986773948544109,-0.011444091796875,-0.507354736328125,0.0438690185546875,0.5093763701827835
1785944150.072472,0.10791015625,-0.357421875,0.9233397841453552,0.995967547431143,0.0476837158203125,-0.0171661376953125,-0.3223419189453125,0.326301587104864
1785944150.080401,0.125,-0.35986328125,0.9179686903953552,0.9938778082531977,0.110626220703125,-0.202178955078125,-0.0782012939453125,0.24337200528873526
1785944150.08833,0.1162109375,-0.3515625,0.9189452528953552,0.9907378821967934,-0.0095367431640625,-0.3223419189453125,-0.2613067626953125,0.41506202718368257
1785944150.096259,0.109375,-0.35888671875,0.9160155653953552,0.9898722561859757,0.2307891845703125,-0.2613067626953125,0.0438690185546875,0.3513820751459665
1785944150.104188,0.10400390625,-0.35498046875,0.9262694716453552,0.9973981551072741,0.232696533203125,-0.0762939453125,-0.0782012939453125,0.257067860750466
1785944150.114854,0.11474609375,-0.36181640625,0.9101561903953552,0.986134914085053,0.3528594970703125,-0.4444122314453125,0.1659393310546875,0.5912257755898275
1785944150.12552,0.09716796875,-0.35400390625,0.9218749403953552,0.9922770709434938,0.3528594970703125,-0.2613067626953125,-0.2613067626953125,0.5109523198237998
1785944150.136186,0.1083984375,-0.365234375,0.9150390028953552,0.9911824992168737,0.5359649658203125,-0.3223419189453125,0.1659393310546875,0.6470692535478659
1785944150.146881,0.12158203125,-0.34619140625,0.9057616591453552,0.9772588517184049,0.8411407470703125,-0.2613067626953125,-0.2613067626953125,0.9187383767115708
1785944150.157574,0.10400390625,-0.35498046875,0.9130858778953552,0.9851668722207219,0.7190704345703125,-0.6275177001953125,-0.0782012939453125,0.9575782977418992
1785944150.168267,0.1044921875,-0.34228515625,0.9213866591453552,0.9884488459645553,0.476837158203125,-0.202178955078125,-0.2040863037109375,0.5566877263620131
1785944150.178919,0.1005859375,-0.35986328125,0.9204100966453552,0.9933649168465145,0.415802001953125,-0.324249267578125,0.3490447998046875,0.6323457635059093
1785944150.189572,0.1220703125,-0.34716796875,0.9213866591453552,0.9921593296295145,0.2956390380859375,-0.1392364501953125,0.2841949462890625,0.43307735729268193
1785944150.200224,0.109375,-0.35595703125,0.9189452528953552,0.9915284547304842,0.415802001953125,-0.202178955078125,0.2841949462890625,0.5427102377889624
1785944150.208248,0.125,-0.365234375,0.9204100966453552,0.9980861158679409,0.782012939453125,-0.202178955078125,0.2841949462890625,0.8562635895825785
1785944150.216269,0.107421875,-0.353515625,0.9179686903953552,0.9895348770477066,1.1463165283203125,-0.0782012939453125,0.4711151123046875,1.2418157973374768
1785944150.224289,0.11083984375,-0.35595703125,0.9145507216453552,0.9876203225536005,1.392364501953125,0.102996826171875,0.4711151123046875,1.4735116903311325
1785944150.232311,0.11865234375,-0.35546875,0.9155272841453552,0.9892555882675117,1.392364501953125,-0.019073486328125,0.5321502685546875,1.4907134575439738
1785944150.242954,0.10595703125,-0.357421875,0.9204100966453552,0.9930418093950231,1.62506103515625,0.12969970703125,0.7686614990234375,1.8023556480528622
1785944150.253599,0.11181640625,-0.35107421875,0.9208983778953552,0.9918718859751416,1.56402587890625,0.00762939453125,0.3414154052734375,1.6008746473435722
1785944150.264243,0.1103515625,-0.3486328125,0.9228515028953552,0.9926616753426454,1.5659332275390625,0.0705718994140625,0.4634857177734375,1.6346089063374678
1785944150.272243,0.115234375,-0.3525390625,0.9458007216453552,1.015924090094774,2.66265869140625,0.43487548828125,0.7686614990234375,2.805300072596523
1785944150.280245,0.10009765625,-0.3671875,0.9487304091453552,1.022220910654887,3.9424896240234375,0.0095367431640625,0.8907318115234375,4.0418706739655175
1785944150.288247,0.10009765625,-0.37646484375,0.9614257216453552,1.0373450426968585,5.2242279052734375,0.4978179931640625,1.9283294677734375,5.590960069329683
1785944150.296249,0.09619140625,-0.38232421875,0.9418944716453552,1.0210728625300123,6.93511962890625,0.43487548828125,2.4776458740234375,7.377244067713497
1785944150.306893,0.0869140625,-0.3740234375,0.9399413466453552,1.015350836505813,7.30133056640625,-0.232696533203125,3.0879974365234375,7.930908137437874
1785944150.317537,0.1064453125,-0.34765625,0.9174804091453552,0.9868970432029947,7.30133056640625,0.31280517578125,3.3931732177734375,8.057350656620866
1785944150.328181,0.103515625,-0.33251953125,0.8911132216453552,0.9567483979986715,6.26373291015625,0.12969970703125,3.3931732177734375,7.1249418572780945
1785944150.339044,0.11865234375,-0.30322265625,0.8867186903953552,0.9446122981610644,5.5294036865234375,0.2536773681640625,3.4542083740234375,6.524585260905958
1785944150.349905,0.11767578125,-0.31640625,0.9028319716453552,0.9638807361685884,3.8814544677734375,-0.1735687255859375,3.1490325927734375,5.001221966504716
1785944150.360766,0.12255859375,-0.3447265625,0.9301757216453552,0.9995418375103172,3.21197509765625,-0.17547607421875,2.4776458740234375,4.060333109198365
1785944150.368671,0.119140625,-0.3681640625,0.9482421278953552,1.0241593618951133,4.4307708740234375,0.4978179931640625,2.3555755615234375,5.042647074549117
1785944150.376576,0.1015625,-0.37060546875,0.9531249403953552,1.0276723733161783,5.5294036865234375,0.3147125244140625,2.7217864990234375,6.171018623195713
1785944150.384483,0.095703125,-0.35986328125,0.9448241591453552,1.0155556907582715,6.81304931640625,0.43487548828125,3.3931732177734375,7.6236724853515625
1785944150.392389,0.09619140625,-0.36328125,0.9594725966453552,1.0304434564551785,7.3604583740234375,0.2536773681640625,3.8814544677734375,8.325045853822594
1785944150.403003,0.10693359375,-0.35302734375,0.9272460341453552,0.997921994319075,7.9708099365234375,0.7419586181640625,3.8814544677734375,8.896628710958273
1785944150.413617,0.11279296875,-0.341796875,0.9140624403953552,0.9823734027856803,7.78961181640625,1.10626220703125,4.8580169677734375,9.246739813587066
1785944150.424231,0.11767578125,-0.32275390625,0.9096679091453552,0.9723751222760246,7.30133056640625,0.80108642578125,5.2852630615234375,9.049042663785672
1785944150.434943,0.12109375,-0.3046875,0.9057616591453552,0.9632768823775744,6.1435699462890625,0.5588531494140625,4.9190521240234375,7.890047042091429
1785944150.445657,0.13671875,-0.32275390625,0.9155272841453552,0.9803327540257779,5.65338134765625,0.49591064453125,4.3087005615234375,7.125415676173523
1785944150.456372,0.1171875,-0.32763671875,0.9165038466453552,0.9803356723822965,4.6138763427734375,1.0471343994140625,3.6983489990234375,6.0051753242864025
1785944150.464377,0.10595703125,-0.326171875,0.9316405653953552,0.9927583430032236,4.3697357177734375,0.6809234619140625,3.2100677490234375,5.464684982456936
1785944150.472383,0.11328125,-0.3515625,0.9409179091453552,1.010819145425273,4.92095947265625,0.92315673828125,3.2100677490234375,5.947486481555024
1785944150.480389,0.11279296875,-0.33154296875,0.9223632216453552,0.9866087910468874,4.6787261962890625,0.5588531494140625,2.7828216552734375,5.472375355136957
1785944150.488394,0.10546875,-0.3330078125,0.9272460341453552,0.9908597621514798,4.6787261962890625,0.5588531494140625,3.3321380615234375,5.771129848089082
1785944150.49921,0.11328125,-0.330078125,0.9218749403953552,0.9857168031103142,4.5528411865234375,1.1692047119140625,3.1490325927734375,5.657897913396422
1785944150.510025,0.10693359375,-0.32568359375,0.9140624403953552,0.976224739315552,3.57818603515625,0.92315673828125,3.2100677490234375,4.894912524135817
1785944150.52084,0.103515625,-0.31298828125,0.9106444716453552,0.9684784471309714,3.3931732177734375,0.7419586181640625,2.5997161865234375,4.338507960964787
1785944150.531304,0.11328125,-0.32421875,0.9248046278953552,0.9865161119970578,2.5424957275390625,0.8640289306640625,2.8438568115234375,3.9113107882175666
1785944150.541768,0.10400390625,-0.32373046875,0.9213866591453552,0.9821260634783054,1.68609619140625,0.560760498046875,2.7217864990234375,3.2504606518323986
1785944150.552232,0.10400390625,-0.3349609375,0.9184569716453552,0.9831474207513818,1.68609619140625,0.560760498046875,2.5997161865234375,3.1489517229256476
1785944150.560227,0.111328125,-0.34228515625,0.9326171278953552,0.9996638369216343,1.9893646240234375,0.8640289306640625,1.8672943115234375,2.86197582907127
1785944150.568222,0.115234375,-0.34326171875,0.9243163466453552,0.9927075487859761,1.86920166015625,0.61798095703125,1.9893646240234375,2.798818843172965
1785944150.576216,0.10595703125,-0.3251953125,0.9238280653953552,0.9851076987595878,1.9283294677734375,0.3757476806640625,1.5010833740234375,2.472426369293411
1785944150.584212,0.1171875,-0.3154296875,0.9248046278953552,0.9841201134461505,1.68609619140625,0.61798095703125,0.9517669677734375,2.032407732437703
1785944150.594893,0.10986328125,-0.3134765625,0.9296874403953552,0.9872467941870969,1.3179779052734375,0.5588531494140625,0.7076263427734375,1.5969087771021504
1785944150.605574,0.10595703125,-0.30908203125,0.9057616591453552,0.9628929211966853,0.89263916015625,0.49591064453125,0.5245208740234375,1.1479783033185627
1785944150.616255,0.10595703125,-0.3271484375,0.9311522841453552,0.9926215637890995,0.5245208740234375,0.3757476806640625,-0.3910064697265625,0.7544498168723764
1785944150.626955,0.10400390625,-0.3291015625,0.9248046278953552,0.987111063017666,0.40435791015625,0.560760498046875,-0.6961822509765625,0.9811357613758163
1785944150.637658,0.1025390625,-0.322265625,0.9174804091453552,0.9778239583690655,0.3414154052734375,0.2536773681640625,-1.2454986572265625,1.316124458867717
1785944150.648361,0.10888671875,-0.33642578125,0.9189452528953552,0.9846314039419639,-0.2079010009765625,0.0095367431640625,-1.3065338134765625,1.3230058130767388
1785944150.659015,0.09912109375,-0.31982421875,0.9350585341453552,0.9932003747498813,-0.32806396484375,0.12969970703125,-1.3065338134765625,1.3533213161664905
1785944150.669667,0.09619140625,-0.33740234375,0.9394530653953552,1.002828594668638,0.2803802490234375,0.2536773681640625,-1.3065338134765625,1.360145542550024
1785944150.680319,0.087890625,-0.328125,0.9448241591453552,1.0040335996831073,0.52642822265625,0.255584716796875,-1.0623931884765625,1.2129012770998941
1785944150.688292,0.099609375,-0.31884765625,0.9179686903953552,0.976858419644409,0.40435791015625,0.43487548828125,-0.3910064697265625,0.7109909065394682
1785944150.696266,0.09326171875,-0.328125,0.9208983778953552,0.9820476496685385,0.5245208740234375,0.1926422119140625,-0.0858306884765625,0.5653318283820699
1785944150.704242,0.1015625,-0.3330078125,0.9365233778953552,0.9991422230777816,0.52642822265625,0.00762939453125,0.1583099365234375,0.5497698766502095
1785944150.712217,0.10302734375,-0.31591796875,0.9184569716453552,0.9767200240105982,0.22125244140625,0.19073486328125,-0.0247955322265625,0.2931676130092506
1785944150.720212,0.10498046875,-0.32666015625,0.9233397841453552,0.9850300063885543,0.2803802490234375,0.1316070556640625,0.1583099365234375,0.34784412765643075
1785944150.728207,0.10302734375,-0.3115234375,0.9160155653953552,0.9730087367123531,0.58746337890625,0.255584716796875,0.0972747802734375,0.6479962591661564
1785944150.736202,0.103515625,-0.3173828125,0.9199218153953552,0.9786232578116243,-0.0247955322265625,-0.1125335693359375,-0.5741119384765625,0.5855622431024742
1785944150.744197,0.10791015625,-0.3037109375,0.9174804091453552,0.97244806367464,-0.57220458984375,-0.05340576171875,-0.1468658447265625,0.5931608924821838
1785944150.754886,0.11328125,-0.3134765625,0.9208983778953552,0.9793640892174245,-0.87738037109375,0.31280517578125,-0.3910064697265625,1.0102125780963997
1785944150.765575,0.1171875,-0.32666015625,0.9252929091453552,0.9882341501649288,-0.6961822509765625,0.4978179931640625,-0.6351470947265625,1.0657881181699678
1785944150.776264,0.1103515625,-0.32373046875,0.9374999403953552,0.9979403899956053,-0.3871917724609375,0.1926422119140625,-0.6961822509765625,0.819571971853222
1785944150.786919,0.10986328125,-0.318359375,0.9404296278953552,0.9989146696494168,0.09918212890625,0.61798095703125,-0.2689361572265625,0.6812225881541407
1785944150.797575,0.1025390625,-0.30712890625,0.9267577528953552,0.9816936166362439,-0.0820159912109375,0.3757476806640625,0.0362396240234375,0.38629813963840803
1785944150.808231,0.10009765625,-0.3173828125,0.9301757216453552,0.9879161217409151,0.40435791015625,0.43487548828125,-0.1468658447265625,0.611712012438069
1785944150.818881,0.1123046875,-0.3271484375,0.9306640028953552,0.9928614854441529,0.2803802490234375,0.6198883056640625,0.2193450927734375,0.714833452816315
1785944150.829534,0.1142578125,-0.34521484375,0.9233397841453552,0.9923630852909702,0.4634857177734375,0.5588531494140625,0.4024505615234375,0.8301218631384824
1785944150.840187,0.11669921875,-0.322265625,0.9174804091453552,0.9794100989264045,0.40435791015625,0.49591064453125,0.5245208740234375,0.8273782896303483
1785944150.850857,0.11279296875,-0.32373046875,0.9184569716453552,0.9803503858113639,0.1583099365234375,0.2536773681640625,-0.0247955322265625,0.30004843198906844
1785944150.861529,0.11279296875,-0.32080078125,0.9306640028953552,0.9908435201055991,-0.0247955322265625,0.3757476806640625,-0.8182525634765625,0.9007432462021498
1785944150.8722,0.1171875,-0.31591796875,0.9296874403953552,0.9888659211259346,-0.45013427734375,0.255584716796875,-1.0623931884765625,1.1817883490800354
1785944150.880191,0.10791015625,-0.32373046875,0.9223632216453552,0.9834632331017733,-0.4520416259765625,-0.1125335693359375,-1.4896392822265625,1.5607788526871733
1785944150.888183,0.111328125,-0.3173828125,0.9296874403953552,0.9886579478845517,-0.6961822509765625,0.0095367431640625,-1.6117095947265625,1.755667535092744
1785944150.896175,0.10205078125,-0.3349609375,0.9389647841453552,1.002131756541897,-0.8182525634765625,0.5588531494140625,-1.3675689697265625,1.6888158535509294
1785944150.904167,0.09375,-0.31982421875,0.9267577528953552,0.9848637093276897,-0.69427490234375,0.43487548828125,-1.2454986572265625,1.490772026664523
1785944150.914855,0.10400390625,-0.3212890625,0.9316405653953552,0.990957929120891,-0.93841552734375,0.31280517578125,-0.9403228759765625,1.364799579073873
1785944150.925543,0.10205078125,-0.318359375,0.9165038466453552,0.9755748841169799,-0.6351470947265625,0.1926422119140625,-0.7572174072265625,1.0069265393054516
1785944150.936231,0.10009765625,-0.32568359375,0.9194335341453552,0.9805342256829571,-0.75531005859375,-0.05340576171875,-0.6961822509765625,1.0285986518426162
1785944150.946965,0.1005859375,-0.3212890625,0.9194335341453552,0.979133400623174,-1.1844635009765625,-0.4787445068359375,-0.7572174072265625,1.4851021142595409
1785944150.957704,0.099609375,-0.3232421875,0.9277343153953552,0.9874707587213731,-1.12152099609375,-0.232696533203125,-1.0623931884765625,1.5622535991846096
1785944150.968441,0.10986328125,-0.3203125,0.9394530653953552,0.9986200980873539,-1.3065338134765625,-0.2956390380859375,-0.8792877197265625,1.602366980644548
1785944150.976472,0.1015625,-0.3271484375,0.9384765028953552,0.999039132392539,-1.1844635009765625,-0.1735687255859375,-0.8792877197265625,1.4853372619405734
1785944150.984504,0.1064453125,-0.33740234375,0.9311522841453552,0.996100156806698,-0.6961822509765625,0.0095367431640625,-0.6961822509765625,0.9845965684582514
1785944150.992537,0.09912109375,-0.33251953125,0.9262694716453552,0.989125555220914,-0.8754730224609375,0.0705718994140625,-0.5741119384765625,1.0493035423294415
1785944151.000571,0.10791015625,-0.3408203125,0.9228515028953552,0.989675696190784,-1.0013580322265625,-0.2956390380859375,-0.3910064697265625,1.1149019727819398
1785944151.011378,0.1044921875,-0.34033203125,0.9306640028953552,0.9964336380454505,-0.93841552734375,-0.05340576171875,-0.3910064697265625,1.0180186327924639
1785944151.022185,0.103515625,-0.32421875,0.9301757216453552,0.99048480836869,-0.6961822509765625,-0.1735687255859375,-0.3910064697265625,0.8171180382566212
1785944151.032991,0.09423828125,-0.3212890625,0.9340819716453552,0.9922785118543872,-0.75531005859375,0.12969970703125,-0.2689361572265625,0.8121834492777333
1785944151.04148,0.091796875,-0.330078125,0.9296874403953552,0.990806223079038,-0.1468658447265625,0.0095367431640625,-0.0858306884765625,0.17037439039299532
1785944151.049966,0.115234375,-0.33056640625,0.9321288466453552,0.9956994008590548,0.03814697265625,0.12969970703125,-0.3299713134765625,0.3565925871975982
1785944151.058452,0.1005859375,-0.310546875,0.9370116591453552,0.992243791499524,0.40435791015625,0.12969970703125,-0.3299713134765625,0.537780997458417
1785944151.066938,0.1142578125,-0.32275390625,0.9267577528953552,0.9879801942693828,0.1583099365234375,0.2536773681640625,-0.3299713134765625,0.4453036164665048
1785944151.076697,0.107421875,-0.32568359375,0.9291991591453552,0.9904647090244386,0.5245208740234375,0.1926422119140625,-0.2689361572265625,0.6201288783480767
1785944151.086456,0.10107421875,-0.3134765625,0.9160155653953552,0.9734310807547248,0.3414154052734375,0.1926422119140625,-0.2689361572265625,0.4753968420519414
1785944151.096215,0.10595703125,-0.33203125,0.9321288466453552,0.9951561838205479,0.1010894775390625,-0.1125335693359375,-0.2079010009765625,0.2571103127135579
1785944151.106875,0.10791015625,-0.31982421875,0.9228515028953552,0.9826428797468402,0.2803802490234375,0.1926422119140625,-0.4520416259765625,0.5657435262282033
1785944151.117534,0.09375,-0.3173828125,0.9145507216453552,0.9725862093575305,-0.08392333984375,0.072479248046875,-0.4520416259765625,0.4654438741497243
1785944151.128192,0.11181640625,-0.32861328125,0.9374999403953552,0.9996978221251916,-0.2079010009765625,-0.2956390380859375,-0.3910064697265625,0.5324578165596447
1785944151.13618,0.1005859375,-0.3408203125,0.9433593153953552,1.0080688538877416,0.09918212890625,0.00762939453125,-0.6961822509765625,0.7032531755563447
1785944151.144171,0.10498046875,-0.33935546875,0.9301757216453552,0.995695689519624,-0.0247955322265625,0.0095367431640625,-0.2689361572265625,0.27024511938676365
1785944151.15216,0.10205078125,-0.31591796875,0.9160155653953552,0.9743218364480156,0.3414154052734375,0.0095367431640625,-0.6351470947265625,0.7211568902588367
1785944151.160151,0.10107421875,-0.32275390625,0.9267577528953552,0.9865424543562253,0.1583099365234375,0.1926422119140625,-0.3910064697265625,0.46374466808926934
1785944151.170891,0.10205078125,-0.32373046875,0.9199218153953552,0.9805467478866656,0.1010894775390625,0.0705718994140625,-0.5130767822265625,0.5276810209927894
1785944151.181631,0.10009765625,-0.326171875,0.9306640028953552,0.9912331305565631,-0.3299713134765625,0.0095367431640625,-0.9403228759765625,0.9965837286813682
1785944151.192371,0.08740234375,-0.3173828125,0.9291991591453552,0.9857900875540586,-0.0820159912109375,-0.1125335693359375,-0.6961822509765625,0.7099719386120781
1785944151.202986,0.080078125,-0.3271484375,0.9179686903953552,0.9778062808186346,-0.08392333984375,-0.05340576171875,-0.3299713134765625,0.344639478401325
1785944151.213605,0.10205078125,-0.3203125,0.9169921278953552,0.976672423196251,0.22125244140625,0.00762939453125,0.0362396240234375,0.22433047238059226
1785944151.224223,0.107421875,-0.3271484375,0.9169921278953552,0.9795101439031954,0.22125244140625,0.072479248046875,0.0972747802734375,0.25232571629327055
1785944151.232216,0.1015625,-0.33544921875,0.9306640028953552,0.99447302932329,0.16021728515625,0.12969970703125,0.1583099365234375,0.2599108086803741
1785944151.240209,0.10546875,-0.3291015625,0.9121093153953552,0.9753844877265003,0.0362396240234375,0.0705718994140625,0.2193450927734375,0.23325088008420583
1785944151.248202,0.09765625,-0.32763671875,0.9213866591453552,0.9827695245012271,-0.2079010009765625,0.0705718994140625,0.2193450927734375,0.3103473681501957
1785944151.256195,0.10595703125,-0.326171875,0.9189452528953552,0.980854404247255,-0.63323974609375,0.00762939453125,0.0972747802734375,0.6407130142045158
1785944151.268191,0.1123046875,-0.32470703125,0.9160155653953552,0.978330984393438,-0.3299713134765625,-0.2346038818359375,0.1583099365234375,0.4347206977957148
1785944151.280189,0.10400390625,-0.32666015625,0.9218749403953552,0.9835532908416671,-0.63323974609375,0.12969970703125,0.0972747802734375,0.6536642662056069
1785944151.292187,0.10400390625,-0.31982421875,0.9204100966453552,0.9799281042102114,-1.2416839599609375,-0.1125335693359375,-0.1468658447265625,1.255393339554981
1785944151.304185,0.10693359375,-0.3349609375,0.9130858778953552,0.9784474659045832,-1.42669677734375,0.12969970703125,-0.0247955322265625,1.4327946562244822
1785944151.312217,0.09912109375,-0.322265625,0.9106444716453552,0.9710579169241581,-2.2830963134765625,0.1926422119140625,0.4634857177734375,2.3376181914507277
1785944151.320249,0.1015625,-0.3203125,0.9331054091453552,0.9917664763636754,-2.3441314697265625,-0.2346038818359375,0.6465911865234375,2.4429636696489556
1785944151.328281,0.11328125,-0.3212890625,0.9208983778953552,0.9818926243199854,-2.70843505859375,-0.232696533203125,0.4634857177734375,2.7576415926955486
1785944151.336313,0.09765625,-0.32080078125,0.9067382216453552,0.9667595807682767,-3.3206939697265625,-0.1125335693359375,0.2803802490234375,3.334409292340742
1785944151.347001,0.11572265625,-0.31787109375,0.9155272841453552,0.9760245762407558,-3.37982177734375,-0.232696533203125,-0.1468658447265625,3.3910046445735023
1785944151.357689,0.10595703125,-0.3173828125,0.9199218153953552,0.978884512382339,-4.17327880859375,-0.17547607421875,0.0362396240234375,4.1771235530242885
1785944151.368376,0.1025390625,-0.3046875,0.9145507216453552,0.9694079401658875,-4.53948974609375,0.072479248046875,-0.2079010009765625,4.544825983741819
1785944151.378983,0.10546875,-0.32470703125,0.9125975966453552,0.9743678395619538,-5.6362152099609375,-0.2956390380859375,0.0972747802734375,5.644801742905825
1785944151.389589,0.10791015625,-0.3212890625,0.9028319716453552,0.9643530642503646,-6.3076019287109375,-0.2956390380859375,-0.0247955322265625,6.314575152006405
1785944151.400195,0.0966796875,-0.32275390625,0.8930663466453552,0.954507488438521,-7.0438385009765625,-0.1125335693359375,0.4024505615234375,7.05622357118436
1785944151.410879,0.08935546875,-0.32763671875,0.9228515028953552,0.9833540133975224,-8.749008178710938,0.0705718994140625,1.1959075927734375,8.830646605690376
1785944151.421567,0.1025390625,-0.3193359375,0.9208983778953552,0.980073223145944,-8.569717407226562,0.0705718994140625,1.4400482177734375,8.690153951583442
1785944151.432254,0.10302734375,-0.3388671875,0.9174804091453552,0.983471354686993,-8.81195068359375,-0.232696533203125,1.6231536865234375,8.963216521803306
1785944151.440238,0.10107421875,-0.35205078125,0.9443358778953552,1.012880052402578,-8.44573974609375,-0.17547607421875,1.9283294677734375,8.664858120457271
1785944151.448225,0.0927734375,-0.349609375,0.9335936903953552,1.0012146645647353,-7.8983306884765625,-0.3566741943359375,1.8672943115234375,8.123892674776275
1785944151.456212,0.0986328125,-0.345703125,0.9194335341453552,0.9872168485431374,-7.53021240234375,-0.17547607421875,1.7452239990234375,7.731797817054079
1785944151.464199,0.09130859375,-0.35791015625,0.9213866591453552,0.9926682803890436,-7.7152252197265625,-0.1125335693359375,1.6231536865234375,7.884921805915826
1785944151.472293,0.111328125,-0.33984375,0.9301757216453552,0.9965513529008605,-7.46917724609375,-0.35858154296875,1.8062591552734375,7.692838331365841
1785944151.480386,0.1005859375,-0.34228515625,0.9389647841453552,1.004455835204801,-7.2269439697265625,-0.1125335693359375,1.6231536865234375,7.407834422816782
1785944151.488481,0.103515625,-0.34765625,0.9399413466453552,1.0075068674290448,-6.79779052734375,0.12969970703125,1.5010833740234375,6.962760182816726
1785944151.496575,0.095703125,-0.36181640625,0.9550780653953552,1.025789603654553,-5.3958892822265625,0.2536773681640625,1.4400482177734375,5.590501965179745
1785944151.507252,0.08837890625,-0.37109375,0.9624022841453552,1.0352485493287136,-4.6024322509765625,0.3757476806640625,1.6841888427734375,4.915288496362766
1785944151.517931,0.10009765625,-0.375,0.9589843153953552,1.0345508484173416,-3.1375885009765625,0.3147125244140625,2.0503997802734375,3.76133551194636
1785944151.528609,0.10302734375,-0.37646484375,0.9404296278953552,1.0182083761015173,-1.60980224609375,0.43487548828125,1.8062591552734375,2.458282347055653
1785944151.539152,0.09228515625,-0.35546875,0.9326171278953552,1.002321949043535,-0.2079010009765625,0.3757476806640625,2.4166107177734375,2.454468681199442
1785944151.549698,0.10302734375,-0.35498046875,0.9189452528953552,0.9904979275965492,-0.32806396484375,0.43487548828125,2.1724700927734375,2.239725197280212
1785944151.560244,0.10107421875,-0.34912109375,0.9082030653953552,0.9782302100173758,-0.45013427734375,0.61798095703125,2.2945404052734375,2.418560936243995
1785944151.568263,0.12158203125,-0.34716796875,0.9311522841453552,1.001175491668663,-0.08392333984375,0.12969970703125,2.1724700927734375,2.1779557949989594
1785944151.576281,0.115234375,-0.34912109375,0.9018554091453552,0.9739135887169729,-0.2079010009765625,-0.1735687255859375,1.5010833740234375,1.5253197122171371
1785944151.584299,0.09619140625,-0.34423828125,0.9218749403953552,0.9887396960996592,-0.26702880859375,0.255584716796875,0.9517669677734375,1.021023159886092
1785944151.592317,0.1025390625,-0.3388671875,0.9199218153953552,0.9856984206859749,-0.45013427734375,0.072479248046875,1.1348724365234375,1.2230329334150671
1785944151.602954,0.09814453125,-0.33447265625,0.9121093153953552,0.9764464706394286,-0.75531005859375,-0.05340576171875,1.1348724365234375,1.364287692232946
1785944151.61359,0.0966796875,-0.333984375,0.9057616591453552,0.9702044670568081,-0.63323974609375,-0.232696533203125,1.0128021240234375,1.2169257968438407
1785944151.624228,0.09326171875,-0.34716796875,0.9331054091453552,0.9999545246092574,-0.5130767822265625,0.0705718994140625,1.0738372802734375,1.1922058051997253
1785944151.632562,0.09716796875,-0.34619140625,0.9326171278953552,0.9995322962046473,-0.75531005859375,-0.35858154296875,0.8907318115234375,1.2216698275845925
1785944151.640896,0.09912109375,-0.34619140625,0.9238280653953552,0.9915300173971908,-0.6351470947265625,-0.1125335693359375,1.4400482177734375,1.5779146065866596
1785944151.64923,0.09814453125,-0.35107421875,0.9169921278953552,0.9867927942112552,-0.6961822509765625,-0.2346038818359375,1.1348724365234375,1.3519039001082613
1785944151.657564,0.09765625,-0.34912109375,0.9223632216453552,0.9910480280537657,-0.8182525634765625,0.0095367431640625,1.6231536865234375,1.8177612871828823
1785944151.667805,0.09521484375,-0.34326171875,0.9306640028953552,0.9965088862196597,-0.57220458984375,-0.415802001953125,1.1348724365234375,1.3372527228041544
1785944151.678045,0.10791015625,-0.3486328125,0.9194335341453552,0.989215579883666,-0.81634521484375,-0.35858154296875,1.3179779052734375,1.5912466784081896
1785944151.688285,0.09716796875,-0.341796875,0.9145507216453552,0.9811573474080529,-0.8754730224609375,-0.2346038818359375,1.0128021240234375,1.35913948395879
1785944151.696519,0.103515625,-0.34326171875,0.9111327528953552,0.9791358361213286,-1.06048583984375,-0.05340576171875,1.1959075927734375,1.599274011027198
1785944151.704753,0.10400390625,-0.34716796875,0.9252929091453552,0.9937350646706266,-1.48773193359375,-0.05340576171875,0.9517669677734375,1.7669348721908236
1785944151.712987,0.095703125,-0.35302734375,0.9086913466453552,0.9795444640434121,-1.6727447509765625,0.0705718994140625,0.7076263427734375,1.8176331961904364
1785944151.72122,0.0986328125,-0.3515625,0.9038085341453552,0.9747792003843156,-1.91497802734375,-0.232696533203125,0.3414154052734375,1.9590438996439408
1785944151.731588,0.103515625,-0.337890625,0.9243163466453552,0.9895687281628537,-1.8558502197265625,-0.4787445068359375,0.2193450927734375,1.9291160179233657
1785944151.741955,0.0849609375,-0.3447265625,0.9335936903953552,0.9988252812879557,-1.9779205322265625,-0.2956390380859375,0.0972747802734375,2.0022573399843067
1785944151.752321,0.0947265625,-0.349609375,0.9345702528953552,1.002308033654248,-1.7948150634765625,-0.1125335693359375,0.0362396240234375,1.7987045968305144
1785944151.763004,0.10791015625,-0.345703125,0.9096679091453552,0.979107224662114,-1.60980224609375,-0.05340576171875,0.3414154052734375,1.6464750000747863
1785944151.773688,0.10693359375,-0.3583984375,0.9287108778953552,1.0011933520533847,-1.4896392822265625,0.0705718994140625,0.3414154052734375,1.5298921736832967
1785944151.784372,0.10498046875,-0.35595703125,0.9160155653953552,0.9883374034012148,-1.3637542724609375,-0.1125335693359375,0.4634857177734375,1.4447520653949264
1785944151.795086,0.10546875,-0.3662109375,0.9306640028953552,1.0056687298789782,-0.75531005859375,-0.17547607421875,0.5245208740234375,0.936166269699154
1785944151.805798,0.09765625,-0.36572265625,0.9184569716453552,0.9934047580027866,-0.4520416259765625,-0.1125335693359375,0.2803802490234375,0.5437081201209575
1785944151.81651,0.09912109375,-0.35498046875,0.9169921278953552,0.9882867433302025,-0.38909912109375,-0.05340576171875,0.7686614990234375,0.8631864233765767
1785944151.824471,0.10009765625,-0.3466796875,0.9165038466453552,0.9849800238723492,0.03814697265625,-0.05340576171875,0.4024505615234375,0.40776687135926915
1785944151.832434,0.11181640625,-0.3486328125,0.9077147841453552,0.9787716158606021,-0.08392333984375,-0.05340576171875,0.3414154052734375,0.35561184079458746
1785944151.840397,0.09814453125,-0.34326171875,0.9096679091453552,0.9772188401286421,-0.3871917724609375,0.1926422119140625,0.5245208740234375,0.6798166206845018
1785944151.84836,0.111328125,-0.3583984375,0.9189452528953552,0.9926246869977421,-0.4520416259765625,-0.1125335693359375,0.2803802490234375,0.5437081201209575
1785944151.859112,0.0986328125,-0.353515625,0.9101561903953552,0.9813694613833196,-0.6961822509765625,-0.1735687255859375,0.2193450927734375,0.7502720165380738
1785944151.869864,0.10107421875,-0.353515625,0.9086913466453552,0.9802597912202727,-0.81634521484375,-0.17547607421875,-0.2079010009765625,0.8604848567107787
1785944151.880616,0.10498046875,-0.35791015625,0.9218749403953552,0.9944717112592036,-0.87738037109375,-0.35858154296875,0.0972747802734375,0.9528060775497297
1785944151.891221,0.1015625,-0.349609375,0.9165038466453552,0.9861647719371613,-0.75531005859375,0.072479248046875,-0.2079010009765625,0.7867460531946704
1785944151.901828,0.111328125,-0.35888671875,0.9213866591453552,0.9950613066350215,-0.5130767822265625,0.0095367431640625,-0.3299713134765625,0.6100981901690814
1785944151.912435,0.0947265625,-0.34619140625,0.9272460341453552,0.9942870909564844,-0.26702880859375,-0.29754638671875,-0.3299713134765625,0.5183814277014844
1785944151.920383,0.0859375,-0.3427734375,0.9165038466453552,0.9822719502650725,-0.57220458984375,0.12969970703125,-0.1468658447265625,0.604822025879922
1785944151.92833,0.09765625,-0.34765625,0.9086913466453552,0.9778146934855674,-0.57220458984375,-0.05340576171875,-0.3299713134765625,0.6626849445554516
1785944151.936276,0.0908203125,-0.3505859375,0.9248046278953552,0.9931880126703191,-0.38909912109375,-0.35858154296875,-0.2689361572265625,0.5935532879679537
1785944151.944223,0.11279296875,-0.349609375,0.9228515028953552,0.9932793490672929,-0.38909912109375,0.12969970703125,-0.0247955322265625,0.41089531325913087
1785944151.954863,0.1015625,-0.34375,0.9326171278953552,0.9991264740512241,-0.2079010009765625,0.1316070556640625,-0.0247955322265625,0.24730156029839115
1785944151.965502,0.1044921875,-0.35595703125,0.9194335341453552,0.9914545118440213,0.03814697265625,0.31280517578125,-0.0247955322265625,0.3160966433494255
1785944151.97614,0.09130859375,-0.35693359375,0.9213866591453552,0.9923165952915085,0.16021728515625,0.12969970703125,-0.0247955322265625,0.20762083441993415
1785944151.984159,0.09912109375,-0.34814453125,0.9121093153953552,0.9813118816647753,0.3414154052734375,-0.2956390380859375,0.2803802490234375,0.531582546591636
1785944151.992177,0.08984375,-0.34326171875,0.9135741591453552,0.980060330403904,0.3414154052734375,0.0705718994140625,0.0972747802734375,0.3619492434336335
1785944152.000194,0.09814453125,-0.34326171875,0.9150390028953552,0.9822206134027183,0.3414154052734375,0.2536773681640625,0.2193450927734375,0.4785696979547063
1785944152.008211,0.109375,-0.34423828125,0.9145507216453552,0.9832933984142241,0.5893707275390625,0.0705718994140625,0.2193450927734375,0.6328115969154012
1785944152.018861,0.10009765625,-0.34716796875,0.9155272841453552,0.9842435406581616,0.58746337890625,-0.232696533203125,0.0362396240234375,0.6329093208904901
1785944152.029511,0.09765625,-0.34521484375,0.9340819716453552,1.0006093949500343,0.40435791015625,0.072479248046875,0.0972747802734375,0.42216222448321444
1785944152.04016,0.10693359375,-0.35888671875,0.9218749403953552,0.9950315955266804,0.40435791015625,0.255584716796875,0.2803802490234375,0.5544744818370937
1785944152.048179,0.10546875,-0.3515625,0.9165038466453552,0.9872685296050641,0.7686614990234375,0.0705718994140625,0.0972747802734375,0.777999534668956
1785944152.056197,0.10595703125,-0.34619140625,0.9067382216453552,0.9763450132126693,0.4634857177734375,0.0095367431640625,0.4024505615234375,0.6139026099640447
1785944152.064214,0.09814453125,-0.3505859375,0.9116210341453552,0.9816291348993688,0.89263916015625,0.12969970703125,0.0362396240234375,0.9027402697331096
1785944152.072233,0.10546875,-0.3466796875,0.9179686903953552,0.9869027203822187,0.52642822265625,-0.232696533203125,0.0362396240234375,0.5767041360378227
