timestamp,accel_x,accel_y,accel_z,accel_rms,gyro_x,gyro_y,gyro_z,gyro_rms
1784903241.704693,0.011718753725290298,-0.1376953125,0.9785155653953552,0.9882257029617972,0.255584716796875,0.5035400390625,-1.0204315185546875,1.1662575197867016
1784903241.712728,0.0283203162252903,-0.1494140625,0.9702147841453552,0.9820607566531068,0.1964569091796875,0.3185272216796875,-0.9593963623046875,1.0298040047110344
1784903241.720763,0.0190429724752903,-0.1494140625,0.9794921278953552,0.9910055627908552,-0.0476837158203125,0.0133514404296875,-0.4711151123046875,0.4737102983447142
1784903241.728798,0.0268554724752903,-0.14599609375,0.9726561903953552,0.9839187672295592,0.1354217529296875,-0.3528594970703125,-0.4711151123046875,0.6039853681018452
1784903241.739436,0.0190429724752903,-0.15185546875,0.9838866591453552,0.9957186732376697,0.3814697265625,-0.4119873046875,-0.2269744873046875,0.6056154798174872
1784903241.750074,0.012695316225290298,-0.16455078125,0.9819335341453552,0.9957065813497634,0.255584716796875,-0.7781982421875,-0.2269744873046875,0.8499608635055378
1784903241.760712,0.0302734375,-0.15380859375,0.9638671278953552,0.9765313127425357,0.8697509765625,-0.7171630859375,0.0171661376953125,1.127423757664435
1784903241.771382,0.0415039099752903,-0.150390625,0.9731444716453552,0.9855709397730055,1.049041748046875,-1.2054443359375,0.9326934814453125,1.8502707278989259
1784903241.782053,0.0209960974752903,-0.15576171875,0.9770507216453552,0.9896113690761922,0.9899139404296875,-0.9632110595703125,1.1157989501953125,1.775587917280515
1784903241.792724,0.0175781287252903,-0.1396484375,0.9711913466453552,0.9813375099854753,0.9899139404296875,-1.1463165283203125,0.6885528564453125,1.6637536562473316
1784903241.80073,0.0424804724752903,-0.1494140625,0.9824218153953552,0.9946264504723284,0.621795654296875,-0.5950927734375,0.7495880126953125,1.1413358110024072
1784903241.808736,0.0375976599752903,-0.15234375,0.9746093153953552,0.9871603313824371,0.6237030029296875,-0.5321502685546875,0.8106231689453125,1.152952412815584
1784903241.816742,0.0395507775247097,-0.15673828125,0.9721679091453552,0.9855159036687662,0.5035400390625,-0.4119873046875,0.4444122314453125,0.787901225802408
1784903241.824748,0.0283203162252903,-0.146484375,0.9799804091453552,0.9912725733817812,0.8068084716796875,-0.3528594970703125,0.6275177001953125,1.0813085585091986
1784903241.835457,0.0415039099752903,-0.14599609375,0.9731444716453552,0.9849099434097583,0.7457733154296875,-0.1697540283203125,0.0782012939453125,0.7688365954562014
1784903241.846166,0.0371093787252903,-0.14794921875,0.9829100966453552,0.9946749898361242,0.6847381591796875,0.1354217529296875,0.2002716064453125,0.7261639719454019
1784903241.856875,0.04052734375,-0.1533203125,0.9809569716453552,0.9936931941178598,0.5016326904296875,-0.0438690185546875,-0.1659393310546875,0.5301845985008952
1784903241.867498,0.0395507775247097,-0.16162109375,0.9863280653953552,1.0002643123366441,0.8068084716796875,0.5016326904296875,-0.4100799560546875,1.0347660781257058
1784903241.87812,0.03076171875,-0.14501953125,0.9760741591453552,0.9872678015289145,0.4405975341796875,0.8068084716796875,-0.6542205810546875,1.1283043320730746
1784903241.888742,0.0361328162252903,-0.14697265625,0.9790038466453552,0.9906336728780996,0.255584716796875,0.8697509765625,-0.3490447998046875,0.9714023785034992
1784903241.896743,0.0390625,-0.16357421875,0.9731444716453552,0.9875690186715258,0.3185272216796875,1.1119842529296875,-1.0204315185546875,1.5424814597830347
1784903241.904743,0.0278320349752903,-0.15771484375,0.9697265028953552,0.9828621899979713,0.1964569091796875,0.8068084716796875,-1.0204315185546875,1.3156046941229629
1784903241.912743,0.03369140625,-0.1396484375,0.9721679091453552,0.9827243970327314,0.3185272216796875,0.5016326904296875,-0.8373260498046875,1.0267472233905623
1784903241.920743,0.0302734375,-0.1455078125,0.9790038466453552,0.9902209532538704,0.3185272216796875,0.7495880126953125,-0.9593963623046875,1.2584844694039556
1784903241.931433,0.0200195349752903,-0.15185546875,0.9628905653953552,0.9749969774811078,0.3795623779296875,0.6237030029296875,-0.8983612060546875,1.1576380656954839
1784903241.942123,0.03564453125,-0.15283203125,0.9819335341453552,0.9943951065161276,0.621795654296875,0.8697509765625,-1.1425018310546875,1.5647386461953368
1784903241.952813,0.03076171875,-0.1484375,0.9785155653953552,0.9901882075987857,0.8068084716796875,0.8678436279296875,-1.2645721435546875,1.732984471588471
1784903241.960828,0.0229492224752903,-0.158203125,0.9775390028953552,0.9905237996906643,0.8068084716796875,0.9899139404296875,-0.8373260498046875,1.5270836365807428
1784903241.968842,0.01708984375,-0.16357421875,0.9687499403953552,0.9826113345647284,0.926971435546875,0.8697509765625,-0.8373260498046875,1.522122766807191
1784903241.976856,0.0263671912252903,-0.1513671875,0.9790038466453552,0.9909872784103605,0.9288787841796875,0.8068084716796875,-0.7762908935546875,1.4547794530749953
1784903241.98487,0.0322265662252903,-0.1572265625,0.9746093153953552,0.9877358256040136,0.9288787841796875,0.8068084716796875,-0.8373260498046875,1.4882441397011343
1784903241.995471,0.0244140587747097,-0.13671875,0.9877929091453552,0.9975083429351663,0.9899139404296875,0.5016326904296875,-0.7762908935546875,1.3543236381975663
1784903242.006072,0.02197265625,-0.1494140625,0.9731444716453552,0.9847931368512639,1.232147216796875,0.3814697265625,-0.5321502685546875,1.395309938496383
1784903242.016673,0.0180664099752903,-0.1416015625,0.9692382216453552,0.9796938950356318,0.926971435546875,0.5645751953125,-0.6542205810546875,1.2672907173010914
1784903242.024687,0.0317382849752903,-0.140625,0.9785155653953552,0.989078066220844,0.6847381591796875,0.5016326904296875,-0.5931854248046875,1.0355533066652007
1784903242.032701,0.029296875,-0.14990234375,0.9770507216453552,0.9889171513398978,0.438690185546875,0.5645751953125,-0.7762908935546875,1.0553775539934676
1784903242.040715,0.03564453125,-0.14453125,0.9824218153953552,0.9936359686521519,0.255584716796875,0.2593994140625,-1.2035369873046875,1.2574231122762738
1784903242.048729,0.029296875,-0.15625,0.9707030653953552,0.9836344903228561,-0.110626220703125,-0.0457763671875,-0.7152557373046875,0.7252064576706508
1784903242.056726,0.0361328162252903,-0.15087890625,0.9775390028953552,0.9897739777046132,0.3185272216796875,0.3185272216796875,-0.7152557373046875,0.8452869049318307
1784903242.064723,0.03515625,-0.154296875,0.9770507216453552,0.9897836128248121,0.255584716796875,0.0762939453125,-0.8373260498046875,0.8787828100463775
1784903242.07272,0.0239257849752903,-0.16064453125,0.9946288466453552,1.007802386971913,0.133514404296875,0.2593994140625,-0.9593963623046875,1.002773918774409
1784903242.080717,0.0288085974752903,-0.1494140625,0.9873046278953552,0.9989619240115376,0.5016326904296875,0.2613067626953125,-1.0814666748046875,1.2204453076853297
1784903242.091365,0.0317382849752903,-0.15283203125,0.9785155653953552,0.9908873095514774,0.316619873046875,0.0762939453125,-0.8373260498046875,0.8984340954021547
1784903242.102013,0.0356445349752903,-0.15185546875,0.9736327528953552,0.9860483526549166,0.133514404296875,-0.1068115234375,-0.8373260498046875,0.854605003130283
1784903242.112661,0.0322265662252903,-0.1533203125,0.9726561903953552,0.9851932472922134,0.3814697265625,0.2593994140625,-0.7152557373046875,0.8511157254139469
1784903242.123374,0.0239257849752903,-0.1533203125,0.9672850966453552,0.979653009796834,0.560760498046875,-0.1678466796875,-0.5931854248046875,0.8333629414922499
1784903242.134087,0.0185546912252903,-0.14599609375,0.9799804091453552,0.9909695950257114,0.6847381591796875,-0.0438690185546875,-0.6542205810546875,0.9480482087432429
1784903242.1448,0.0317382849752903,-0.15087890625,0.9819335341453552,0.9939644000483904,0.8697509765625,-0.5950927734375,-0.5321502685546875,1.180587175329202
1784903242.152902,0.0361328125,-0.154296875,0.9667968153953552,0.9796985189498484,0.8678436279296875,-0.4749298095703125,-0.4711151123046875,1.0957464741437746
1784903242.161003,0.0278320349752903,-0.1572265625,0.9707030653953552,0.9837475566904201,0.743865966796875,-0.2288818359375,-0.5931854248046875,0.9785665125996739
1784903242.169104,0.025390625,-0.1591796875,0.9726561903953552,0.9859223709120783,0.8697509765625,-0.2288818359375,-0.2880096435546875,0.9443533294450978
1784903242.177205,0.0278320349752903,-0.1484375,0.9790038466453552,0.9905840930095324,0.8068084716796875,-0.3528594970703125,-0.4711151123046875,0.9986987452123315
1784903242.187978,0.0361328125,-0.150390625,0.9814452528953552,0.9935581033124729,0.8697509765625,-0.2899169921875,0.1392364501953125,0.9273108500677975
1784903242.198751,0.014160159975290298,-0.1435546875,0.9750975966453552,0.9857097855947745,1.049041748046875,-0.4119873046875,0.2613067626953125,1.1569370564551982
1784903242.209524,0.0327148474752903,-0.1494140625,0.9868163466453552,0.9985996822173394,0.8697509765625,0.0762939453125,-0.0438690185546875,0.8741922089058679
1784903242.219921,0.0312500037252903,-0.14111328125,0.9658202528953552,0.9765747701946944,1.0509490966796875,0.1354217529296875,0.2002716064453125,1.0783977797299968
1784903242.230318,0.03369140625,-0.14501953125,0.9775390028953552,0.9888115480114082,0.8697509765625,0.2593994140625,0.3223419189453125,0.9631506268267374
1784903242.240715,0.014160159975290298,-0.15673828125,0.9790038466453552,0.9915724535736822,0.621795654296875,0.5645751953125,0.3223419189453125,0.8995995217728681
1784903242.24873,0.0385742150247097,-0.15185546875,0.9663085341453552,0.9789281059486442,0.3795623779296875,0.3185272216796875,0.6275177001953125,0.7995659158249767
1784903242.256744,0.04345703125,-0.1689453125,0.9716796278953552,0.987214430327901,0.8068084716796875,0.3185272216796875,0.6275177001953125,1.070597013345128
1784903242.264758,0.0239257849752903,-0.13818359375,0.9755858778953552,0.9856139984381308,0.560760498046875,0.3814697265625,0.2002716064453125,0.7071634922715071
1784903242.272772,0.0366210974752903,-0.146484375,0.9716796278953552,0.9833412816343526,0.560760498046875,0.3204345703125,0.3223419189453125,0.7218275159139351
1784903242.283482,0.0317382849752903,-0.15283203125,0.9760741591453552,0.9884764603471778,0.4405975341796875,0.5016326904296875,0.5664825439453125,0.8755935220338833
1784903242.294192,0.03369140625,-0.13037109375,0.9829100966453552,0.9920907171363188,0.560760498046875,0.3814697265625,0.5664825439453125,0.883670731125684
1784903242.304902,0.0419921912252903,-0.1533203125,0.9692382216453552,0.9821879619743106,0.3185272216796875,0.1964569091796875,0.4444122314453125,0.5809966777647001
1784903242.315615,0.029296875,-0.138671875,0.9716796278953552,0.9819620639656286,0.6847381591796875,0.3185272216796875,0.1392364501953125,0.7679275529962183
1784903242.326327,0.0361328162252903,-0.15771484375,0.9892577528953552,1.0024023413834513,0.6237030029296875,0.1354217529296875,0.2002716064453125,0.6689194296611851
1784903242.337039,0.03955078125,-0.14990234375,0.9658202528953552,0.9781838977728454,0.6866455078125,0.2593994140625,0.3833770751953125,0.8280990829607087
1784903242.347627,0.025390625,-0.14501953125,0.9741210341453552,0.9851838089647417,0.6237030029296875,-0.1697540283203125,0.2613067626953125,0.6972109366789849
1784903242.358216,0.0302734375,-0.13623046875,0.9799804091453552,0.989867073875381,0.743865966796875,0.5035400390625,0.0171661376953125,0.8984340954021547
1784903242.368805,0.0219726599752903,-0.13623046875,0.9819335341453552,0.9915820711778839,0.804901123046875,0.0762939453125,0.2002716064453125,0.8329437557972648
1784903242.376786,0.0239257849752903,-0.14794921875,0.9853515028953552,0.9966840014636306,0.6847381591796875,0.4444122314453125,0.2613067626953125,0.8571171462089027
1784903242.384765,0.0234375037252903,-0.1494140625,0.9833983778953552,0.9949604254948248,0.560760498046875,0.2593994140625,0.2002716064453125,0.6494991212726418
1784903242.392744,0.015625,-0.15087890625,0.9746093153953552,0.9863426902611482,0.8068084716796875,0.1354217529296875,0.2002716064453125,0.8422515523813824
1784903242.400723,0.02001953125,-0.13720703125,0.9731444716453552,0.9829734043959815,0.6847381591796875,0.3185272216796875,-0.1659393310546875,0.7732152347041832
1784903242.411495,0.0327148474752903,-0.130859375,0.9765624403953552,0.9858339805776903,0.3185272216796875,0.0133514404296875,0.1392364501953125,0.34788595972749464
1784903242.422267,0.0288085974752903,-0.14208984375,0.9790038466453552,0.9896807519254858,0.438690185546875,-0.0457763671875,0.2613067626953125,0.5126653673872859
1784903242.433039,0.0288085974752903,-0.14404296875,0.9653319716453552,0.976444636226507,0.4405975341796875,-0.3528594970703125,0.3833770751953125,0.6823591382719565
1784903242.440963,0.0214843787252903,-0.15087890625,0.9897460341453552,1.0014106225654222,0.316619873046875,0.0762939453125,0.3833770751953125,0.5030376644793889
1784903242.448885,0.0234375037252903,-0.1533203125,0.9809569716453552,0.9931429982764802,0.5016326904296875,-0.1087188720703125,0.3833770751953125,0.6406505529828879
1784903242.456807,0.0185546912252903,-0.14208984375,0.9833983778953552,0.9937837641612893,0.8068084716796875,-0.2269744873046875,0.2613067626953125,0.8779171669876624
1784903242.464729,0.0283203162252903,-0.1494140625,0.9780272841453552,0.9897797587931336,0.6866455078125,-0.2288818359375,-0.1049041748046875,0.7313506916060578
1784903242.475394,0.01953125,-0.134765625,0.9790038466453552,0.9884289428960512,0.6237030029296875,-0.1697540283203125,-0.1659393310546875,0.6673512775033553
1784903242.486059,0.0322265625,-0.154296875,0.9794921278953552,0.9920942019658733,0.438690185546875,0.1983642578125,-0.1659393310546875,0.5092477975048422
1784903242.496724,0.015625,-0.154296875,0.9677733778953552,0.9801208992888335,0.560760498046875,0.2593994140625,-0.3490447998046875,0.7096285397702392
1784903242.504731,0.0161132849752903,-0.1572265625,0.9638671278953552,0.9767393051093534,0.5016326904296875,-0.1087188720703125,-0.4100799560546875,0.656978477280483
1784903242.512738,0.0341796875,-0.14306640625,0.9760741591453552,0.9870952394709438,0.5016326904296875,-0.1087188720703125,-0.8373260498046875,0.9821252786348031
1784903242.520745,0.0278320349752903,-0.138671875,0.9804686903953552,0.9906176678883051,0.560760498046875,0.1983642578125,-0.8373260498046875,1.027090857046642
1784903242.528752,0.0380859412252903,-0.1533203125,0.9873046278953552,0.9998640334604,0.3795623779296875,0.0133514404296875,-0.7762908935546875,0.8642183816126116
1784903242.539423,0.0219726599752903,-0.13720703125,0.9804686903953552,0.990266337939653,0.4405975341796875,0.1354217529296875,-1.0814666748046875,1.175600019991867
1784903242.550094,0.0278320349752903,-0.13916015625,0.9873046278953552,0.9974520537459312,0.560760498046875,0.0762939453125,-0.8983612060546875,1.0617560731190374
1784903242.560765,0.0312500037252903,-0.15576171875,0.9746093153953552,0.9874723253925589,0.255584716796875,0.1983642578125,-0.8983612060546875,0.9548428052730331
1784903242.568744,0.0263671912252903,-0.15087890625,0.9707030653953552,0.9827126305753104,0.438690185546875,-0.0457763671875,-1.1425018310546875,1.2246856693255417
1784903242.576723,0.014160159975290298,-0.1455078125,0.9687499403953552,0.9797190825155266,0.3185272216796875,-0.1087188720703125,-1.2035369873046875,1.2497122324381982
1784903242.584702,0.0283203162252903,-0.14794921875,0.9687499403953552,0.9803914823456189,0.438690185546875,-0.2288818359375,-1.3256072998046875,1.4149454713920062
1784903242.592681,0.0205078162252903,-0.1513671875,0.9711913466453552,0.9831303208511113,0.6847381591796875,-0.2918243408203125,-0.8373260498046875,1.1203315162100542
1784903242.603411,0.0283203162252903,-0.15576171875,0.9794921278953552,0.9922039013973012,0.6847381591796875,-0.2918243408203125,-0.8983612060546875,1.1666536114357293
1784903242.614141,0.03173828125,-0.1640625,0.9731444716453552,0.9873874543951182,0.8697509765625,-0.2899169921875,-0.5321502685546875,1.0600483630067523
1784903242.624871,0.02587890625,-0.154296875,0.9868163466453552,0.999141504207461,0.926971435546875,-0.5340576171875,-0.2269744873046875,1.0936228777247896
1784903242.635604,0.029296875,-0.15625,0.9746093153953552,0.9874895883198813,1.2950897216796875,-0.5321502685546875,-0.0438690185546875,1.4008446688738005
1784903242.646339,0.0307617224752903,-0.13671875,0.9760741591453552,0.9860826863516677,1.2950897216796875,-0.3528594970703125,0.1392364501953125,1.3495013897495904
1784903242.657074,0.041015625,-0.1435546875,0.9707030653953552,0.9821174425522146,0.926971435546875,0.2593994140625,0.1392364501953125,0.9726000654939286
1784903242.667706,0.0366210974752903,-0.1513671875,0.9672850966453552,0.9797415926784823,0.6866455078125,0.3814697265625,0.1392364501953125,0.7977393024953366
1784903242.678341,0.0415039099752903,-0.14208984375,0.9819335341453552,0.9930284808198222,0.560760498046875,1.0528564453125,-0.0438690185546875,1.1936848501153074
1784903242.688976,0.0375976599752903,-0.15087890625,0.9785155653953552,0.990792985495863,0.255584716796875,1.1749267578125,-0.0438690185546875,1.2032044400154462
1784903242.696919,0.0263671912252903,-0.15576171875,0.9873046278953552,0.9998636757401735,0.1964569091796875,1.1119842529296875,-0.5931854248046875,1.275528613606433
1784903242.704864,0.0385742150247097,-0.15087890625,0.9809569716453552,0.9932416597362371,0.133514404296875,1.0528564453125,-0.9593963623046875,1.4306551543241612
1784903242.712809,0.0366210974752903,-0.15576171875,0.9677733778953552,0.980911886344148,-0.1697540283203125,0.7495880126953125,-1.2035369873046875,1.4280055667671345
1784903242.720754,0.0322265662252903,-0.158203125,0.9697265028953552,0.9830749059700863,0.0743865966796875,0.1354217529296875,-1.5697479248046875,1.577333498141962
1784903242.731437,0.0239257849752903,-0.1572265625,0.9672850966453552,0.9802719486624436,0.0152587890625,0.5645751953125,-1.5087127685546875,1.6109600242730269
1784903242.74212,0.0332031287252903,-0.15234375,0.9653319716453552,0.9778429737958542,0.072479248046875,0.3814697265625,-1.3866424560546875,1.4399825327463125
1784903242.752803,0.0239257849752903,-0.14111328125,0.9882811903953552,0.998591564465215,0.072479248046875,0.3814697265625,-1.3866424560546875,1.4399825327463125
1784903242.760812,0.0190429724752903,-0.15966796875,0.9814452528953552,0.994530683024045,-0.110626220703125,0.0762939453125,-1.3866424560546875,1.3931389836379495
1784903242.76882,0.0239257849752903,-0.15771484375,0.9755858778953552,0.9885414610802228,-0.1697540283203125,-0.1087188720703125,-0.8983612060546875,0.9207003203101687
1784903242.776828,0.0180664099752903,-0.15283203125,0.9663085341453552,0.9784866928617585,0.3185272216796875,-0.1697540283203125,-0.6542205810546875,0.7471817648721676
1784903242.784836,0.0219726599752903,-0.16259765625,0.9746093153953552,0.9883238908676577,0.1964569091796875,-0.5321502685546875,-0.5931854248046875,0.8207607286462844
1784903242.792827,0.0273437537252903,-0.1611328125,0.9809569716453552,0.9944787802419797,0.2574920654296875,-0.6580352783203125,-0.2880096435546875,0.7630610369124057
1784903242.800818,0.0224609412252903,-0.154296875,0.9755858778953552,0.9879675220695985,0.5016326904296875,-0.7152557373046875,0.1392364501953125,0.8846541216305899
1784903242.808809,0.0195312462747097,-0.15673828125,0.9794921278953552,0.9921457488691963,0.8068084716796875,-1.0242462158203125,0.9937286376953125,1.6393647629408548
1784903242.8168,0.0405273474752903,-0.15625,0.9804686903953552,0.9936676412357232,0.8697509765625,-0.9002685546875,1.1157989501953125,1.6768892417352745
1784903242.827496,0.0205078162252903,-0.1572265625,0.9711913466453552,0.98404948771935,1.232147216796875,-0.9613037109375,0.9326934814453125,1.8199474494756906
1784903242.838192,0.0356445349752903,-0.14599609375,0.9814452528953552,0.9928847751349051,1.415252685546875,-0.4730224609375,1.0547637939453125,1.8273524765400133
1784903242.848888,0.0415039099752903,-0.140625,0.9575194716453552,0.9686802897490158,0.9288787841796875,-0.3528594970703125,0.8716583251953125,1.3217843455927845
1784903242.856907,0.0307617224752903,-0.1474609375,0.9614257216453552,0.9731548848458388,0.560760498046875,-0.2899169921875,0.9326934814453125,1.1262421271020737
1784903242.864926,0.0336914025247097,-0.142578125,0.9833983778953552,0.9942514782386866,0.5035400390625,0.0762939453125,0.8106231689453125,0.9573313214667906
1784903242.872945,0.0419921912252903,-0.14404296875,0.9824218153953552,0.9938130328864279,0.6847381591796875,0.0133514404296875,0.8716583251953125,1.1085273309578938
1784903242.880964,0.02978515625,-0.1494140625,0.9794921278953552,0.991270168124998,0.7457733154296875,0.1354217529296875,0.4444122314453125,0.8786461862614209
1784903242.890514,0.0380859412252903,-0.1337890625,0.9824218153953552,0.9922210819814052,0.5016326904296875,-0.0438690185546875,0.1392364501953125,0.522442949956902
1784903242.900065,0.0312500037252903,-0.1357421875,0.9780272841453552,0.9878966913259986,0.8678436279296875,0.3185272216796875,0.0171661376953125,0.9246117183837317
1784903242.909616,0.0327148474752903,-0.14453125,0.9819335341453552,0.9930523696920931,0.804901123046875,0.5645751953125,-0.1049041748046875,0.9887445852876872
1784903242.919167,0.0327148474752903,-0.1416015625,0.9775390028953552,0.9882832417527974,1.049041748046875,0.3204345703125,-0.1049041748046875,1.1018946360192756
1784903242.928718,0.0405273474752903,-0.1513671875,0.9672850966453552,0.9798953768322705,0.438690185546875,0.6866455078125,-0.4711151123046875,0.9412122934471776
1784903242.938344,0.0332031287252903,-0.14208984375,0.9770507216453552,0.9878866757486696,0.804901123046875,0.5645751953125,-0.1659393310546875,0.9970691202896343
1784903242.94797,0.0244140625,-0.14453125,0.9775390028953552,0.9884674151715683,0.7457733154296875,0.6237030029296875,-0.1659393310546875,0.9862652459969251
1784903242.957596,0.0322265662252903,-0.14404296875,0.9741210341453552,0.9852404364323476,0.9918212890625,0.5645751953125,-0.1049041748046875,1.1460626101968423
1784903242.967222,0.0180664099752903,-0.158203125,0.9765624403953552,0.9894588540814078,0.6866455078125,0.3814697265625,0.3223419189453125,0.8490615515921687
1784903242.976848,0.0224609412252903,-0.1591796875,0.9765624403953552,0.9897054444551951,0.3795623779296875,0.1354217529296875,-0.2269744873046875,0.4625192620782555
1784903242.985051,0.0190429724752903,-0.14892578125,0.9814452528953552,0.9928626831301725,0.743865966796875,0.5035400390625,0.5054473876953125,1.03071150630316
1784903242.993254,0.03125,-0.1396484375,0.9672850966453552,0.9778132269449036,0.621795654296875,0.5645751953125,0.3223419189453125,0.8995995217728681
1784903243.001457,0.0234375037252903,-0.15478515625,0.9750975966453552,0.9875844693795857,0.560760498046875,0.1983642578125,0.5664825439453125,0.8214031820866268
1784903243.00966,0.0278320349752903,-0.154296875,0.9604491591453552,0.9731622347320364,0.560760498046875,0.3814697265625,0.0782012939453125,0.6827055960135152
1784903243.020043,0.0327148474752903,-0.14208984375,0.9697265028953552,0.9806269807423648,0.9288787841796875,0.6237030029296875,0.3223419189453125,1.1643562789249648
1784903243.030426,0.0239257849752903,-0.1572265625,0.9790038466453552,0.991837268350334,0.560760498046875,0.9307861328125,0.3223419189453125,1.1334546633699887
1784903243.040809,0.03369140625,-0.1484375,0.9790038466453552,0.990766033939272,0.560760498046875,0.3204345703125,0.2002716064453125,0.6761947695518814
1784903243.051437,0.02490234375,-0.138671875,0.9638671278953552,0.97410977609174,0.438690185546875,0.0762939453125,-0.0438690185546875,0.44743081674762847
1784903243.062066,0.0219726599752903,-0.1435546875,0.9555663466453552,0.9665390778084265,0.3185272216796875,0.2613067626953125,0.0782012939453125,0.4193521879709301
1784903243.072695,0.0214843787252903,-0.13671875,0.9667968153953552,0.9766522806963462,0.4405975341796875,0.0133514404296875,-0.1049041748046875,0.4531107303719708
1784903243.083399,0.0283203162252903,-0.146484375,0.9794921278953552,0.9907898571539839,0.3185272216796875,-0.0438690185546875,-0.1659393310546875,0.3618286104370541
1784903243.094101,0.0356445349752903,-0.1416015625,0.9780272841453552,0.9888674855150136,0.133514404296875,-0.2288818359375,-0.3490447998046875,0.438229692339034
1784903243.104803,0.0322265662252903,-0.1435546875,0.9770507216453552,0.9880660972534201,0.3185272216796875,-0.0438690185546875,-0.3490447998046875,0.47456965137967544
1784903243.112824,0.0317382849752903,-0.1484375,0.9697265028953552,0.9815347678799148,0.1964569091796875,-0.0438690185546875,-0.5931854248046875,0.626409415761054
1784903243.120845,0.0322265662252903,-0.15380859375,0.9755858778953552,0.9881616468123403,0.4405975341796875,-0.1697540283203125,-0.4100799560546875,0.6253864306283027
1784903243.128866,0.0307617224752903,-0.1416015625,0.9677733778953552,0.9785614937422554,0.4405975341796875,0.0133514404296875,-0.3490447998046875,0.5622603670520115
1784903243.136887,0.0273437537252903,-0.16015625,0.9790038466453552,0.9923941943745207,0.6866455078125,-0.4119873046875,-0.2880096435546875,0.8509789347588195
1784903243.147493,0.03173828125,-0.14892578125,0.9765624403953552,0.9883624875563412,0.743865966796875,-0.2899169921875,-0.4711151123046875,0.9270047939247967
1784903243.158099,0.0273437537252903,-0.15234375,0.9707030653953552,0.9829652792442829,0.5626678466796875,-0.3528594970703125,-0.2880096435546875,0.7239160760339339
1784903243.168705,0.0263671875,-0.14501953125,0.9780272841453552,0.9890719193028227,0.5016326904296875,-0.3528594970703125,-0.4711151123046875,0.7733657800952269
1784903243.176733,0.03369140625,-0.14453125,0.9663085341453552,0.9776382645149535,0.6237030029296875,-0.2918243408203125,-0.1659393310546875,0.7083097792277027
1784903243.184759,0.03076171875,-0.1494140625,0.9780272841453552,0.9898526223362483,0.743865966796875,-0.4119873046875,-0.4100799560546875,0.9440527983858397
1784903243.192785,0.0224609412252903,-0.1396484375,0.9755858778953552,0.985785973285159,0.6847381591796875,-0.4749298095703125,-0.4100799560546875,0.9287573639078696
1784903243.200811,0.0332031287252903,-0.15185546875,0.9702147841453552,0.9825880411040268,0.5035400390625,-0.4119873046875,-0.4100799560546875,0.7690589577662752
1784903243.211487,0.0234375037252903,-0.1259765625,0.9682616591453552,0.9767036661398919,0.8068084716796875,-0.2918243408203125,-0.3490447998046875,0.9262470664676987
1784903243.222163,0.0273437537252903,-0.15185546875,0.9804686903953552,0.992535448788936,0.5016326904296875,-0.7801055908203125,-0.1659393310546875,0.9421974052860221
1784903243.232839,0.0410156287252903,-0.14794921875,0.9633788466453552,0.9755357785812887,0.438690185546875,-0.5340576171875,-0.2880096435546875,0.7487430615048396
1784903243.243478,0.02587890625,-0.1484375,0.9721679091453552,0.9837753060363926,0.5016326904296875,-0.6580352783203125,-0.3490447998046875,0.8980412328465281
1784903243.254115,0.0219726599752903,-0.1533203125,0.9736327528953552,0.9858755770999073,0.6237030029296875,-0.6580352783203125,-0.3490447998046875,0.9715184690206848
1784903243.264752,0.02978515625,-0.15869140625,0.9858397841453552,0.9989745732270667,0.8068084716796875,-0.3528594970703125,0.0171661376953125,0.8807635386017074
1784903243.272747,0.0317382849752903,-0.14013671875,0.9677733778953552,0.9783817913463922,1.1119842529296875,-0.3528594970703125,0.0171661376953125,1.1667533928468705
1784903243.280743,0.03515625,-0.15771484375,0.9682616591453552,0.9816519619621129,0.9288787841796875,-0.3528594970703125,0.1392364501953125,1.0033505914857679
1784903243.288739,0.03076171875,-0.154296875,0.9921874403953552,1.0045843547724134,0.8678436279296875,0.0133514404296875,-0.1659393310546875,0.8836666142220077
1784903243.296735,0.02490234375,-0.14990234375,0.9746093153953552,0.9863843860490642,0.743865966796875,-0.0457763671875,-0.2880096435546875,0.7989878641957163
1784903243.307384,0.0400390625,-0.1376953125,0.9770507216453552,0.987517715424924,1.049041748046875,-0.1678466796875,0.0171661376953125,1.0625233048318214
1784903243.318033,0.0498046875,-0.13720703125,0.9755858778953552,0.9864451740823015,0.7457733154296875,-0.1697540283203125,-0.1049041748046875,0.7720098147235008
1784903243.328682,0.02978515625,-0.142578125,0.9809569716453552,0.9917117814571826,0.6866455078125,0.2593994140625,-0.0438690185546875,0.7353193865280623
1784903243.339378,0.0322265662252903,-0.15576171875,0.9687499403953552,0.9817213003773685,0.621795654296875,0.0762939453125,-0.3490447998046875,0.7171351853482857
1784903243.350076,0.0327148474752903,-0.150390625,0.9750975966453552,0.9871691467609641,0.8697509765625,-0.0457763671875,0.2002716064453125,0.8936839225209847
1784903243.360774,0.0263671875,-0.1494140625,0.9848632216453552,0.9964814880363217,0.1964569091796875,-0.1697540283203125,-0.4100799560546875,0.48536307817264374
1784903243.368782,0.0263671875,-0.1396484375,0.9697265028953552,0.9800848968790954,0.6847381591796875,0.3185272216796875,-0.4711151123046875,0.8900985263607766
1784903243.37679,0.03857421875,-0.1533203125,0.9770507216453552,0.9897591632538594,0.438690185546875,0.0762939453125,-0.2880096435546875,0.530301234928787
1784903243.384798,0.0332031287252903,-0.15625,0.9775390028953552,0.9905044232303022,0.6237030029296875,0.1354217529296875,-0.4100799560546875,0.7586237917359787
1784903243.392806,0.0371093787252903,-0.15185546875,0.9755858778953552,0.9880308671936875,0.5016326904296875,0.2613067626953125,-0.6542205810546875,0.8648243457567346
1784903243.403451,0.03173828125,-0.1494140625,0.9755858778953552,0.9874713594420392,0.6866455078125,0.3814697265625,-0.0438690185546875,0.7867183082093019
1784903243.414096,0.0312500037252903,-0.15625,0.9833983778953552,0.9962243697481238,0.3814697265625,0.1983642578125,-0.4711151123046875,0.6378220599062334
1784903243.424741,0.0366210974752903,-0.1611328125,0.9721679091453552,0.9861112166568772,0.3795623779296875,0.3185272216796875,-0.2880096435546875,0.5731289073769686
1784903243.435447,0.03955078125,-0.15478515625,0.9736327528953552,0.9866526472895161,0.560760498046875,0.0762939453125,-0.1659393310546875,0.5897533076227748
1784903243.446152,0.02978515625,-0.1416015625,0.9663085341453552,0.9770825662130215,0.5035400390625,0.0762939453125,-0.1049041748046875,0.5199790600801759
1784903243.456857,0.02978515625,-0.14453125,0.9809569716453552,0.9919944646917268,0.5626678466796875,0.1354217529296875,-0.1049041748046875,0.5881658292906501
1784903243.464817,0.0214843787252903,-0.15673828125,0.9594725966453552,0.9724279567411647,0.5016326904296875,-0.0438690185546875,-0.0438690185546875,0.5054545851860776
1784903243.472777,0.0307617224752903,-0.146484375,0.9721679091453552,0.9836230981737055,0.438690185546875,-0.1068115234375,0.2613067626953125,0.5216694400331455
1784903243.480737,0.02587890625,-0.1552734375,0.9716796278953552,0.9843479351573907,0.560760498046875,-0.1068115234375,0.2002716064453125,0.604954340472903
1784903243.488697,0.0478515662252903,-0.14599609375,0.9682616591453552,0.9803750671816314,0.255584716796875,-0.0457763671875,-0.1049041748046875,0.2800426916462489
1784903243.49937,0.0322265662252903,-0.1376953125,0.9731444716453552,0.9833660118943827,0.316619873046875,0.0762939453125,-0.0438690185546875,0.3286234941213387
1784903243.510043,0.0283203162252903,-0.14892578125,0.9746093153953552,0.9863286705188217,0.0133514404296875,0.2613067626953125,0.3833770751953125,0.46415241782970834
1784903243.520716,0.04345703125,-0.1435546875,0.9716796278953552,0.9831875513528139,0.1354217529296875,0.1964569091796875,0.2613067626953125,0.35385815316492236
1784903243.531411,0.029296875,-0.1533203125,0.9809569716453552,0.9932985479348541,0.2574920654296875,0.1354217529296875,-0.1049041748046875,0.3092670380387283
1784903243.542105,0.03125,-0.14404296875,0.9760741591453552,0.987140164058593,0.5016326904296875,0.1354217529296875,-0.1659393310546875,0.5454450191038077
1784903243.552799,0.02978515625,-0.1337890625,0.9824218153953552,0.991937141225275,0.316619873046875,0.0762939453125,0.3833770751953125,0.5030376644793889
1784903243.560794,0.03125,-0.14892578125,0.9707030653953552,0.9825578313711932,0.438690185546875,-0.1068115234375,0.0171661376953125,0.45183233252785887
1784903243.568788,0.0380859412252903,-0.1552734375,0.9833983778953552,0.9963095648237542,0.3185272216796875,0.0133514404296875,0.0171661376953125,0.3192687397724724
1784903243.576782,0.0258789099752903,-0.14599609375,0.9736327528953552,0.9848580176260717,0.133514404296875,0.0762939453125,-0.2880096435546875,0.3264910672998486
1784903243.584776,0.02099609375,-0.1494140625,0.9863280653953552,0.9978018092848182,0.4405975341796875,0.5016326904296875,-0.1049041748046875,0.675844974180026
1784903243.595425,0.0439453125,-0.1455078125,0.9824218153953552,0.9941108275006179,0.621795654296875,0.3814697265625,0.0171661376953125,0.7296873743388478
1784903243.606074,0.02978515625,-0.14990234375,0.9736327528953552,0.9855549734566651,0.4405975341796875,0.3185272216796875,-0.1659393310546875,0.5684378942919612
1784903243.616723,0.0375976599752903,-0.14697265625,0.9760741591453552,0.9877931513591853,0.255584716796875,0.4425048828125,0.0782012939453125,0.5169618565694807
1784903243.624723,0.029296875,-0.15966796875,0.9829100966453552,0.9962250876267361,0.438690185546875,0.7476806640625,-0.1659393310546875,0.8826161769982294
1784903243.632723,0.0302734375,-0.150390625,0.9726561903953552,0.9846795853577764,0.8068084716796875,0.4444122314453125,0.2002716064453125,0.9426297564688382
1784903243.640723,0.03564453125,-0.154296875,0.9702147841453552,0.9830538060640507,0.6866455078125,0.2593994140625,-0.1659393310546875,0.7525330364880545
1784903243.648723,0.0268554724752903,-0.142578125,0.9633788466453552,0.9742425469533352,0.6237030029296875,0.3185272216796875,-0.0438690185546875,0.7017047225175573
1784903243.659485,0.02490234375,-0.15283203125,0.9833983778953552,0.9955150054858339,0.6847381591796875,0.5016326904296875,-0.3490447998046875,0.9177875435062344
1784903243.670247,0.0336914025247097,-0.15771484375,0.9790038466453552,0.9921983744642858,0.6237030029296875,0.4444122314453125,-0.4100799560546875,0.8687193089137171
1784903243.681009,0.03125,-0.15966796875,0.9741210341453552,0.9876144044662205,0.3814697265625,-0.2899169921875,-0.5931854248046875,0.7625221064621228
1784903243.691589,0.0239257849752903,-0.14111328125,0.9716796278953552,0.9821642940968082,0.255584716796875,0.0152587890625,-0.6542205810546875,0.7025389290134217
1784903243.702171,0.02978515625,-0.1513671875,0.9829100966453552,0.9949429325704457,0.255584716796875,-0.1068115234375,-0.4100799560546875,0.4948715180296729
1784903243.712753,0.0166015625,-0.15478515625,0.9785155653953552,0.9908212594579155,0.560760498046875,0.0762939453125,-0.2269744873046875,0.609746275223024
1784903243.720775,0.013671878725290298,-0.14990234375,0.9824218153953552,0.9938864403413137,0.438690185546875,-0.5950927734375,-0.3490447998046875,0.8175675875200665
1784903243.728797,0.0307617224752903,-0.15625,0.9736327528953552,0.9865703642316824,0.8068084716796875,-0.7152557373046875,-0.2880096435546875,1.1160108576989218
1784903243.736819,0.02978515625,-0.1611328125,0.9677733778953552,0.9815478845985982,1.049041748046875,-0.7171630859375,0.1392364501953125,1.278357645590479
1784903243.744841,0.02978515625,-0.150390625,0.9726561903953552,0.9846646943681555,1.1730194091796875,-0.5321502685546875,0.0171661376953125,1.2881976241704778
1784903243.755474,0.04931640625,-0.14794921875,0.9648436903953552,0.9773660655813043,1.415252685546875,-0.5950927734375,0.3223419189453125,1.568751059172399
1784903243.766107,0.0302734375,-0.154296875,0.9799804091453552,0.9925147902986282,0.9899139404296875,-0.4100799560546875,0.5054473876953125,1.184724542475111
1784903243.77674,0.0429687537252903,-0.142578125,0.9697265028953552,0.9810934338496389,0.8068084716796875,-0.1697540283203125,0.5054473876953125,0.9670746619745045
1784903243.784731,0.05029296875,-0.14111328125,0.9790038466453552,0.9903993500589711,0.255584716796875,0.3814697265625,0.6275177001953125,0.777573896039612
1784903243.792722,0.0458984375,-0.13037109375,0.9853515028953552,0.9949979260825863,0.1983642578125,0.7476806640625,0.2002716064453125,0.7990516069307608
1784903243.800713,0.0419921912252903,-0.1435546875,0.9765624403953552,0.9879501467270784,0.0133514404296875,1.2378692626953125,0.0782012939453125,1.2404088095713064
1784903243.808704,0.0375976599752903,-0.13037109375,0.9814452528953552,0.9907799909929634,-0.1697540283203125,1.1119842529296875,0.0782012939453125,1.1275818601189405
1784903243.819385,0.0400390625,-0.13916015625,0.9697265028953552,0.9804785393016303,-0.0476837158203125,1.2950897216796875,0.1392364501953125,1.303425453571394
1784903243.830066,0.0283203162252903,-0.15966796875,0.9721679091453552,0.9855994846426732,-0.110626220703125,1.2969970703125,-0.1659393310546875,1.3122406115865877
1784903243.840747,0.0283203162252903,-0.1572265625,0.9716796278953552,0.9847251045512767,-0.354766845703125,1.0528564453125,-0.0438690185546875,1.1118861002976743
1784903243.851434,0.0341796875,-0.1591796875,0.9804686903953552,0.9938939967601064,-0.1697540283203125,0.8678436279296875,-0.4100799560546875,0.9747484614129687
1784903243.862124,0.0332031287252903,-0.14892578125,0.9765624403953552,0.9884106110665764,-0.110626220703125,0.8087158203125,-0.6542205810546875,1.0460707468456947
1784903243.872814,0.0234375037252903,-0.1474609375,0.9843749403953552,0.9956345052013872,-0.110626220703125,0.6866455078125,-0.8373260498046875,1.0885013219044175
1784903243.883462,0.0205078125,-0.1552734375,0.9692382216453552,0.9818111534632575,0.072479248046875,0.3204345703125,-0.7152557373046875,0.7870974050243522
1784903243.894113,0.0366210974752903,-0.16015625,0.9736327528953552,0.9873965093643713,0.0133514404296875,0.3795623779296875,-0.2269744873046875,0.44245144093833866
1784903243.904764,0.029296875,-0.14111328125,0.9780272841453552,0.988589213760016,0.255584716796875,0.1983642578125,-0.5931854248046875,0.6756780849179292
1784903243.912767,0.025390625,-0.14453125,0.9750975966453552,0.9860777297191134,0.560760498046875,-0.6561279296875,-0.2269744873046875,0.8924537042183253
1784903243.920768,0.0239257849752903,-0.15478515625,0.9697265028953552,0.9822934277494053,0.9288787841796875,-0.6580352783203125,0.2613067626953125,1.1679501048604473
1784903243.928769,0.0317382849752903,-0.15234375,0.9819335341453552,0.9941878104143215,1.049041748046875,-0.8392333984375,0.4444122314453125,1.4150277444829131
1784903243.93677,0.041015625,-0.1640625,0.9790038466453552,0.9935025501460945,1.1749267578125,-1.0833740234375,0.6275177001953125,1.7169538796780082
1784903243.944751,0.0312500037252903,-0.15283203125,0.9780272841453552,0.9903896006327868,0.9899139404296875,-0.7801055908203125,0.5664825439453125,1.3818092541595213
1784903243.952732,0.0258789099752903,-0.14697265625,0.9790038466453552,0.9903126836575871,1.1119842529296875,-0.5321502685546875,1.1157989501953125,1.6627387601013524
1784903243.960713,0.0283203162252903,-0.1552734375,0.9887694716453552,1.001287645365707,1.110076904296875,-0.4119873046875,0.8716583251953125,1.4703035430003226
1784903243.968694,0.0390624962747097,-0.13232421875,0.9790038466453552,0.9886779603234876,0.8068084716796875,-0.3528594970703125,0.7495880126953125,1.1564306824982356
1784903243.979405,0.0458984375,-0.13818359375,0.9809569716453552,0.9917045690961763,0.8697509765625,0.1983642578125,0.6275177001953125,1.090684924287184
1784903243.990116,0.0302734375,-0.15234375,0.9697265028953552,0.982086854407381,0.743865966796875,-0.0457763671875,0.6275177001953125,0.9742743537679458
1784903244.000827,0.0336914025247097,-0.1416015625,0.9794921278953552,0.9902479193189422,0.9899139404296875,-0.0438690185546875,0.5054473876953125,1.112353883426492
1784903244.008801,0.0361328125,-0.16015625,0.9677733778953552,0.9816011998343364,0.6847381591796875,0.3185272216796875,0.3223419189453125,0.8211152478776133
1784903244.016775,0.0366210974752903,-0.146484375,0.9755858778953552,0.9872013887998164,0.6237030029296875,0.1354217529296875,0.1392364501953125,0.6532467191598063
1784903244.024749,0.0400390662252903,-0.13720703125,0.9873046278953552,0.9975967745097302,0.4405975341796875,0.3185272216796875,0.2002716064453125,0.5793914863237013
1784903244.032723,0.03564453125,-0.1455078125,0.9633788466453552,0.9749573622832448,0.3185272216796875,0.5016326904296875,0.0171661376953125,0.5944658302561064
1784903244.043382,0.0375976599752903,-0.142578125,0.9809569716453552,0.9919771600111362,0.560760498046875,0.1983642578125,-0.2269744873046875,0.6366460027633166
1784903244.054041,0.03857421875,-0.150390625,0.9750975966453552,0.987380693260513,0.743865966796875,0.9918212890625,-0.2880096435546875,1.2727904779565045
1784903244.0647,0.0424804724752903,-0.1474609375,0.9721679091453552,0.9842051423367765,0.6866455078125,0.5645751953125,-0.5321502685546875,1.0360555549216748
1784903244.072722,0.04443359375,-0.1376953125,0.9726561903953552,0.9833587382295528,0.438690185546875,0.8697509765625,-0.4100799560546875,1.0569207210024736
1784903244.080744,0.0234375037252903,-0.1552734375,0.9799804091453552,0.992482120384361,0.5016326904296875,0.7495880126953125,-0.4100799560546875,0.9907992305417123
1784903244.088766,0.025390625,-0.1484375,0.9819335341453552,0.9934142342061181,0.6866455078125,0.7476806640625,-0.5321502685546875,1.1461641841965107
1784903244.096788,0.0190429724752903,-0.1591796875,0.9794921278953552,0.9925248794474943,0.8068084716796875,0.3795623779296875,-0.0438690185546875,0.8927104791043419
1784903244.107429,0.0322265662252903,-0.15576171875,0.9731444716453552,0.986058024303106,0.5016326904296875,0.2613067626953125,0.0782012939453125,0.5709921389237791
1784903244.11807,0.0288085974752903,-0.14990234375,0.9687499403953552,0.9807023477927647,0.926971435546875,0.5645751953125,-0.1049041748046875,1.0904247243039906
1784903244.128711,0.02099609375,-0.14453125,0.9848632216453552,0.9956333077639525,0.8068084716796875,0.0133514404296875,0.0782012939453125,0.8106994593006596
1784903244.136719,0.0244140625,-0.15087890625,0.9746093153953552,0.9865210633607137,0.743865966796875,0.3814697265625,0.1392364501953125,0.8474918984304863
1784903244.144726,0.0317382849752903,-0.16259765625,0.9785155653953552,0.9924404406674274,0.743865966796875,0.2593994140625,-0.1659393310546875,0.8050841534681297
1784903244.152733,0.02099609375,-0.1552734375,0.9750975966453552,0.9876061964818634,1.110076904296875,0.2593994140625,0.2002716064453125,1.1574400657561013
1784903244.16074,0.021484375,-0.13916015625,0.9750975966453552,0.9852118809881522,0.743865966796875,0.2593994140625,0.4444122314453125,0.9045036561743793
1784903244.171405,0.03125,-0.14501953125,0.9770507216453552,0.9882486223677113,0.8068084716796875,0.4444122314453125,-0.1049041748046875,0.9270636587224027
1784903244.18207,0.0322265662252903,-0.1484375,0.9838866591453552,0.9955426666000465,0.743865966796875,0.2593994140625,-0.1659393310546875,0.8050841534681297
1784903244.192735,0.0224609412252903,-0.15478515625,0.9731444716453552,0.9856333502727982,0.6847381591796875,0.3185272216796875,0.1392364501953125,0.7679275529962183
1784903244.203439,0.03564453125,-0.1552734375,0.9716796278953552,0.9846530720349957,0.8697509765625,0.3814697265625,0.1392364501953125,0.9598816086258152
1784903244.214143,0.0322265662252903,-0.14453125,0.9692382216453552,0.9804848617370318,0.5016326904296875,0.3795623779296875,-0.1659393310546875,0.6505680721017922
1784903244.224847,0.0205078125,-0.14306640625,0.9648436903953552,0.9756084839045596,0.255584716796875,0.3814697265625,-0.4100799560546875,0.6156364756100972
1784903244.235475,0.0429687537252903,-0.1484375,0.9663085341453552,0.9785868323072305,0.072479248046875,-0.0457763671875,-0.2269744873046875,0.24262344296780353
1784903244.246103,0.0327148474752903,-0.134765625,0.9780272841453552,0.9878104086613542,0.438690185546875,-0.1068115234375,-0.5931854248046875,0.7454708100488635
1784903244.256731,0.0341796837747097,-0.15234375,0.9848632216453552,0.9971621905671463,0.3185272216796875,-0.1087188720703125,-1.0204315185546875,1.07450447563286
1784903244.264725,0.03466796875,-0.1513671875,0.9677733778953552,0.9801526434550372,0.1964569091796875,-0.0438690185546875,-0.6542205810546875,0.6844884050361412
1784903244.272719,0.025390625,-0.16015625,0.9770507216453552,0.9904154789378358,0.5016326904296875,0.0133514404296875,-0.7762908935546875,0.9243598695774332
1784903244.280713,0.0341796875,-0.15283203125,0.9731444716453552,0.9856652796500017,0.1964569091796875,0.1964569091796875,-0.9593963623046875,0.9988153054155403
1784903244.288707,0.0283203162252903,-0.16064453125,0.9760741591453552,0.9896107668588418,0.0152587890625,-0.4119873046875,-0.8373260498046875,0.933317354145334
1784903244.29941,0.0205078125,-0.1494140625,0.9755858778953552,0.9871742184615337,0.3814697265625,-0.1068115234375,-0.4100799560546875,0.5701696450886548
1784903244.310113,0.0332031287252903,-0.14453125,0.9726561903953552,0.9838962316718751,0.1964569091796875,-0.3528594970703125,-0.2880096435546875,0.4960390071533165
1784903244.320816,0.0239257849752903,-0.15625,0.9721679091453552,0.9849349974788871,0.438690185546875,-0.5950927734375,-0.4100799560546875,0.845428919691361
1784903244.331456,0.0268554724752903,-0.158203125,0.9780272841453552,0.9911038359800531,0.5626678466796875,-0.3528594970703125,-0.2269744873046875,0.7018706064846254
1784903244.342097,0.0400390625,-0.1533203125,0.9794921278953552,0.9922273294764399,0.6847381591796875,-0.3528594970703125,-0.4711151123046875,0.9029538306864638
1784903244.352738,0.0278320349752903,-0.140625,0.9736327528953552,0.9841294377806477,0.6237030029296875,-0.5321502685546875,-0.1049041748046875,0.826555642457172
1784903244.360731,0.0258789099752903,-0.15576171875,0.9829100966453552,0.9955117724551753,0.4405975341796875,-0.3528594970703125,0.0782012939453125,0.569869681745446
1784903244.368726,0.02978515625,-0.154296875,0.9682616591453552,0.9809308445239749,0.560760498046875,-0.2288818359375,0.0782012939453125,0.6107001501282123
1784903244.376721,0.03369140625,-0.154296875,0.9750975966453552,0.9878046160417636,0.1926422119140625,-0.2422332763671875,-0.0019073486328125,0.30950221319003823
1784903244.384716,0.03857421875,-0.14453125,0.9770507216453552,0.9884358174643636,0.00762939453125,-0.118255615234375,0.1201629638671875,0.16876532843188208
1784903244.395394,0.0468750037252903,-0.14697265625,0.9648436903953552,0.9770985490497643,-0.2994537353515625,0.0019073486328125,0.1201629638671875,0.3226690494611433
1784903244.406072,0.0361328125,-0.15380859375,0.9663085341453552,0.9791398504874868,-0.4787445068359375,0.2460479736328125,-0.2498626708984375,0.5934368226381803
1784903244.41675,0.0463867224752903,-0.1533203125,0.9619140028953552,0.9751601895141447,-0.35858154296875,0.064849853515625,-0.2498626708984375,0.44183433633812164
1784903244.424893,0.03466796875,-0.1396484375,0.9750975966453552,0.9856565715993529,-0.6046295166015625,0.1239776611328125,0.0553131103515625,0.6196828648450478
1784903244.433036,0.0371093787252903,-0.1435546875,0.9750975966453552,0.9863064317321202,-0.54168701171875,0.064849853515625,-0.2498626708984375,0.6000513948607137
1784903244.441179,0.0283203162252903,-0.13623046875,0.9799804091453552,0.9898092660889991,-0.41961669921875,0.370025634765625,-0.5512237548828125,0.7853946604058686
1784903244.449322,0.0302734375,-0.14306640625,0.9760741591453552,0.9869677004677857,-0.2994537353515625,0.4901885986328125,-0.4901885986328125,0.7551438697858871
1784903244.459823,0.0292968712747097,-0.13671875,0.9589843153953552,0.9691239551483327,-0.41961669921875,0.308990478515625,-0.5512237548828125,0.7585518558567113
1784903244.470324,0.029296875,-0.15087890625,0.9746093153953552,0.9866539762709948,-0.23651123046875,0.186920166015625,-0.3681182861328125,0.4758022521873033
1784903244.480825,0.041015625,-0.1552734375,0.9638671278953552,0.9771550348457752,-0.2994537353515625,0.0019073486328125,-0.4329681396484375,0.5264385885793704
1784903244.491465,0.0288085974752903,-0.150390625,0.9746093153953552,0.9865650475421207,0.1926422119140625,-0.0591278076171875,-0.4901885986328125,0.5299924354878646
1784903244.502104,0.0322265662252903,-0.1494140625,0.9785155653953552,0.9903816564155551,-0.17547607421875,0.247955322265625,-0.3070831298828125,0.4319418284001892
1784903244.512743,0.0302734375,-0.1455078125,0.9760741591453552,0.9873245508281022,-0.23651123046875,0.064849853515625,-0.3681182861328125,0.4423280888935264
1784903244.523431,0.02490234375,-0.14208984375,0.9814452528953552,0.9919901384852424,0.12969970703125,0.064849853515625,-0.4329681396484375,0.4566058775964442
1784903244.534121,0.0332031287252903,-0.169921875,0.9848632216453552,0.999965727767873,0.06866455078125,0.186920166015625,-0.2498626708984375,0.31950793934705374
1784903244.544811,0.0322265662252903,-0.13916015625,0.9711913466453552,0.9816398180885981,0.31280517578125,0.492095947265625,-0.3070831298828125,0.6590186249032843
1784903244.552797,0.0439453087747097,-0.1416015625,0.9682616591453552,0.9795472593176207,0.19073486328125,0.186920166015625,-0.2498626708984375,0.36571886858996877
1784903244.560783,0.0234375037252903,-0.14697265625,0.9794921278953552,0.9907346298959295,0.06866455078125,0.553131103515625,-0.3070831298828125,0.6363716578140703
1784903244.568769,0.02490234375,-0.15234375,0.9643554091453552,0.976632018744118,0.12969970703125,0.370025634765625,-0.3070831298828125,0.49803718038548095
1784903244.576755,0.0283203162252903,-0.14599609375,0.9750975966453552,0.9863732674220784,-0.17547607421875,0.492095947265625,-0.4329681396484375,0.6785364278276487
1784903244.58743,0.0209960974752903,-0.1376953125,0.9863280653953552,0.9961143949267115,0.00762939453125,0.186920166015625,-0.4329681396484375,0.47165534670440357
1784903244.598105,0.0249023474752903,-0.15673828125,0.9702147841453552,0.9831092223619929,0.06866455078125,0.186920166015625,-0.6122589111328125,0.6438283492196013
1784903244.60878,0.0380859412252903,-0.15576171875,0.9770507216453552,0.990121388827996,0.25177001953125,0.003814697265625,-0.9212493896484375,0.9550409062326142
1784903244.619446,0.0302734375,-0.15576171875,0.9794921278953552,0.9922615696755526,0.12969970703125,0.064849853515625,-0.4329681396484375,0.4566058775964442
1784903244.630113,0.02587890625,-0.1533203125,0.9785155653953552,0.9907923837690648,-0.05340576171875,-0.179290771484375,-0.1850128173828125,0.2631104306563087
1784903244.64078,0.0239257849752903,-0.14404296875,0.9819335341453552,0.9927307215515115,-0.17547607421875,-0.057220458984375,-0.4901885986328125,0.5237851618547507
1784903244.648783,0.0419921912252903,-0.158203125,0.9643554091453552,0.9781477025641743,-0.17547607421875,-0.118255615234375,-0.3681182861328125,0.4246025385499291
1784903244.656786,0.0390625,-0.150390625,0.9799804091453552,0.992222163279393,-0.2994537353515625,-0.0591278076171875,-0.6122589111328125,0.6841268972282525
1784903244.664789,0.0273437537252903,-0.1494140625,0.9794921278953552,0.9911998141391645,-0.2994537353515625,-0.1163482666015625,-0.4329681396484375,0.5391390068505717
1784903244.672792,0.0283203162252903,-0.13525390625,0.9711913466453552,0.9809731348338765,0.12969970703125,0.308990478515625,-0.1239776611328125,0.35730601768969616
1784903244.683528,0.0185546912252903,-0.15234375,0.9746093153953552,0.9866185749244393,-0.17547607421875,-0.057220458984375,-0.3070831298828125,0.3582821265542437
1784903244.694264,0.0341796875,-0.1474609375,0.9658202528953552,0.9776102188647705,-0.05340576171875,0.003814697265625,-0.3070831298828125,0.3117158577272137
1784903244.705,0.01953125,-0.1484375,0.9897460341453552,1.0010056809225765,-0.35858154296875,0.003814697265625,-0.5512237548828125,0.6576039102835268
1784903244.715578,0.0273437537252903,-0.14794921875,0.9687499403953552,0.9803637586184676,-0.35858154296875,-0.301361083984375,0.1811981201171875,0.5022270249917757
1784903244.726156,0.0239257849752903,-0.1533203125,0.9897460341453552,1.001836700025628,-0.35858154296875,-0.057220458984375,0.3032684326171875,0.473103208725451
1784903244.736734,0.0239257849752903,-0.15576171875,0.9799804091453552,0.9925702788837352,-0.05340576171875,0.125885009765625,0.1811981201171875,0.22700654132084855
1784903244.74741,0.0278320349752903,-0.150390625,0.9760741591453552,0.987984173157682,0.43487548828125,0.125885009765625,-0.0019073486328125,0.45273321500675673
1784903244.758088,0.0234375037252903,-0.14794921875,0.9819335341453552,0.9932933873678994,0.6809234619140625,0.4291534423828125,0.1811981201171875,0.8250225432241548
1784903244.768766,0.0419921912252903,-0.15576171875,0.9770507216453552,0.990279339287438,0.55694580078125,0.003814697265625,0.2384185791015625,0.6058437057392807
1784903244.776759,0.0429687537252903,-0.1474609375,0.9760741591453552,0.9880849184338337,0.12969970703125,-0.179290771484375,-0.1239776611328125,0.2536486846080952
1784903244.784752,0.0263671912252903,-0.142578125,0.9614257216453552,0.9722978806635951,0.25177001953125,-0.179290771484375,-0.1239776611328125,0.33302219735956173
1784903244.792745,0.0332031287252903,-0.15234375,0.9707030653953552,0.9831457201702858,0.06866455078125,0.003814697265625,-0.5512237548828125,0.5554970750564995
1784903244.800738,0.0239257849752903,-0.15234375,0.9829100966453552,0.9949338266629233,-0.0553131103515625,-0.2422332763671875,-0.3681182861328125,0.44412562743181755
1784903244.811415,0.0419921912252903,-0.15234375,0.9770507216453552,0.9897474803987496,0.00762939453125,-0.484466552734375,-0.4329681396484375,0.6497903187412624
1784903244.822092,0.0190429724752903,-0.15087890625,0.9785155653953552,0.9902624858454866,-0.1163482666015625,0.0667572021484375,-0.3070831298828125,0.33510221103194754
1784903244.832769,0.0273437537252903,-0.1396484375,0.9809569716453552,0.9912244686162701,-0.2994537353515625,-0.1811981201171875,-0.3070831298828125,0.4656236108796789
1784903244.840747,0.0258789099752903,-0.14599609375,0.9775390028953552,0.9887199196705876,-0.72479248046875,-0.362396240234375,-0.8563995361328125,1.1790145631706805
1784903244.848724,0.02978515625,-0.1513671875,0.9780272841453552,0.9901194622454588,0.0095367431640625,-0.7305145263671875,-0.7953643798828125,1.079975425410238
1784903244.856701,0.0400390625,-0.1572265625,0.9916991591453552,1.0048833468274065,-0.1163482666015625,-0.6046295166015625,-0.3070831298828125,0.6880507395139196
1784903244.864678,0.0229492224752903,-0.146484375,0.9887694716453552,0.9998246881274716,0.19073486328125,-0.667572021484375,-0.3681182861328125,0.7858392103509542
1784903244.87536,0.0214843787252903,-0.1513671875,0.9819335341453552,0.9937640914523221,0.92315673828125,-0.789642333984375,-0.0629425048828125,1.2164354228545347
1784903244.886042,0.0366210974752903,-0.16015625,0.9721679091453552,0.9859521148445338,0.8602142333984375,-1.0356903076171875,0.0553131103515625,1.347472627109809
1784903244.896724,0.02001953125,-0.14501953125,0.9765624403953552,0.9874743774227113,1.10626220703125,-0.667572021484375,0.1201629638671875,1.2976546583971154
1784903244.907401,0.03515625,-0.15576171875,0.9736327528953552,0.9866399609039787,0.25177001953125,-0.484466552734375,0.2384185791015625,0.5957679097718364
1784903244.918077,0.0537109375,-0.14501953125,0.9628905653953552,0.9752301113985794,0.49591064453125,-0.484466552734375,0.5435943603515625,0.8809824270005351
1784903244.928753,0.03515625,-0.1474609375,0.9658202528953552,0.9776448490660038,-0.54168701171875,-0.301361083984375,0.4253387451171875,0.751768827301911
1784903244.939404,0.0410156287252903,-0.14111328125,0.9702147841453552,0.9812807790429254,-0.7266998291015625,0.4291534423828125,0.4863739013671875,0.9740764295764459
1784903244.950056,0.0375976599752903,-0.1376953125,0.9765624403953552,0.9869385913576497,-0.90789794921875,0.797271728515625,0.2384185791015625,1.2315698575991183
1784903244.960708,0.03466796875,-0.1689453125,0.9799804091453552,0.995040697148449,-0.72479248046875,0.675201416015625,0.2384185791015625,1.018854509139728
1784903244.969031,0.03125,-0.1484375,0.9770507216453552,0.9887559691723532,-0.9670257568359375,0.7343292236328125,-0.0629425048828125,1.2158700514389726
1784903244.977357,0.0361328162252903,-0.14697265625,0.9804686903953552,0.9920813449204325,-0.84686279296875,0.675201416015625,-0.2498626708984375,1.1115326790575426
1784903244.985683,0.029296875,-0.1552734375,0.9741210341453552,0.986853553695911,-0.60272216796875,0.858306884765625,-0.0629425048828125,1.0506790561907784
1784903244.994009,0.02978515625,-0.15869140625,0.9672850966453552,0.980668433336494,-0.72479248046875,0.675201416015625,-0.4901885986328125,1.1052176048919728
1784903245.004288,0.0229492224752903,-0.15771484375,0.9707030653953552,0.9836996899050271,-0.4215240478515625,0.7343292236328125,-0.5512237548828125,1.010331410748692
1784903245.014567,0.0273437537252903,-0.1572265625,0.9863280653953552,0.99915510578183,-0.48065185546875,0.492095947265625,-0.3070831298828125,0.7533157877938237
1784903245.024846,0.0302734375,-0.1484375,0.9760741591453552,0.9877605664206426,-0.72479248046875,0.553131103515625,-0.1850128173828125,0.9303267705577338
1784903245.032867,0.02490234375,-0.15771484375,0.9750975966453552,0.9880837118619444,0.12969970703125,0.675201416015625,-0.4329681396484375,0.8125148467222775
1784903245.040886,0.0219726599752903,-0.16552734375,0.9829100966453552,0.9969926566443215,-0.35858154296875,0.370025634765625,-0.2498626708984375,0.5726526413542978
1784903245.048905,0.007812503725290298,-0.15185546875,0.9765624403953552,0.9883295597090435,-0.2994537353515625,0.2460479736328125,-0.1239776611328125,0.40691842598336503
1784903245.056924,0.0244140625,-0.15283203125,0.9809569716453552,0.9930912628975149,0.19073486328125,0.125885009765625,0.1201629638671875,0.2581975244651963
1784903245.067574,0.0288085974752903,-0.15478515625,0.9726561903953552,0.985316418516527,0.12969970703125,-0.118255615234375,0.1811981201171875,0.2522680385472074
1784903245.078224,0.029296875,-0.1611328125,0.9707030653953552,0.9844219274868196,0.0667572021484375,-0.3643035888671875,0.4863739013671875,0.6113372234956241
1784903245.088874,0.0278320349752903,-0.146484375,0.9746093153953552,0.9859490919643922,0.49591064453125,-0.423431396484375,0.5435943603515625,0.8489501419365758
1784903245.099626,0.02490234375,-0.13818359375,0.9736327528953552,0.9837050217501667,0.4329681396484375,-0.2422332763671875,1.0318756103515625,1.1449478788873408
1784903245.110378,0.0332031287252903,-0.1484375,0.9863280653953552,0.9979875709396097,0.31280517578125,-0.057220458984375,0.9136199951171875,0.9673793229131223
1784903245.12113,0.0283203162252903,-0.14599609375,0.9882811903953552,0.9994081303404628,0.5550384521484375,-0.1811981201171875,0.9746551513671875,1.1361571661455696
1784903245.129082,0.04443359375,-0.1494140625,0.9804686903953552,0.9927828358568035,0.43487548828125,-0.179290771484375,0.7266998291015625,0.8656526512773804
1784903245.137034,0.04052734375,-0.15380859375,0.9746093153953552,0.9875033502516264,0.55694580078125,-0.118255615234375,0.8525848388671875,1.0252189634456224
1784903245.144986,0.044921875,-0.142578125,0.9711913466453552,0.9826286828608505,0.43487548828125,-0.118255615234375,0.7915496826171875,0.9108523375902849
1784903245.152938,0.0424804724752903,-0.1474609375,0.9726561903953552,0.9846874546497016,0.12969970703125,-0.179290771484375,0.8525848388671875,0.8808337540135723
1784903245.163535,0.0317382849752903,-0.1328125,0.9711913466453552,0.9807441616896025,0.25177001953125,0.064849853515625,0.6694793701171875,0.7181895802977583
1784903245.174132,0.021484375,-0.15380859375,0.9746093153953552,0.9869052535759936,0.00762939453125,0.186920166015625,0.7915496826171875,0.8133561680934083
1784903245.184729,0.0278320349752903,-0.15625,0.9838866591453552,0.9966050585437916,-0.11444091796875,0.675201416015625,0.1811981201171875,0.7083970882415017
1784903245.195401,0.0258789099752903,-0.1376953125,0.9726561903953552,0.9826951621842794,0.37384033203125,0.858306884765625,0.0553131103515625,0.9378202612793516
1784903245.206072,0.0332031287252903,-0.150390625,0.9780272841453552,0.9900793687264563,0.31280517578125,0.675201416015625,0.0553131103515625,0.7461927166368002
1784903245.216743,0.02490234375,-0.13525390625,0.9711913466453552,0.9808804094684253,-0.05340576171875,0.553131103515625,-0.0629425048828125,0.5592566065609738
1784903245.225087,0.02490234375,-0.14306640625,0.9814452528953552,0.9921304892766681,0.19073486328125,0.614166259765625,0.0553131103515625,0.6454761985404097
1784903245.233429,0.0278320349752903,-0.15673828125,0.9702147841453552,0.9831877940425665,0.00762939453125,0.675201416015625,0.0553131103515625,0.6775062361537219
1784903245.241771,0.02490234375,-0.150390625,0.9707030653953552,0.9825995664461048,0.12969970703125,0.675201416015625,0.0553131103515625,0.6897669942598452
1784903245.250113,0.0356445349752903,-0.146484375,0.9750975966453552,0.9866830939953787,0.31280517578125,0.370025634765625,-0.1850128173828125,0.5186480415225418
1784903245.260318,0.03466796875,-0.14501953125,0.9848632216453552,0.9960863907567902,0.25177001953125,0.675201416015625,0.0553131103515625,0.72273413860218
1784903245.270523,0.0229492224752903,-0.14794921875,0.9702147841453552,0.9816987142271166,0.31280517578125,0.553131103515625,0.0553131103515625,0.6378562814997716
1784903245.280728,0.0380859412252903,-0.15771484375,0.9790038466453552,0.992357315992836,0.74005126953125,0.797271728515625,0.1201629638671875,1.0944209558074325
1784903245.288728,0.0371093787252903,-0.15283203125,0.9790038466453552,0.9915559830447196,0.37384033203125,0.675201416015625,0.1201629638671875,0.7810843001418524
1784903245.296729,0.0229492224752903,-0.14404296875,0.9780272841453552,0.9888439776786191,0.55694580078125,0.492095947265625,0.0553131103515625,0.7452560543195101
1784903245.30473,0.0302734375,-0.14404296875,0.9765624403953552,0.9875925566018162,0.2498626708984375,0.1239776611328125,-0.3681182861328125,0.46185808139927853
1784903245.312731,0.0253906287252903,-0.13720703125,0.9667968153953552,0.9768144837737126,0.3719329833984375,0.3719329833984375,0.1811981201171875,0.5563281828321548
1784903245.323409,0.0361328125,-0.1435546875,0.9721679091453552,0.9833737702493567,0.2498626708984375,0.4291534423828125,-0.3681182861328125,0.6181545955526644
1784903245.334087,0.0332031287252903,-0.1572265625,0.9829100966453552,0.9959592852120492,0.25177001953125,0.492095947265625,-0.1850128173828125,0.5829033424556294
1784903245.344765,0.03955078125,-0.14990234375,0.9692382216453552,0.9815588149761986,0.12969970703125,0.308990478515625,-0.6122589111328125,0.6979671224913422
1784903245.352794,0.0424804724752903,-0.14794921875,0.9765624403953552,0.988619118701126,0.06866455078125,0.186920166015625,-0.5512237548828125,0.5860900928563856
1784903245.360823,0.02978515625,-0.15625,0.9780272841453552,0.9908776849670076,0.12969970703125,0.492095947265625,-0.7381439208984375,0.8965695083363941
1784903245.368852,0.0273437537252903,-0.14892578125,0.9550780653953552,0.9670060393751668,0.3719329833984375,0.6122589111328125,-0.3681182861328125,0.8054229888614794
1784903245.376881,0.0244140625,-0.1591796875,0.9721679091453552,0.9854159847152892,-0.2384185791015625,0.4291534423828125,-0.4901885986328125,0.6937585734240886
1784903245.38647,0.0205078162252903,-0.1572265625,0.9716796278953552,0.984531391956982,-0.1163482666015625,0.4291534423828125,-0.6732940673828125,0.8068670878298962
1784903245.396057,0.0278320349752903,-0.146484375,0.9838866591453552,0.9951207224926103,-0.23651123046875,0.370025634765625,-0.6122589111328125,0.753470309158286
1784903245.405644,0.0219726599752903,-0.1435546875,0.9653319716453552,0.9761949403527562,-0.41961669921875,0.186920166015625,-0.6732940673828125,0.8150719133300073
1784903245.415231,0.0278320349752903,-0.1513671875,0.9746093153953552,0.9866863560817738,-0.48065185546875,-0.118255615234375,-0.4901885986328125,0.696631508711466
1784903245.424818,0.01953125,-0.14990234375,0.9794921278953552,0.991088800762715,0.00762939453125,0.064849853515625,-0.2498626708984375,0.2582538779387686
1784903245.434408,0.01171875,-0.15478515625,0.9736327528953552,0.9859292627807977,0.06866455078125,-0.179290771484375,-0.7381439208984375,0.7627033822088191
1784903245.443998,0.0190429724752903,-0.14306640625,0.9794921278953552,0.990068411781204,-0.17547607421875,-0.301361083984375,-0.5512237548828125,0.6522714032598461
1784903245.453588,0.0190429724752903,-0.154296875,0.9838866591453552,0.9960939305505624,-0.17547607421875,0.064849853515625,-0.4901885986328125,0.5246734397259145
1784903245.463178,0.0239257849752903,-0.1494140625,0.9790038466453552,0.990628859364515,-0.23651123046875,-0.484466552734375,-0.4329681396484375,0.6914526829847434
1784903245.472768,0.0180664099752903,-0.1396484375,0.9809569716453552,0.9910119381143766,-0.05340576171875,-0.667572021484375,-0.4329681396484375,0.7974747577222263
1784903245.482355,0.0375976599752903,-0.1513671875,0.9692382216453552,0.9817068502284826,0.37384033203125,-0.301361083984375,-0.3681182861328125,0.6050505510937346
1784903245.491942,0.0239257849752903,-0.14990234375,0.9882811903953552,0.9998714253031173,0.19073486328125,-0.789642333984375,-0.4329681396484375,0.9205303979998908
1784903245.501529,0.02490234375,-0.14599609375,0.9697265028953552,0.9809711904700145,0.43487548828125,-0.606536865234375,-0.0629425048828125,0.748976246697531
1784903245.511116,0.0268554724752903,-0.14013671875,0.9702147841453552,0.9806509285765787,0.25177001953125,-0.118255615234375,0.3032684326171875,0.4115146115161795
1784903245.520703,0.02978515625,-0.15185546875,0.9736327528953552,0.9858539326049813,0.12969970703125,-0.667572021484375,-0.3070831298828125,0.7461732148310815
1784903245.528729,0.03857421875,-0.1396484375,0.9702147841453552,0.9809721626134874,0.37384033203125,-0.301361083984375,-0.1850128173828125,0.5145919153945179
1784903245.536756,0.0253906287252903,-0.1513671875,0.9755858778953552,0.9875851936048741,0.06866455078125,0.003814697265625,0.1811981201171875,0.19380952294255804
1784903245.544783,0.0253906287252903,-0.13671875,0.9790038466453552,0.9888302343552356,0.12969970703125,-0.484466552734375,0.0553131103515625,0.5045685234921865
1784903245.55281,0.0234375037252903,-0.1396484375,0.9707030653953552,0.9809767804820885,0.0095367431640625,-0.2422332763671875,-0.3070831298828125,0.39123900407344847
1784903245.563482,0.0371093787252903,-0.15087890625,0.9833983778953552,0.9955972679692272,0.19073486328125,0.003814697265625,0.1201629638671875,0.22546280817796205
1784903245.574154,0.0415039099752903,-0.1484375,0.9838866591453552,0.9958861501164153,0.2498626708984375,0.2460479736328125,0.0553131103515625,0.3550077461325009
1784903245.584826,0.0278320349752903,-0.14892578125,0.9765624403953552,0.9882447624362704,0.19073486328125,0.492095947265625,0.0553131103515625,0.5306578460391724
1784903245.595486,0.0415039099752903,-0.146484375,0.9833983778953552,0.9951143734815578,0.0095367431640625,0.2460479736328125,-0.3070831298828125,0.3936122501366221
1784903245.606145,0.0283203162252903,-0.162109375,0.9663085341453552,0.9802212367298192,0.0095367431640625,0.2460479736328125,-0.0629425048828125,0.25415017946071444
1784903245.616804,0.0278320349752903,-0.1513671875,0.9785155653953552,0.990544980979419,0.19073486328125,0.370025634765625,-0.2498626708984375,0.48552045555581047
1784903245.627476,0.0283203162252903,-0.16015625,0.9804686903953552,0.993866649792992,0.3719329833984375,0.5550384521484375,-0.3070831298828125,0.7353243339925724
1784903245.638146,0.03955078125,-0.14501953125,0.9682616591453552,0.9798599743393803,0.12969970703125,0.614166259765625,-0.0019073486328125,0.627714781263988
1784903245.648816,0.0185546912252903,-0.14501953125,0.9692382216453552,0.980202872526237,0.3719329833984375,0.4291534423828125,-0.1239776611328125,0.5812721236294089
1784903245.656799,0.01953125,-0.150390625,0.9746093153953552,0.9863377349923586,0.19073486328125,0.186920166015625,0.0553131103515625,0.2727241769828815
1784903245.664782,0.0244140625,-0.15087890625,0.9672850966453552,0.9792859383199395,0.43487548828125,0.125885009765625,-0.0629425048828125,0.45708367386340765
1784903245.672765,0.0366210974752903,-0.142578125,0.9770507216453552,0.9880778001637927,0.2498626708984375,0.4291534423828125,0.5435943603515625,0.7362736312156937
1784903245.680748,0.029296875,-0.1474609375,0.9750975966453552,0.9866196622593189,0.49591064453125,0.370025634765625,0.2384185791015625,0.6630910620751207
1784903245.691411,0.0444335900247097,-0.15185546875,0.9785155653953552,0.9912250698165165,0.4978179931640625,0.2460479736328125,0.1811981201171875,0.5841190960589377
1784903245.702074,0.0224609412252903,-0.15087890625,0.9765624403953552,0.9884043394395099,0.1926422119140625,0.4291534423828125,0.3643035888671875,0.5949796666959917
1784903245.712737,0.0327148474752903,-0.15087890625,0.9697265028953552,0.9819389981125015,0.12969970703125,0.370025634765625,0.4863739013671875,0.6247403911376584
1784903245.723409,0.0312500037252903,-0.15087890625,0.9731444716453552,0.985267055055605,0.49591064453125,0.492095947265625,0.5435943603515625,0.8852008909172409
1784903245.734082,0.0244140625,-0.150390625,0.9824218153953552,0.9941659870968982,0.31280517578125,0.247955322265625,0.1811981201171875,0.43836249676425487
1784903245.744755,0.03955078125,-0.15478515625,0.9682616591453552,0.981352815996234,0.31280517578125,0.308990478515625,0.4863739013671875,0.6556536934540919
1784903245.75541,0.0268554724752903,-0.1416015625,0.9819335341453552,0.9924543739555486,0.2498626708984375,0.7343292236328125,0.3032684326171875,0.8328520308024443
1784903245.766067,0.0268554724752903,-0.1416015625,0.9697265028953552,0.9803783500883564,0.25177001953125,0.492095947265625,0.1811981201171875,0.5817038101852363
1784903245.776724,0.02197265625,-0.154296875,0.9770507216453552,0.9894030705052191,0.31280517578125,0.431060791015625,0.2384185791015625,0.5835271222551383
1784903245.787399,0.0332031287252903,-0.130859375,0.9658202528953552,0.9752104309765082,0.49591064453125,0.431060791015625,0.1811981201171875,0.6815963113488943
1784903245.798075,0.0258789099752903,-0.14599609375,0.9658202528953552,0.9771352712263619,-0.0553131103515625,0.2460479736328125,-0.2498626708984375,0.3550077461325009
1784903245.808751,0.0214843787252903,-0.15576171875,0.9760741591453552,0.9886577040151349,0.2498626708984375,0.2460479736328125,0.2384185791015625,0.42404525524774134
1784903245.81674,0.0161132849752903,-0.14599609375,0.9746093153953552,0.9856154498577814,-0.23651123046875,0.003814697265625,0.0553131103515625,0.24292314469773085
1784903245.824728,0.0205078125,-0.13818359375,0.9726561903953552,0.9826369322743806,-0.0553131103515625,0.2460479736328125,0.2384185791015625,0.34704836027041724
1784903245.832716,0.0385742150247097,-0.1513671875,0.9711913466453552,0.9836730286610745,-0.1163482666015625,-0.0591278076171875,0.0553131103515625,0.14174821674916244
1784903245.840704,0.03955078125,-0.14111328125,0.9731444716453552,0.9841175667249034,0.12969970703125,0.308990478515625,0.2384185791015625,0.41126700412033423
1784903245.851583,0.0234375037252903,-0.1435546875,0.9755858778953552,0.9863696416825422,0.12969970703125,0.125885009765625,0.1811981201171875,0.25593321086112736
1784903245.862462,0.0317382849752903,-0.14697265625,0.9716796278953552,0.9832444150287402,0.31280517578125,0.431060791015625,0.1201629638671875,0.545985001105252
1784903245.873341,0.0322265662252903,-0.14697265625,0.9819335341453552,0.9933946742030788,0.49591064453125,0.370025634765625,0.0553131103515625,0.6212132306381342
1784903245.881225,0.0317382849752903,-0.1513671875,0.9799804091453552,0.992109342004968,0.0667572021484375,0.2460479736328125,-0.1239776611328125,0.2834900171566241
1784903245.889107,0.0239257849752903,-0.15771484375,0.9707030653953552,0.9837229570838072,0.12969970703125,0.125885009765625,0.0553131103515625,0.1890200779400107
1784903245.896989,0.029296875,-0.15234375,0.9770507216453552,0.9892901686141117,0.31280517578125,0.308990478515625,-0.1239776611328125,0.45682891137581927
1784903245.904871,0.0268554724752903,-0.146484375,0.9819335341453552,0.9931628033712293,0.12969970703125,0.125885009765625,-0.2498626708984375,0.308383533925183
1784903245.915488,0.0224609412252903,-0.14453125,0.9746093153953552,0.9855237662089593,0.25177001953125,0.308990478515625,-0.2498626708984375,0.4704196135968204
1784903245.926105,0.029296875,-0.1455078125,0.9804686903953552,0.9916398959445327,0.19073486328125,0.308990478515625,-0.6122589111328125,0.7118397840425675
1784903245.936722,0.0332031287252903,-0.1572265625,0.9794921278953552,0.9925862523336123,0.12969970703125,-0.118255615234375,-0.6732940673828125,0.6957954481823978
1784903245.947399,0.0273437537252903,-0.1455078125,0.9804686903953552,0.9915841150461757,0.25177001953125,-0.423431396484375,-0.4901885986328125,0.6949583818424485
1784903245.958077,0.0229492224752903,-0.15234375,0.9833983778953552,0.9953932160827191,0.55694580078125,-0.484466552734375,-0.2498626708984375,0.7793124020793571
1784903245.968755,0.0302734375,-0.14892578125,0.9741210341453552,0.9859042339413122,0.49591064453125,-0.545501708984375,-0.1239776611328125,0.7475760445093436
1784903245.979402,0.0332031287252903,-0.15869140625,0.9726561903953552,0.9860757957120518,0.49591064453125,-0.850677490234375,-0.0629425048828125,0.9866819744333926
1784903245.99005,0.0327148474752903,-0.14404296875,0.9819335341453552,0.9929814215637836,0.43487548828125,-0.545501708984375,-0.1239776611328125,0.7085614054354724
1784903246.000698,0.0375976599752903,-0.14306640625,0.9760741591453552,0.9872195018253134,0.61798095703125,-0.484466552734375,0.1201629638671875,0.7943849456384074
1784903246.00871,0.0380859412252903,-0.14990234375,0.9819335341453552,0.9940395953179868,0.31280517578125,-0.118255615234375,0.3643035888671875,0.49451852684354713
1784903246.016725,0.0288085974752903,-0.1279296875,0.9780272841453552,0.9867792604048183,0.12969970703125,0.431060791015625,0.3032684326171875,0.54277726718894
1784903246.02474,0.0424804724752903,-0.1435546875,0.9711913466453552,0.98266228717895,0.19073486328125,0.675201416015625,0.4253387451171875,0.8204814369370498
1784903246.032755,0.0351562537252903,-0.16650390625,0.9643554091453552,0.9792552619824982,-0.17547607421875,0.797271728515625,0.1811981201171875,0.8362217531537429
1784903246.043415,0.041015625,-0.1533203125,0.9711913466453552,0.9840742002095456,-0.2994537353515625,0.9784698486328125,0.0553131103515625,1.024761106051692
1784903246.054075,0.0390625,-0.15087890625,0.9731444716453552,0.9855457807485981,-0.4787445068359375,0.9174346923828125,-0.2498626708984375,1.0645722483334006
1784903246.064735,0.03857421875,-0.150390625,0.9829100966453552,0.9950967633991405,-0.17547607421875,0.614166259765625,-0.3070831298828125,0.708725684532701
1784903246.072728,0.0190429724752903,-0.1513671875,0.9746093153953552,0.9864775607725489,-0.2384185791015625,0.6122589111328125,-0.2498626708984375,0.7029478980912071
1784903246.080722,0.029296875,-0.16015625,0.9667968153953552,0.9804103291772424,-0.6046295166015625,0.4291534423828125,-0.6122589111328125,0.9615666922873287
1784903246.088716,0.0361328125,-0.150390625,0.9775390028953552,0.9896996627304144,-0.6046295166015625,-0.0591278076171875,-0.9212493896484375,1.103527701467921
1784903246.09671,0.03076171875,-0.14794921875,0.9799804091453552,0.9915628356175352,-0.7266998291015625,0.4291534423828125,-0.7953643798828125,1.1596852225977656
1784903246.1074,0.0288085974752903,-0.14501953125,0.9638671278953552,0.975141241036243,-0.66375732421875,0.431060791015625,-0.7953643798828125,1.1220479881856311
1784903246.11809,0.0268554724752903,-0.15673828125,0.9746093153953552,0.9874975558787364,-0.6046295166015625,0.1239776611328125,-0.6122589111328125,0.8693723523711453
1784903246.12878,0.0175781287252903,-0.15234375,0.9916991591453552,1.0034863382344326,-0.5435943603515625,-0.2422332763671875,-0.4901885986328125,0.7710101497485018
1784903246.139411,0.0234375037252903,-0.14501953125,0.9755858778953552,0.9865838971794004,-0.35858154296875,-0.179290771484375,-0.3070831298828125,0.5050009429257891
1784903246.150043,0.01123046875,-0.14013671875,0.9770507216453552,0.9871132336454976,-0.2384185791015625,-0.5474090576171875,-0.2498626708984375,0.6472491402316779
1784903246.160675,0.0263671875,-0.15478515625,0.9746093153953552,0.987176271406176,0.12969970703125,-0.423431396484375,-0.0629425048828125,0.44730070473186484
1784903246.168792,0.005859375,-0.13818359375,0.9741210341453552,0.9838906580618966,0.1926422119140625,-0.5474090576171875,0.3032684326171875,0.6547819792836127
1784903246.176908,0.03564453125,-0.1552734375,0.9707030653953552,0.9836893890700651,0.2498626708984375,-0.5474090576171875,0.5435943603515625,0.8109148286200362
1784903246.185024,0.0336914025247097,-0.142578125,0.9785155653953552,0.9894222273901013,0.61798095703125,-0.545501708984375,0.5435943603515625,0.9874043783395726
1784903246.19314,0.0410156287252903,-0.1416015625,0.9814452528953552,0.9924555751936708,0.61798095703125,-0.484466552734375,0.7915496826171875,1.1149704946871728
1784903246.203678,0.012695316225290298,-0.1533203125,0.9619140028953552,0.9741390240850242,0.80108642578125,-0.240325927734375,0.8525848388671875,1.1943186009514188
1784903246.214216,0.0283203162252903,-0.1484375,0.9921874403953552,1.0036292386113694,0.19073486328125,-0.301361083984375,0.6084442138671875,0.7052677877229432
1784903246.224754,0.0380859412252903,-0.15576171875,0.9770507216453552,0.990121388827996,0.06866455078125,0.003814697265625,0.4253387451171875,0.4308624148693908
1784903246.235405,0.0439453125,-0.150390625,0.9824218153953552,0.9948372499777633,0.19073486328125,-0.179290771484375,0.3032684326171875,0.400620407658503
1784903246.246055,0.0380859412252903,-0.14404296875,0.9682616591453552,0.979657877187871,0.06866455078125,-0.301361083984375,0.1811981201171875,0.3582821265542437
1784903246.256705,0.0341796875,-0.13330078125,0.9760741591453552,0.9857272003301777,0.2498626708984375,-0.2422332763671875,0.1811981201171875,0.39235325055628867
1784903246.264719,0.02685546875,-0.13427734375,0.9897460341453552,0.9991740756008417,-0.17547607421875,-0.057220458984375,-0.1239776611328125,0.22234318970809358
1784903246.272736,0.0375976599752903,-0.1484375,0.9848632216453552,0.9966959620624213,-0.05340576171875,0.370025634765625,-0.1239776611328125,0.3938801927343213
1784903246.280753,0.0302734412252903,-0.13720703125,0.9799804091453552,0.9900019459459448,0.06866455078125,0.553131103515625,-0.3070831298828125,0.6363716578140703
1784903246.28877,0.0327148474752903,-0.14208984375,0.9799804091453552,0.9907680794469151,0.12969970703125,0.308990478515625,-0.2498626708984375,0.41800536375243785
1784903246.299462,0.0302734412252903,-0.1318359375,0.9726561903953552,0.9820169348715584,-0.05340576171875,0.370025634765625,-0.3681182861328125,0.5246734397259145
1784903246.310154,0.0322265662252903,-0.13916015625,0.9838866591453552,0.9942017193217912,-0.1163482666015625,0.4901885986328125,-0.3681182861328125,0.6239654268917053
1784903246.320846,0.0302734375,-0.1455078125,0.9736327528953552,0.9849110325441529,0.37384033203125,0.186920166015625,-0.5512237548828125,0.6917682923231239
1784903246.331504,0.029296875,-0.14794921875,0.9726561903953552,0.9842801140569215,-0.1163482666015625,0.2460479736328125,-0.1850128173828125,0.32909917512191883
1784903246.342163,0.03076171875,-0.154296875,0.9814452528953552,0.9939761533387245,0.06866455078125,0.370025634765625,-0.0019073486328125,0.3763474842436198
1784903246.352822,0.0175781287252903,-0.14697265625,0.9716796278953552,0.9828892366698903,-0.17547607421875,0.003814697265625,0.2384185791015625,0.29605712860740346
1784903246.360803,0.0234375037252903,-0.14599609375,0.9731444716453552,0.9843141463298439,0.00762939453125,0.125885009765625,-0.3681182861328125,0.38912249476220745
1784903246.368784,0.0317382849752903,-0.15234375,0.9912108778953552,1.0033518532176617,0.12969970703125,0.186920166015625,-0.0629425048828125,0.23605702994874728
1784903246.376765,0.03515625,-0.1455078125,0.9770507216453552,0.988451616458948,0.19073486328125,0.125885009765625,0.1201629638671875,0.2581975244651963
1784903246.384746,0.02490234375,-0.13720703125,0.9594725966453552,0.9695532785061697,0.31280517578125,0.064849853515625,0.0553131103515625,0.32420999625751956
1784903246.395434,0.0258789099752903,-0.142578125,0.9716796278953552,0.9824253350646454,0.25177001953125,0.003814697265625,0.2384185791015625,0.3467652138130386
1784903246.406122,0.0278320349752903,-0.142578125,0.9760741591453552,0.9868251658985464,0.3719329833984375,0.4291534423828125,0.1811981201171875,0.5961036654665722
1784903246.41681,0.03173828125,-0.15869140625,0.9736327528953552,0.9869908907507173,0.12969970703125,0.064849853515625,0.1201629638671875,0.18832592861934097
1784903246.427475,0.0288085974752903,-0.14306640625,0.9721679091453552,0.9830607180931578,0.6160736083984375,0.2460479736328125,0.2384185791015625,0.7049324188563699
1784903246.43814,0.0302734375,-0.134765625,0.9814452528953552,0.9911170663097951,0.12969970703125,0.125885009765625,0.0553131103515625,0.1890200779400107
1784903246.448805,0.0273437537252903,-0.146484375,0.9692382216453552,0.98062637292966,-0.05340576171875,0.614166259765625,-0.0019073486328125,0.6164868271083042
1784903246.456777,0.0390625,-0.150390625,0.9819335341453552,0.9941512382295402,0.00762939453125,0.308990478515625,0.3032684326171875,0.43301855121497274
1784903246.464748,0.0146484375,-0.13818359375,0.9819335341453552,0.9917170704298903,-0.05340576171875,0.614166259765625,-0.0019073486328125,0.6164868271083042
1784903246.472719,0.0263671912252903,-0.1552734375,0.9814452528953552,0.994001938427187,0.00762939453125,0.553131103515625,-0.0629425048828125,0.5567530729670465
1784903246.48069,0.0390625,-0.1552734375,0.9809569716453552,0.9939377744702848,0.12969970703125,0.919342041015625,-0.3070831298828125,0.9779119853245442
1784903246.4887,0.02978515625,-0.138671875,0.9770507216453552,0.9872918297628933,0.19073486328125,0.797271728515625,-0.4329681396484375,0.9270832794910274
1784903246.49671,0.0307617224752903,-0.142578125,0.9760741591453552,0.9869121386676094,0.19073486328125,0.492095947265625,-0.3070831298828125,0.6106048296933084
1784903246.50472,0.03955078125,-0.15625,0.9736327528953552,0.986883511012355,0.19073486328125,0.553131103515625,-0.3070831298828125,0.6607827588594867
1784903246.51273,0.012695316225290298,-0.1474609375,0.9653319716453552,0.976612366613872,0.06866455078125,0.675201416015625,-0.6122589111328125,0.9140419831632643
1784903246.523852,0.0190429724752903,-0.1455078125,0.9731444716453552,0.9841470017193302,-0.2994537353515625,0.6732940673828125,-0.6732940673828125,0.9981594772188391
1784903246.534974,0.0239257849752903,-0.1552734375,0.9824218153953552,0.9949044712656867,0.06866455078125,0.492095947265625,-0.6122589111328125,0.7885012467401563
1784903246.546096,0.0273437537252903,-0.13232421875,0.9750975966453552,0.9844149037469593,0.0667572021484375,0.2460479736328125,-0.6732940673828125,0.7199451580088526
1784903246.556296,0.0219726599752903,-0.1552734375,0.9736327528953552,0.9861812083436005,0.12969970703125,0.125885009765625,-0.2498626708984375,0.308383533925183
1784903246.566495,0.0209960974752903,-0.14794921875,0.9799804091453552,0.9913079288226363,0.2498626708984375,-0.0591278076171875,0.0553131103515625,0.2626537494856682
1784903246.576694,0.0205078125,-0.13427734375,0.9726561903953552,0.9820952296658896,0.49591064453125,0.064849853515625,-0.2498626708984375,0.5590744361611418
1784903246.584713,0.0205078162252903,-0.15234375,0.9794921278953552,0.9914807195802466,0.31280517578125,-0.240325927734375,-0.3070831298828125,0.4999036689158733
1784903246.592732,0.011230472475290298,-0.15283203125,0.9868163466453552,0.998644208562041,0.3719329833984375,-0.4215240478515625,-0.2498626708984375,0.6151812914623864
1784903246.600751,0.0283203162252903,-0.150390625,0.9765624403953552,0.9884804400644065,0.37384033203125,-0.301361083984375,0.1811981201171875,0.5132327498586537
1784903246.60877,0.02099609375,-0.134765625,0.9799804091453552,0.9894262033841116,0.423431396484375,-0.308990478515625,0.0743865966796875,0.5294361426155277
1784903246.619432,0.0278320349752903,-0.1640625,0.9741210341453552,0.9882322172655231,0.3643035888671875,-0.3108978271484375,0.1964569091796875,0.5176580733955267
1784903246.630094,0.0170898474752903,-0.14990234375,0.9658202528953552,0.9775333940338405,0.3643035888671875,-0.3719329833984375,0.1964569091796875,0.5564589528128837
1784903246.640756,0.0278320349752903,-0.1376953125,0.9750975966453552,0.9851649325056624,0.423431396484375,-0.431060791015625,0.4405975341796875,0.7478193232358638
1784903246.651474,0.0361328125,-0.14013671875,0.9809569716453552,0.9915747376273777,0.5474090576171875,0.0591278076171875,0.1354217529296875,0.5670024913186024
1784903246.662191,0.0258789099752903,-0.142578125,0.9638671278953552,0.974698968885915,0.2422332763671875,-0.3719329833984375,0.2574920654296875,0.5131405928968114
1784903246.672908,0.0307617224752903,-0.1376953125,0.9746093153953552,0.9847688055119955,0.3643035888671875,0.0591278076171875,-0.0476837158203125,0.37213833348576203
1784903246.680939,0.0375976599752903,-0.1376953125,0.9746093153953552,0.9850060409842638,0.1811981201171875,-0.0667572021484375,0.0743865966796875,0.20693633933718977
1784903246.68897,0.03466796875,-0.14306640625,0.9863280653953552,0.9972526847500012,0.1811981201171875,0.1163482666015625,-0.1697540283203125,0.2742008534015976
1784903246.697001,0.0400390625,-0.13232421875,0.9653319716453552,0.9751813374313444,0.179290771484375,-0.125885009765625,-0.1087188720703125,0.2445649393666125
1784903246.705032,0.0341796875,-0.14453125,0.9770507216453552,0.988274074299164,-0.1850128173828125,-0.0667572021484375,-0.2918243408203125,0.3519200371246616
1784903246.715604,0.0380859412252903,-0.14453125,0.9726561903953552,0.9840731100177386,0.0591278076171875,-0.0667572021484375,-0.5970001220703125,0.603623862537152
1784903246.726176,0.029296875,-0.15380859375,0.9687499403953552,0.9813214750590769,-0.1239776611328125,-0.1888275146484375,-0.4138946533203125,0.4715242038277675
1784903246.736748,0.0234375037252903,-0.15380859375,0.9677733778953552,0.9801998322052557,0.244140625,0.057220458984375,-0.4749298095703125,0.5370634503671484
1784903246.744841,0.0219726599752903,-0.12890625,0.9765624403953552,0.9852785489730221,0.0591278076171875,0.1163482666015625,-0.7801055908203125,0.790947374737354
1784903246.752934,0.0229492224752903,-0.14990234375,0.9790038466453552,0.9906795199358699,0.118255615234375,-0.003814697265625,-0.5359649658203125,0.5488691893670637
1784903246.761027,0.0268554724752903,-0.14111328125,0.9794921278953552,0.9899691930337952,0.179290771484375,-0.308990478515625,-0.4749298095703125,0.5942883311754241
1784903246.76912,0.0214843787252903,-0.15673828125,0.9731444716453552,0.9859201945554891,-0.125885009765625,-0.125885009765625,-0.4138946533203125,0.4505583818047609
1784903246.779657,0.0268554724752903,-0.14697265625,0.9843749403953552,0.9956486334874421,0.179290771484375,-0.308990478515625,-0.4138946533203125,0.5467440723043269
1784903246.790194,0.008300784975290298,-0.1416015625,0.9741210341453552,0.9843940748999171,-0.1239776611328125,-0.1888275146484375,-0.1697540283203125,0.2825645428556843
1784903246.800731,0.0424804724752903,-0.13330078125,0.9780272841453552,0.9879833284809636,0.179290771484375,-0.308990478515625,-0.4138946533203125,0.5467440723043269
1784903246.811411,0.0366210974752903,-0.14013671875,0.9760741591453552,0.9867624683142461,0.118255615234375,-0.431060791015625,-0.5359649658203125,0.6978941471829705
1784903246.82209,0.0224609412252903,-0.1513671875,0.9750975966453552,0.987031834499746,0.118255615234375,0.057220458984375,0.0133514404296875,0.13204859871422558
1784903246.832769,0.012207034975290298,-0.1533203125,0.9677733778953552,0.9799190991561353,0.118255615234375,-0.247955322265625,0.1964569091796875,0.33772999502375634
1784903246.843437,0.02978515625,-0.158203125,0.9731444716453552,0.9863698834547414,0.244140625,-0.308990478515625,0.1964569091796875,0.44008530735885915
1784903246.854103,0.0239257849752903,-0.14501953125,0.9750975966453552,0.986112787978232,0.244140625,-0.431060791015625,0.1964569091796875,0.5329290454561872
1784903246.864769,0.0244140625,-0.14501953125,0.9638671278953552,0.9750213080384268,-0.003814697265625,-0.247955322265625,0.2574920654296875,0.35748924111688285
1784903246.872763,0.0239257849752903,-0.14453125,0.9755858778953552,0.98652396350119,-0.186920166015625,-0.125885009765625,0.0743865966796875,0.23731740330744142
1784903246.880757,0.04052734375,-0.14013671875,0.9882811903953552,0.9989897280866844,-0.064849853515625,-0.064849853515625,0.1354217529296875,0.16355445016429657
1784903246.888751,0.0380859412252903,-0.158203125,0.9829100966453552,0.9962886257336091,0.1811981201171875,-0.0667572021484375,-0.0476837158203125,0.1989045487843915
1784903246.896745,0.0234375037252903,-0.146484375,0.9687499403953552,0.980042568318345,0.2422332763671875,-0.2460479736328125,0.1354217529296875,0.3708849102820776
1784903246.907404,0.0185546912252903,-0.15625,0.9785155653953552,0.9910857938581592,0.118255615234375,0.301361083984375,0.0133514404296875,0.3240079542792824
1784903246.918063,0.0332031287252903,-0.14990234375,0.9877929091453552,0.9996539360082245,0.2422332763671875,0.1163482666015625,-0.1697540283203125,0.31785265368051274
1784903246.928722,0.0209960974752903,-0.142578125,0.9755858778953552,0.9861729883679426,0.2422332763671875,-0.0057220458984375,-0.0476837158203125,0.24694825114440147
1784903246.936743,0.02587890625,-0.14892578125,0.9726561903953552,0.9843315858104039,0.1811981201171875,0.1163482666015625,-0.0476837158203125,0.22055252124975425
1784903246.944765,0.0229492224752903,-0.1328125,0.9873046278953552,0.9964618684285196,0.179290771484375,0.057220458984375,0.1354217529296875,0.2318586052584511
1784903246.952787,0.0332031287252903,-0.138671875,0.9746093153953552,0.9849851036074438,0.118255615234375,0.301361083984375,-0.0476837158203125,0.3272256564347154
1784903246.960809,0.0205078162252903,-0.14208984375,0.9760741591453552,0.9865753181458281,0.3643035888671875,0.1163482666015625,-0.1087188720703125,0.39758498103794365
1784903246.971447,0.03125,-0.1484375,0.9829100966453552,0.9945463850387429,0.2422332763671875,0.1163482666015625,-0.0476837158203125,0.2729241947413289
1784903246.982085,0.0234375037252903,-0.13720703125,0.9824218153953552,0.9922336969535034,0.2422332763671875,0.4825592041015625,0.1354217529296875,0.5566681208846659
1784903246.992723,0.03076171875,-0.1337890625,0.9711913466453552,0.9808457719661647,0.301361083984375,0.667572021484375,0.0743865966796875,0.7362093945166408
1784903247.003405,0.0336914025247097,-0.15673828125,0.9760741591453552,0.9891525481767706,0.301361083984375,0.484466552734375,-0.2307891845703125,0.6154591711666959
1784903247.014088,0.03466796875,-0.13525390625,0.9838866591453552,0.9937446579767577,0.1201629638671875,0.4215240478515625,-0.2307891845703125,0.49536381429929166
1784903247.024771,0.02978515625,-0.13037109375,0.9726561903953552,0.9818064179525482,0.301361083984375,-0.125885009765625,-0.0476837158203125,0.3300595027845151
1784903247.035474,0.0234375037252903,-0.15234375,1.0009765625,1.0127744138845787,0.1811981201171875,0.1163482666015625,-0.2307891845703125,0.31564747043152547
1784903247.046177,0.0273437537252903,-0.15380859375,0.9785155653953552,0.9909074003660148,0.3643035888671875,0.1773834228515625,-0.1087188720703125,0.4195256567938247
1784903247.05688,0.0239257849752903,-0.13623046875,0.9819335341453552,0.9916272733652075,0.179290771484375,0.179290771484375,-0.4749298095703125,0.5383759703937556
1784903247.06488,0.0307617224752903,-0.14599609375,0.9785155653953552,0.9898251636935168,0.2422332763671875,-0.5550384521484375,-0.1697540283203125,0.6289364623504421
1784903247.072881,0.02490234375,-0.1552734375,0.9702147841453552,0.9828767443029303,-0.0019073486328125,-0.1888275146484375,-0.2918243408203125,0.34759302950767423
1784903247.080882,0.0263671875,-0.1484375,0.9804686903953552,0.9919918209483852,0.423431396484375,-0.614166259765625,-0.1087188720703125,0.7538661255869281
1784903247.088883,0.0229492224752903,-0.154296875,0.9682616591453552,0.9807470790259342,0.4863739013671875,-0.8602142333984375,0.0743865966796875,0.9909901437642993
1784903247.099514,0.0239257849752903,-0.146484375,0.9765624403953552,0.987777462436128,0.606536865234375,-0.736236572265625,-0.1087188720703125,0.9600786698880568
1784903247.110145,0.0312500037252903,-0.140625,0.9804686903953552,0.9909948567996776,0.789642333984375,-0.919342041015625,0.3185272216796875,1.2530699880493696
1784903247.120776,0.0205078125,-0.14306640625,0.9804686903953552,0.99106378191134,1.0356903076171875,-0.9174346923828125,0.5626678466796875,1.4936317932365013
1784903247.128757,0.03125,-0.14404296875,0.9692382216453552,0.9803813898909772,0.606536865234375,-0.675201416015625,0.6847381591796875,1.1369477858347914
1784903247.136738,0.03564453125,-0.12890625,0.9804686903953552,0.9895484863020496,0.301361083984375,-0.675201416015625,0.5626678466796875,0.9291450698448004
1784903247.144719,0.0302734375,-0.1484375,0.9726561903953552,0.9843831759730161,0.179290771484375,-0.125885009765625,0.5016326904296875,0.5473824737154822
1784903247.1527,0.0375976599752903,-0.138671875,0.9824218153953552,0.9928726485891021,-0.0019073486328125,0.4215240478515625,0.8678436279296875,0.9647998359422204
1784903247.163388,0.0322265662252903,-0.14306640625,0.9780272841453552,0.988961028908977,0.2422332763671875,0.4215240478515625,0.4405975341796875,0.6561140679957789
1784903247.174076,0.03955078125,-0.15576171875,0.9838866591453552,0.99692473906993,-0.0019073486328125,0.9708404541015625,0.1964569091796875,0.9905201373335987
1784903247.184764,0.0302734412252903,-0.15185546875,0.9667968153953552,0.9791183007642661,-0.2460479736328125,0.9098052978515625,0.1354217529296875,0.9521682290930175
1784903247.19275,0.0239257849752903,-0.14208984375,0.9765624403953552,0.9871353336166804,-0.492095947265625,1.033782958984375,-0.5359649658203125,1.2641693210122256
1784903247.200736,0.0375976599752903,-0.14697265625,0.9868163466453552,0.9984092586345963,-0.492095947265625,0.667572021484375,-0.6580352783203125,1.0586884587536027
1784903247.208722,0.0185546912252903,-0.14208984375,0.9775390028953552,0.9879859829192976,-0.4291534423828125,0.1773834228515625,-0.9632110595703125,1.0693049616877863
1784903247.216708,0.0273437537252903,-0.1435546875,0.9780272841453552,0.9888847241735264,-0.3070831298828125,0.1163482666015625,-0.8411407470703125,0.9029699464444074
1784903247.227496,0.0229492224752903,-0.14013671875,0.9780272841453552,0.9882825179507003,-0.6122589111328125,0.1773834228515625,-1.0852813720703125,1.2586347800402202
1784903247.238284,0.03076171875,-0.1435546875,0.9638671278953552,0.9749841392971056,-0.6122589111328125,0.1163482666015625,-0.7190704345703125,0.951556715743136
1784903247.249072,0.0278320349752903,-0.15283203125,0.9829100966453552,0.9951103004362121,-0.492095947265625,0.240325927734375,-0.7801055908203125,0.9531420175848664
1784903247.259653,0.0,-0.13623046875,0.9799804091453552,0.9894040342168322,-0.3070831298828125,0.1163482666015625,-0.5970001220703125,0.6813560842553478
1784903247.270234,0.0268554724752903,-0.140625,0.9638671278953552,0.9744416079294398,-0.6732940673828125,-0.5550384521484375,-0.4138946533203125,0.965764654863371
1784903247.280815,0.0244140625,-0.1435546875,0.9677733778953552,0.9786671066884606,-0.370025634765625,-0.614166259765625,0.3795623779296875,0.811287103162524
1784903247.288827,0.021484375,-0.14013671875,0.9716796278953552,0.9819680125024507,-0.4291534423828125,-1.0433197021484375,0.6237030029296875,1.28906714870236
1784903247.296838,0.0219726599752903,-0.1572265625,0.9877929091453552,1.0004688006628693,-0.1850128173828125,-1.0433197021484375,0.9899139404296875,1.4500604652717284
1784903247.304849,0.0205078125,-0.14404296875,0.9877929091453552,0.9984506891067243,0.118255615234375,-0.858306884765625,0.9899139404296875,1.315524499364251
1784903247.31286,0.02978515625,-0.140625,0.9746093153953552,0.9851527109099584,0.4863739013671875,-0.6771087646484375,1.1119842529296875,1.3898002841626085
1784903247.323523,0.0322265662252903,-0.15087890625,0.9760741591453552,0.9881921675834016,0.5474090576171875,-0.7991790771484375,1.3561248779296875,1.6665588973249565
1784903247.334186,0.0341796875,-0.14453125,0.9697265028953552,0.9810336506368248,0.3032684326171875,-0.8602142333984375,1.6002655029296875,1.8419527543968528
1784903247.344849,0.0400390625,-0.14599609375,0.9692382216453552,0.980989661624621,0.179290771484375,-0.308990478515625,1.3561248779296875,1.4023890263021124
1784903247.355481,0.0361328125,-0.14501953125,0.9790038466453552,0.9903457862431344,0.118255615234375,-0.370025634765625,0.9288787841796875,1.0068362114153915
1784903247.366115,0.0361328125,-0.14013671875,0.9677733778953552,0.9785342053521495,0.301361083984375,-0.431060791015625,0.8678436279296875,1.0147829674513738
1784903247.376749,0.03125,-0.14404296875,0.9926757216453552,1.0035586817373663,0.484466552734375,-0.125885009765625,0.6847381591796875,0.848187021262886
1784903247.387425,0.0380859412252903,-0.11572265625,0.9682616591453552,0.9758959538083392,0.1811981201171875,-0.5550384521484375,0.1964569091796875,0.6160322712827405
1784903247.398101,0.0332031287252903,-0.14501953125,0.9721679091453552,0.9834854120794927,-0.003814697265625,-0.125885009765625,-0.0476837158203125,0.13466745840533337
1784903247.408777,0.0317382849752903,-0.14599609375,0.9677733778953552,0.9792382187631453,0.118255615234375,0.179290771484375,-0.1697540283203125,0.27376267350553174
1784903247.416779,0.0307617224752903,-0.142578125,0.9755858778953552,0.9864292222187121,-0.064849853515625,0.240325927734375,-0.2307891845703125,0.33944911659483784
1784903247.424781,0.0302734375,-0.15283203125,0.9892577528953552,1.001451452871099,0.0591278076171875,0.4215240478515625,-0.3528594970703125,0.5528909885533453
1784903247.432783,0.007812503725290298,-0.1494140625,0.9785155653953552,0.9898880285205005,-0.1850128173828125,0.6046295166015625,-0.2307891845703125,0.6731049269292232
1784903247.440785,0.0322265662252903,-0.14599609375,0.9794921278953552,0.9908371407905049,0.118255615234375,0.728607177734375,-0.3528594970703125,0.8181458516995765
1784903247.451436,0.0180664099752903,-0.1376953125,0.9799804091453552,0.9897716891094459,0.0591278076171875,0.2422332763671875,0.0133514404296875,0.2497024604899697
1784903247.462085,0.0190429724752903,-0.1494140625,0.9775390028953552,0.9890751736117401,0.2422332763671875,0.2994537353515625,0.3185272216796875,0.49980905428630107
1784903247.472734,0.029296875,-0.1435546875,0.9790038466453552,0.9899064536280135,0.1811981201171875,0.2422332763671875,0.3185272216796875,0.4392827220191636
1784903247.483585,0.0166015662252903,-0.150390625,0.9658202528953552,0.9775999759573807,0.0591278076171875,0.1163482666015625,0.1354217529296875,0.188074633965755
1784903247.494437,0.03515625,-0.14453125,0.9785155653953552,0.9897565134221733,-0.3070831298828125,-0.0667572021484375,0.5626678466796875,0.6444778338969215
1784903247.505289,0.0302734375,-0.12890625,0.9809569716453552,0.9898534651789401,-0.186920166015625,0.240325927734375,0.5016326904296875,0.5867972870697542
1784903247.515756,0.02490234375,-0.1337890625,0.9780272841453552,0.9874497498615368,0.179290771484375,0.179290771484375,0.4405975341796875,0.5083468782279927
1784903247.526222,0.0234375037252903,-0.140625,0.9726561903953552,0.9830487128928447,-0.0019073486328125,0.1163482666015625,0.3795623779296875,0.39699893684950127
1784903247.536688,0.0317382849752903,-0.1416015625,0.9716796278953552,0.9824559127525622,0.118255615234375,-0.308990478515625,0.7457733154296875,0.8158660088242209
1784903247.544728,0.0244140625,-0.14404296875,0.9799804091453552,0.990810792029823,-0.0019073486328125,-0.1888275146484375,0.5016326904296875,0.5359989033336165
1784903247.552767,0.0239257849752903,-0.13916015625,0.9765624403953552,0.9867178888948654,-0.370025634765625,-0.308990478515625,0.3795623779296875,0.6135647357342643
1784903247.560806,0.02490234375,-0.1474609375,0.9697265028953552,0.9811902696369739,0.118255615234375,-0.003814697265625,0.5016326904296875,0.5153972240490005
1784903247.568845,0.0336914025247097,-0.1474609375,0.9755858778953552,0.9872424443070262,-0.1239776611328125,-0.0057220458984375,0.4405975341796875,0.4577438032288883
1784903247.579484,0.03515625,-0.13427734375,0.9687499403953552,0.9786433538192667,-0.003814697265625,-0.125885009765625,0.1354217529296875,0.18493414710504166
1784903247.590123,0.0332031287252903,-0.15185546875,0.9731444716453552,0.9854809454476265,-0.064849853515625,-0.308990478515625,0.0743865966796875,0.32436705301232344
1784903247.600762,0.0273437537252903,-0.13818359375,0.9658202528953552,0.9760384968597818,-0.0019073486328125,-0.0667572021484375,0.1354217529296875,0.15099408327495406
1784903247.608748,0.0322265662252903,-0.126953125,0.9780272841453552,0.986758843918147,-0.064849853515625,-0.064849853515625,-0.2918243408203125,0.3058961472415204
1784903247.616736,0.041015625,-0.15869140625,0.9765624403953552,0.9902219164928006,-0.3070831298828125,-0.0057220458984375,-0.1697540283203125,0.35092623241767146
1784903247.624724,0.0244140625,-0.1484375,0.9785155653953552,0.9900113381042641,-0.1850128173828125,-0.0667572021484375,-0.0476837158203125,0.20238577862351295
1784903247.640722,0.0268554724752903,-0.1259765625,0.9697265028953552,0.9782437329821453,-0.064849853515625,-0.186920166015625,-0.1697540283203125,0.2606934638522422
1784903247.648734,0.02978515625,-0.14111328125,0.9863280653953552,0.9968165158465838,0.118255615234375,-0.492095947265625,-0.3528594970703125,0.6169705313241688
1784903247.656746,0.02099609375,-0.14013671875,0.9790038466453552,0.9892055740043005,0.301361083984375,-0.431060791015625,-0.3528594970703125,0.6333575081768336
1784903247.664758,0.0185546912252903,-0.14111328125,0.9843749403953552,0.9946111089214551,0.244140625,-0.431060791015625,-0.2918243408203125,0.5749604301355153
1784903247.675403,0.0312500037252903,-0.1474609375,0.9790038466453552,0.9905401670642194,0.606536865234375,-0.186920166015625,-0.4138946533203125,0.7577169005629958
1784903247.686048,0.0190429724752903,-0.1435546875,0.9707030653953552,0.9814453750830234,0.3643035888671875,-0.4291534423828125,-0.2307891845703125,0.608402358382313
1784903247.696693,0.0278320349752903,-0.14892578125,0.9716796278953552,0.983419955948955,0.606536865234375,-0.675201416015625,-0.2918243408203125,0.9533862632601003
1784903247.707371,0.0390625,-0.1435546875,0.9663085341453552,0.9776942315323426,0.301361083984375,-0.980377197265625,-0.0476837158203125,1.026757852959047
1784903247.71805,0.0244140587747097,-0.13671875,0.9785155653953552,0.9883222018089086,0.301361083984375,-0.492095947265625,-0.0476837158203125,0.5790083427809332
1784903247.728729,0.0258789099752903,-0.142578125,0.9873046278953552,0.9978820912180009,0.4863739013671875,-0.5550384521484375,0.0133514404296875,0.7381094202460903
1784903247.739412,0.02490234375,-0.14794921875,0.9760741591453552,0.9875372712988056,0.3643035888671875,-0.7991790771484375,0.3795623779296875,0.9568029582693502
1784903247.750095,0.0229492224752903,-0.14013671875,0.9692382216453552,0.9795854720505442,0.3643035888671875,-0.8602142333984375,0.2574920654296875,0.9690138265071457
1784903247.760778,0.02587890625,-0.14501953125,0.9780272841453552,0.9890590228926711,0.484466552734375,-0.431060791015625,0.3185272216796875,0.7224824130872156
1784903247.768769,0.03515625,-0.134765625,0.9750975966453552,0.9849939383464504,0.301361083984375,-0.919342041015625,0.4405975341796875,1.063077832731091
1784903247.776761,0.0317382849752903,-0.1337890625,0.9687499403953552,0.9784596460732583,0.484466552734375,-0.614166259765625,0.5626678466796875,0.9635886783477597
1784903247.784753,0.0390624962747097,-0.1474609375,0.9736327528953552,0.9855107022321871,0.301361083984375,-0.247955322265625,0.5626678466796875,0.68475941064526
1784903247.792745,0.0419921912252903,-0.1298828125,0.9692382216453552,0.9788031566178473,0.606536865234375,-0.492095947265625,0.3185272216796875,0.8435075465901748
1784903247.800769,0.02490234375,-0.14501953125,0.9672850966453552,0.9784126171306393,0.0591278076171875,-0.2460479736328125,0.1354217529296875,0.287010024439875
1784903247.808793,0.0288085974752903,-0.1396484375,0.9780272841453552,0.9883668296323102,0.3032684326171875,-0.3719329833984375,0.1354217529296875,0.4986430963407568
1784903247.816817,0.03466796875,-0.150390625,0.9863280653953552,0.9983297354740496,0.118255615234375,-0.003814697265625,0.1964569091796875,0.22933438384621896
1784903247.824841,0.0268554724752903,-0.1455078125,0.9760741591453552,0.987225660146513,0.301361083984375,-0.308990478515625,-0.0476837158203125,0.43424342885987893
1784903247.835477,0.0283203162252903,-0.1376953125,0.9658202528953552,0.9759973362148182,0.423431396484375,-0.247955322265625,0.4405975341796875,0.6594711339352003
1784903247.846113,0.0205078125,-0.14111328125,0.9907225966453552,1.0009319617348584,-0.064849853515625,-0.247955322265625,0.0133514404296875,0.25664295490504985
1784903247.856749,0.0229492224752903,-0.14599609375,0.9882811903953552,0.9992703525531714,0.423431396484375,-0.370025634765625,0.0743865966796875,0.5672270124720773
1784903247.867471,0.021484375,-0.13427734375,0.9750975966453552,0.9845340554786534,0.4863739013671875,0.1163482666015625,0.1354217529296875,0.518107655066856
1784903247.878192,0.01953125,-0.13525390625,0.9853515028953552,0.9947827265994226,0.0591278076171875,0.0591278076171875,0.1964569091796875,0.21351232384025579
1784903247.888913,0.02490234375,-0.13916015625,0.9697265028953552,0.9799771253602928,0.3643035888671875,-0.2460479736328125,-0.0476837158203125,0.44218824831146103
1784903247.899552,0.0375976599752903,-0.14697265625,0.9765624403953552,0.9882756425773783,0.0591278076171875,-0.1888275146484375,-0.2918243408203125,0.3525810173805886
1784903247.910191,0.0366210974752903,-0.14013671875,0.9760741591453552,0.9867624683142461,0.179290771484375,-0.431060791015625,-0.0476837158203125,0.4692891678324901
1784903247.92083,0.01953125,-0.1455078125,0.9877929091453552,0.9986434922348123,0.0591278076171875,-0.4940032958984375,-0.0476837158203125,0.49980905428630107
1784903247.928821,0.0341796875,-0.14599609375,0.9799804091453552,0.9913852494043647,0.244140625,-0.125885009765625,0.1354217529296875,0.3062527250909475
1784903247.936813,0.0253906287252903,-0.13720703125,0.9726561903953552,0.9826141247539186,0.3643035888671875,-0.7343292236328125,0.2574920654296875,0.8592198073263491
1784903247.944805,0.0273437537252903,-0.13037109375,0.9658202528953552,0.9749631089719285,0.606536865234375,-0.492095947265625,0.0743865966796875,0.7845882716235195
1784903247.952797,0.029296875,-0.1337890625,0.9648436903953552,0.9745158628904522,0.118255615234375,-0.736236572265625,-0.2307891845703125,0.7805717959230446
1784903247.963447,0.0268554724752903,-0.1474609375,0.9750975966453552,0.9865501849747927,0.2422332763671875,-0.6771087646484375,0.4405975341796875,0.8433738355370863
1784903247.974097,0.0234375037252903,-0.138671875,0.9672850966453552,0.9774557093234981,-0.003814697265625,-0.492095947265625,0.1354217529296875,0.5104037856413591
1784903247.984747,0.0205078162252903,-0.1474609375,0.9697265028953552,0.981088573489858,-0.0019073486328125,-0.5550384521484375,0.2574920654296875,0.6118606745831823
1784903247.995413,0.0375976599752903,-0.14599609375,0.9819335341453552,0.9934394339390116,0.1201629638671875,-0.5550384521484375,0.5016326904296875,0.7577217017852973
1784903248.00608,0.0283203162252903,-0.15283203125,0.9741210341453552,0.9864438449559699,0.2422332763671875,-0.5550384521484375,0.4405975341796875,0.7489130995436897
1784903248.016747,0.0302734412252903,-0.126953125,0.9858397841453552,0.9944413794662043,0.2422332763671875,-0.8602142333984375,0.8068084716796875,1.2039872912514304
1784903248.024776,0.02001953125,-0.1376953125,0.9790038466453552,0.9888424103275226,0.244140625,-0.125885009765625,0.6237030029296875,0.6815109069725824
1784903248.032805,0.0180664099752903,-0.14892578125,0.9790038466453552,0.9904311259430008,0.3643035888671875,-0.3108978271484375,1.0509490966796875,1.1549322783605036
1784903248.040834,0.0341796875,-0.13818359375,0.9682616591453552,0.9786692991967096,0.3643035888671875,-0.1888275146484375,1.2950897216796875,1.3585397757703634
1784903248.048863,0.0229492224752903,-0.14013671875,0.9702147841453552,0.9805517294505453,-0.003814697265625,-0.247955322265625,0.8068084716796875,0.8440594195488795
1784903248.059487,0.04345703125,-0.1396484375,0.9775390028953552,0.9884192945521147,0.244140625,-0.308990478515625,0.9899139404296875,1.0653681852044092
1784903248.070111,0.02001953125,-0.138671875,0.9638671278953552,0.9739971821236068,0.301361083984375,-0.308990478515625,0.9288787841796875,1.0242604231603831
1784903248.080735,0.0239257849752903,-0.14697265625,0.9560546278953552,0.9675814469035621,0.2422332763671875,-0.0667572021484375,0.5626678466796875,0.6162212183180857
1784903248.091402,0.0268554724752903,-0.14306640625,0.9677733778953552,0.9786595546777986,0.2422332763671875,0.2422332763671875,0.5626678466796875,0.6587480747951532
1784903248.102069,0.0288085974752903,-0.15673828125,0.9819335341453552,0.9947815285663908,0.301361083984375,-0.186920166015625,0.5016326904296875,0.6143232109494748
1784903248.112736,0.0439453125,-0.14306640625,0.9770507216453552,0.9884469129678751,0.362396240234375,-0.125885009765625,0.5626678466796875,0.6810089399610395
1784903248.123407,0.0283203162252903,-0.13330078125,0.9848632216453552,0.9942468023295971,0.606536865234375,0.179290771484375,0.5016326904296875,0.8072592555898827
1784903248.134079,0.0302734375,-0.142578125,0.9814452528953552,0.9922095480176604,0.2422332763671875,-0.0667572021484375,0.1964569091796875,0.31894952795498155
1784903248.144751,0.0283203162252903,-0.14697265625,0.9682616591453552,0.979762033642454,0.4863739013671875,-0.0667572021484375,0.0743865966796875,0.4965374726396916
1784903248.152754,0.0263671875,-0.1396484375,0.9848632216453552,0.995064058250784,0.6694793701171875,-0.0057220458984375,0.3795623779296875,0.7696122189527717
1784903248.16076,0.0361328162252903,-0.126953125,0.9799804091453552,0.9888297521132412,0.301361083984375,-0.003814697265625,0.0133514404296875,0.30168081778100075
1784903248.168766,0.01513671875,-0.134765625,0.9838866591453552,0.9931887292858118,0.3643035888671875,-0.1888275146484375,0.1354217529296875,0.43210182401416447
1784903248.176772,0.0444335900247097,-0.1318359375,0.9643554091453552,0.9743389623159352,0.3643035888671875,-0.1888275146484375,0.3795623779296875,0.5589638037381827
1784903248.18742,0.0195312462747097,-0.14697265625,0.9731444716453552,0.9843742143921393,0.2422332763671875,-0.2460479736328125,-0.0476837158203125,0.3485545900756835
1784903248.198068,0.02099609375,-0.14501953125,0.9829100966453552,0.9937724882910123,0.3032684326171875,-0.3719329833984375,0.1354217529296875,0.4986430963407568
1784903248.208716,0.02685546875,-0.1396484375,0.9721679091453552,0.9825137891500685,0.484466552734375,-0.247955322265625,0.2574920654296875,0.6020729576367181
1784903248.2194,0.03076171875,-0.12890625,0.9604491591453552,0.9695492209952709,0.362396240234375,-0.614166259765625,0.4405975341796875,0.8382466323795932
1784903248.230085,0.0268554724752903,-0.14013671875,0.9780272841453552,0.9883809411743162,0.7305145263671875,-0.6771087646484375,0.5016326904296875,1.1152412781568553
1784903248.24077,0.02001953125,-0.14306640625,0.9790038466453552,0.9896046230566842,0.789642333984375,-0.797271728515625,0.1354217529296875,1.1302726555469407
1784903248.251408,0.0224609412252903,-0.138671875,0.9790038466453552,0.9890313010937236,1.3408660888671875,-0.4940032958984375,0.3185272216796875,1.464042593500438
1784903248.262048,0.03369140625,-0.13330078125,0.9770507216453552,0.9866774152703974,1.461029052734375,-0.797271728515625,0.6237030029296875,1.777428912189657
1784903248.272688,0.02490234375,-0.1337890625,0.9721679091453552,0.9816466184635506,1.583099365234375,-0.797271728515625,0.5016326904296875,1.842140376139533
1784903248.28071,0.014648433774709702,-0.14697265625,0.9770507216453552,0.9881516335891684,0.667572021484375,-0.614166259765625,0.6847381591796875,1.136538140644659
1784903248.288734,0.0351562537252903,-0.13671875,0.9633788466453552,0.9736666682912044,0.423431396484375,-0.247955322265625,1.0509490966796875,1.1598577469588283
1784903248.296758,0.02490234375,-0.142578125,0.9750975966453552,0.9857808942337576,0.0591278076171875,-0.0057220458984375,0.7457733154296875,0.7481354673118146
1784903248.304782,0.03515625,-0.1328125,0.9790038466453552,0.9885968105434666,-0.3070831298828125,0.1773834228515625,0.8068084716796875,0.8813085937032916
1784903248.315442,0.03369140625,-0.1533203125,0.9780272841453552,0.9905451012512957,-0.675201416015625,0.362396240234375,0.5626678466796875,0.9506961096021548
1784903248.326102,0.0312500037252903,-0.12841796875,0.9741210341453552,0.9830460450025335,-0.4901885986328125,0.4215240478515625,0.1354217529296875,0.660534962218743
1784903248.336762,0.0317382849752903,-0.13818359375,0.9780272841453552,0.9882506730822789,-0.7953643798828125,0.2994537353515625,0.1354217529296875,0.8605905458282259
1784903248.34474,0.0278320349752903,-0.1328125,0.9653319716453552,0.974822854578115,-1.1005401611328125,-0.0057220458984375,0.1354217529296875,1.1088554636389947
1784903248.35272,0.04345703125,-0.1455078125,0.9765624403953552,0.9882991637427052,-0.7953643798828125,0.1773834228515625,-0.1087188720703125,0.822124788966461
1784903248.3607,0.0244140625,-0.138671875,0.9887694716453552,0.9987447138391294,-0.7953643798828125,0.1163482666015625,-0.2918243408203125,0.8551624768561639
1784903248.36868,0.04443359375,-0.14404296875,0.9863280653953552,0.9977804235834644,-0.7953643798828125,-0.0667572021484375,-0.3528594970703125,0.8726802653307637
1784903248.379369,0.02978515625,-0.1494140625,0.9858397841453552,0.9975428800855387,-0.6732940673828125,-0.1888275146484375,-0.8411407470703125,1.093845733110113
1784903248.390058,0.02099609375,-0.140625,0.9887694716453552,0.9989400856085382,-0.858306884765625,-0.308990478515625,-0.4749298095703125,1.0284571689029545
1784903248.400747,0.0209960974752903,-0.14697265625,0.9682616591453552,0.979577683680722,-0.6122589111328125,0.1163482666015625,-0.9632110595703125,1.1472460236066584
1784903248.411395,0.03076171875,-0.13037109375,0.9770507216453552,0.9861901531113231,-0.186920166015625,-0.308990478515625,-0.3528594970703125,0.5049000781831368
1784903248.422044,0.0156250037252903,-0.142578125,0.9785155653953552,0.9889718773508793,-0.186920166015625,-0.675201416015625,-0.1697540283203125,0.7208692882789413
1784903248.432693,0.0292968712747097,-0.13720703125,0.9746093153953552,0.9846559773577411,0.0591278076171875,-0.9174346923828125,-0.3528594970703125,0.9847295756165115
1784903248.440707,0.0185546912252903,-0.1435546875,0.9814452528953552,0.9920619987180823,0.118255615234375,-0.858306884765625,-0.1087188720703125,0.8732095350571782
1784903248.448723,0.02197265625,-0.14453125,0.9848632216453552,0.9956543803945781,0.06103515625,-1.102447509765625,0.3795623779296875,1.167554453045565
1784903248.456739,0.03125,-0.14453125,0.9814452528953552,0.9925223570063247,0.484466552734375,-0.797271728515625,0.4405975341796875,1.0317345767850579
1784903248.464755,0.0224609412252903,-0.134765625,0.9780272841453552,0.9875239926680799,0.7305145263671875,-0.7343292236328125,0.7457733154296875,1.2763497639446773
1784903248.475422,0.0327148474752903,-0.14306640625,0.9677733778953552,0.9788378664547094,0.484466552734375,-0.980377197265625,0.8068084716796875,1.3589654887490132
1784903248.486089,0.03515625,-0.13916015625,0.9653319716453552,0.9759443255034048,0.1811981201171875,-0.7343292236328125,0.8678436279296875,1.1511840556372095
1784903248.496756,0.03369140625,-0.1240234375,0.9790038466453552,0.9874033905404727,0.2422332763671875,-0.6771087646484375,0.8678436279296875,1.1270784364370907
1784903248.507395,0.04052734375,-0.13525390625,0.9882811903953552,0.9983164809000074,0.301361083984375,-1.224517822265625,0.7457733154296875,1.4650734582243221
1784903248.518033,0.04052734375,-0.1328125,0.9799804091453552,0.9897692802145248,0.1811981201171875,-0.8602142333984375,1.1730194091796875,1.4658703286401316
1784903248.528671,0.0380859412252903,-0.14404296875,0.9873046278953552,0.9984835221619411,0.3032684326171875,-0.8602142333984375,0.8678436279296875,1.2590046989989787
1784903248.539358,0.0332031287252903,-0.13671875,0.9580077528953552,0.9682836975630225,0.789642333984375,-0.736236572265625,0.9288787841796875,1.4242173646114775
1784903248.550048,0.0439453125,-0.134765625,0.9790038466453552,0.9892125635669846,0.244140625,-0.797271728515625,0.5016326904296875,0.9730787275310306
1784903248.560738,0.0312500037252903,-0.13232421875,0.9858397841453552,0.9951715136620366,0.5474090576171875,-0.2460479736328125,0.9899139404296875,1.1576380656954839
1784903248.568744,0.0332031287252903,-0.13232421875,0.9765624403953552,0.9860458136495879,0.911712646484375,-0.186920166015625,0.3185272216796875,0.9836761098928003
1784903248.576753,0.0371093787252903,-0.1279296875,0.9750975966453552,0.9841536637724683,0.789642333984375,-0.186920166015625,0.3795623779296875,0.8958469527900617
1784903248.584762,0.03369140625,-0.138671875,0.9790038466453552,0.989350055095526,0.7915496826171875,0.1163482666015625,0.1964569091796875,0.8238222723118103
1784903248.592771,0.0307617224752903,-0.14111328125,0.9780272841453552,0.9886337088363555,0.6084442138671875,-0.0667572021484375,0.3795623779296875,0.7202280778800463
1784903248.603438,0.0302734412252903,-0.1416015625,0.9770507216453552,0.9877224288299684,0.6084442138671875,-0.0667572021484375,0.5016326904296875,0.7913888055405345
1784903248.614105,0.03564453125,-0.13525390625,0.9672850966453552,0.9773456962386085,0.118255615234375,-0.370025634765625,0.4405975341796875,0.5873921586498965
1784903248.624772,0.01953125,-0.13623046875,0.9755858778953552,0.9852451550204437,-0.0019073486328125,-0.1888275146484375,0.5626678466796875,0.5935103823474946
1784903248.632764,0.0263671912252903,-0.1513671875,0.9833983778953552,0.9953289023594095,0.06103515625,-0.125885009765625,0.2574920654296875,0.29304349462392076
1784903248.640758,0.0214843787252903,-0.13671875,0.9858397841453552,0.995506742887528,0.423431396484375,0.057220458984375,0.5626678466796875,0.706514992156746
1784903248.648752,0.0317382849752903,-0.140625,0.9780272841453552,0.9885950019552557,0.5474090576171875,0.0591278076171875,0.4405975341796875,0.7051800912675948
1784903248.656746,0.0185546912252903,-0.13525390625,0.9755858778953552,0.9850917220600326,0.606536865234375,0.057220458984375,-0.0476837158203125,0.6110931897584502
1784903248.667384,0.0332031287252903,-0.13671875,0.9755858778953552,0.985678583265134,0.3643035888671875,0.2994537353515625,0.2574920654296875,0.5373004822599389
1784903248.678022,0.02490234375,-0.1318359375,0.9780272841453552,0.9871870185904424,0.423431396484375,0.118255615234375,0.0743865966796875,0.44588328498470875
1784903248.68866,0.0224609412252903,-0.134765625,0.9790038466453552,0.9884911731061481,0.732421875,0.362396240234375,0.3185272216796875,0.8770589654438904
1784903248.699385,0.0380859412252903,-0.1474609375,0.9809569716453552,0.9927093468014802,0.5474090576171875,0.0591278076171875,0.0133514404296875,0.5507549681632476
1784903248.71011,0.0292968712747097,-0.13671875,0.9785155653953552,0.988454872510142,0.54931640625,0.362396240234375,0.1354217529296875,0.671876923459926
