timestamp,accel_x,accel_y,accel_z,accel_rms,gyro_x,gyro_y,gyro_z,gyro_rms
1781106274.311522,-0.1152343675494194,-0.212890625,0.9550780653953552,0.9852793962510024,0.606536865234375,-1.02996826171875,-1.2378692626953125,1.7207678229680268
1781106274.319495,-0.1206054538488388,-0.201171875,0.9731444716453552,1.0010124681955852,0.301361083984375,-0.60272216796875,-1.1768341064453125,1.3561087820651132
1781106274.327469,-0.11962890625,-0.19580078125,0.9614257216453552,0.9884272554872077,0.179290771484375,-0.35858154296875,-0.8716583251953125,0.9594342810112682
1781106274.335441,-0.1157226487994194,-0.2041015625,0.9541015028953552,0.9825267716898459,0.118255615234375,-0.23651123046875,-0.6885528564453125,0.7375818522654295
1781106274.346133,-0.1215820237994194,-0.197265625,0.9531249403953552,0.9808889169123345,0.179290771484375,-0.35858154296875,-0.2002716064453125,0.44814575758953473
1781106274.356825,-0.12890625,-0.18505859375,0.9526366591453552,0.978968900812183,0.240325927734375,-0.05340576171875,0.2269744873046875,0.33485242243916
1781106274.367517,-0.1132812425494194,-0.197265625,0.9541015028953552,0.9808445567710291,0.1773834228515625,0.0057220458984375,0.4711151123046875,0.5034352684841005
1781106274.378175,-0.1191406175494194,-0.19873046875,0.9609374403953552,0.9884781486270845,-0.308990478515625,0.12969970703125,0.9593963623046875,1.016237427878335
1781106274.388829,-0.10546875,-0.19921875,0.9667968153953552,0.9927274801458482,-0.1277923583984375,0.0057220458984375,1.0814666748046875,1.0890058757359422
1781106274.399484,-0.10302734375,-0.20556640625,0.9648436903953552,0.9918646721375093,-0.247955322265625,-0.29754638671875,1.2645721435546875,1.3225575225084658
1781106274.407567,-0.1206054612994194,-0.1982421875,0.9501952528953552,0.9781189400195147,0.118255615234375,-0.78582763671875,1.4476776123046875,1.651447829734151
1781106274.415653,-0.1044921875,-0.20556640625,0.9511718153953552,0.9787256954987802,-0.064849853515625,-0.60272216796875,0.9593963623046875,1.1348660252494192
1781106274.423739,-0.1005859375,-0.20068359375,0.9736327528953552,0.9991757468702674,-0.4940032958984375,-0.6656646728515625,0.7152557373046875,1.0948696190818197
1781106274.431825,-0.1123046800494194,-0.20458984375,0.9633788466453552,0.9912457553454576,0.118255615234375,-0.11444091796875,0.4711151123046875,0.4990296216477024
1781106274.442486,-0.1088867112994194,-0.2041015625,0.9624022841453552,0.9898140836746775,0.057220458984375,0.19073486328125,-0.1392364501953125,0.2429830406845124
1781106274.453145,-0.12890625,-0.19873046875,0.9560546278953552,0.9849624723910975,0.301361083984375,0.61798095703125,-0.1392364501953125,0.7015024983964696
1781106274.463805,-0.1166992112994194,-0.19970703125,0.9560546278953552,0.9836371565616668,0.240325927734375,0.67901611328125,0.1659393310546875,0.7391585048065404
1781106274.474411,-0.1308593600988388,-0.19189453125,0.9702147841453552,0.9976293954286597,0.301361083984375,0.37384033203125,0.5321502685546875,0.7167698411040316
1781106274.485017,-0.14794921875,-0.18505859375,0.9633788466453552,0.9920859119114623,0.2384185791015625,0.3108978271484375,1.1425018310546875,1.207812614501828
1781106274.495622,-0.1337890625,-0.1884765625,0.9399413466453552,0.9679424895054092,-0.003814697265625,0.25177001953125,1.3866424560546875,1.4093189829074788
1781106274.503587,-0.1337890625,-0.1875,0.9526366591453552,0.9800879387035903,0.3032684326171875,0.3108978271484375,1.6918182373046875,1.7466763149549047
1781106274.511554,-0.1240234300494194,-0.193359375,0.9497069716453552,0.977094156718484,-0.125885009765625,0.12969970703125,2.2411346435546875,2.2484113369729926
1781106274.51952,-0.13818359375,-0.1943359375,0.9409179091453552,0.9706635225123771,0.240325927734375,0.37384033203125,2.4852752685546875,2.524699250580987
1781106274.527485,-0.1401367038488388,-0.19482421875,0.9506835341453552,0.980506988283239,-0.1277923583984375,0.1888275146484375,2.8514862060546875,2.8605874047952975
1781106274.538239,-0.1157226487994194,-0.2021484375,0.9555663466453552,0.9835460157359168,-0.247955322265625,0.43487548828125,3.2176971435546875,3.2564049870659058
1781106274.548991,-0.12451171875,-0.19189453125,0.9501952528953552,0.9773421600722054,0.118255615234375,0.37384033203125,3.6449432373046875,3.665972202235155
1781106274.559745,-0.1245117112994194,-0.2080078125,0.9467772841453552,0.9773216676639273,-0.1888275146484375,0.1316070556640625,3.7670135498046875,3.7740385970205685
1781106274.570393,-0.1201171875,-0.208984375,0.9560546278953552,0.9859731534109724,-0.1888275146484375,-0.4825592041015625,3.5228729248046875,3.56077981066976
1781106274.581044,-0.0932617112994194,-0.19970703125,0.9589843153953552,0.9839875823908972,-0.553131103515625,-0.05340576171875,2.8514862060546875,2.905129906971688
1781106274.591695,-0.0986328125,-0.2001953125,0.9541015028953552,0.9798552304681587,-0.4940032958984375,-0.2994537353515625,2.3632049560546875,2.4327863573063624
1781106274.599654,-0.1010742112994194,-0.197265625,0.9687499403953552,0.9937837642125397,-0.064849853515625,0.00762939453125,1.2645721435546875,1.266256852860591
1781106274.607616,-0.1030273362994194,-0.19873046875,0.9536132216453552,0.9795338726819924,-0.064849853515625,-0.17547607421875,0.8983612060546875,0.9176329400518788
1781106274.615578,-0.1171874925494194,-0.1982421875,0.9619140028953552,0.9890962654266625,-0.0057220458984375,-0.1773834228515625,0.1659393310546875,0.24296806807207655
1781106274.62354,-0.1225585862994194,-0.1943359375,0.9584960341453552,0.9856478636673901,0.0553131103515625,-0.1773834228515625,0.7762908935546875,0.7982179967247265
1781106274.631738,-0.1298827975988388,-0.20166015625,0.9560546278953552,0.9856859597513812,0.057220458984375,-0.05340576171875,0.7152557373046875,0.7195256257135075
1781106274.639936,-0.12548828125,-0.193359375,0.9487304091453552,0.9763321903269311,0.1773834228515625,-0.1773834228515625,1.0814666748046875,1.1101801322840272
1781106274.648134,-0.1083984300494194,-0.18896484375,0.9628905653953552,0.9872265052854019,0.118255615234375,-0.11444091796875,1.3256072998046875,1.3357828519394406
1781106274.664185,-0.1162109225988388,-0.19091796875,0.9609374403953552,0.9865877627846781,0.1201629638671875,0.4940032958984375,0.9593963623046875,1.0857807210700203
1781106274.67204,-0.1171874925494194,-0.203125,0.9663085341453552,0.9943565040754575,0.179290771484375,0.25177001953125,0.5321502685546875,0.6154000583336456
1781106274.679893,-0.1220703050494194,-0.19287109375,0.9638671278953552,0.9905252437047835,-0.064849853515625,0.49591064453125,0.7762908935546875,0.9234502814317255
1781106274.687747,-0.11865234375,-0.1875,0.9667968153953552,0.9919328157370179,0.240325927734375,0.06866455078125,0.1659393310546875,0.30001205586818686
1781106274.698436,-0.1264648288488388,-0.18701171875,0.9663085341453552,0.9923300454222579,0.1201629638671875,-0.1773834228515625,0.3490447998046875,0.4095562096447539
1781106274.709125,-0.1171874925494194,-0.19921875,0.9624022841453552,0.9897672328834591,0.179290771484375,-0.54168701171875,-0.3223419189453125,0.655342896592004
1781106274.719814,-0.11865234375,-0.19189453125,0.9511718153953552,0.9775631499824046,0.2384185791015625,-0.6656646728515625,0.1659393310546875,0.7262841985987737
1781106274.727854,-0.13134765625,-0.203125,0.9536132216453552,0.9838140824994333,-0.0057220458984375,-0.8449554443359375,0.5321502685546875,0.9985821714035512
1781106274.735894,-0.1210937350988388,-0.19580078125,0.9575194716453552,0.984807177674035,0.057220458984375,-0.72479248046875,0.4711151123046875,0.8663416010513891
1781106274.743934,-0.1215820237994194,-0.19873046875,0.9482421278953552,0.9764420724427376,-0.064849853515625,-1.33514404296875,0.5321502685546875,1.4387491189567287
1781106274.751974,-0.1298828125,-0.193359375,0.9550780653953552,0.9830724815000342,-0.4940032958984375,-0.7877349853515625,1.0204315185546875,1.3805238670755284
1781106274.762576,-0.119140625,-0.19091796875,0.9575194716453552,0.983609525115031,-0.3681182861328125,-0.6656646728515625,0.5931854248046875,0.9646188249607481
1781106274.773178,-0.1142578050494194,-0.1982421875,0.9516600966453552,0.9787807468818249,-0.247955322265625,-0.54168701171875,0.4100799560546875,0.7232373267900749
1781106274.78378,-0.1166992038488388,-0.20166015625,0.9687499403953552,0.9963744124643765,-0.370025634765625,-0.41961669921875,0.3490447998046875,0.6594159665322314
1781106274.794461,-0.1176757737994194,-0.1953125,0.9575194716453552,0.9842957375583531,-0.064849853515625,-0.48065185546875,0.7762908935546875,0.9153465251381497
1781106274.80514,-0.13330078125,-0.19580078125,0.9584960341453552,0.9873305888568148,-0.1888275146484375,-0.6656646728515625,1.3256072998046875,1.495326051490563
1781106274.81582,-0.1210937425494194,-0.1923828125,0.9609374403953552,0.9874591664385987,-0.064849853515625,-0.72479248046875,1.6918182373046875,1.8416781997194247
1781106274.826422,-0.1230468675494194,-0.193359375,0.9638671278953552,0.9907412476279344,-0.125885009765625,-0.60272216796875,1.9359588623046875,2.0315161244697766
1781106274.837024,-0.1083984300494194,-0.197265625,0.9575194716453552,0.9836195834893792,-0.4329681396484375,-0.4825592041015625,1.8749237060546875,1.9838507249638533
1781106274.847626,-0.1240234375,-0.19189453125,0.9536132216453552,0.9806036409629566,-0.431060791015625,-0.05340576171875,1.6918182373046875,1.7466867289278052
1781106274.858268,-0.1171874925494194,-0.1875,0.9658202528953552,0.9908067012858098,-0.4940032958984375,-0.1773834228515625,1.8138885498046875,1.8883050087773448
1781106274.86891,-0.1176757737994194,-0.19921875,0.9555663466453552,0.983179912799283,-0.308990478515625,-0.23651123046875,1.9359588623046875,1.9746770354888967
1781106274.87955,-0.1127929612994194,-0.1982421875,0.9609374403953552,0.9876350446278496,-0.4940032958984375,-0.4215240478515625,2.2411346435546875,2.333325153041616
1781106274.887546,-0.109375,-0.1748046875,0.9711913466453552,0.9928404711713716,-0.370025634765625,-0.35858154296875,2.5463104248046875,2.5979215678712437
1781106274.895543,-0.1176757737994194,-0.189453125,0.9545897841453552,0.9802967562459001,-0.553131103515625,-0.41961669921875,2.6683807373046875,2.7572246827486437
1781106274.903538,-0.0991210862994194,-0.1884765625,0.9501952528953552,0.9737655893416348,-0.431060791015625,-0.23651123046875,2.7294158935546875,2.773348533393845
1781106274.911534,-0.10498046875,-0.19384765625,0.9541015028953552,0.979238219474589,-0.614166259765625,0.06866455078125,1.8749237060546875,1.9741463772208818
1781106274.922208,-0.1020507737994194,-0.201171875,0.9550780653953552,0.9813554884563546,-0.7991790771484375,0.1888275146484375,1.5087127685546875,1.7177186165493126
1781106274.93288,-0.1035156175494194,-0.2021484375,0.9589843153953552,0.9855102186353154,-0.553131103515625,0.25177001953125,0.8983612060546875,1.0846174518950042
1781106274.943553,-0.1088867112994194,-0.2021484375,0.9672850966453552,0.9941633491904178,-0.7381439208984375,-0.1773834228515625,0.4711151123046875,0.8934600022965288
1781106274.95153,-0.1201171875,-0.19482421875,0.9477538466453552,0.9749984455246713,-0.4940032958984375,-0.3566741943359375,0.1659393310546875,0.6314994844452262
1781106274.959508,-0.1113281175494194,-0.19970703125,0.9589843153953552,0.9858639689440344,-0.247955322265625,-0.41961669921875,-0.0782012939453125,0.49363494454688883
1781106274.967488,-0.1298827975988388,-0.19580078125,0.9628905653953552,0.9911436464900525,-0.003814697265625,-0.05340576171875,-0.5054473876953125,0.5082753083005349
1781106274.975466,-0.12255859375,-0.20654296875,0.9589843153953552,0.988600791025548,0.118255615234375,0.19073486328125,-0.0171661376953125,0.22507522051250356
1781106274.986179,-0.1259765475988388,-0.19189453125,0.9404296278953552,0.9680400232903472,-0.1888275146484375,0.0667572021484375,0.4711151123046875,0.5119197235591255
1781106274.996892,-0.13134765625,-0.2041015625,0.9570311903953552,0.987328898598061,-0.064849853515625,-0.05340576171875,0.9593963623046875,0.9630675256124178
1781106275.007606,-0.13330078125,-0.19140625,0.9638671278953552,0.9916881017024274,-0.125885009765625,0.12969970703125,0.8373260498046875,0.8566119094252692
1781106275.018272,-0.1352538913488388,-0.20556640625,0.9555663466453552,0.9867412048479047,-0.247955322265625,-0.05340576171875,1.2645721435546875,1.289758397328394
1781106275.028939,-0.1240234375,-0.19580078125,0.9653319716453552,0.9927666263871563,-0.370025634765625,0.19073486328125,1.2645721435546875,1.3313307119980062
1781106275.039607,-0.1181640625,-0.20556640625,0.9677733778953552,0.996396308708553,-0.1888275146484375,-0.2994537353515625,1.6918182373046875,1.728460968023591
1781106275.047582,-0.1166992112994194,-0.19873046875,0.9624022841453552,0.9896113690008307,0.0553131103515625,-0.6656646728515625,1.8138885498046875,1.9329668046740724
1781106275.055559,-0.0991210862994194,-0.1982421875,0.9521483778953552,0.9776049755308727,-0.1888275146484375,-0.3566741943359375,1.6307830810546875,1.679977907190364
1781106275.063536,-0.11376953125,-0.205078125,0.9638671278953552,0.9919880966178987,0.118255615234375,-0.41961669921875,1.8138885498046875,1.8655439517497978
1781106275.079577,-0.1210937425494194,-0.18359375,0.9599608778953552,0.9848325982690198,-0.1888275146484375,-0.1773834228515625,1.4476776123046875,1.4706771155352365
1781106275.087641,-0.1215820163488388,-0.18115234375,0.9624022841453552,0.9868214199508261,-0.370025634765625,-0.41961669921875,1.5087127685546875,1.6091026575849325
1781106275.095704,-0.1166992038488388,-0.19677734375,0.9506835341453552,0.9778237107410319,-0.3681182861328125,-0.6656646728515625,1.6918182373046875,1.8549580796731437
1781106275.103766,-0.1298827975988388,-0.201171875,0.9555663466453552,0.9851125353198322,-0.614166259765625,-0.84686279296875,2.1800994873046875,2.4181006098372935
1781106275.114468,-0.13720703125,-0.201171875,0.9599608778953552,0.9903639633009045,-0.553131103515625,-0.66375732421875,2.6073455810546875,2.746776070628229
1781106275.12517,-0.1103515625,-0.2021484225988388,0.9589843153953552,0.9862516764394818,-0.4940032958984375,-0.6046295166015625,3.0956268310546875,3.1925728787061454
1781106275.135873,-0.1191406175494194,-0.1923828125,0.9716796278953552,0.9976807768832289,-0.553131103515625,-0.72479248046875,3.4008026123046875,3.5208999652473576
1781106275.146489,-0.1113281175494194,-0.193359375,0.9550780653953552,0.9807935096934637,-0.064849853515625,-0.23651123046875,3.5228729248046875,3.5313986903153225
1781106275.157106,-0.1166992112994194,-0.20458984375,0.9663085341453552,0.9945993631838405,-0.553131103515625,0.37384033203125,3.1566619873046875,3.2264881083965005
1781106275.167723,-0.1069335862994194,-0.1982421875,0.9560546278953552,0.982229712594649,-0.431060791015625,0.55694580078125,2.4852752685546875,2.583136696160011
1781106275.175679,-0.1210937350988388,-0.19677734375,0.9580077528953552,0.9854764686693952,-0.1888275146484375,0.9250640869140625,2.0580291748046875,2.2642622373598242
1781106275.183639,-0.1044921800494194,-0.1982421875,0.9492186903953552,0.975312617980583,-0.247955322265625,1.47247314453125,1.3256072998046875,1.9967207407399443
1781106275.191597,-0.1069335862994194,-0.20458984375,0.9536132216453552,0.9811574657216537,-0.308990478515625,1.53350830078125,0.4711151123046875,1.6337295594498404
1781106275.199556,-0.1025390550494194,-0.193359375,0.9565429091453552,0.9812626777510076,-0.736236572265625,1.59454345703125,-0.0171661376953125,1.7563905610615143
1781106275.210238,-0.1245117112994194,-0.18896484375,0.9541015028953552,0.9805715457075773,-0.6160736083984375,1.1653900146484375,-0.5054473876953125,1.4117923497934717
1781106275.220921,-0.1206054612994194,-0.19970703125,0.9458007216453552,0.974149670579839,-0.614166259765625,1.04522705078125,-1.3599395751953125,1.821849453303366
1781106275.231602,-0.1186523362994194,-0.20361328125,0.9565429091453552,0.9851452087113662,-0.553131103515625,0.49591064453125,-2.0313262939453125,2.1629072789903434
1781106275.239642,-0.1347656100988388,-0.19482421875,0.9555663466453552,0.984492401554228,-0.614166259765625,0.55694580078125,-2.5196075439453125,2.652510319517814
1781106275.247685,-0.13330078125,-0.18310546875,0.9492186903953552,0.9758651716112686,-0.0629425048828125,0.3108978271484375,-2.3365020751953125,2.3579357847996083
1781106275.255728,-0.12939453125,-0.1953125,0.9643554091453552,0.9924068079782417,-0.370025634765625,0.37384033203125,-2.2754669189453125,2.335471100966872
1781106275.263771,-0.1455077975988388,-0.20068359375,0.9531249403953552,0.9848317500802506,0.240325927734375,0.06866455078125,-2.0923614501953125,2.1072370085822834
1781106275.274547,-0.1215820163488388,-0.201171875,0.9555663466453552,0.9840525152813828,-0.064849853515625,-0.29754638671875,-1.7871856689453125,1.8129456613571975
1781106275.285324,-0.1406249850988388,-0.20068359375,0.9560546278953552,0.9869598486030674,0.301361083984375,-0.54168701171875,-1.0547637939453125,1.2234255116773298
1781106275.296099,-0.13623046875,-0.2021484375,0.9633788466453552,0.9937411803700554,0.240325927734375,-1.27410888671875,-1.2378692626953125,1.7926043395805213
1781106275.306627,-0.13525390625,-0.19970703125,0.9633788466453552,0.9931139509896673,0.545501708984375,-1.02996826171875,-0.9326934814453125,1.4927571352981015
1781106275.317156,-0.1298827975988388,-0.19580078125,0.9526366591453552,0.9811850444222205,0.118255615234375,-1.27410888671875,-0.9937286376953125,1.6201340843047327
1781106275.327685,-0.1298827975988388,-0.20458984375,0.9497069716453552,0.9801376828127474,0.301361083984375,-1.21307373046875,-1.1768341064453125,1.716771648352379
1781106275.335747,-0.12744140625,-0.1923828125,0.9638671278953552,0.991106603151058,0.240325927734375,-1.27410888671875,-1.0547637939453125,1.6714175623628555
1781106275.34381,-0.1093749925494194,-0.19775390625,0.9594725966453552,0.9857267167657068,0.118255615234375,-1.57928466796875,-1.5430450439453125,2.2111337500612254
1781106275.351872,-0.1210937425494194,-0.19970703125,0.9619140028953552,0.9898611729841104,0.240325927734375,-1.21307373046875,-1.3599395751953125,1.838134944795176
1781106275.359936,-0.1215820237994194,-0.19921875,0.9521483778953552,0.9803350612884766,0.118255615234375,-1.02996826171875,-1.2989044189453125,1.6619180786783878
1781106275.370452,-0.1059570163488388,-0.19091796875,0.9663085341453552,0.990670855161955,-0.125885009765625,-0.84686279296875,-1.2989044189453125,1.5556915874794024
1781106275.38097,-0.1069335862994194,-0.1923828125,0.9584960341453552,0.9834432296257062,-0.1888275146484375,-0.4825592041015625,-1.2989044189453125,1.398453397617203
1781106275.391486,-0.13525390625,-0.19921875,0.9604491591453552,0.9901738821088275,-0.064849853515625,-0.54168701171875,-1.4820098876953125,1.579235140627405
1781106275.402169,-0.1249999925494194,-0.1884765625,0.9726561903953552,0.998603263295077,-0.308990478515625,-0.41961669921875,-0.9326934814453125,1.0683961907490738
1781106275.412852,-0.12744140625,-0.2001953125,0.9614257216453552,0.9902822291726951,0.301361083984375,-0.23651123046875,-1.1768341064453125,1.23761649115185
1781106275.423534,-0.11865234375,-0.19091796875,0.9580077528953552,0.9840258655526297,0.1773834228515625,-0.1163482666015625,-0.5664825439453125,0.6049002152739552
1781106275.434216,-0.1186523362994194,-0.2021484375,0.9580077528953552,0.9862663039466621,0.179290771484375,-0.35858154296875,-0.0171661376953125,0.40127369709549404
1781106275.444899,-0.1113281175494194,-0.189453125,0.9653319716453552,0.9900263894513478,0.1773834228515625,0.1888275146484375,0.0438690185546875,0.26276453295639735
1781106275.45558,-0.1230468675494194,-0.2119140625,0.9599608778953552,0.9907436543266878,0.240325927734375,0.61798095703125,-0.2002716064453125,0.6926512334088736
1781106275.463827,-0.130859375,-0.1982421875,0.9516600966453552,0.9808573191230326,0.1773834228515625,0.7991790771484375,0.1049041748046875,0.8253223382084219
1781106275.472072,-0.1191406175494194,-0.19921875,0.9653319716453552,0.9928486352825029,0.423431396484375,0.86212158203125,-0.2002716064453125,0.9811505929677459
1781106275.480317,-0.1118163987994194,-0.19677734375,0.9619140028953552,0.9881815516492614,0.3604888916015625,0.7991790771484375,0.0438690185546875,0.8778177083591461
1781106275.488562,-0.1210937350988388,-0.20068359375,0.9575194716453552,0.9857896003004916,0.301361083984375,0.86212158203125,-0.0171661376953125,0.9134368075721918
1781106275.496418,-0.11767578125,-0.1962890625,0.9545897841453552,0.981640790485299,0.240325927734375,0.74005126953125,-0.0782012939453125,0.7820152654845838
1781106275.504272,-0.123046875,-0.21044921875,0.9536132216453552,0.984280236323266,0.240325927734375,0.19073486328125,-0.3223419189453125,0.44501758653074774
1781106275.512127,-0.1235351487994194,-0.203125,0.9487304091453552,0.9780644599672395,0.057220458984375,0.25177001953125,-0.2613067626953125,0.36734663179543775
1781106275.519982,-0.12646484375,-0.18310546875,0.9550780653953552,0.9806605326973262,0.179290771484375,0.25177001953125,-0.1392364501953125,0.33899869105531977
1781106275.530567,-0.1166992038488388,-0.1962890625,0.9516600966453552,0.9786751451749087,0.057220458984375,0.12969970703125,-0.1392364501953125,0.19870325612170114
1781106275.541152,-0.12548828125,-0.197265625,0.9555663466453552,0.9837520411053138,-0.125885009765625,-0.05340576171875,-0.0171661376953125,0.13781831283187962
1781106275.551737,-0.13671875,-0.19921875,0.9462890028953552,0.9766488642054577,-0.4940032958984375,0.0667572021484375,-0.3833770751953125,0.6288670465070648
1781106275.559756,-0.11328125,-0.2060546875,0.9536132216453552,0.9821758255725492,-0.247955322265625,0.00762939453125,-0.0171661376953125,0.24866589187932037
1781106275.567773,-0.126953125,-0.19970703125,0.9526366591453552,0.9815888134170936,-0.1888275146484375,-0.1163482666015625,0.4100799560546875,0.4662170307778434
1781106275.575791,-0.1220703050494194,-0.18896484375,0.9536132216453552,0.9797892875741976,-0.064849853515625,-0.17547607421875,0.3490447998046875,0.39601720719549127
1781106275.58381,-0.1191406175494194,-0.2041015625,0.9516600966453552,0.9805655888883952,-0.553131103515625,-0.11444091796875,0.1659393310546875,0.5887160631177142
1781106275.59443,-0.1181640550494194,-0.2099609375,0.9663085341453552,0.9958908184855136,-0.3108978271484375,-0.1773834228515625,0.2880096435546875,0.4594256113982481
1781106275.605051,-0.13232421875,-0.20068359375,0.9545897841453552,0.984390806368532,-0.4940032958984375,0.1316070556640625,0.2269744873046875,0.5593541734413972
1781106275.615673,-0.1127929612994194,-0.18896484375,0.9580077528953552,0.9829592152779087,-0.3108978271484375,0.0057220458984375,0.2269744873046875,0.38497742612016783
1781106275.626359,-0.1201171875,-0.2001953125,0.9672850966453552,0.995061184084726,-0.1888275146484375,-0.0514984130859375,-0.0171661376953125,0.19647542625491404
1781106275.637044,-0.1225585862994194,-0.20458984375,0.9526366591453552,0.9820357506674516,-0.247955322265625,-0.11444091796875,-0.0171661376953125,0.27362975318622523
1781106275.64773,-0.126953125,-0.19482421875,0.9604491591453552,0.9881984413374842,-0.1888275146484375,-0.0514984130859375,-0.4444122314453125,0.4856028709726475
1781106275.655676,-0.1210937425494194,-0.20263671875,0.9526366591453552,0.9814488976090479,0.118255615234375,0.06866455078125,-0.3223419189453125,0.3501478598789343
1781106275.663625,-0.11962890625,-0.201171875,0.9584960341453552,0.9866589309249478,0.179290771484375,-0.05340576171875,-0.2613067626953125,0.321369849790746
1781106275.671572,-0.1259765625,-0.20263671875,0.9560546278953552,0.9853792090384337,-0.0057220458984375,-0.1163482666015625,-0.1392364501953125,0.18153911427966102
1781106275.679521,-0.1254882663488388,-0.19677734375,0.9716796278953552,0.9993147288374162,0.240325927734375,-0.05340576171875,-0.3833770751953125,0.4556168441919814
1781106275.690192,-0.13134765625,-0.2041015625,0.9550780653953552,0.9854358252147342,-0.125885009765625,-0.23651123046875,-0.5054473876953125,0.572067880193906
1781106275.700865,-0.1210937425494194,-0.20751953125,0.9575194716453552,0.9872039246856978,-0.064849853515625,-0.54168701171875,-0.3833770751953125,0.666789549971428
1781106275.711536,-0.1162109300494194,-0.18994140625,0.9584960341453552,0.9840210188525205,0.057220458984375,-0.41961669921875,-0.2613067626953125,0.497627952812064
1781106275.722198,-0.1240234300494194,-0.2041015625,0.9521483778953552,0.9816444328497569,-0.247955322265625,-0.29754638671875,0.2880096435546875,0.4826647375453608
1781106275.73286,-0.1298827975988388,-0.19580078125,0.9541015028953552,0.9826073299530117,0.118255615234375,-0.48065185546875,0.1049041748046875,0.5059797254747121
1781106275.743523,-0.1220703050494194,-0.1962890625,0.9560546278953552,0.9836010405403774,-0.1888275146484375,-0.4825592041015625,0.2269744873046875,0.5657178038904778
1781106275.75422,-0.1108398362994194,-0.193359375,0.9599608778953552,0.9854938885152428,0.118255615234375,-0.05340576171875,0.3490447998046875,0.3723826502267725
1781106275.764919,-0.1074218675494194,-0.19970703125,0.9570311903953552,0.9835298955029502,-0.0057220458984375,-0.3566741943359375,0.3490447998046875,0.4990806497803219
1781106275.775618,-0.10888671875,-0.19580078125,0.9575194716453552,0.9833808021505465,-0.064849853515625,-0.29754638671875,0.1049041748046875,0.32209352933866026
1781106275.783616,-0.12548828125,-0.19384765625,0.9497069716453552,0.9773778975178888,0.118255615234375,0.00762939453125,0.1049041748046875,0.15826396964194486
1781106275.791611,-0.12646484375,-0.1923828125,0.9555663466453552,0.9829097344574796,0.240325927734375,-0.11444091796875,-0.2002716064453125,0.333109578960294
1781106275.799608,-0.1259765625,-0.1943359375,0.9550780653953552,0.9827566646442316,0.1773834228515625,-0.1163482666015625,0.0438690185546875,0.216624764587699
1781106275.807603,-0.1201171875,-0.20166015625,0.9541015028953552,0.9825500675176101,-0.247955322265625,-0.11444091796875,-0.0171661376953125,0.27362975318622523
1781106275.818247,-0.1171874925494194,-0.2001953125,0.9555663466453552,0.9833199450830559,-0.0057220458984375,-0.1773834228515625,-0.0171661376953125,0.17830394497928104
1781106275.828891,-0.12744140625,-0.201171875,0.9433593153953552,0.972953356159064,-0.064849853515625,-0.05340576171875,0.2880096435546875,0.30001205586818686
1781106275.839535,-0.115234375,-0.18994140625,0.9560546278953552,0.9815279672581899,-0.125885009765625,-0.11444091796875,0.2880096435546875,0.33450458019243895
1781106275.847568,-0.1176757737994194,-0.2099609375,0.9667968153953552,0.9963068128211167,-0.064849853515625,-0.17547607421875,-0.2002716064453125,0.2740548712802026
1781106275.855603,-0.12841796875,-0.201171875,0.9536132216453552,0.9830256733604291,-0.064849853515625,-0.35858154296875,-0.0782012939453125,0.37269514195058767
1781106275.863639,-0.11865234375,-0.20556640625,0.9614257216453552,0.9902905352961828,-0.3108978271484375,-0.1163482666015625,0.0438690185546875,0.3348415578385686
1781106275.871673,-0.12451171875,-0.20947265625,0.9648436903953552,0.99514084868336,-0.492095947265625,-0.23651123046875,0.0438690185546875,0.547741247526646
1781106275.882411,-0.1225585862994194,-0.1904296875,0.9619140028953552,0.9882118304914312,-0.553131103515625,-0.29754638671875,0.1659393310546875,0.6496335363238833
1781106275.893149,-0.1142578050494194,-0.2021484375,0.9584960341453552,0.9862218230554303,-0.125885009765625,-0.05340576171875,0.2880096435546875,0.3188240358708069
1781106275.903887,-0.12841796875,-0.201171875,0.9648436903953552,0.9939238627201883,-0.0057220458984375,-0.2994537353515625,0.0438690185546875,0.3027041000948269
1781106275.914461,-0.12841796875,-0.18994140625,0.9594725966453552,0.9864869873543615,-0.064849853515625,-0.60272216796875,-0.2613067626953125,0.660121761110973
1781106275.925035,-0.1171874925494194,-0.1884765625,0.9550780653953552,0.9805255907018292,-0.064849853515625,-0.41961669921875,-0.3833770751953125,0.572067880193906
1781106275.935609,-0.1210937425494194,-0.19482421875,0.9619140028953552,0.9888876173066069,-0.370025634765625,-0.35858154296875,0.0438690185546875,0.5171307224778903
1781106275.946263,-0.1127929612994194,-0.1953125,0.9672850966453552,0.9932319381529958,-0.3108978271484375,-0.4825592041015625,0.2269744873046875,0.6172829677514025
1781106275.956913,-0.12744140625,-0.19677734375,0.9599608778953552,0.988173831939454,-0.1277923583984375,-0.2994537353515625,0.1659393310546875,0.3654302779900914
1781106275.967565,-0.1318359375,-0.19091796875,0.9526366591453552,0.9804830388924398,-0.064849853515625,-0.23651123046875,0.1049041748046875,0.2667357335084533
1781106275.975546,-0.1206054612994194,-0.19921875,0.9438475966453552,0.9721533178156733,-0.6160736083984375,-0.2994537353515625,0.1049041748046875,0.6929820462844094
1781106275.983531,-0.10986328125,-0.19189453125,0.9702147841453552,0.9950930504555301,-0.4940032958984375,-0.2994537353515625,0.2880096435546875,0.6454931066673144
1781106275.991516,-0.130859375,-0.208984375,0.9672850966453552,0.9982179637793268,-0.553131103515625,-0.23651123046875,-0.0782012939453125,0.6066358233643776
1781106275.999501,-0.1298828125,-0.20703125,0.9619140028953552,0.9924767163141098,-0.736236572265625,-0.35858154296875,-0.2002716064453125,0.843050253334564
1781106276.010267,-0.1201171875,-0.2041015625,0.9589843153953552,0.9877937556606388,-0.4940032958984375,-0.4825592041015625,-0.1392364501953125,0.7044781266190203
1781106276.021034,-0.1230468675494194,-0.18994140625,0.9594725966453552,0.9858021774855908,-0.614166259765625,-0.23651123046875,-0.2613067626953125,0.7081094414019938
1781106276.0318,-0.1225585862994194,-0.19482421875,0.9687499403953552,0.9957175956581586,-0.308990478515625,-0.35858154296875,-0.4444122314453125,0.649275034349363
1781106276.039788,-0.1215820237994194,-0.205078125,0.9614257216453552,0.9905446199470119,-0.4940032958984375,-0.6046295166015625,-0.5054473876953125,0.9301038492729583
1781106276.04778,-0.12890625,-0.2001953125,0.9624022841453552,0.9914197602248163,-0.247955322265625,-0.29754638671875,-0.3833770751953125,0.5449712615125188
1781106276.055772,-0.1206054538488388,-0.20556640625,0.9555663466453552,0.9848402234463088,-0.4329681396484375,0.0057220458984375,-0.2002716064453125,0.47707742359922967
1781106276.063765,-0.1206054538488388,-0.2001953125,0.9658202528953552,0.9936964322910217,-0.308990478515625,-0.35858154296875,-0.0782012939453125,0.47976169203666685
1781106276.074424,-0.1176757737994194,-0.1845703125,0.9575194716453552,0.982220609932229,-0.492095947265625,-0.54168701171875,-0.3833770751953125,0.8261726343600073
1781106276.085082,-0.12744140625,-0.20263671875,0.9423827528953552,0.9723107552461673,-0.1888275146484375,-0.6656646728515625,0.1049041748046875,0.6998358185048377
1781106276.095742,-0.1147460862994194,-0.20361328125,0.9672850966453552,0.9951208423174743,-0.125885009765625,-0.72479248046875,-0.0782012939453125,0.7397882249687785
1781106276.106429,-0.1142578125,-0.2001953125,0.9589843153953552,0.9862980928900532,-0.064849853515625,-0.60272216796875,-0.0782012939453125,0.6112241468043202
1781106276.11712,-0.103515625,-0.201171875,0.9565429091453552,0.9829343543423515,-0.064849853515625,-0.05340576171875,-0.0171661376953125,0.08574587552257165
1781106276.12781,-0.1225585862994194,-0.18310546875,0.9624022841453552,0.9873025758550752,-0.308990478515625,-0.35858154296875,0.2269744873046875,0.5249507183140053
1781106276.135738,-0.1132812425494194,-0.19775390625,0.9550780653953552,0.9818927427932281,-0.125885009765625,0.12969970703125,0.1049041748046875,0.20898309878824176
1781106276.143667,-0.1118163987994194,-0.1923828125,0.9594725966453552,0.9849374179607867,-0.4329681396484375,0.0057220458984375,0.2880096435546875,0.5200420238215282
1781106276.151597,-0.1132812425494194,-0.2041015625,0.9648436903953552,0.9926799255672545,-0.1277923583984375,0.0057220458984375,0.1659393310546875,0.2095220519782481
1781106276.159525,-0.1215820237994194,-0.2041015625,0.9555663466453552,0.9846556145004481,-0.125885009765625,-0.05340576171875,0.3490447998046875,0.37487529038220935
1781106276.170277,-0.1171874925494194,-0.21533203125,0.9653319716453552,0.9959752042962616,-0.125885009765625,0.12969970703125,0.6542205810546875,0.6787294146883694
1781106276.181029,-0.1220703050494194,-0.20556640625,0.9604491591453552,0.9897581997924635,-0.064849853515625,-0.23651123046875,0.6542205810546875,0.6986756288252605
1781106276.191781,-0.1206054612994194,-0.20263671875,0.9624022841453552,0.9908710681058406,-0.0057220458984375,-0.1163482666015625,0.7152557373046875,0.7246795365523468
1781106276.20248,-0.1137695237994194,-0.18798828125,0.9589843153953552,0.983836376440297,-0.1888275146484375,0.4367828369140625,-0.0782012939453125,0.48223492126319883
1781106276.213179,-0.1118163987994194,-0.20263671875,0.9663085341453552,0.9936381282883535,-0.492095947265625,0.74005126953125,-0.6275177001953125,1.087939689003247
1781106276.223878,-0.1171874925494194,-0.20068359375,0.9658202528953552,0.9933859139897662,-0.3681182861328125,0.7991790771484375,-0.6275177001953125,1.0807297229166974
1781106276.232301,-0.13427734375,-0.1953125,0.9619140028953552,0.9906845747597826,-0.370025634765625,1.10626220703125,-0.8716583251953125,1.4562016608188761
1781106276.240726,-0.1313476413488388,-0.18212890625,0.9462890028953552,0.9725667166731597,-0.064849853515625,0.74005126953125,-0.6885528564453125,1.0129098781011132
1781106276.249149,-0.1215820163488388,-0.20166015625,0.9609374403953552,0.9893683690475457,-0.431060791015625,0.61798095703125,-1.0547637939453125,1.296240922754017
1781106276.257573,-0.12353515625,-0.19189453125,0.9501952528953552,0.9772182277148934,-0.4940032958984375,0.4940032958984375,-0.9326934814453125,1.1653307011520875
1781106276.267579,-0.134765625,-0.21240234375,0.9555663466453552,0.9881212335302207,-0.553131103515625,0.37384033203125,-1.2378692626953125,1.406424872879986
1781106276.277586,-0.13525390625,-0.197265625,0.9511718153953552,0.9807829364161166,-0.7991790771484375,0.1888275146484375,-0.9326934814453125,1.242682645718814
1781106276.287591,-0.119140625,-0.19482421875,0.9624022841453552,0.9891254325236691,-0.6771087646484375,0.0057220458984375,-0.5054473876953125,0.8449769716986448
1781106276.298468,-0.11767578125,-0.1865234375,0.9643554091453552,0.9892522112067881,-0.3681182861328125,-0.1773834228515625,-0.3833770751953125,0.5603159225590575
1781106276.309347,-0.1279296875,-0.19384765625,0.9472655653953552,0.9753230081164126,-0.1888275146484375,-0.2384185791015625,-0.1392364501953125,0.3344937042936767
1781106276.320225,-0.12744140625,-0.1982421875,0.9584960341453552,0.9870440336703001,-0.3108978271484375,-0.6656646728515625,-0.4444122314453125,0.8586437835717438
1781106276.328048,-0.1162109300494194,-0.203125,0.9482421278953552,0.9766923154215263,-0.247955322265625,-0.78582763671875,-0.0782012939453125,0.8277211842435512
1781106276.335874,-0.1230468675494194,-0.19287109375,0.9658202528953552,0.9925464983167759,0.1201629638671875,-1.1539459228515625,0.1049041748046875,1.1649185450676556
1781106276.343699,-0.11865234375,-0.2060546875,0.9614257216453552,0.9903920088325546,-0.064849853515625,-1.02996826171875,-0.3223419189453125,1.0811773380709975
1781106276.351523,-0.109375,-0.2001953125,0.9501952528953552,0.9771960255736004,-0.0057220458984375,-0.7877349853515625,-0.2002716064453125,0.8128147792112767
1781106276.362294,-0.1206054612994194,-0.19921875,0.9526366591453552,0.9806887334901079,0.240325927734375,-1.09100341796875,-0.4444122314453125,1.202309128726504
1781106276.373065,-0.1025390550494194,-0.1875,0.9594725966453552,0.9829843190630297,-0.064849853515625,-0.78582763671875,-0.5664825439453125,0.9708929141397246
1781106276.383837,-0.1083984375,-0.2001953125,0.9584960341453552,0.9851614242710623,-0.0057220458984375,-0.2994537353515625,-0.6275177001953125,0.6953299543984004
1781106276.394418,-0.1142578125,-0.181640625,0.9550780653953552,0.9788882854376235,-0.247955322265625,-0.23651123046875,-0.8716583251953125,0.9365936364614001
1781106276.404998,-0.1240234300494194,-0.19921875,0.9628905653953552,0.9910742467041369,-0.1888275146484375,-0.4215240478515625,-0.8716583251953125,0.9864717882878199
1781106276.415579,-0.1225585862994194,-0.1982421875,0.9492186903953552,0.9774132668305513,-0.4329681396484375,-0.1773834228515625,-0.5054473876953125,0.6887694464631693
1781106276.426275,-0.1123046800494194,-0.18994140625,0.9584960341453552,0.9835673471814749,-0.308990478515625,-0.05340576171875,-0.5054473876953125,0.5948145533912989
1781106276.43697,-0.1123046800494194,-0.19677734375,0.9506835341453552,0.9773089819854368,-0.370025634765625,0.19073486328125,-0.4444122314453125,0.6089343067300633
1781106276.447665,-0.12353515625,-0.19140625,0.9702147841453552,0.9966012315580353,-0.6160736083984375,0.0057220458984375,-0.1392364501953125,0.6316377299032467
1781106276.455667,-0.1240234300494194,-0.21240234375,0.9570311903953552,0.9881322109015913,-0.0057220458984375,-0.2994537353515625,0.4100799560546875,0.5078098579026228
1781106276.463665,-0.11328125,-0.20068359375,0.9663085341453552,0.9934076351448697,-0.1277923583984375,-0.4825592041015625,0.3490447998046875,0.6091194830235382
1781106276.471664,-0.1142578125,-0.19580078125,0.9599608778953552,0.986365895976243,-0.308990478515625,-0.54168701171875,0.5321502685546875,0.8198071985539833
1781106276.479663,-0.1132812425494194,-0.2041015625,0.9663085341453552,0.9941037525784856,-0.125885009765625,0.06866455078125,0.2880096435546875,0.3217318930385679
1781106276.490355,-0.1137695237994194,-0.208984375,0.9555663466453552,0.9847461685027459,-0.125885009765625,0.43487548828125,0.5321502685546875,0.6986756288252605
1781106276.501048,-0.1044921800494194,-0.197265625,0.9531249403953552,0.9789175115921516,0.118255615234375,0.37384033203125,0.2269744873046875,0.4530545246158806
1781106276.511739,-0.1181640550494194,-0.1923828125,0.9599608778953552,0.9861535263541643,-0.0057220458984375,0.4940032958984375,0.0438690185546875,0.49598033121963064
1781106276.522419,-0.1118163987994194,-0.2021484375,0.9570311903953552,0.9845179516970286,0.1773834228515625,0.7991790771484375,0.1659393310546875,0.8352771621714804
1781106276.533102,-0.1123046800494194,-0.19921875,0.9570311903953552,0.9839761942761195,-0.125885009765625,0.37384033203125,0.1659393310546875,0.4279480004951582
1781106276.543783,-0.1206054612994194,-0.189453125,0.9628905653953552,0.9887347494626141,-0.064849853515625,0.61798095703125,-0.0171661376953125,0.6216113279515039
1781106276.551718,-0.1210937350988388,-0.18212890625,0.9638671278953552,0.9883696026331699,-0.492095947265625,0.43487548828125,-0.4444122314453125,0.792954817805725
1781106276.559653,-0.1181640550494194,-0.19482421875,0.9614257216453552,0.9880580136604136,-0.3108978271484375,0.3719329833984375,-0.3223419189453125,0.5821476752290853
1781106276.567588,-0.1147460862994194,-0.19775390625,0.9521483778953552,0.9792138710654194,-0.431060791015625,-0.11444091796875,-0.5664825439453125,0.7209803061466377
1781106276.575523,-0.1132812425494194,-0.20263671875,0.9570311903953552,0.9847857528868184,-0.736236572265625,-0.11444091796875,-0.2002716064453125,0.7715242902171993
1781106276.586273,-0.1157226413488388,-0.1962890625,0.9516600966453552,0.9785591782436706,-0.553131103515625,0.06866455078125,-0.1392364501953125,0.5745046799403776
1781106276.597023,-0.12744140625,-0.19580078125,0.9604491591453552,0.9884542707015372,-0.614166259765625,0.12969970703125,0.2269744873046875,0.6674875478431901
1781106276.607774,-0.1230468675494194,-0.2080078125,0.9580077528953552,0.9880215768303684,-0.308990478515625,-0.05340576171875,0.2880096435546875,0.42576618698362245
1781106276.615705,-0.13232421875,-0.19140625,0.9545897841453552,0.982541453273874,-0.370025634765625,-0.23651123046875,0.5321502685546875,0.6899568398417193
1781106276.62364,-0.1220703050494194,-0.1982421875,0.9643554091453552,0.992059715656043,-0.4940032958984375,-0.3566741943359375,0.2880096435546875,0.673947543985589
1781106276.631573,-0.123046875,-0.20068359375,0.9648436903953552,0.9931453997997518,-0.3681182861328125,0.0057220458984375,0.5931854248046875,0.6981495273903296
1781106276.639508,-0.123046875,-0.20556640625,0.9560546278953552,0.985615813766161,-0.3108978271484375,0.0057220458984375,0.6542205810546875,0.7243581775685399
1781106276.650171,-0.1118163987994194,-0.2060546875,0.9555663466453552,0.9839047129282107,-0.1888275146484375,-0.1773834228515625,0.5931854248046875,0.6472941040914553
1781106276.660835,-0.10986328125,-0.2060546875,0.9584960341453552,0.9865308521684019,-0.0057220458984375,-0.4215240478515625,0.3490447998046875,0.5473093613278733
1781106276.671499,-0.1181640625,-0.20166015625,0.9643554091453552,0.9922756267455045,0.057220458984375,-0.29754638671875,0.0438690185546875,0.3061576782717004
1781106276.682198,-0.13916015625,-0.2041015625,0.9560546278953552,0.9874530107415704,-0.1888275146484375,-0.2384185791015625,-0.3223419189453125,0.4431744147155387
1781106276.692898,-0.1020507737994194,-0.1904296875,0.9663085341453552,0.9901666574251796,0.240325927734375,-0.05340576171875,-0.8106231689453125,0.8471827718722145
1781106276.703598,-0.1259765625,-0.2177734375,0.9643554091453552,0.9966326903768451,-0.064849853515625,-0.17547607421875,-0.9326934814453125,0.9512699335387405
1781106276.714231,-0.10986328125,-0.20166015625,0.9580077528953552,0.9851475086470041,0.4825592041015625,-0.3566741943359375,-0.7495880126953125,0.9601885518713663
1781106276.724867,-0.130859375,-0.1953125,0.9555663466453552,0.9840620872296584,0.1773834228515625,0.0057220458984375,-0.9326934814453125,0.9494286444185143
1781106276.735503,-0.12841796875,-0.19140625,0.9614257216453552,0.9886692801327603,-0.1277923583984375,-0.2994537353515625,-0.6885528564453125,0.7616485164431409
1781106276.743549,-0.1215820237994194,-0.20263671875,0.9648436903953552,0.9933615531077581,-0.064849853515625,-0.05340576171875,-0.3833770751953125,0.3924737706790993
1781106276.751594,-0.1181640550494194,-0.20703125,0.9565429091453552,0.9857986708342348,-0.2498626708984375,-0.1773834228515625,0.1049041748046875,0.32388442213618357
1781106276.759638,-0.12841796875,-0.20751953125,0.9516600966453552,0.9824522736983933,-0.1888275146484375,-0.5397796630859375,-0.0171661376953125,0.5721123938990035
1781106276.767682,-0.1103515625,-0.2021484225988388,0.9619140028953552,0.9891006020984698,-0.125885009765625,-0.72479248046875,-0.0782012939453125,0.7397882249687785
1781106276.778403,-0.1147460862994194,-0.197265625,0.9497069716453552,0.9767413798541894,-0.308990478515625,-0.54168701171875,0.1659393310546875,0.6453183679928701
1781106276.789123,-0.1113281100988388,-0.19580078125,0.9633788466453552,0.9893587297841084,-0.1888275146484375,-0.2384185791015625,0.1049041748046875,0.3217205853540714
1781106276.799844,-0.1118163913488388,-0.1962890625,0.9511718153953552,0.9776298501139894,-0.247955322265625,-0.48065185546875,0.1659393310546875,0.5657242345845538
1781106276.807862,-0.12841796875,-0.20361328125,0.9643554091453552,0.9939471304587448,-0.1888275146484375,-0.5397796630859375,-0.3223419189453125,0.6564466678099756
1781106276.815879,-0.1093749925494194,-0.20849609375,0.9614257216453552,0.9898347985120983,-0.247955322265625,-0.41961669921875,-0.1392364501953125,0.5068992061209808
1781106276.823897,-0.1259765475988388,-0.1962890625,0.9672850966453552,0.995007509918526,-0.431060791015625,-0.35858154296875,-0.3223419189453125,0.6467599564121238
1781106276.831916,-0.12646484375,-0.19482421875,0.9692382216453552,0.9966807729732277,-0.064849853515625,-0.48065185546875,-0.2002716064453125,0.5247289071651535
1781106276.842592,-0.1210937425494194,-0.19873046875,0.9526366591453552,0.9806498345698343,-0.064849853515625,-0.54168701171875,-0.5054473876953125,0.74371189575924
1781106276.853267,-0.1235351487994194,-0.19921875,0.9599608778953552,0.9881669547349163,-0.1888275146484375,-0.1773834228515625,0.0438690185546875,0.26276453295639735
1781106276.863943,-0.1098632737994194,-0.19287109375,0.9531249403953552,0.9786298328468721,-0.1888275146484375,-0.1163482666015625,0.1659393310546875,0.2769992978698165
1781106276.874521,-0.1186523362994194,-0.1923828125,0.9536132216453552,0.9800345401829234,-0.247955322265625,0.19073486328125,-0.2613067626953125,0.4076062488984577
1781106276.885097,-0.1113281175494194,-0.203125,0.9648436903953552,0.992258566240587,-0.614166259765625,0.37384033203125,-0.0171661376953125,0.7192019638259526
1781106276.895673,-0.1118163913488388,-0.20166015625,0.9624022841453552,0.9896402783442316,-0.370025634765625,0.37384033203125,0.2269744873046875,0.5728812984590828
1781106276.903665,-0.1215820163488388,-0.19677734375,0.9633788466453552,0.9907584528413017,-0.064849853515625,0.12969970703125,0.4100799560546875,0.43496331783588893
1781106276.911659,-0.126953125,-0.201171875,0.9599608778953552,0.9889955036944821,0.1201629638671875,0.4940032958984375,0.1049041748046875,0.5191177902319652
1781106276.919653,-0.115234375,-0.2070312350988388,0.9594725966453552,0.9882957842678334,-0.064849853515625,0.49591064453125,-0.1392364501953125,0.5191528290622999
1781106276.927648,-0.12841796875,-0.19921875,0.9609374403953552,0.9897373638511457,0.118255615234375,0.19073486328125,0.1659393310546875,0.27910578674806236
1781106276.938316,-0.12939453125,-0.19580078125,0.9404296278953552,0.9692722918142836,-0.0057220458984375,0.3108978271484375,0.0438690185546875,0.314029762162498
1781106276.948984,-0.1181640550494194,-0.18896484375,0.9648436903953552,0.9902493640366108,-0.125885009765625,0.25177001953125,-0.0171661376953125,0.28201038048595295
1781106276.959651,-0.13134765625,-0.205078125,0.9716796278953552,1.0017337687343577,-0.1888275146484375,0.0057220458984375,-0.0782012939453125,0.20446030047980188
1781106276.968075,-0.1240234300494194,-0.1982421875,0.9584960341453552,0.9866085462727263,-0.4940032958984375,0.3719329833984375,0.1049041748046875,0.6271987614701052
1781106276.976501,-0.1225585862994194,-0.20556640625,0.9584960341453552,0.98792347979316,-0.3108978271484375,0.3108978271484375,0.1049041748046875,0.45201748167818895
1781106276.984926,-0.1259765475988388,-0.20166015625,0.9497069716453552,0.979020041243022,-0.3108978271484375,0.3108978271484375,0.3490447998046875,0.561379720084306
1781106276.993352,-0.119140625,-0.20556640625,0.9453124403953552,0.9747141354623686,-0.370025634765625,0.25177001953125,-0.0782012939453125,0.45433749074139906
1781106277.004004,-0.12646484375,-0.20361328125,0.9682616591453552,0.9974880277863086,-0.247955322265625,-0.05340576171875,0.1659393310546875,0.30310044344323717
1781106277.014657,-0.1225585862994194,-0.20703125,0.9643554091453552,0.9939134271656562,-0.370025634765625,-0.11444091796875,0.1659393310546875,0.421368669552105
1781106277.025308,-0.1113281175494194,-0.20361328125,0.9599608778953552,0.9876118696877382,-0.3681182861328125,-0.1773834228515625,-0.2613067626953125,0.4850331695030762
1781106277.035371,-0.11962890625,-0.20654296875,0.9428710341453552,0.9726134176439097,0.057220458984375,-0.05340576171875,-0.3833770751953125,0.3912854943598788
1781106277.045433,-0.13037109375,-0.19384765625,0.9541015028953552,0.982284690782853,-0.247955322265625,-0.05340576171875,-0.3833770751953125,0.4596868488546547
1781106277.055496,-0.1171874925494194,-0.1982421875,0.9584960341453552,0.9857725502301123,-0.247955322265625,-0.29754638671875,-0.0171661376953125,0.3876988139943277
1781106277.06619,-0.12646484375,-0.2021484375,0.9599608778953552,0.9891320612425949,-0.3108978271484375,-0.4825592041015625,-0.4444122314453125,0.7259635499437662
1781106277.076882,-0.12451171875,-0.19970703125,0.9658202528953552,0.9940798898175214,0.057220458984375,-0.35858154296875,0.1049041748046875,0.37796797453710873
1781106277.087575,-0.1166992112994194,-0.2138671875,0.9687499403953552,0.9989165765083043,0.118255615234375,-0.11444091796875,0.0438690185546875,0.17031031979578404
1781106277.095568,-0.1259765475988388,-0.2060546875,0.9492186903953552,0.9794614576294048,0.057220458984375,0.19073486328125,-0.2613067626953125,0.3285349193428364
1781106277.10356,-0.12890625,-0.19873046875,0.9584960341453552,0.987332399939874,-0.0057220458984375,-0.1773834228515625,-0.2002716064453125,0.26759360392204107
1781106277.111552,-0.1025390550494194,-0.19970703125,0.9472655653953552,0.9735035734525571,-0.125885009765625,0.06866455078125,-0.3223419189453125,0.3527976316913547
1781106277.119545,-0.1215820237994194,-0.2041015625,0.9511718153953552,0.9803914823827263,-0.064849853515625,-0.05340576171875,-0.3223419189453125,0.333109578960294
1781106277.130415,-0.1162109300494194,-0.203125,0.9584960341453552,0.9866505933512253,-0.247955322265625,-0.05340576171875,-0.2002716064453125,0.3231760102061971
1781106277.141286,-0.1123046800494194,-0.2080078125,0.9565429091453552,0.9853192012024818,-0.003814697265625,-0.23651123046875,0.1659393310546875,0.28894285878690223
1781106277.152158,-0.1210937425494194,-0.20751953125,0.9648436903953552,0.9943095077643443,-0.125885009765625,-0.05340576171875,-0.1392364501953125,0.19515634791480174
1781106277.160087,-0.11767578125,-0.21630859375,0.9594725966453552,0.9905678477198222,-0.0057220458984375,-0.4215240478515625,-0.2613067626953125,0.49598033121963064
1781106277.168017,-0.1005859375,-0.1884765625,0.9707030653953552,0.9939342969243539,0.362396240234375,-0.23651123046875,-0.5054473876953125,0.6653913576248707
1781106277.175949,-0.1079101487994194,-0.19384765625,0.9633788466453552,0.9885951224901253,0.301361083984375,-0.29754638671875,-0.4444122314453125,0.613884831746007
1781106277.183879,-0.1025390550494194,-0.1884765625,0.9609374403953552,0.9846006483726389,-0.064849853515625,0.19073486328125,-0.3223419189453125,0.3801178820856256
1781106277.194458,-0.1157226487994194,-0.19775390625,0.9619140028953552,0.9888260149533147,0.1773834228515625,0.9822845458984375,-0.8106231689453125,1.2858684729957324
1781106277.205038,-0.1157226487994194,-0.208984375,0.9565429091453552,0.9859211618966061,-0.370025634765625,0.92315673828125,-0.7495880126953125,1.245399342618378
1781106277.215616,-0.1210937425494194,-0.20361328125,0.9580077528953552,0.9868641838640333,-0.1888275146484375,0.8602142333984375,-0.6885528564453125,1.117912963404829
1781106277.226451,-0.1298828125,-0.1884765625,0.9550780653953552,0.9821237552335556,-0.431060791015625,0.86212158203125,-0.8716583251953125,1.2995596422009184
1781106277.237285,-0.1401367038488388,-0.20166015625,0.9633788466453552,0.9941850514608065,-0.308990478515625,0.92315673828125,-1.2989044189453125,1.6232209242130446
1781106277.24812,-0.12744140625,-0.19921875,0.9575194716453552,0.9862925331556254,-0.614166259765625,0.55694580078125,-0.8716583251953125,1.2029867229211892
1781106277.25859,-0.1201171875,-0.21435546875,0.9487304091453552,0.9800335682786868,-0.431060791015625,0.06866455078125,-0.7495880126953125,0.8674159410925736
1781106277.26906,-0.1206054612994194,-0.1982421875,0.9614257216453552,0.9890323859415944,-0.553131103515625,0.00762939453125,-0.9326934814453125,1.084402764505838
1781106277.279531,-0.13037109375,-0.19775390625,0.9624022841453552,0.9911212771658684,-0.1277923583984375,-0.1773834228515625,-0.9937286376953125,1.0174931798018858
1781106277.28755,-0.1328125,-0.20458984375,0.9575194716453552,0.9880990349665866,-0.1277923583984375,-0.1773834228515625,-0.4444122314453125,0.4952756778055762
1781106277.295573,-0.1376953125,-0.2109375,0.9707030653953552,1.0028554577598219,0.301361083984375,-0.29754638671875,-0.5664825439453125,0.7072869486879949
1781106277.303596,-0.12451171875,-0.21044921875,0.9677733778953552,0.9981870329460059,0.118255615234375,-0.78582763671875,-0.2002716064453125,0.8195231427565803
1781106277.311619,-0.1191406175494194,-0.208984375,0.9575194716453552,0.9872752880145425,-0.1888275146484375,-1.1539459228515625,-0.2002716064453125,1.1863202516615132
1781106277.322273,-0.0981445237994194,-0.1943359375,0.9619140028953552,0.9862440636688183,-0.125885009765625,-1.57928466796875,-0.3223419189453125,1.6167533549908604
1781106277.332926,-0.1137695237994194,-0.19775390625,0.9589843153953552,0.9857489686309484,0.118255615234375,-1.51824951171875,-0.5664825439453125,1.624797969891468
1781106277.343578,-0.0981445237994194,-0.19970703125,0.9599608778953552,0.9854136862110878,0.545501708984375,-1.09100341796875,-1.1157989501953125,1.6531387932600607
1781106277.354218,-0.1215820163488388,-0.1962890625,0.9565429091453552,0.9840152030293219,0.606536865234375,-0.35858154296875,-1.3599395751953125,1.5316342056863965
1781106277.364858,-0.1318359375,-0.1923828125,0.9531249403953552,0.9812436053119346,0.7266998291015625,0.3108978271484375,-0.6885528564453125,1.048262913901307
1781106277.375499,-0.14111328125,-0.20703125,0.9545897841453552,0.9869227693271546,0.240325927734375,-0.05340576171875,0.1659393310546875,0.29689154335720835
1781106277.383534,-0.1235351487994194,-0.19384765625,0.9677733778953552,0.9946975207496492,-0.1277923583984375,-0.1773834228515625,0.5321502685546875,0.5753083294116268
1781106277.39157,-0.1108398362994194,-0.1982421875,0.9560546278953552,0.9826626510333001,0.118255615234375,-0.35858154296875,0.7762908935546875,0.8632454256515033
1781106277.399606,-0.1074218675494194,-0.203125,0.9609374403953552,0.9880283334026316,-0.1888275146484375,-0.0514984130859375,1.0814666748046875,1.099035070210129
1781106277.407642,-0.11376953125,-0.1953125,0.9555663466453552,0.9819355995880005,-0.308990478515625,-0.35858154296875,0.7762908935546875,0.9092213097959702
1781106277.418275,-0.103515625,-0.21142578125,0.9526366591453552,0.981291470432683,-0.431060791015625,-0.05340576171875,0.1659393310546875,0.46497466869352505
1781106277.428906,-0.1108398362994194,-0.19384765625,0.9658202528953552,0.9912977070725767,-0.308990478515625,-0.23651123046875,0.1659393310546875,0.4230230957548704
1781106277.439538,-0.11865234375,-0.201171875,0.9775390028953552,1.005052736999422,-0.003814697265625,-0.54168701171875,-0.0782012939453125,0.5473160083121439
1781106277.450246,-0.1303710788488388,-0.1904296875,0.9580077528953552,0.9854130802304005,-0.370025634765625,-0.05340576171875,-0.0171661376953125,0.3742536867578435
1781106277.460954,-0.1201171875,-0.19970703125,0.9614257216453552,0.9892676358321294,-0.064849853515625,0.61798095703125,-0.0171661376953125,0.6216113279515039
1781106277.471662,-0.1220703050494194,-0.20703125,0.9648436903953552,0.99432713165595,-0.247955322265625,1.04522705078125,0.5931854248046875,1.2271309537801731
1781106277.48236,-0.1240234300494194,-0.20263671875,0.9497069716453552,0.978972309607775,-0.064849853515625,0.92315673828125,1.0814666748046875,1.4233741727487477
1781106277.493057,-0.1220703050494194,-0.1923828125,0.9624022841453552,0.9890047838349749,-0.1888275146484375,0.3719329833984375,1.5087127685546875,1.5653128097693183
1781106277.503753,-0.10498046875,-0.1953125,0.9628905653953552,0.9880921578489562,0.118255615234375,0.37384033203125,1.2645721435546875,1.323965139511684
1781106277.511703,-0.11865234375,-0.181640625,0.9682616591453552,0.9922713015595457,0.118255615234375,0.25177001953125,0.5321502685546875,0.6004635222826218
1781106277.51965,-0.1010742112994194,-0.18408203125,0.9550780653953552,0.9778938088659014,-0.1277923583984375,0.1888275146484375,-0.1392364501953125,0.26715820447130634
1781106277.527598,-0.1201171875,-0.2021484225988388,0.9658202528953552,0.9940326374898144,0.1773834228515625,0.1888275146484375,-0.3223419189453125,0.4135517158714113
1781106277.535546,-0.1113281175494194,-0.20458984375,0.9545897841453552,0.9825948350756901,-0.003814697265625,0.25177001953125,-0.6885528564453125,0.7331491872524947
1781106277.546241,-0.1279296875,-0.21240234375,0.9536132216453552,0.9853217429201359,0.1773834228515625,-0.1163482666015625,-0.9937286376953125,1.0161192859204602
1781106277.556934,-0.126953125,-0.19921875,0.9555663466453552,0.9843334034461999,-0.1888275146484375,0.0057220458984375,-0.9937286376953125,1.0115261625253948
1781106277.567629,-0.12548828125,-0.19873046875,0.9599608778953552,0.9883147246855604,-0.247955322265625,0.06866455078125,-1.1157989501953125,1.1450781456436947
1781106277.578318,-0.130859375,-0.19921875,0.9584960341453552,0.9876876701920132,-0.3108978271484375,0.1888275146484375,-1.1157989501953125,1.1735930242085146
1781106277.58901,-0.125,-0.185546875,0.9555663466453552,0.9814069928747282,-0.125885009765625,0.12969970703125,-0.9326934814453125,0.9500453568215894
1781106277.599701,-0.1376953125,-0.20703125,0.9565429091453552,0.9883300433545944,-0.125885009765625,-0.11444091796875,-0.0782012939453125,0.18724102585689611
1781106277.607723,-0.12744140625,-0.19287109375,0.9560546278953552,0.9836061317170736,-0.003814697265625,-0.05340576171875,0.3490447998046875,0.35312745513579463
1781106277.615745,-0.1347656100988388,-0.20556640625,0.9467772841453552,0.9781648852915887,-0.247955322265625,0.12969970703125,0.7762908935546875,0.8251856804742659
1781106277.623766,-0.1337890625,-0.19482421875,0.9682616591453552,0.9966878297777558,-0.3108978271484375,0.3108978271484375,0.5321502685546875,0.69028894397496
1781106277.631788,-0.1298828125,-0.19921875,0.9648436903953552,0.993720786856248,0.057220458984375,-0.05340576171875,0.7152557373046875,0.7195256257135075
1781106277.64245,-0.1254882663488388,-0.2001953125,0.9648436903953552,0.993352311636681,0.240325927734375,0.12969970703125,0.6542205810546875,0.7089309798710401
1781106277.653113,-0.1215820237994194,-0.21533203125,0.9599608778953552,0.9912996314349333,0.118255615234375,-0.23651123046875,0.1659393310546875,0.3121823413698794
1781106277.663774,-0.1162109300494194,-0.2080078125,0.9677733778953552,0.9966732369673483,-0.0057220458984375,-0.2994537353515625,0.0438690185546875,0.3027041000948269
1781106277.674495,-0.1171874925494194,-0.19482421875,0.9624022841453552,0.9888920776049149,0.240325927734375,-0.60272216796875,-0.5664825439453125,0.8613553482141334
1781106277.685218,-0.1005859375,-0.205078125,0.9458007216453552,0.9729920725479444,0.118255615234375,-0.78582763671875,-0.8106231689453125,1.1351737255576244
1781106277.695939,-0.1113281100988388,-0.20068359375,0.9575194716453552,0.9846376955401385,-0.1888275146484375,-1.0280609130859375,-1.2989044189453125,1.6672485600110913
1781106277.703974,-0.1118163987994194,-0.19921875,0.9565429091453552,0.9834456540288805,0.1773834228515625,-0.8449554443359375,-2.2754669189453125,2.4337551809559548
1781106277.71201,-0.12451171875,-0.1943359375,0.9511718153953552,0.9787734401344259,0.1773834228515625,-0.6046295166015625,-2.5806427001953125,2.6564559994699195
1781106277.720046,-0.11474609375,-0.20166015625,0.9584960341453552,0.9861785498184557,0.362396240234375,-0.72479248046875,-2.7637481689453125,2.8800970671192005
1781106277.728082,-0.12744140625,-0.1943359375,0.9726561903953552,1.0000339160975427,0.179290771484375,-0.35858154296875,-2.1533966064453125,2.1903978744391392
1781106277.738931,-0.1318359375,-0.19091796875,0.9609374403953552,0.9885500238034021,0.118255615234375,0.12969970703125,-1.6040802001953125,1.6136541429925704
1781106277.74978,-0.130859375,-0.1943359375,0.9448241591453552,0.9734389165911347,0.057220458984375,0.12969970703125,-0.8716583251953125,0.8831106560407205
1781106277.760629,-0.14404296875,-0.18310546875,0.9541015028953552,0.9821332228163582,0.301361083984375,0.12969970703125,-0.0171661376953125,0.3285349193428364
1781106277.768584,-0.1464843600988388,-0.201171875,0.9560546278953552,0.9879110499254009,0.301361083984375,0.19073486328125,0.7152557373046875,0.7992428046335024
1781106277.776536,-0.12646484375,-0.19970703125,0.9570311903953552,0.9857915370020941,-0.003814697265625,-0.23651123046875,1.2645721435546875,1.2865048854581034
1781106277.784487,-0.11328125,-0.20166015625,0.9619140028953552,0.9893321025755216,-0.064849853515625,0.19073486328125,1.4476776123046875,1.461627777767006
1781106277.792439,-0.1118163987994194,-0.19189453125,0.9492186903953552,0.9748551381410477,-0.1277923583984375,-0.1773834228515625,1.5697479248046875,1.5848988336787284
1781106277.803025,-0.10986328125,-0.1904296875,0.9541015028953552,0.9791032040982911,-0.1888275146484375,-0.2994537353515625,1.3256072998046875,1.3720652620046119
1781106277.813612,-0.08642578125,-0.20556640625,0.9672850966453552,0.9926567489497198,-0.3108978271484375,-0.4825592041015625,0.8373260498046875,1.0152023237120151
1781106277.824197,-0.087890625,-0.19677734375,0.9638671278953552,0.987666910052897,-0.1888275146484375,-0.4825592041015625,-0.0171661376953125,0.5184726531214677
1781106277.834676,-0.1064453050494194,-0.20361328125,0.9609374403953552,0.9880231452866033,-0.247955322265625,-0.54168701171875,-1.1768341064453125,1.319031908104416
1781106277.845154,-0.1147460862994194,-0.20751953125,0.9721679091453552,1.0006705070817792,-0.308990478515625,-0.54168701171875,-1.6651153564453125,1.7780632960466014
1781106277.855631,-0.1118163987994194,-0.19677734375,0.9575194716453552,0.9839043493316698,-0.064849853515625,-0.48065185546875,-1.6040802001953125,1.6757998085467083
1781106277.863833,-0.1103515625,-0.21484375,0.9619140028953552,0.9917730855525468,-0.0057220458984375,-0.3566741943359375,-1.8482208251953125,1.8823308533305445
1781106277.872037,-0.1225585862994194,-0.19287109375,0.9604491591453552,0.987260073730855,0.301361083984375,-0.29754638671875,-1.7871856689453125,1.8366776991277283
1781106277.880241,-0.134765625,-0.1923828125,0.9555663466453552,0.9840121762804575,0.118255615234375,-0.05340576171875,-1.4209747314453125,1.426886734581725
1781106277.888445,-0.1347656100988388,-0.1875,0.9516600966453552,0.9792726684700023,0.179290771484375,0.12969970703125,-0.3833770751953125,0.44265695129385096
1781106277.898803,-0.1240234300494194,-0.20751953125,0.9692382216453552,0.9989338803693133,0.4825592041015625,0.0057220458984375,-0.0171661376953125,0.48289833666701704
1781106277.909159,-0.13134765625,-0.20458984375,0.9531249403953552,0.9836444291367014,-0.064849853515625,0.43487548828125,0.3490447998046875,0.5613862004712513
1781106277.919516,-0.1132812425494194,-0.2001953125,0.9663085341453552,0.9933091091008167,0.057220458984375,0.06866455078125,1.0204315185546875,1.024338560008457
1781106277.93035,-0.1113281175494194,-0.2041015625,0.9453124403953552,0.973481898926868,0.2384185791015625,0.3108978271484375,1.4476776123046875,1.4997570959840894
1781106277.941185,-0.1181640550494194,-0.1884765625,0.9648436903953552,0.9901563035265022,-0.1277923583984375,0.3108978271484375,1.1425018310546875,1.1909234986992103
1781106277.95202,-0.1044921875,-0.20556640625,0.9599608778953552,0.9872694929535178,-0.247955322265625,-0.05340576171875,1.0204315185546875,1.0514820499107131
1781106277.962559,-0.1035156175494194,-0.197265625,0.9394530653953552,0.9655057078878445,-0.064849853515625,0.06866455078125,0.4100799560546875,0.42081574874617433
1781106277.973099,-0.119140625,-0.205078125,0.9560546278953552,0.9850339980929756,-0.1888275146484375,0.1316070556640625,0.1659393310546875,0.28374655765268186
1781106277.983638,-0.1191406175494194,-0.18798828125,0.9638671278953552,0.9892289527074242,-0.370025634765625,-0.11444091796875,-0.0171661376953125,0.3876988139943277
1781106277.99165,-0.1210937425494194,-0.20458984375,0.9760741591453552,1.0046101048673493,-0.247955322265625,-0.05340576171875,0.1049041748046875,0.2744793309450864
1781106277.999662,-0.119140625,-0.1962890625,0.9589843153953552,0.9860906660935482,-0.1888275146484375,-0.2384185791015625,-0.3223419189453125,0.4431744147155387
1781106278.007675,-0.1142578125,-0.201171875,0.9614257216453552,0.9888702590580792,-0.4940032958984375,-0.4215240478515625,-0.3223419189453125,0.7250007530927344
1781106278.023641,-0.14013671875,-0.20703125,0.9511718153953552,0.983477534477059,-0.431060791015625,-0.29754638671875,-0.0171661376953125,0.5240629104256231
1781106278.031594,-0.1181640625,-0.21044921875,0.9619140028953552,0.9917308951046926,-0.431060791015625,-0.11444091796875,-0.2613067626953125,0.5169055556741975
1781106278.039545,-0.1093749925494194,-0.203125,0.9575194716453552,0.9849193841123169,-0.4940032958984375,-0.1163482666015625,-0.0782012939453125,0.5135091215104447
1781106278.047498,-0.1191406175494194,-0.20849609375,0.9516600966453552,0.9814897082527726,-0.3108978271484375,-0.1163482666015625,0.1049041748046875,0.34813684659665145
1781106278.055542,-0.13134765625,-0.20849609375,0.9565429091453552,0.9877738430165258,-0.064849853515625,-0.05340576171875,0.5931854248046875,0.5991048548346737
1781106278.063587,-0.1401367038488388,-0.19189453125,0.9594725966453552,0.988458127895489,-0.1277923583984375,0.0057220458984375,0.6542205810546875,0.6666094788928758
1781106278.071632,-0.13525390625,-0.19873046875,0.9516600966453552,0.9815520148787457,-0.064849853515625,0.06866455078125,0.8373260498046875,0.8426358867960175
1781106278.087734,-0.1210937425494194,-0.20849609375,0.9536132216453552,0.9836221287112583,0.240325927734375,0.12969970703125,0.7762908935546875,0.8229253410615784
1781106278.095788,-0.1166992112994194,-0.20263671875,0.9541015028953552,0.9823390573172017,0.240325927734375,0.06866455078125,0.5321502685546875,0.5879245533214317
1781106278.103842,-0.1157226413488388,-0.21630859375,0.9711913466453552,1.0016954473539714,-0.064849853515625,0.00762939453125,0.4711151123046875,0.47561871305045367
1781106278.111896,-0.1069335788488388,-0.21142578125,0.9565429091453552,0.9854491302440999,0.179290771484375,0.06866455078125,-0.0171661376953125,0.19275548645065246
1781106278.122469,-0.12548828125,-0.1845703125,0.9633788466453552,0.9888944893926559,-0.064849853515625,-0.05340576171875,-0.3223419189453125,0.333109578960294
1781106278.133044,-0.1064453050494194,-0.20556640625,0.9638671278953552,0.9912759406859651,-0.0057220458984375,-0.2994537353515625,-0.3833770751953125,0.4865010413252779
1781106278.143618,-0.1230468675494194,-0.2080078125,0.9472655653953552,0.9776092435418875,-0.247955322265625,-0.23651123046875,-0.5054473876953125,0.6106524917706532
1781106278.154267,-0.1225585862994194,-0.1943359375,0.9536132216453552,0.9809002192764306,-0.4329681396484375,-0.1773834228515625,-0.2613067626953125,0.535917449691153
1781106278.164918,-0.1303710788488388,-0.20654296875,0.9653319716453552,0.9957521938820836,-0.125885009765625,-0.23651123046875,-0.2002716064453125,0.33450458019243895
1781106278.175569,-0.11865234375,-0.205078125,0.9638671278953552,0.9925599509692726,-0.247955322265625,-0.35858154296875,-0.1392364501953125,0.4576563709386019
1781106278.183556,-0.1206054538488388,-0.19580078125,0.9604491591453552,0.9875961769565609,0.118255615234375,-0.72479248046875,0.4100799560546875,0.8411147963484642
1781106278.191544,-0.12451171875,-0.19580078125,0.9609374403953552,0.9885554503404279,0.240325927734375,-0.48065185546875,0.4711151123046875,0.7146553062482629
1781106278.199531,-0.1162109225988388,-0.19677734375,0.9526366591453552,0.9796646905406986,0.118255615234375,0.12969970703125,0.3490447998046875,0.3906900009075571
1781106278.207517,-0.130859375,-0.2001953125,0.9511718153953552,0.9807803839672055,0.179290771484375,0.43487548828125,0.1049041748046875,0.48194061557288403
1781106278.218211,-0.1098632737994194,-0.197265625,0.9550780653953552,0.9814060203279279,0.1201629638671875,0.7991790771484375,-0.0782012939453125,0.8119370527398638
1781106278.228905,-0.1264648288488388,-0.20166015625,0.9628905653953552,0.9918762082447221,-0.1277923583984375,0.9822845458984375,-0.3223419189453125,1.0416900348401537
1781106278.239599,-0.1166992112994194,-0.20751953125,0.9541015028953552,0.983357889883079,0.240325927734375,0.74005126953125,-0.6885528564453125,1.0390079254727569
1781106278.250301,-0.1186523362994194,-0.19970703125,0.9511718153953552,0.9791267015266689,-0.3681182861328125,0.9822845458984375,-0.8106231689453125,1.3257088382172004
1781106278.261006,-0.12353515625,-0.20654296875,0.9570311903953552,0.9868280661591086,-0.492095947265625,0.43487548828125,-0.3833770751953125,0.7604295453284418
1781106278.271709,-0.1206054538488388,-0.2001953125,0.9516600966453552,0.9799391706591302,-0.553131103515625,0.25177001953125,-0.5664825439453125,0.830809625007999
1781106278.279662,-0.12548828125,-0.18798828125,0.9653319716453552,0.9914397198514477,-0.370025634765625,0.06866455078125,-1.2378692626953125,1.293813781980827
1781106278.287617,-0.1083984300494194,-0.205078125,0.9633788466453552,0.9909117312628958,-0.308990478515625,-0.35858154296875,-1.5430450439453125,1.6140148222415294
1781106278.295573,-0.1206054538488388,-0.19580078125,0.9599608778953552,0.9871213241166538,-0.1888275146484375,-0.4215240478515625,-1.2378692626953125,1.3212337661183613
1781106278.303527,-0.1245117112994194,-0.20263671875,0.9589843153953552,0.9880362965047259,-0.1888275146484375,-0.4825592041015625,-1.0547637939453125,1.1751790828505029
1781106278.314188,-0.1298827975988388,-0.18701171875,0.9580077528953552,0.9846937486698786,-0.0057220458984375,-0.4215240478515625,-0.8716583251953125,0.9682476442567404
1781106278.324847,-0.1254882663488388,-0.1953125,0.9560546278953552,0.9838367390820558,-0.125885009765625,-0.35858154296875,-0.3223419189453125,0.4983292800457218
1781106278.335507,-0.12939453125,-0.19921875,0.9589843153953552,0.9879686089361686,-0.1888275146484375,-0.9098052978515625,-0.2002716064453125,0.9505315495212467
1781106278.346174,-0.1225585862994194,-0.21044921875,0.9516600966453552,0.9823270434510313,0.240325927734375,-0.90789794921875,0.0438690185546875,0.9401913254896322
1781106278.356839,-0.1127929612994194,-0.1982421875,0.9589843153953552,0.9857348194102589,0.606536865234375,-1.21307373046875,0.3490447998046875,1.4004524685659296
1781106278.367504,-0.1176757737994194,-0.203125,0.9624022841453552,0.9906187510301272,0.6656646728515625,-0.7877349853515625,0.0438690185546875,1.0322598290248224
1781106278.378157,-0.1157226487994194,-0.19970703125,0.9589843153953552,0.9863698834363002,0.362396240234375,-0.54168701171875,-0.0171661376953125,0.6519589940204633
1781106278.388809,-0.126953125,-0.2080078125,0.9619140028953552,0.992301816472421,0.179290771484375,-0.05340576171875,0.1659393310546875,0.25006642660521117
1781106278.399462,-0.1196288987994194,-0.1982421875,0.9619140028953552,0.9893884915941322,-0.064849853515625,-0.17547607421875,0.0438690185546875,0.19215058395220608
1781106278.407559,-0.1201171875,-0.2099609375,0.9521483778953552,0.982394150805849,-0.0057220458984375,0.0057220458984375,0.0438690185546875,0.04460912919436073
1781106278.415654,-0.1171874925494194,-0.1904296875,0.9633788466453552,0.9889869445321827,-0.064849853515625,-0.05340576171875,0.1659393310546875,0.18599338826053763
1781106278.423749,-0.10986328125,-0.20556640625,0.9643554091453552,0.9921234011419457,-0.308990478515625,0.06866455078125,-0.0171661376953125,0.3169930797835817
1781106278.431844,-0.1157226487994194,-0.189453125,0.9638671278953552,0.9891026530419683,-0.370025634765625,-0.05340576171875,0.1659393310546875,0.4090317926021653
1781106278.442476,-0.1030273362994194,-0.20263671875,0.9536132216453552,0.9803338453341054,-0.614166259765625,0.12969970703125,0.1659393310546875,0.649275034349363
1781106278.453106,-0.11474609375,-0.20458984375,0.9643554091453552,0.9924741937926843,-0.1888275146484375,-0.2994537353515625,-0.2613067626953125,0.44001090229062945
1781106278.463737,-0.1210937425494194,-0.20947265625,0.9667968153953552,0.9966135512121317,-0.064849853515625,-0.48065185546875,-0.1392364501953125,0.5045973629831432
1781106278.471689,-0.1181640550494194,-0.19482421875,0.9624022841453552,0.9890082793614354,-0.1277923583984375,-0.2994537353515625,0.2269744873046875,0.3968889572264062
1781106278.479639,-0.115234375,-0.19677734375,0.9541015028953552,0.9809739864145847,0.1773834228515625,0.3719329833984375,0.1659393310546875,0.44422391249579957
1781106278.487588,-0.1220703050494194,-0.2041015625,0.9526366591453552,0.9818733174587359,0.118255615234375,0.67901611328125,0.7152557373046875,0.9932965530884057
1781106278.495538,-0.1088867112994194,-0.2119140625,0.9477538466453552,0.9772416485260564,-0.1277923583984375,0.6771087646484375,0.6542205810546875,0.9501640567314156
1781106278.506233,-0.10791015625,-0.1865234375,0.9497069716453552,0.9738474862885397,0.057220458984375,0.67901611328125,0.7762908935546875,1.0329397922618206
1781106278.516927,-0.1206054612994194,-0.2080078125,0.9526366591453552,0.9825118481239321,-0.064849853515625,0.86212158203125,0.8373260498046875,1.2035672143202412
1781106278.52762,-0.1015624925494194,-0.19482421875,0.9672850966453552,0.9919233207746518,-0.125885009765625,0.43487548828125,0.4100799560546875,0.6108431028908827
1781106278.538312,-0.1176757737994194,-0.2021484375,0.9638671278953552,0.9918424364586467,0.3604888916015625,0.1888275146484375,0.1049041748046875,0.42025344394529524
1781106278.549004,-0.1166992112994194,-0.20263671875,0.9609374403953552,0.9889798329881403,0.240325927734375,0.19073486328125,-0.2613067626953125,0.403010624974838
1781106278.559694,-0.1186523362994194,-0.19873046875,0.9594725966453552,0.986995359579915,0.1201629638671875,0.3108978271484375,-0.2613067626953125,0.4235301890553625
1781106278.567894,-0.1328125,-0.19873046875,0.9614257216453552,0.9906928775393193,0.057220458984375,0.06866455078125,-0.1392364501953125,0.16545631001374694
1781106278.576097,-0.11767578125,-0.19091796875,0.9604491591453552,0.9862858853230354,0.3032684326171875,0.0057220458984375,0.2269744873046875,0.378842845938227
1781106278.584299,-0.1206054612994194,-0.1923828125,0.9599608778953552,0.9864490412232539,-0.064849853515625,-0.41961669921875,0.3490447998046875,0.5496507527830116
1781106278.5925,-0.1259765625,-0.1923828125,0.9541015028953552,0.9814229051086499,-0.1888275146484375,-0.1773834228515625,0.3490447998046875,0.43468722233525164
1781106278.600345,-0.1142578125,-0.2099609375,0.9667968153953552,0.9959088940519432,-0.431060791015625,-0.72479248046875,0.1049041748046875,0.8497896393734817
1781106278.608188,-0.1186523362994194,-0.197265625,0.9516600966453552,0.9791062471780057,-0.247955322265625,-0.54168701171875,-0.1392364501953125,0.6117952676897974
1781106278.616033,-0.1132812425494194,-0.193359375,0.9599608778953552,0.9857714618021522,-0.736236572265625,-0.78582763671875,-0.5054473876953125,1.1895572397747105
1781106278.623876,-0.1127929612994194,-0.20703125,0.9667968153953552,0.9951282695481298,-0.614166259765625,-0.72479248046875,-0.5054473876953125,1.0761047328706235
1781106278.634458,-0.1142578050494194,-0.2021484375,0.9545897841453552,0.9824258205040615,-0.431060791015625,-0.41961669921875,-1.0547637939453125,1.2142562500692202
1781106278.64504,-0.1215820237994194,-0.1982421875,0.9541015028953552,0.9820345366855094,-0.1888275146484375,-0.1163482666015625,-0.8106231689453125,0.8404181527432846
1781106278.655622,-0.13037109375,-0.19482421875,0.9750975966453552,1.002880063258148,0.057220458984375,-0.23651123046875,-0.8106231689453125,0.8463578823967822
1781106278.666256,-0.119140625,-0.19677734375,0.9619140028953552,0.989037087527491,0.179290771484375,-0.35858154296875,-0.7495880126953125,0.8500635814301304
1781106278.67689,-0.1157226487994194,-0.2080078125,0.9516600966453552,0.980977023713214,0.179290771484375,-0.35858154296875,-0.6275177001953125,0.7446505004065505
1781106278.687524,-0.1186523362994194,-0.1943359375,0.9521483778953552,0.9789950801929858,0.240325927734375,0.06866455078125,-0.4444122314453125,0.509876066837404
1781106278.695529,-0.1166992038488388,-0.19677734375,0.9541015028953552,0.9811471372936039,0.118255615234375,0.12969970703125,-0.2613067626953125,0.3147818749050793
1781106278.703534,-0.14111328125,-0.20751953125,0.9682616591453552,1.0002539450390973,0.1201629638671875,0.3108978271484375,-0.1392364501953125,0.361224841164002
1781106278.71154,-0.1225585862994194,-0.2119140625,0.9492186903953552,0.9802776643160035,-0.0057220458984375,0.1316070556640625,0.1049041748046875,0.16839847030564115
1781106278.719545,-0.1206054612994194,-0.2119140625,0.9599608778953552,0.9904434028606182,-0.0057220458984375,-0.1163482666015625,0.1049041748046875,0.15676270870938827
1781106278.730263,-0.11865234375,-0.201171875,0.9531249403953552,0.9813234196594073,-0.1888275146484375,-0.6046295166015625,-0.1392364501953125,0.6485518265313396
1781106278.740983,-0.1069335862994194,-0.197265625,0.9599608778953552,0.9858363990922211,-0.064849853515625,-0.54168701171875,-0.5664825439453125,0.7864685592956276
1781106278.751702,-0.1147460862994194,-0.20751953125,0.9575194716453552,0.9864454160019467,0.057220458984375,-0.54168701171875,-0.9326934814453125,1.0801000555141866
1781106278.759833,-0.1210937425494194,-0.21923828125,0.9672850966453552,0.999184455764947,-0.064849853515625,-0.41961669921875,-1.6040802001953125,1.6593242499351568
1781106278.767964,-0.1240234300494194,-0.19873046875,0.9638671278953552,0.9919251235088559,-0.1888275146484375,-0.4215240478515625,-1.5430450439453125,1.6106912680118632
1781106278.776097,-0.1225585862994194,-0.20361328125,0.9570311903953552,0.9860971933671926,-0.247955322265625,-0.60272216796875,-1.0547637939453125,1.2398719750920697
1781106278.784228,-0.1513671725988388,-0.181640625,0.9555663466453552,0.9843842646203304,0.240325927734375,-0.60272216796875,-0.7495880126953125,0.9914195640993
1781106278.794701,-0.1142578125,-0.20947265625,0.9575194716453552,0.9868014896693843,0.179290771484375,-0.54168701171875,-0.5664825439453125,0.8040351186353768
1781106278.805172,-0.130859375,-0.189453125,0.9697265028953552,0.9966875904792392,0.118255615234375,0.06866455078125,-0.3223419189453125,0.3501478598789343
1781106278.815645,-0.11376953125,-0.19482421875,0.9550780653953552,0.9813633850168484,0.240325927734375,0.19073486328125,0.3490447998046875,0.46472423208070346
1781106278.823617,-0.1230468675494194,-0.189453125,0.9672850966453552,0.993314389495191,0.179290771484375,0.43487548828125,0.7152557373046875,0.8560681285940915
1781106278.831594,-0.1196288987994194,-0.1923828125,0.9550780653953552,0.9815784894610855,-0.064849853515625,0.06866455078125,0.9593963623046875,0.964034078255772
1781106278.839569,-0.1157226487994194,-0.2021484375,0.9550780653953552,0.9830716317889453,-0.064849853515625,0.00762939453125,0.8373260498046875,0.8398682187363882
1781106278.847545,-0.1215820237994194,-0.203125,0.9667968153953552,0.9953582452538197,-0.064849853515625,0.00762939453125,0.3490447998046875,0.3550999625916706
1781106278.858307,-0.119140625,-0.20458984375,0.9550780653953552,0.9839845545994991,-0.125885009765625,0.06866455078125,0.2269744873046875,0.2684758352345851
1781106278.86907,-0.1162109300494194,-0.19921875,0.9667968153953552,0.9939261405522616,-0.125885009765625,0.12969970703125,-0.0782012939453125,0.19693778728929792
1781106278.879832,-0.11474609375,-0.20947265625,0.9643554091453552,0.9934922319249506,-0.370025634765625,0.25177001953125,-0.5664825439453125,0.7219484647211479
1781106278.89046,-0.1225585862994194,-0.18505859375,0.9531249403953552,0.9786288582501995,-0.3681182861328125,0.0057220458984375,-0.5054473876953125,0.6253166206991772
1781106278.901092,-0.11865234375,-0.1953125,0.9716796278953552,0.9981916903082665,-0.308990478515625,-0.05340576171875,-0.6885528564453125,0.75659257683186
1781106278.911725,-0.11865234375,-0.201171875,0.9653319716453552,0.9931839293147532,-0.1888275146484375,-0.1773834228515625,-0.8716583251953125,0.9093453386217687
1781106278.922425,-0.1303710788488388,-0.205078125,0.9560546278953552,0.9864553244186236,-0.1888275146484375,0.1888275146484375,-0.3833770751953125,0.4672147711298564
1781106278.933125,-0.1298827975988388,-0.19970703125,0.9619140028953552,0.9909747667872048,-0.1888275146484375,0.1888275146484375,0.1049041748046875,0.28690860298719556
1781106278.943826,-0.1318359375,-0.19921875,0.9492186903953552,0.9788181378396804,-0.308990478515625,-0.05340576171875,0.3490447998046875,0.46921164038072327
1781106278.954411,-0.1147460862994194,-0.18798828125,0.9545897841453552,0.9796672466725825,-0.1888275146484375,-0.1773834228515625,0.7152557373046875,0.7607308845696448
1781106278.964993,-0.1249999925494194,-0.20263671875,0.9521483778953552,0.9814648090746186,-0.0057220458984375,-0.1163482666015625,0.6542205810546875,0.6645105188226782
1781106278.975574,-0.1162109300494194,-0.20703125,0.9716796278953552,1.0002640741356101,-0.064849853515625,-0.35858154296875,0.4100799560546875,0.5485907370860922
1781106278.983555,-0.1064452975988388,-0.21142578125,0.9531249403953552,0.9820787210614674,-0.064849853515625,0.06866455078125,0.1659393310546875,0.19093502985535696
1781106278.991534,-0.1142578125,-0.19482421875,0.9702147841453552,0.9961566399432628,-0.370025634765625,0.25177001953125,0.2880096435546875,0.5322186279142885
1781106278.999514,-0.11962890625,-0.19140625,0.9560546278953552,0.9823379659107958,-0.1888275146484375,-0.1163482666015625,0.5321502685546875,0.5765211685205671
1781106279.007494,-0.1147460862994194,-0.21337890625,0.9658202528953552,0.9957439343808869,-0.431060791015625,-0.23651123046875,-0.1392364501953125,0.5110163957759577
1781106279.015489,-0.1108398362994194,-0.18896484375,0.9682616591453552,0.992735524727135,-0.064849853515625,0.19073486328125,-0.0171661376953125,0.20218795180546634
1781106279.023482,-0.1206054612994194,-0.18994140625,0.9516600966453552,0.9778958812933615,-0.064849853515625,-0.17547607421875,-0.0171661376953125,0.1878617374762533
1781106279.031476,-0.1298827975988388,-0.20556640625,0.9672850966453552,0.9973803420375074,-0.064849853515625,0.00762939453125,-0.0782012939453125,0.10187813080653108
1781106279.03947,-0.1352538913488388,-0.21142578125,0.9604491591453552,0.9927019005749894,-0.064849853515625,0.06866455078125,0.3490447998046875,0.3615972847045222
1781106279.050164,-0.12548828125,-0.1923828125,0.9633788466453552,0.9903823794071783,-0.308990478515625,0.25177001953125,0.4711151123046875,0.6171002411196573
1781106279.060857,-0.13330078125,-0.19921875,0.9531249403953552,0.9828043348688854,-0.1888275146484375,0.3108978271484375,0.3490447998046875,0.5041285168333764
1781106279.071549,-0.1064453050494194,-0.2041015625,0.9624022841453552,0.989548486588809,-0.370025634765625,-0.11444091796875,0.8983612060546875,0.9782988043707641
1781106279.082319,-0.1127929612994194,-0.2001953125,0.9672850966453552,0.9942036378216885,-0.431060791015625,-0.05340576171875,0.2880096435546875,0.5211670900165074
1781106279.093089,-0.1132812425494194,-0.2001953125,0.9575194716453552,0.9847610581458394,-0.4940032958984375,-0.1773834228515625,0.1659393310546875,0.5504906871618561
1781106279.103858,-0.1245117112994194,-0.203125,0.9687499403953552,0.997616849743284,-0.1888275146484375,-0.3566741943359375,-0.0171661376953125,0.4039393363821731
1781106279.11449,-0.1230468675494194,-0.2021484375,0.9711913466453552,0.9996085004621731,-0.1277923583984375,0.1888275146484375,-0.6275177001953125,0.6676564844377344
1781106279.125123,-0.1230468675494194,-0.189453125,0.9541015028953552,0.9804808493862415,-0.4329681396484375,-0.1773834228515625,-0.8716583251953125,0.989300017454494
1781106279.135756,-0.1162109225988388,-0.20166015625,0.9667968153953552,0.9944183623649798,0.057220458984375,-0.05340576171875,-0.9937286376953125,0.9968063812430797
1781106279.143736,-0.134765625,-0.2119140625,0.9633788466453552,0.9955742793637395,-0.003814697265625,-0.05340576171875,-0.9937286376953125,0.9951700018970477
1781106279.151717,-0.13134765625,-0.19775390625,0.9653319716453552,0.9940948796368538,-0.064849853515625,-0.05340576171875,-0.5054473876953125,0.5123814405438329
1781106279.159699,-0.1210937425494194,-0.18798828125,0.9580077528953552,0.9837591895273772,0.057220458984375,-0.35858154296875,-0.3223419189453125,0.48555042641684343
1781106279.167681,-0.1240234375,-0.19140625,0.9638671278953552,0.9904837231502697,0.179290771484375,-0.23651123046875,-0.2613067626953125,0.39542883949910496
1781106279.178319,-0.1171874925494194,-0.19970703125,0.9501952528953552,0.9780014444598621,0.179290771484375,-0.54168701171875,-0.0171661376953125,0.5708455795463656
1781106279.188957,-0.1171874925494194,-0.20849609375,0.9570311903953552,0.986464509705534,-0.370025634765625,-0.48065185546875,-0.0171661376953125,0.60682769616476
1781106279.199595,-0.1240234375,-0.2001953125,0.9575194716453552,0.9860545191703597,0.179290771484375,-0.54168701171875,0.2269744873046875,0.6140744395360201
1781106279.210307,-0.11328125,-0.1953125,0.9667968153953552,0.9928120146918111,0.301361083984375,-0.54168701171875,0.1659393310546875,0.6417002284524324
1781106279.221017,-0.1157226487994194,-0.19775390625,0.9516600966453552,0.9788540639080651,0.057220458984375,-0.90789794921875,-0.3223419189453125,0.9651202929331353
1781106279.231726,-0.0971679612994194,-0.20703125,0.9555663466453552,0.9825530998479416,-0.064849853515625,-0.54168701171875,-0.5664825439453125,0.7864685592956276
1781106279.242365,-0.1225585862994194,-0.2021484375,0.9506835341453552,0.9796345134561697,-0.003814697265625,-0.54168701171875,-1.1768341064453125,1.295522243990027
1781106279.253007,-0.1240234375,-0.201171875,0.9550780653953552,0.9838831471977079,-0.1888275146484375,0.2498626708984375,-0.8106231689453125,0.8690207745662628
1781106279.263649,-0.1176757737994194,-0.20849609375,0.9443358778953552,0.9742117116565023,-0.1888275146484375,0.0057220458984375,-0.2613067626953125,0.3224434777257466
1781106279.271623,-0.1176757737994194,-0.2119140625,0.9741210341453552,1.0038261536685336,-0.370025634765625,-0.23651123046875,0.4100799560546875,0.6008511486877264
1781106279.279597,-0.1220703050494194,-0.19921875,0.9506835341453552,0.9789731619516051,0.118255615234375,-0.54168701171875,0.4711151123046875,0.7275703802664785
1781106279.28757,-0.1074218675494194,-0.19482421875,0.9614257216453552,0.9868309642895509,0.057220458984375,-0.35858154296875,0.4711151123046875,0.5948145533912989
1781106279.295542,-0.10986328125,-0.19873046875,0.9663085341453552,0.9926308089812428,-0.064849853515625,0.12969970703125,0.5931854248046875,0.6106524917706532
1781106279.306255,-0.0986328125,-0.21533203125,0.9550780653953552,0.9840073304519869,-0.125885009765625,0.37384033203125,0.1049041748046875,0.40817706381958696
1781106279.316968,-0.1171874925494194,-0.189453125,0.9633788466453552,0.9887993715339936,-0.370025634765625,1.22833251953125,-0.5664825439453125,1.4023630847667252
1781106279.327682,-0.1181640550494194,-0.18310546875,0.9462890028953552,0.9710577910673314,-0.0057220458984375,1.2912750244140625,-0.8106231689453125,1.5246422047535422
1781106279.335742,-0.14208984375,-0.2021484375,0.9531249403953552,0.9846322493622887,0.057220458984375,1.28936767578125,-0.5054473876953125,1.386080894466099
1781106279.343801,-0.1357421875,-0.216796875,0.9638671278953552,0.9972294955095802,-0.1888275146484375,0.6198883056640625,-0.2613067626953125,0.6987120766221752
1781106279.351861,-0.13232421875,-0.20166015625,0.9580077528953552,0.9879045359214524,-0.492095947265625,0.43487548828125,-0.3833770751953125,0.7604295453284418
1781106279.359921,-0.1254882663488388,-0.2099609375,0.9545897841453552,0.9854301376869858,-0.4940032958984375,-0.1163482666015625,-0.2002716064453125,0.5456050694851484
1781106279.370878,-0.12548828125,-0.20361328125,0.9462890028953552,0.9760474138243266,-0.4940032958984375,-0.4215240478515625,-0.4444122314453125,0.7869078794458012
1781106279.381834,-0.11962890625,-0.2041015625,0.9506835341453552,0.9796773474571184,-0.492095947265625,-0.72479248046875,-0.6885528564453125,1.1142654967189352
1781106279.39279,-0.12646484375,-0.20068359375,0.9536132216453552,0.9826725995986457,-0.370025634765625,-0.84686279296875,-0.8106231689453125,1.2293109787720422
1781106279.40324,-0.1181640625,-0.20068359375,0.9638671278953552,0.9916029904675359,-0.553131103515625,-1.15203857421875,-1.1157989501953125,1.6965123611165775
1781106279.413691,-0.1196288987994194,-0.197265625,0.9604491591453552,0.9877688937892417,0.057220458984375,-1.09100341796875,-1.2378692626953125,1.6510248182482643
1781106279.424142,-0.12255859375,-0.19677734375,0.9624022841453552,0.9899293350757317,-0.064849853515625,-1.09100341796875,-1.4209747314453125,1.7926692804102409
1781106279.432174,-0.1215820237994194,-0.1923828125,0.9702147841453552,0.9965490767798598,-0.0057220458984375,-1.0280609130859375,-0.7495880126953125,1.2723302132704635
1781106279.440207,-0.1303710788488388,-0.20166015625,0.9541015028953552,0.983856246941676,-0.003814697265625,-0.72479248046875,0.2880096435546875,0.7799283598124701
1781106279.44824,-0.1127929612994194,-0.189453125,0.9624022841453552,0.9873362624856614,-0.3108978271484375,-0.9708404541015625,0.7152557373046875,1.2453029414536128
1781106279.456273,-0.1240234375,-0.2001953125,0.9667968153953552,0.9950658563406191,-0.1888275146484375,-1.4591217041015625,0.7152557373046875,1.6359348237065636
1781106279.466742,-0.0986328125,-0.19677734375,0.9619140028953552,0.9867767243308545,-0.1888275146484375,-0.9098052978515625,0.5931854248046875,1.1023930598873497
1781106279.477209,-0.1210937425494194,-0.20361328125,0.9555663466453552,0.9844943400686302,-0.1277923583984375,-0.9708404541015625,0.7762908935546875,1.2495957848844954
1781106279.487677,-0.10400390625,-0.2060546875,0.9550780653953552,0.9825728765619962,-0.370025634765625,-0.78582763671875,0.2269744873046875,0.8977535646834855
1781106279.498324,-0.1088867112994194,-0.19775390625,0.9619140028953552,0.9880493268561557,-0.003814697265625,-0.23651123046875,-0.0782012939453125,0.24913361159785669
1781106279.50897,-0.1044921800494194,-0.203125,0.9638671278953552,0.9905645973654224,-0.125885009765625,-0.23651123046875,-0.1392364501953125,0.30194599994788046
1781106279.519617,-0.115234375,-0.2060546875,0.9565429091453552,0.9852470920833122,-0.2498626708984375,-0.1773834228515625,-0.3833770751953125,0.4907893792619696
1781106279.527663,-0.1113281100988388,-0.19091796875,0.9492186903953552,0.9746074805200698,-0.431060791015625,-0.11444091796875,-0.2613067626953125,0.5169055556741975
1781106279.535709,-0.1279296875,-0.19091796875,0.9682616591453552,0.9951614523816674,-0.6771087646484375,-0.1163482666015625,0.2880096435546875,0.7449582223758723
1781106279.543756,-0.1103515625,-0.19921875,0.9658202528953552,0.9923075826580193,-0.3681182861328125,-0.1773834228515625,0.4711151123046875,0.6236388380543292
1781106279.551801,-0.115234375,-0.19140625,0.9721679091453552,0.9975097780436816,-0.3108978271484375,-0.1773834228515625,0.6542205810546875,0.7457391677414356
1781106279.560468,-0.12548828125,-0.19384765625,0.9589843153953552,0.9863950221584633,-0.1888275146484375,0.0057220458984375,0.3490447998046875,0.3968889572264062
1781106279.569135,-0.1118163987994194,-0.19970703125,0.9741210341453552,1.0006485869352815,-0.7381439208984375,-0.1773834228515625,0.4711151123046875,0.8934600022965288
1781106279.577802,-0.10986328125,-0.22021484375,0.9770507216453552,1.0075676804277531,-0.3681182861328125,0.3108978271484375,0.6542205810546875,0.8125103692793784
1781106279.586469,-0.1132812425494194,-0.2021484375,0.9663085341453552,0.9937045908414517,-0.247955322265625,0.61798095703125,0.6542205810546875,0.9334810516387799
1781106279.596412,-0.1176757737994194,-0.19384765625,0.9726561903953552,0.998741491221485,0.118255615234375,0.74005126953125,0.4711151123046875,0.8852173298750616
1781106279.606355,-0.1298828125,-0.19384765625,0.9526366591453552,0.9807971569922865,0.118255615234375,1.04522705078125,0.2880096435546875,1.0906115408337784
1781106279.616298,-0.1201171875,-0.20361328125,0.9570311903953552,0.9857967368701585,0.6656646728515625,0.6771087646484375,0.5931854248046875,1.1195779044117602
1781106279.626837,-0.12890625,-0.1982421875,0.9541015028953552,0.9829681907473015,0.3032684326171875,0.6771087646484375,0.3490447998046875,0.8199270050782039
1781106279.637372,-0.1245117112994194,-0.19775390625,0.9443358778953552,0.9728206535473201,-0.1277923583984375,0.6771087646484375,0.3490447998046875,0.772424390021096
1781106279.647908,-0.115234375,-0.1904296875,0.9379882216453552,0.9640354407429244,-0.003814697265625,0.43487548828125,0.2880096435546875,0.5216136472558804
1781106279.658438,-0.1249999925494194,-0.193359375,0.9511718153953552,0.9786422576407792,0.057220458984375,0.06866455078125,0.2269744873046875,0.24393937637781882
1781106279.668971,-0.1162109300494194,-0.20849609375,0.9565429091453552,0.9858752144202729,-0.3108978271484375,0.1888275146484375,-0.0782012939453125,0.37206011824521956
1781106279.679502,-0.12890625,-0.20361328125,0.9663085341453552,0.9959053031049685,-0.3108978271484375,0.0057220458984375,-0.2002716064453125,0.36986337623921306
1781106279.690243,-0.1303710788488388,-0.205078125,0.9570311903953552,0.9874018204071109,-0.3681182861328125,0.0057220458984375,-0.0171661376953125,0.3685627364208127
1781106279.700984,-0.130859375,-0.19384765625,0.9663085341453552,0.9942098737294626,-0.614166259765625,-0.54168701171875,0.0438690185546875,0.8200911559627002
1781106279.711726,-0.12939453125,-0.19970703125,0.9497069716453552,0.9790654600382384,-0.431060791015625,-0.23651123046875,0.0438690185546875,0.49363494454688883
1781106279.719695,-0.12890625,-0.1953125,0.9565429091453552,0.9847528273539364,-0.1888275146484375,-0.2994537353515625,-0.1392364501953125,0.38041445683267777
1781106279.727664,-0.1083984300494194,-0.20849609375,0.9594725966453552,0.9878302002163976,-0.3108978271484375,-0.6046295166015625,0.1659393310546875,0.6998358185048377
1781106279.735633,-0.1308593600988388,-0.19580078125,0.9697265028953552,0.9979136277660724,-0.370025634765625,-0.29754638671875,-0.2613067626953125,0.5419723672507594
1781106279.743603,-0.1035156175494194,-0.20849609375,0.9472655653953552,0.9754476693136482,-0.125885009765625,-0.35858154296875,-0.3833770751953125,0.5398201000582077
1781106279.754255,-0.1113281100988388,-0.19580078125,0.9702147841453552,0.9960163760754678,-0.247955322265625,-0.29754638671875,-0.6885528564453125,0.7900131202760072
1781106279.764909,-0.1201171875,-0.201171875,0.9575194716453552,0.9857696488551095,-0.1888275146484375,-0.3566741943359375,-0.8716583251953125,0.9605522094481868
1781106279.775562,-0.1113281100988388,-0.2109375,0.9716796278953552,1.000524800427898,-0.1277923583984375,-0.1773834228515625,-0.6885528564453125,0.722427021702933
1781106279.786241,-0.13427734375,-0.19580078125,0.9580077528953552,0.9869889592038373,-0.1888275146484375,0.0057220458984375,-0.8106231689453125,0.8323451772723324
1781106279.796919,-0.1225585862994194,-0.20556640625,0.9628905653953552,0.9921876815308881,0.118255615234375,-0.29754638671875,-0.9326934814453125,0.9861213784896978
1781106279.807596,-0.13427734375,-0.1943359375,0.9516600966453552,0.9805375062666427,-0.492095947265625,-0.05340576171875,-0.9326934814453125,1.0559013812996885
1781106279.815586,-0.1176757737994194,-0.19921875,0.9580077528953552,0.9855529172492274,-0.1277923583984375,0.1888275146484375,-0.3223419189453125,0.39483038112927304
1781106279.823574,-0.11962890625,-0.19921875,0.9624022841453552,0.9900592619082611,-0.064849853515625,-0.29754638671875,-0.5054473876953125,0.5900986506325849
1781106279.831562,-0.1176757737994194,-0.18994140625,0.9575194716453552,0.9832440511528762,-0.0057220458984375,-0.1163482666015625,-0.5054473876953125,0.5186971396474707
1781106279.83955,-0.1196288987994194,-0.18798828125,0.9560546278953552,0.9816777061925247,-0.1888275146484375,-0.1163482666015625,-0.8106231689453125,0.8404181527432846
1781106279.850246,-0.11279296875,-0.1962890625,0.9653319716453552,0.9915228012190523,0.118255615234375,-0.11444091796875,-0.6885528564453125,0.7079450193051646
1781106279.860943,-0.13134765625,-0.2021484375,0.9521483778953552,0.9821928176864336,0.362396240234375,-0.11444091796875,-0.9937286376953125,1.063919340935826
1781106279.871641,-0.1337890625,-0.2060546875,0.9565429091453552,0.9875891780095664,0.3032684326171875,-0.1773834228515625,-0.7495880126953125,0.827839845441816
1781106279.882425,-0.13525390625,-0.19775390625,0.9570311903953552,0.9865642026662879,0.362396240234375,0.06866455078125,-0.6275177001953125,0.7278903210844445
1781106279.89321,-0.12744140625,-0.1923828125,0.9497069716453552,0.977341184318035,-0.1888275146484375,0.0667572021484375,0.1659393310546875,0.26009270639114507
1781106279.903995,-0.1494140475988388,-0.201171875,0.9648436903953552,0.9968540654512132,-0.308990478515625,-0.05340576171875,0.4100799560546875,0.5162294659895822
1781106279.914531,-0.1064453050494194,-0.20556640625,0.9633788466453552,0.9908011669902992,-0.736236572265625,-0.72479248046875,0.3490447998046875,1.0905047924498885
1781106279.925066,-0.109375,-0.205078125,0.9589843153953552,0.9867476096514315,-0.858306884765625,-0.84686279296875,-0.3833770751953125,1.2652451463397187
1781106279.935601,-0.1044921800494194,-0.20263671875,0.9624022841453552,0.9890391357299487,-0.736236572265625,-0.23651123046875,-0.7495880126953125,1.076969842314903
1781106279.943577,-0.1064452975988388,-0.19580078125,0.9624022841453552,0.9878697808148666,-0.308990478515625,-0.54168701171875,-1.2989044189453125,1.4408513538994103
1781106279.951551,-0.1113281100988388,-0.19677734375,0.9497069716453552,0.9762472038901194,-0.1888275146484375,-0.1773834228515625,-1.8482208251953125,1.8662906868107347
1781106279.959525,-0.09423828125,-0.2001953125,0.9643554091453552,0.9894141559265424,-0.3108978271484375,-0.1773834228515625,-2.0313262939453125,2.062621838850194
1781106279.967499,-0.1206054612994194,-0.18896484375,0.9687499403953552,0.994348951065325,0.118255615234375,-0.23651123046875,-2.2754669189453125,2.290779703918903
1781106279.978272,-0.1235351487994194,-0.20703125,0.9682616591453552,0.997824389377396,0.301361083984375,0.25177001953125,-1.4209747314453125,1.4742373733836358
1781106279.989046,-0.126953125,-0.20361328125,0.9550780653953552,0.9847586380672128,0.545501708984375,0.43487548828125,-0.8716583251953125,1.116457361789973
1781106279.999819,-0.1157226413488388,-0.2001953125,0.9658202528953552,0.9931156296074353,0.423431396484375,0.12969970703125,-0.3833770751953125,0.5857423864789131
1781106280.007774,-0.08935546875,-0.19482421875,0.9565429091453552,0.9802628285533117,-0.1888275146484375,0.1888275146484375,-1.5430450439453125,1.5659820140157432
1781106280.015732,-0.0791015625,-0.22021484375,0.9750975966453552,1.0027796156590572,-0.4940032958984375,0.4940032958984375,-2.7637481689453125,2.8506810509184652
1781106280.023689,-0.06396484375,-0.2109375,0.9628905653953552,0.9877977379350485,-0.064849853515625,0.67901611328125,-4.8389434814453125,4.886782418137588
1781106280.031646,-0.07421875,-0.21044921875,0.9770507216453552,1.0022102619668976,-0.370025634765625,0.74005126953125,-7.2193145751953125,7.266574006197556
1781106280.042344,-0.0942382737994194,-0.18896484375,0.9711913466453552,0.9938818824291822,-0.125885009765625,0.74005126953125,-8.989334106445312,9.02062362558817
1781106280.053043,-0.08154296875,-0.2070312350988388,0.9619140028953552,0.9873144063697641,0.4825592041015625,0.7991790771484375,-11.003494262695312,11.043026603788638
1781106280.063742,-0.1186523362994194,-0.2041015625,0.9677733778953552,0.9961531687884339,0.850677490234375,1.22833251953125,-12.163162231445312,12.25458968874059
1781106280.074322,-0.1108398362994194,-0.205078125,0.9521483778953552,0.9802698813047118,0.728607177734375,0.55694580078125,-12.224197387695312,12.258550437053756
1781106280.084902,-0.13818359375,-0.197265625,0.9667968153953552,0.9963455799304307,1.1539459228515625,0.3719329833984375,-12.041091918945312,12.101975869150273
1781106280.095482,-0.14697265625,-0.21630859375,0.9663085341453552,1.0010707030861647,1.522064208984375,0.19073486328125,-10.942459106445312,11.049455667161622
1781106280.103559,-0.16845703125,-0.19775390625,0.9628905653953552,0.9973177125380277,0.972747802734375,-0.23651123046875,-7.4024200439453125,7.469805777720444
1781106280.111636,-0.17578125,-0.1875,0.9487304091453552,0.9829265929298462,1.094818115234375,0.25177001953125,-6.1206817626953125,6.222922150274027
1781106280.119714,-0.1596679538488388,-0.19482421875,0.9428710341453552,0.9759385834816422,0.7915496826171875,-0.1773834228515625,-3.6792755126953125,3.7676364045742607
1781106280.12779,-0.16552734375,-0.19873046875,0.9628905653953552,0.9970212343104394,0.423431396484375,0.06866455078125,-1.6040802001953125,1.6604464028451302
1781106280.138527,-0.1611328125,-0.19970703125,0.9462890028953552,0.9804639506863749,0.179290771484375,-0.41961669921875,-0.2002716064453125,0.4983292800457218
1781106280.149264,-0.13671875,-0.197265625,0.9599608778953552,0.9895102983283318,-0.125885009765625,-0.41961669921875,0.9593963623046875,1.0546879111615899
1781106280.160002,-0.1230468675494194,-0.1953125,0.9575194716453552,0.9849523048604814,0.118255615234375,-1.02996826171875,1.9969940185546875,2.2500675813907467
1781106280.170537,-0.1215820237994194,-0.2021484375,0.9394530653953552,0.9686166637920202,-0.1888275146484375,-0.8449554443359375,2.2411346435546875,2.4025590572850115
1781106280.18107,-0.1215820237994194,-0.2119140625,0.9560546278953552,0.9867776902203164,-0.247955322265625,-0.48065185546875,2.6073455810546875,2.662847916620626
1781106280.191604,-0.1049804612994194,-0.212890625,0.9599608778953552,0.9888721871693786,-0.553131103515625,-0.72479248046875,2.4242401123046875,2.590022833784965
1781106280.199667,-0.1162109300494194,-0.2099609375,0.9619140028953552,0.991396552598906,-0.308990478515625,-0.90789794921875,1.3866424560546875,1.68598075402488
1781106280.207729,-0.1020507737994194,-0.197265625,0.9594725966453552,0.9848430082775027,-0.0057220458984375,-1.2760162353515625,0.7762908935546875,1.4936123078315782
1781106280.215791,-0.09033203125,-0.1953125,0.9599608778953552,0.9837843948831584,0.057220458984375,-1.02996826171875,0.1049041748046875,1.0368768909401822
1781106280.223854,-0.0908203125,-0.1977538913488388,0.9619140028953552,0.9862218207241064,0.0553131103515625,-0.9708404541015625,0.0438690185546875,0.9734039337735613
1781106280.234406,-0.1113281100988388,-0.18701171875,0.9609374403953552,0.9852756443765294,0.057220458984375,-0.84686279296875,-0.3223419189453125,0.9079400221108005
1781106280.24496,-0.10986328125,-0.19482421875,0.9531249403953552,0.9790166335574764,-0.0057220458984375,-0.7877349853515625,-0.8106231689453125,1.130340245672528
1781106280.255512,-0.1162109300494194,-0.1982421875,0.9658202528953552,0.9927807945717847,-0.003814697265625,-0.54168701171875,-0.7495880126953125,0.9248359634857014
1781106280.266218,-0.126953125,-0.20166015625,0.9658202528953552,0.9947827277696814,-0.064849853515625,-0.05340576171875,-0.2002716064453125,0.2171782568167082
1781106280.276924,-0.12744140625,-0.205078125,0.9487304091453552,0.978972797690317,0.057220458984375,0.25177001953125,0.4711151123046875,0.5372259977914386
1781106280.28763,-0.12841796875,-0.197265625,0.9663085341453552,0.9945637660133521,0.1773834228515625,0.3108978271484375,0.7152557373046875,0.7998206720105627
1781106280.29568,-0.12255859375,-0.18603515625,0.9633788466453552,0.9888015424880132,0.423431396484375,0.06866455078125,1.5697479248046875,1.6273037563685895
1781106280.303726,-0.1201171875,-0.1923827975988388,0.9731444716453552,0.9992244203575008,0.362396240234375,-0.05340576171875,1.9359588623046875,1.9703096017775559
1781106280.311774,-0.1240234300494194,-0.20263671875,0.9677733778953552,0.9965082849379506,0.484466552734375,0.25177001953125,1.8749237060546875,1.952801804326015
1781106280.319821,-0.10546875,-0.205078125,0.9516600966453552,0.9792025501024417,0.545501708984375,0.37384033203125,1.8138885498046875,1.9306787354375303
1781106280.3305,-0.1108398362994194,-0.21337890625,0.9599608778953552,0.9896165489890261,0.240325927734375,0.49591064453125,2.1800994873046875,2.2486702055763867
1781106280.34118,-0.1240234300494194,-0.1923828125,0.9506835341453552,0.9778507758557724,-0.003814697265625,0.43487548828125,1.9969940185546875,2.0437994892763536
1781106280.351861,-0.125,-0.1923827975988388,0.9526366591453552,0.9798738414508164,-0.1888275146484375,0.1888275146484375,2.1190643310546875,2.1358242670512153
1781106280.362478,-0.1210937425494194,-0.19970703125,0.9624022841453552,0.9903356750837115,-0.492095947265625,-0.05340576171875,2.4242401123046875,2.4742576096290088
1781106280.373096,-0.1191406175494194,-0.20849609375,0.9545897841453552,0.9843306171473798,-0.614166259765625,-0.05340576171875,2.4242401123046875,2.5013981074843525
1781106280.383715,-0.1176757737994194,-0.21240234375,0.9599608778953552,0.9901955516257415,-0.4940032958984375,-0.4825592041015625,2.1800994873046875,2.286861695942239
1781106280.39184,-0.1113281175494194,-0.2041015625,0.9545897841453552,0.9824932842349176,-0.6771087646484375,-1.0929107666015625,1.8138885498046875,2.223313269431436
1781106280.399962,-0.1044921800494194,-0.2119140625,0.9653319716453552,0.9938269472385235,-0.614166259765625,-0.78582763671875,1.5697479248046875,1.8597940253410041
1781106280.408086,-0.10400390625,-0.1953125,0.9511718153953552,0.9765713530377617,-0.6160736083984375,-0.4825592041015625,1.0204315185546875,1.2859590042019342
1781106280.416208,-0.11474609375,-0.205078125,0.9570311903953552,0.985460502899,-0.6771087646484375,-0.0514984130859375,0.6542205810546875,0.9429384573712305
1781106280.427378,-0.1108398288488388,-0.1904296875,0.9492186903953552,0.9744562872373808,-0.247955322265625,0.37384033203125,0.7152557373046875,0.8442921327599573
1781106280.438549,-0.1206054612994194,-0.19775390625,0.9501952528953552,0.9780200935345079,-0.553131103515625,0.61798095703125,1.1425018310546875,1.4117949266423173
1781106280.449718,-0.134765625,-0.19287109375,0.9501952528953552,0.9788932787136859,-0.6771087646484375,0.5550384521484375,1.3256072998046875,1.5886405118284441
1781106280.459758,-0.1103515625,-0.1972656100988388,0.9619140028953552,0.9881142328901168,-0.5512237548828125,0.3108978271484375,1.3866424560546875,1.5242317369107963
1781106280.469795,-0.11474609375,-0.20068359375,0.9584960341453552,0.9859793194097292,-0.492095947265625,0.25177001953125,1.5087127685546875,1.6067858544466866
1781106280.479833,-0.12353515625,-0.205078125,0.9555663466453552,0.9851015252370584,-0.553131103515625,0.06866455078125,1.2645721435546875,1.381959313606917
1781106280.487751,-0.1127929612994194,-0.1923828125,0.9477538466453552,0.9736378959834965,-0.4329681396484375,-0.1773834228515625,0.7762908935546875,0.9063960724038362
1781106280.495668,-0.1181640550494194,-0.19921875,0.9594725966453552,0.9870352161755249,-0.1888275146484375,0.0057220458984375,0.4711151123046875,0.5075805563055268
1781106280.503586,-0.1181640550494194,-0.205078125,0.9687499403953552,0.997244317243895,-0.3108978271484375,-0.2994537353515625,0.1659393310546875,0.4624563332169866
1781106280.511502,-0.1225585862994194,-0.2001953125,0.9536132216453552,0.9820778720241681,-0.1888275146484375,-0.0514984130859375,0.2880096435546875,0.3482204353842173
1781106280.522181,-0.12939453125,-0.21337890625,0.9609374403953552,0.9928112946091168,-0.370025634765625,-0.41961669921875,0.1049041748046875,0.5692117624736817
1781106280.532861,-0.1225585862994194,-0.2119140625,0.9624022841453552,0.9930490086038871,0.0553131103515625,-0.4825592041015625,-0.2002716064453125,0.5253871353469589
1781106280.54354,-0.1083984300494194,-0.20458984375,0.9619140028953552,0.9893865638712676,-0.1888275146484375,-0.5397796630859375,-0.3833770751953125,0.688473599170503
1781106280.554232,-0.12646484375,-0.20703125,0.9575194716453552,0.9877746877508427,0.057220458984375,-0.72479248046875,-0.3223419189453125,0.7953003416192981
1781106280.564921,-0.1206054612994194,-0.20361328125,0.9584960341453552,0.9872784273288925,-0.0057220458984375,-0.6656646728515625,-0.1392364501953125,0.680094837177017
1781106280.575611,-0.1259765625,-0.19921875,0.9624022841453552,0.9908462853435319,-0.064849853515625,-0.72479248046875,-0.2613067626953125,0.7731822989925117
1781106280.586323,-0.1245117112994194,-0.2119140625,0.9584960341453552,0.9895076470691562,-0.1888275146484375,-0.2384185791015625,-0.1392364501953125,0.3344937042936767
1781106280.597035,-0.115234375,-0.20166015625,0.9516600966453552,0.9795931397000808,-0.0057220458984375,-0.2994537353515625,-0.1392364501953125,0.33029088768577797
1781106280.607747,-0.10498046875,-0.2041015625,0.9628905653953552,0.9898669544748415,-0.064849853515625,0.12969970703125,-0.3223419189453125,0.3534569708102197
1781106280.618345,-0.1010742038488388,-0.20654296875,0.9648436903953552,0.9918665936099815,0.118255615234375,-0.29754638671875,-0.5054473876953125,0.5983270882317296
1781106280.628943,-0.1113281100988388,-0.19189453125,0.9604491591453552,0.985738325583852,0.3032684326171875,-0.4825592041015625,-0.3833770751953125,0.6868865331847257
1781106280.639541,-0.119140625,-0.2060546875,0.9472655653953552,0.9767113566197002,-0.064849853515625,-0.17547607421875,-0.8106231689453125,0.831929851703353
1781106280.647529,-0.1171874925494194,-0.2041015625,0.9658202528953552,0.9940820474829075,0.240325927734375,0.00762939453125,-1.0547637939453125,1.0818231926799367
1781106280.655519,-0.1113281175494194,-0.19775390625,0.9672850966453552,0.9935497045374455,0.301361083984375,0.06866455078125,-1.2378692626953125,1.2758736751732378
1781106280.66351,-0.11962890625,-0.20654296875,0.9594725966453552,0.9887157007269659,0.4825592041015625,0.0057220458984375,-0.8716583251953125,0.9963354671769415
1781106280.671499,-0.1088867112994194,-0.19287109375,0.9599608778953552,0.9851804209339249,0.606536865234375,-0.41961669921875,-0.8716583251953125,1.1418202043377401
1781106280.679587,-0.1113281175494194,-0.203125,0.9614257216453552,0.9889353536118473,0.3032684326171875,-0.4825592041015625,-0.8716583251953125,1.0414525258347191
1781106280.687673,-0.115234375,-0.19384765625,0.9545897841453552,0.9808657048800996,0.301361083984375,-0.41961669921875,-0.8716583251953125,1.0132546141448227
1781106280.69576,-0.115234375,-0.2021484225988388,0.9653319716453552,0.9929797386762472,0.301361083984375,0.43487548828125,-0.9937286376953125,1.1258027352177977
1781106280.703847,-0.1074218675494194,-0.19921875,0.9570311903953552,0.9834308655766902,0.606536865234375,0.74005126953125,-1.1157989501953125,1.4698878010515355
1781106280.714398,-0.10546875,-0.1982421875,0.9555663466453552,0.9815959784822362,0.362396240234375,0.43487548828125,-1.3599395751953125,1.473052400095215
1781106280.72495,-0.1044921800494194,-0.19873046875,0.9599608778953552,0.985868805668734,0.423431396484375,0.49591064453125,-1.6040802001953125,1.7315584897850669
1781106280.735501,-0.1206054538488388,-0.21044921875,0.9643554091453552,0.9943922286092521,0.179290771484375,0.55694580078125,-1.7261505126953125,1.8226160863510505
1781106280.746223,-0.1142578125,-0.20458984375,0.9541015028953552,0.9824568844026236,-0.0057220458984375,0.4940032958984375,-1.2378692626953125,1.3328136815375282
1781106280.756945,-0.1113281175494194,-0.1982421875,0.9614257216453552,0.9879439927967448,-0.064849853515625,0.37384033203125,-1.7261505126953125,1.767358958964625
1781106280.767668,-0.1093749925494194,-0.203125,0.9658202528953552,0.9929911457425153,0.1201629638671875,0.3108978271484375,-1.6651153564453125,1.6981477400629683
1781106280.778309,-0.11962890625,-0.1953125,0.9628905653953552,0.9897556712614524,-0.1888275146484375,0.1316070556640625,-2.0313262939453125,2.044324524106304
1781106280.78895,-0.1210937425494194,-0.1943359375,0.9467772841453552,0.9740725726876225,0.118255615234375,-0.23651123046875,-2.0313262939453125,2.0484649045433754
1781106280.799592,-0.1210937425494194,-0.1904296875,0.9560546278953552,0.9823276499651726,-0.1888275146484375,-0.0514984130859375,-1.7871856689453125,1.7978711110983956
1781106280.807571,-0.1123046875,-0.20654296875,0.9667968153953552,0.9949715689571922,-0.064849853515625,-0.23651123046875,-1.6040802001953125,1.6227188155368983
1781106280.815552,-0.1220703050494194,-0.1953125,0.9653319716453552,0.9924283084998217,-0.125885009765625,-0.41961669921875,-1.8482208251953125,1.899432922909512
1781106280.823532,-0.11376953125,-0.20166015625,0.9770507216453552,1.0041107695505156,-0.308990478515625,-0.41961669921875,-1.1768341064453125,1.2870477085832874
1781106280.831511,-0.1127929612994194,-0.2041015625,0.9677733778953552,0.9954722552118767,-0.370025634765625,-0.35858154296875,-0.9937286376953125,1.1193731722340565
1781106280.84236,-0.1123046800494194,-0.20263671875,0.9672850966453552,0.9946428701493734,-0.064849853515625,-0.23651123046875,-0.9937286376953125,1.0235427060043083
1781106280.853208,-0.11279296875,-0.20654296875,0.9565429091453552,0.9850667940681795,-0.125885009765625,-0.23651123046875,-0.7495880126953125,0.7960319004902012
1781106280.864056,-0.1064453050494194,-0.19970703125,0.9570311903953552,0.9834237137100686,-0.064849853515625,-0.35858154296875,-0.7495880126953125,0.8334677049744372
1781106280.874632,-0.1157226413488388,-0.20654296875,0.9614257216453552,0.9901470324664451,-0.064849853515625,0.06866455078125,-1.4820098876953125,1.485016374071903
1781106280.885209,-0.11474609375,-0.21435546875,0.9550780653953552,0.9855399758575247,0.118255615234375,-0.05340576171875,-1.7871856689453125,1.7918898351189798
1781106280.895787,-0.11962890625,-0.20654296875,0.9692382216453552,0.9981952732050405,0.0553131103515625,0.0057220458984375,-1.9092559814453125,1.9100656231320252
1781106280.903718,-0.1098632737994194,-0.193359375,0.9653319716453552,0.9906177882064433,-0.247955322265625,-0.05340576171875,-1.6651153564453125,1.6843227622681498
1781106280.911649,-0.1181640550494194,-0.2119140625,0.9584960341453552,0.9887289624883808,0.118255615234375,0.19073486328125,-1.6651153564453125,1.680170624929319
1781106280.91958,-0.1210937350988388,-0.201171875,0.9545897841453552,0.9830439827219732,-0.064849853515625,0.06866455078125,-1.7261505126953125,1.7287324594954765
1781106280.927511,-0.125,-0.20654296875,0.9531249403953552,0.9832253810514214,0.362396240234375,0.43487548828125,-1.6651153564453125,1.7587088660474384
1781106280.938219,-0.1103515625,-0.185546875,0.9516600966453552,0.9758391515590589,0.118255615234375,0.19073486328125,-1.6651153564453125,1.680170624929319
1781106280.948925,-0.0991210862994194,-0.1982421875,0.9599608778953552,0.9852156321047607,0.1773834228515625,0.1888275146484375,-2.6416778564453125,2.6543516357529464
1781106280.959632,-0.0937499925494194,-0.20849609375,0.9506835341453552,0.9777826263066488,0.179290771484375,0.55694580078125,-3.3740997314453125,3.424453650363319
1781106280.970339,-0.1005859375,-0.20166015625,0.9594725966453552,0.9855820681987415,0.667572021484375,0.06866455078125,-4.8999786376953125,4.945721168269915
1781106280.981049,-0.1132812425494194,-0.20751953125,0.9550780653953552,0.9839060456990263,0.606536865234375,0.06866455078125,-5.2051544189453125,5.240823820210736
1781106280.991758,-0.1171874925494194,-0.19384765625,0.9677733778953552,0.9939291389262236,0.545501708984375,-0.23651123046875,-5.3882598876953125,5.420964332477111
1781106280.999965,-0.13330078125,-0.2021484375,0.9521483778953552,0.9824559138171585,0.789642333984375,-0.54168701171875,-4.9610137939453125,5.0525852489592635
1781106281.008174,-0.13134765625,-0.19873046875,0.9633788466453552,0.992393474472549,0.423431396484375,-0.48065185546875,-4.0454864501953125,4.095885859299321
1781106281.016383,-0.14453125,-0.20361328125,0.9584960341453552,0.9904858898542311,0.423431396484375,-0.41961669921875,-3.4351348876953125,3.486477307893088
1781106281.024592,-0.1445312350988388,-0.20458984375,0.9536132216453552,0.9859637207228664,0.240325927734375,-0.60272216796875,-2.5806427001953125,2.660967363455195
1781106281.034917,-0.1357421875,-0.2021484375,0.9619140028953552,0.9922542422268307,0.118255615234375,-0.60272216796875,-1.1157989501953125,1.273681945994514
1781106281.045242,-0.1328125,-0.1943359375,0.9633788466453552,0.991717912979285,-0.247955322265625,-0.35858154296875,-0.3833770751953125,0.5805519327183501
1781106281.055567,-0.1357421875,-0.19873046875,0.9462890028953552,0.9764131388288287,-0.6160736083984375,-0.1773834228515625,0.6542205810546875,0.9159782411952483
1781106281.066221,-0.1186523362994194,-0.197265625,0.9624022841453552,0.989550534457007,-0.6771087646484375,0.1888275146484375,1.3866424560546875,1.5546412481294245
1781106281.076871,-0.1064453050494194,-0.197265625,0.9589843153953552,0.9848325984389442,-0.614166259765625,-0.23651123046875,2.1190643310546875,2.218912210052617
1781106281.087523,-0.119140625,-0.21044921875,0.9692382216453552,0.9989524976174426,-0.6771087646484375,-0.1163482666015625,1.8138885498046875,1.9396403969337908
1781106281.095697,-0.1059570237994194,-0.21826171875,0.9667968153953552,0.9967753764127278,-0.492095947265625,-0.23651123046875,1.2645721435546875,1.3774028785027248
1781106281.103875,-0.0917968675494194,-0.20947265625,0.9692382216453552,0.9958555060381837,-0.736236572265625,-0.23651123046875,1.0204315185546875,1.2803368058987856
1781106281.112053,-0.1069335862994194,-0.2119140625,0.9580077528953552,0.9869757932045331,-0.492095947265625,-0.05340576171875,0.5321502685546875,0.7267699120236326
1781106281.120231,-0.0986328125,-0.1962890625,0.9521483778953552,0.9771613793471093,-0.553131103515625,-0.05340576171875,0.2269744873046875,0.6002696152133629
1781106281.13074,-0.10546875,-0.19873046875,0.9633788466453552,0.9893008938638902,-0.247955322265625,0.25177001953125,0.0438690185546875,0.35608211884840196
1781106281.141249,-0.1157226487994194,-0.19384765625,0.9658202528953552,0.9918555369516369,-0.370025634765625,-0.11444091796875,-0.2002716064453125,0.4360325795596242
1781106281.151758,-0.1157226487994194,-0.1982421875,0.9677733778953552,0.9946240532547587,-0.125885009765625,-0.11444091796875,-0.6275177001953125,0.6501709186418874
1781106281.159705,-0.1123046800494194,-0.197265625,0.9570311903953552,0.9835826184704535,-0.125885009765625,0.12969970703125,-0.3223419189453125,0.36955833422753437
1781106281.16765,-0.12890625,-0.1982421875,0.9584960341453552,0.9872342344480471,-0.247955322265625,0.25177001953125,-0.0782012939453125,0.36191908895406044
1781106281.175596,-0.1210937425494194,-0.20947265625,0.9589843153953552,0.9890366046690859,-0.064849853515625,0.37384033203125,0.1659393310546875,0.4141231205150353
1781106281.183542,-0.1113281175494194,-0.20849609375,0.9589843153953552,0.9876818759298989,-0.1888275146484375,0.6771087646484375,0.2269744873046875,0.7386809374413724
1781106281.194217,-0.125,-0.20361328125,0.9609374403953552,0.9901939873857892,-0.0057220458984375,0.8602142333984375,0.4711151123046875,0.9807908636362717
1781106281.204892,-0.1240234300494194,-0.19873046875,0.9521483778953552,0.98054176042613,0.057220458984375,0.55694580078125,0.7152557373046875,0.9083245981924757
1781106281.215567,-0.115234375,-0.2099609375,0.9565429091453552,0.986071444416569,-0.125885009765625,0.55694580078125,0.7762908935546875,0.9636717346210246
1781106281.22634,-0.1220703050494194,-0.1953125,0.9516600966453552,0.979134858728947,-0.1888275146484375,0.6198883056640625,1.3256072998046875,1.4755175549897204
1781106281.237114,-0.1108398362994194,-0.19921875,0.9531249403953552,0.9800105773235787,-0.3681182861328125,0.4940032958984375,1.0814666748046875,1.2446366930381678
1781106281.247888,-0.1210937425494194,-0.20458984375,0.9497069716453552,0.979011762259303,-0.247955322265625,0.43487548828125,1.1425018310546875,1.2473608002943732
1781106281.258555,-0.12451171875,-0.21044921875,0.9482421278953552,0.9792625668808522,-0.125885009765625,-0.11444091796875,0.9593963623046875,0.9743639665918936
1781106281.269223,-0.11865234375,-0.21142578125,0.9619140028953552,0.9919968692595287,-0.308990478515625,0.06866455078125,0.8373260498046875,0.8951563271456152
1781106281.279891,-0.1210937350988388,-0.20556640625,0.9692382216453552,0.9981703112981164,-0.308990478515625,0.06866455078125,0.5321502685546875,0.6191719023584095
1781106281.287801,-0.1166992112994194,-0.2099609375,0.9545897841453552,0.984349509670453,-0.3108978271484375,0.3108978271484375,0.6542205810546875,0.7882382168651634
1781106281.295712,-0.1118163987994194,-0.205078125,0.9594725966453552,0.9874956243484662,-0.1888275146484375,0.1316070556640625,0.7152557373046875,0.7513767478010892
