timestamp,accel_x,accel_y,accel_z,accel_rms,gyro_x,gyro_y,gyro_z,gyro_rms
1784717894.919115,0.04052734375,0.0029296875,0.9936522841453552,0.9944827351178903,0.2613067626953125,-0.4787445068359375,0.2079010009765625,0.583695428509549
1784717894.927089,0.0336914025247097,0.015624996274709702,0.9814452528953552,0.9821476648363495,0.2613067626953125,-0.9059906005859375,0.6961822509765625,1.1720793143619443
1784717894.935063,0.037109375,0.00830078125,0.9775390028953552,0.9782783401792643,0.4444122314453125,-0.6008148193359375,1.1234283447265625,1.3492857089315595
1784717894.943037,0.04443359375,-0.005859375,0.9848632216453552,0.9858824685927825,0.019073486328125,-0.232696533203125,1.1844635009765625,1.2072552586719667
1784717894.953687,0.0322265625,0.00341796875,0.9716796278953552,0.9722198995637759,0.0782012939453125,-0.4177093505859375,1.1844635009765625,1.2583919616269417
1784717894.964337,0.03125,0.0087890625,0.9873046278953552,0.9878381640649518,-0.041961669921875,-0.35858154296875,1.2416839599609375,1.2931050077718966
1784717894.974987,0.0498046875,0.0107421875,0.9921874403953552,0.9934947500452855,0.019073486328125,-0.48065185546875,1.3065338134765625,1.3922717442381247
1784717894.985668,0.044921875,-0.0009765625,0.9848632216453552,0.9858876679812463,0.3223419189453125,-0.2956390380859375,1.0013580322265625,1.0927143552888734
1784717894.996349,0.0537109375,0.0087890625,0.9824218153953552,0.9839282167879236,0.0782012939453125,-0.5397796630859375,1.0013580322265625,1.1402611261288103
1784717895.00703,0.0517578125,0.0087890625,0.9877929091453552,0.9891870147410237,-0.1010894775390625,-0.2956390380859375,0.8754730224609375,0.9295560964064451
1784717895.015004,0.0585937462747097,0.014648433774709702,0.9804686903953552,0.9823271637087819,-0.164031982421875,-0.48065185546875,0.1468658447265625,0.5286797459427108
1784717895.022977,0.05029296875,0.0068359375,0.9858397841453552,0.9871454769946286,-0.041961669921875,-0.35858154296875,0.0820159912109375,0.37022712963098
1784717895.03095,0.0532226525247097,-3.725290298461914e-09,0.9780272841453552,0.9794743586610654,-0.5321502685546875,-0.2346038818359375,0.2689361572265625,0.6407414036560357
1784717895.038923,0.0429687537252903,-0.0024414099752902985,0.9897460341453552,0.9906813243348391,-0.469207763671875,0.072479248046875,-0.1583099365234375,0.5004709810662925
1784717895.049623,0.0424804724752903,0.0019531212747097015,0.9711913466453552,0.9721219249781666,-0.2269744873046875,0.1316070556640625,-0.5245208740234375,0.5864810161242222
1784717895.060323,0.06640625,0.00830078125,0.9960936903953552,0.9983392875439996,-0.102996826171875,0.12969970703125,-0.9517669677734375,0.966069728927532
1784717895.071023,0.0439453125,-0.00634765625,0.9936522841453552,0.9946438282208725,-0.469207763671875,0.560760498046875,-1.0776519775390625,1.302283397096651
1784717895.081672,0.04345703125,0.00439453125,0.9916991591453552,0.9926605903930987,-0.3490447998046875,0.5588531494140625,-1.3828277587890625,1.5317838376736752
1784717895.092322,0.0400390625,0.01123046875,0.9970702528953552,0.9979370416830068,-0.591278076171875,0.31280517578125,-1.3828277587890625,1.5361215615421306
1784717895.102972,0.0517578125,0.01416015625,0.9780272841453552,0.9794982132258072,-0.469207763671875,0.560760498046875,-1.6231536865234375,1.7802348585887107
1784717895.113682,0.03857421875,0.01220703125,0.9946288466453552,0.9954514174700747,-0.5321502685546875,0.4978179931640625,-1.6841888427734375,1.835074581798585
1784717895.124393,0.03759765625,-0.00634765625,0.9868163466453552,0.9875527218846836,-0.774383544921875,0.743865966796875,-1.5010833740234375,1.8456049812931277
1784717895.135104,0.03369140625,-0.00146484375,0.9980468153953552,0.9986163939887652,-0.8373260498046875,0.6809234619140625,-1.1348724365234375,1.5661121038569357
1784717895.143122,0.041015625,0.01171875,1.00244140625,1.0033485852684403,-0.4100799560546875,0.1926422119140625,-0.8945465087890625,1.0027412670054312
1784717895.15114,0.0288085974752903,0.0068359337747097015,1.001953125,1.002390507724575,-0.5321502685546875,0.3757476806640625,-0.7686614990234375,1.0075766610676362
1784717895.159158,0.03466796875,0.0009765625,0.9868163466453552,0.9874256041535754,-0.469207763671875,0.12969970703125,-0.3414154052734375,0.5945943309954945
1784717895.167176,0.0332031287252903,-0.0175781287252903,0.9833983778953552,0.9841157492967212,-0.2269744873046875,-0.2956390380859375,0.0247955322265625,0.37354340731165725
1784717895.177773,0.0468750037252903,0.0014648400247097015,0.9819335341453552,0.9830528354110635,-0.469207763671875,-0.35858154296875,0.4520416259765625,0.7436923288990858
1784717895.18837,0.0351562537252903,0.0048828087747097015,0.9921874403953552,0.9928220993087402,-0.469207763671875,-0.29754638671875,0.4520416259765625,0.7162621093949341
1784717895.198967,0.044921875,0.0029296875,0.9892577528953552,0.9902815052225963,-0.4100799560546875,-0.2346038818359375,0.7534027099609375,0.8892807178314334
1784717895.209646,0.0415039099752903,0.0063476525247097015,0.9916991591453552,0.9925875727034951,0.2613067626953125,0.2536773681640625,0.8182525634765625,0.8956398210134002
1784717895.220324,0.05078125,-0.0029296875,0.9960936903953552,0.997391577298429,-0.286102294921875,0.80108642578125,0.5130767822265625,0.9933990986459094
1784717895.231002,0.0478515662252903,-0.0058593712747097015,0.9843749403953552,0.9855547310526733,-0.1010894775390625,0.8640289306640625,0.2079010009765625,0.8944204278194123
1784717895.238998,0.04541015625,0.0087890625,0.9926757216453552,0.993752694715544,0.019073486328125,0.80108642578125,0.1468658447265625,0.8146611785269592
1784717895.246997,0.0458984375,-0.001953125,0.9956054091453552,0.996664744024638,0.0782012939453125,1.0471343994140625,-0.2803802490234375,1.0868389838671666
1784717895.254996,0.05126953125,-0.00634765625,0.9912108778953552,0.9925562261315697,-0.102996826171875,0.98419189453125,-0.7686614990234375,1.2530293418525555
1784717895.262995,0.044921875,0.01220703125,0.9882811903953552,0.9893769240055654,-0.164031982421875,0.743865966796875,-1.0776519775390625,1.319688164874472
1784717895.273657,0.0375976599752903,0.010742183774709702,0.9829100966453552,0.9836875706418419,-0.2269744873046875,0.4978179931640625,-1.3828277587890625,1.4871290403602178
1784717895.284319,0.0410156287252903,0.00048827752470970154,0.9912108778953552,0.9920592344576773,-0.4100799560546875,0.4367828369140625,-1.1959075927734375,1.3375873008643844
1784717895.294981,0.0332031287252903,0.00048827752470970154,1.00244140625,1.0029912557627643,-0.286102294921875,0.072479248046875,-1.2569427490234375,1.2911285136962936
1784717895.30566,0.03076171875,-0.0009765625,0.9990233778953552,0.9994973469680729,-0.469207763671875,0.31280517578125,-0.8945465087890625,1.057457545186662
1784717895.316338,0.02734375,-0.001953125,0.9912108778953552,0.9915898848916365,-0.3490447998046875,0.0705718994140625,-0.7076263427734375,0.7921790872299731
1784717895.327016,0.04443359375,0.005859375,0.9902343153953552,0.9912480395518765,-0.347137451171875,0.31280517578125,-0.4062652587890625,0.6191954041339361
1784717895.335002,0.03564453125,0.00244140625,0.9877929091453552,0.9884388319113904,-0.0438690185546875,0.3147125244140625,-0.1010894775390625,0.3334479663772806
1784717895.342987,0.0375976599752903,-0.0029296912252902985,0.9921874403953552,0.9929038644322922,0.019073486328125,0.19073486328125,0.0820159912109375,0.20849510489682696
1784717895.350972,0.04150390625,0.0087890625,0.9951171278953552,0.9960210439967313,0.0782012939453125,0.1316070556640625,0.5130767822265625,0.5354284676175224
1784717895.358957,0.04296875,-0.00634765625,0.9892577528953552,0.9902108401143659,0.2613067626953125,0.1926422119140625,0.2689361572265625,0.4215671983269539
1784717895.369641,0.044921875,0.00927734375,0.9926757216453552,0.9937349406681332,0.1392364501953125,-0.1125335693359375,0.5130767822265625,0.5434136341227016
1784717895.380325,0.0415039099752903,-0.0043945349752902985,0.9887694716453552,0.9896499151410669,0.0782012939453125,-0.2346038818359375,0.5702972412109375,0.6216054754263495
1784717895.391009,0.0332031287252903,-0.0029296912252902985,0.9902343153953552,0.9907951504899141,0.1392364501953125,-0.1125335693359375,0.5130767822265625,0.5434136341227016
1784717895.40167,0.0390625,0.01171875,0.9833983778953552,0.9842436576656354,0.202178955078125,-0.232696533203125,0.5130767822265625,0.5985580931715809
1784717895.412332,0.0244140625,0.00244140625,0.9775390028953552,0.9778468740523113,0.202178955078125,-0.54168701171875,0.9403228759765625,1.1038606160318003
1784717895.422994,0.0439453125,0.00244140625,0.9912108778953552,0.9921875606019666,0.0782012939453125,-0.1735687255859375,0.8754730224609375,0.8959322284264234
1784717895.431,0.0419921875,-0.00048828125,0.9692382216453552,0.9701475725516531,0.1392364501953125,-0.7839202880859375,1.0013580322265625,1.2793106408688957
1784717895.439007,0.0419921875,0.0087890625,0.9985350966453552,0.9994563175362958,0.019073486328125,-0.66375732421875,1.0585784912109375,1.2496103414221447
1784717895.447014,0.0371093787252903,0.0048828087747097015,0.9882811903953552,0.9889897163773583,0.141143798828125,-0.17547607421875,1.1844635009765625,1.2056812222625488
1784717895.455021,0.05419921875,-0.0087890625,0.9882811903953552,0.989805291065874,0.019073486328125,-0.54168701171875,0.8182525634765625,0.9814916577238262
1784717895.463018,0.04736328125,0.00341796875,0.9902343153953552,0.9913722622242618,-0.041961669921875,-0.84686279296875,0.8182525634765625,1.1783355334935082
1784717895.471015,0.0532226525247097,0.010742183774709702,0.9804686903953552,0.9819709252822094,-0.3490447998046875,-0.4787445068359375,0.5702972412109375,0.8223548616194141
1784717895.479012,0.041015625,0.00390625,0.9907225966453552,0.9915789448081874,0.0782012939453125,-0.4177093505859375,0.6961822509765625,0.815638566104154
1784717895.487009,0.05029296875,0.01220703125,1.0078125,1.0091404409069518,0.0782012939453125,-0.5397796630859375,0.7534027099609375,0.9301038492729583
1784717895.497694,0.0498046875,0.0126953125,0.9833983778953552,0.9847405990938228,0.263214111328125,-0.05340576171875,0.6961822509765625,0.7461927166368002
1784717895.508379,0.0517578125,0.00390625,0.9941405653953552,0.9954946477547955,0.568389892578125,0.12969970703125,0.4520416259765625,0.7377199438841945
1784717895.519064,0.03466796875,0.0107421875,0.9990233778953552,0.999682435691946,0.202178955078125,-0.232696533203125,0.6961822509765625,0.7613762099094172
1784717895.527066,0.0419921912252903,0.0014648400247097015,0.9770507216453552,0.9779537834416864,0.5054473876953125,-0.1125335693359375,0.6961822509765625,0.8676465827341772
1784717895.535068,0.04052734375,0.00439453125,0.9838866591453552,0.9847307934357219,0.446319580078125,-0.35858154296875,0.6961822509765625,0.9013609804588597
1784717895.54307,0.0400390625,0.00146484375,0.9819335341453552,0.9827505979506084,0.2613067626953125,-0.6008148193359375,0.5702972412109375,0.8686187971122808
1784717895.551072,0.0332031287252903,0.0029296837747097015,0.9921874403953552,0.9927471720848439,0.0782012939453125,-0.6618499755859375,1.0013580322265625,1.202862727522339
1784717895.559047,0.0380859412252903,0.0161132775247097,0.9877929091453552,0.9886581856179862,0.019073486328125,-0.35858154296875,0.6961822509765625,0.7833353352258228
1784717895.567022,0.05322265625,0.00439453125,0.9858397841453552,0.9872851883052706,-0.2269744873046875,-0.1735687255859375,1.0585784912109375,1.0964633794355274
1784717895.574997,0.0527343787252903,-0.0019531287252902985,0.9863280653953552,0.9877387215240192,-0.1010894775390625,-0.1125335693359375,0.6351470947265625,0.6529124892634539
1784717895.582972,0.0478515662252903,0.0078124962747097015,0.9858397841453552,0.9870313508151685,-0.591278076171875,-0.35858154296875,0.8182525634765625,1.0713205607824994
1784717895.592581,0.0522460974752903,0.0063476525247097015,0.9848632216453552,0.9862684790378531,-0.2841949462890625,-0.1125335693359375,0.8754730224609375,0.9272990805455479
1784717895.60219,0.064453125,-0.00341796875,1.00244140625,1.0045171281750844,-0.3490447998046875,0.1926422119140625,0.6351470947265625,0.7499034111280132
1784717895.611799,0.044921875,0.015625,0.9931640028953552,0.9943021935637277,0.019073486328125,0.072479248046875,0.3871917724609375,0.3943786352473876
1784717895.621408,0.04931640625,0.01220703125,0.9907225966453552,0.9920243863136978,-0.1659393310546875,0.1926422119140625,0.4520416259765625,0.5186410271252692
1784717895.631017,0.0556640625,0.00634765625,1.0009765625,1.0025431957118798,0.2613067626953125,0.1926422119140625,0.2079010009765625,0.38550625448688064
1784717895.63901,0.04638671875,0.01416015625,0.9980468153953552,0.999224541042816,0.324249267578125,0.61798095703125,-0.1583099365234375,0.7156116871462238
1784717895.647003,0.05126953125,-0.00732421875,0.9868163466453552,0.9881744334991563,0.0782012939453125,0.7419586181640625,-1.0128021240234375,1.2579293206969273
1784717895.654996,0.0517578162252903,0.0048828087747097015,0.9877929091453552,0.9891600197742453,0.5054473876953125,0.8640289306640625,-1.1348724365234375,1.5132608836328065
1784717895.662989,0.0366210974752903,-0.0039062537252902985,0.9873046278953552,0.9879912913897808,0.0782012939453125,0.6198883056640625,-1.6841888427734375,1.7963488002045465
1784717895.670982,0.03515625,0.00048828125,1.00048828125,1.0011058891302262,0.2613067626953125,0.6198883056640625,-1.9893646240234375,2.100027224358122
1784717895.678975,0.05224609375,0.0087890625,0.9863280653953552,0.9877499453395615,0.1392364501953125,0.4978179931640625,-1.6841888427734375,1.7617325567473108
1784717895.688672,0.0361328162252903,-0.0043945349752902985,0.9790038466453552,0.9796802662565077,0.0782012939453125,0.1926422119140625,-1.3828277587890625,1.398370149375138
1784717895.698369,0.03955078125,-0.00341796875,0.9970702528953552,0.9978602286977214,0.0782012939453125,0.2536773681640625,-1.4400482177734375,1.4643109365861542
1784717895.708066,0.05029296875,-0.00244140625,0.9926757216453552,0.9939519261585505,0.1392364501953125,0.1926422119140625,-1.3828277587890625,1.4031074161844188
1784717895.717763,0.0341796875,0.0087890625,0.9960936903953552,0.996718685840024,0.0782012939453125,0.1926422119140625,-1.0776519775390625,1.0975246005806503
1784717895.72746,0.03662109375,0.00244140625,0.9936522841453552,0.9943298882962363,0.1392364501953125,0.3757476806640625,-0.3414154052734375,0.5264385885793704
1784717895.736978,0.0473632849752903,0.0048828087747097015,0.9936522841453552,0.9947924328082028,0.5702972412109375,0.7419586181640625,-0.4634857177734375,1.0442990687445286
1784717895.746499,0.04833984375,-0.001953125,0.9990233778953552,1.0001941135462085,0.3871917724609375,0.6809234619140625,-0.2803802490234375,0.8319779526459333
1784717895.75602,0.0527343787252903,0.0073242150247097015,0.9907225966453552,0.9921521165269899,0.446319580078125,0.61798095703125,-0.4634857177734375,0.8921438456853985
1784717895.765541,0.0488281212747097,0.009765621274709702,0.9760741591453552,0.9773434999719449,0.4444122314453125,0.3147125244140625,-0.7076263427734375,0.8929060675503243
1784717895.775062,0.05615234375,-0.001953125,0.9868163466453552,0.98841459034778,0.324249267578125,0.12969970703125,-0.8945465087890625,0.9602984212814488
1784717895.784646,0.04248046875,-0.001953125,0.9814452528953552,0.9823661177755029,0.5054473876953125,0.3757476806640625,-0.8296966552734375,1.0416620954149993
1784717895.794228,0.0317382849752903,0.009765621274709702,0.9863280653953552,0.9868868925457456,0.2613067626953125,0.3147125244140625,-1.0776519775390625,1.1526747077763215
1784717895.80381,0.0283203162252903,-0.00048827752470970154,0.9985350966453552,0.9989367437223392,0.202178955078125,0.31280517578125,-0.8945465087890625,0.9689875459770995
1784717895.813392,0.03955078125,0.00634765625,0.9965819716453552,0.9973866768941207,0.385284423828125,0.255584716796875,-0.7686614990234375,0.8969995177176335
1784717895.822974,0.048828125,-0.00146484375,1.00048828125,1.0016801547783636,0.4444122314453125,0.3757476806640625,-0.7686614990234375,0.9641208695301551
1784717895.830969,0.04931640625,-0.01513671875,0.9848632216453552,0.9862133610581433,0.629425048828125,0.61798095703125,-0.4634857177734375,0.9964413509712982
1784717895.838964,0.0517578125,-0.00146484375,0.9877929091453552,0.9891490526102934,0.629425048828125,0.92315673828125,-0.7076263427734375,1.3225465196027224
1784717895.846959,0.0458984375,0.01171875,0.9980468153953552,0.9991703765561277,1.056671142578125,0.92315673828125,-0.7686614990234375,1.5998789851336865
1784717895.854954,0.0556640625,-0.0009765625,0.9858397841453552,0.9874105131768047,1.0585784912109375,1.2302398681640625,-1.4400482177734375,2.1697505443684553
1784717895.86565,0.05078125,0.00244140625,0.9916991591453552,0.9930014693169616,1.4209747314453125,1.2912750244140625,-0.9517669677734375,2.1429934057355986
1784717895.876346,0.0581054650247097,-0.0039062537252902985,0.9926757216453552,0.9943825180623556,1.178741455078125,1.28936767578125,-1.2569427490234375,2.152162980722379
1784717895.887042,0.04443359375,0.00390625,0.9877929091453552,0.9887994915049494,1.4820098876953125,1.0471343994140625,-1.5659332275390625,2.3968710083719205
1784717895.895018,0.05029296875,-0.0029296875,0.9999999403953552,1.0012681192194477,1.361846923828125,1.232147216796875,-1.7490386962890625,2.5361289732418886
1784717895.902994,0.03466796875,0.01220703125,0.9814452528953552,0.9821332211568944,1.4209747314453125,1.3523101806640625,-1.5010833740234375,2.470053300619915
1784717895.91097,0.048828125,0.00244140625,0.9936522841453552,0.9948542647256305,1.5468597412109375,1.2302398681640625,-1.3828277587890625,2.4121521101864785
1784717895.918946,0.05322265625,0.00390625,0.9833983778953552,0.9848453074339056,1.667022705078125,1.41143798828125,-1.2569427490234375,2.5201243954082915
1784717895.929671,0.04443359375,0.0107421875,0.9975585341453552,0.9986054115074958,1.9702911376953125,1.5354156494140625,-1.1959075927734375,2.769430149723848
1784717895.940396,0.048828125,0.01416015625,0.9907225966453552,0.9920261888275709,1.7261505126953125,1.7185211181640625,-1.3179779052734375,2.7694721852445294
1784717895.951121,0.0458984375,0.0029296875,0.9931640028953552,0.9942283370941075,2.155303955078125,1.59454345703125,-1.6231536865234375,3.134091872490531
1784717895.959146,0.03662109375,0.01806640625,0.9804686903953552,0.9813186803418241,1.9092559814453125,1.3523101806640625,-1.5659332275390625,2.815341560188262
1784717895.967171,0.0512695349752903,0.0058593712747097015,0.9902343153953552,0.991577983234211,2.338409423828125,1.41143798828125,-1.1348724365234375,2.957744288371165
1784717895.975196,0.03857421875,0.01318359375,0.9814452528953552,0.982291485215649,2.2144317626953125,1.7795562744140625,-0.9517669677734375,2.996062236734239
1784717895.983221,0.0327148474752903,0.009765621274709702,0.9931640028953552,0.993750655472155,2.460479736328125,1.59454345703125,-1.0128021240234375,3.1019828354890806
1784717895.991166,0.04541015625,0.00830078125,0.9960936903953552,0.9971627877660937,2.5234222412109375,1.7185211181640625,-0.9517669677734375,3.197942307478128
1784717895.999111,0.03515625,0.015625,0.9887694716453552,0.9895176454196749,2.3975372314453125,1.6574859619140625,-0.7076263427734375,2.9993631875942515
1784717896.007056,0.04345703125,0.01171875,0.9980468153953552,0.9990612035243067,2.2754669189453125,2.1457672119140625,-0.5893707275390625,3.1826756795846864
1784717896.015001,0.0498046875,0.001953125,0.9809569716453552,0.9822224299077397,2.460479736328125,2.208709716796875,-0.8945465087890625,3.4252843097093346
1784717896.025727,0.0390625,0.00341796875,0.9995116591453552,1.0002805197463993,2.2144317626953125,1.8405914306640625,-0.8945465087890625,3.0152443188993074
1784717896.036453,0.0234375037252903,0.011718746274709702,0.9877929091453552,0.9881404135814748,2.155303955078125,1.28936767578125,-0.6465911865234375,2.593430990910446
1784717896.047179,0.0400390625,0.02099609375,0.9833983778953552,0.9844370635677293,1.789093017578125,0.80108642578125,-0.8296966552734375,2.1286121832991816
1784717896.057778,0.0327148474752903,0.0190429724752903,0.9838866591453552,0.9846145713375537,1.8520355224609375,0.8640289306640625,-0.5893707275390625,2.126955435349214
1784717896.068379,0.03515625,0.025390625,1.00048828125,1.0014277041656738,1.6040802001953125,0.5588531494140625,-0.3414154052734375,1.7326149630620982
1784717896.07898,0.0375976599752903,0.0249023400247097,0.9907225966453552,0.9917484429420794,1.4209747314453125,0.5588531494140625,0.0820159912109375,1.5291215297779333
1784717896.089982,0.0400390625,0.00537109375,0.9843749403953552,0.9852035314859104,1.117706298828125,0.61798095703125,-0.3414154052734375,1.3220182724347462
1784717896.100985,0.0527343787252903,0.0190429724752903,0.9931640028953552,0.9947453373338133,1.056671142578125,0.92315673828125,-0.1010894775390625,1.4067662739277471
1784717896.111988,0.0512695349752903,0.0346679650247097,0.9838866591453552,0.9858313197802885,0.7495880126953125,1.2912750244140625,-0.4062652587890625,1.5473606037220249
1784717896.122331,0.048828125,0.01708984375,0.9765624403953552,0.9779317197746205,0.873565673828125,1.720428466796875,-1.0776519775390625,2.210050877366782
1784717896.132674,0.0537109375,0.02783203125,0.9912108778953552,0.9930551300047298,0.385284423828125,1.47247314453125,-1.6231536865234375,2.225140251463926
1784717896.143017,0.03857421875,0.02294921875,0.9794921278953552,0.9805199975535324,0.385284423828125,1.41143798828125,-1.9893646240234375,2.4694478915992346
1784717896.153654,0.0375976599752903,0.0292968712747097,0.9755858778953552,0.9767495563607671,-0.286102294921875,1.10626220703125,-2.5997161865234375,2.8397526026640385
1784717896.164292,0.03759765625,0.01904296875,0.9814452528953552,0.982349735504181,-0.102996826171875,0.80108642578125,-2.3593902587890625,2.493806367992747
1784717896.17493,0.029296875,0.015625,0.9814452528953552,0.982006737217517,-0.164031982421875,0.61798095703125,-2.1114349365234375,2.206119771381926
1784717896.182991,0.02490234375,0.01416015625,0.9907225966453552,0.9911366708244543,-0.2841949462890625,0.3757476806640625,-1.8062591552734375,1.866688303662338
1784717896.191053,0.0341796875,0.0336913987994194,0.9785155653953552,0.9796918255817239,-0.469207763671875,0.43487548828125,-1.1348724365234375,1.30276938211583
1784717896.199115,0.0292968712747097,0.015136715024709702,0.9877929091453552,0.9883431884553412,-0.4100799560546875,0.4978179931640625,-0.7686614990234375,1.0034086030908183
1784717896.207177,0.0302734375,0.021484375,0.9804686903953552,0.9811711941515557,-0.591278076171875,0.31280517578125,-0.2193450927734375,0.7039666974231382
1784717896.217776,0.0161132849752903,0.0244140587747097,0.9931640028953552,0.9935946964762217,-0.286102294921875,0.31280517578125,0.6961822509765625,0.8150897666698409
1784717896.228377,0.02490234375,0.01513671875,0.9824218153953552,0.9828539415108763,-0.286102294921875,0.12969970703125,1.1234283447265625,1.166519516724268
1784717896.238978,0.02587890625,0.02099609375,0.9897460341453552,0.9903069048774292,-0.225067138671875,0.43487548828125,1.1234283447265625,1.2255052643513469
1784717896.246998,0.0341796875,0.0224609375,0.9863280653953552,0.9871756669091478,-0.2269744873046875,0.0095367431640625,1.4286041259765625,1.4465538759806567
1784717896.255018,0.0380859412252903,0.0195312462747097,0.9946288466453552,0.9955493714925088,-0.530242919921875,0.12969970703125,0.8754730224609375,1.031713420087263
1784717896.263038,0.02783203125,0.033203125,0.9829100966453552,0.9838644863804406,-0.591278076171875,0.12969970703125,0.7534027099609375,0.9664612877616932
1784717896.271058,0.0375976599752903,0.014648433774709702,0.9858397841453552,0.9866652120407561,-0.5893707275390625,0.3757476806640625,0.6351470947265625,0.9444342253137267
1784717896.282026,0.04443359375,0.014648430049419403,0.9916991591453552,0.9928021671038281,-0.774383544921875,0.19073486328125,0.2079010009765625,0.8241798886916274
1784717896.292994,0.0400390625,0.0107421875,0.9873046278953552,0.988174554105574,-0.957489013671875,0.12969970703125,0.0820159912109375,0.9697081252215249
1784717896.303962,0.03466796875,0.00634765625,0.9887694716453552,0.9893974069376542,-0.774383544921875,-0.05340576171875,-0.2193450927734375,0.8066190673138823
1784717896.314301,0.0356445349752903,0.0205078087747097,0.9843749403953552,0.9852335390011364,-0.774383544921875,-0.48065185546875,-0.4634857177734375,1.0225043234095788
1784717896.324641,0.03125,0.0068359375,0.9873046278953552,0.9878227172955124,-0.774383544921875,-0.17547607421875,-0.5893707275390625,0.9888476028938522
1784717896.334981,0.0302734375,0.025390625,0.9755858778953552,0.9763856666322013,-1.4476776123046875,-0.1125335693359375,-0.5245208740234375,1.5438770743430315
1784717896.342986,0.0375976599752903,0.012207027524709702,0.9804686903953552,0.9812652283670249,-1.2035369873046875,-0.3566741943359375,-0.7076263427734375,1.4409902156859165
1784717896.350994,0.0283203162252903,0.0278320275247097,0.9975585341453552,0.9983484818005517,-1.750946044921875,-0.35858154296875,-0.7076263427734375,1.9222715250901254
1784717896.359002,0.03466796875,0.015625,0.9780272841453552,0.9787662525930235,-1.5087127685546875,-0.1735687255859375,-0.5245208740234375,1.6066930222627431
1784717896.36701,0.04541015625,0.0234375,0.9916991591453552,0.9930149147653846,-1.445770263671875,-0.05340576171875,-0.8945465087890625,1.7009753928523785
1784717896.377685,0.0341796875,0.02197265625,0.9916991591453552,0.9925312442990815,-1.4476776123046875,0.3757476806640625,-1.0128021240234375,1.8063014507880488
1784717896.38836,0.03857421875,0.0166015625,0.9965819716453552,0.9974663946410214,-1.6918182373046875,0.5588531494140625,-1.0128021240234375,2.0494716229099494
1784717896.399035,0.03515625,0.02197265625,0.9721679091453552,0.9730514904714934,-1.2035369873046875,0.3757476806640625,-0.8945465087890625,1.545930482176209
1784717896.407069,0.03271484375,0.01806640625,0.9907225966453552,0.9914272134353042,-1.5659332275390625,0.3757476806640625,-1.0128021240234375,1.9023935804826808
1784717896.415101,0.0224609375,0.02294921875,1.00341796875,1.0039316612025893,-1.934051513671875,0.255584716796875,-0.9517669677734375,2.170654087122417
1784717896.423133,0.0327148474752903,0.0166015587747097,0.9897460341453552,0.9904257090289712,-1.8749237060546875,0.1926422119140625,-0.9517669677734375,2.1114711189788107
1784717896.431165,0.02978515625,0.015625,0.9907225966453552,0.9912933771904018,-1.8138885498046875,-0.2956390380859375,-0.5245208740234375,1.9112080627810362
1784717896.441786,0.03564453125,0.01416015625,0.9941405653953552,0.9948801467501768,-2.0542144775390625,0.0705718994140625,-0.2803802490234375,2.0744615197107024
1784717896.452407,0.0219726599752903,0.009765621274709702,0.9970702528953552,0.9973601427538993,-1.567840576171875,-0.05340576171875,0.2079010009765625,1.582466136725451
1784717896.463028,0.0458984375,0.0126953125,1.0009765625,1.002108734718309,-1.8138885498046875,-0.2956390380859375,0.4520416259765625,1.89260025984582
1784717896.473867,0.04638671875,0.00732421875,0.9975585341453552,0.9986633070774751,-1.3256072998046875,-0.2346038818359375,0.4520416259765625,1.4200758170898833
1784717896.484706,0.0322265662252903,0.009765621274709702,1.00341796875,1.0039828379708142,-0.774383544921875,-0.232696533203125,0.6351470947265625,1.028216603226244
1784717896.495545,0.0327148474752903,0.0161132775247097,0.9868163466453552,0.9874899498042528,-0.652313232421875,-0.05340576171875,1.1844635009765625,1.353262174792117
1784717896.503412,0.0507812537252903,0.0009765587747097015,0.9887694716453552,0.9900731071263312,-0.591278076171875,0.00762939453125,1.0013580322265625,1.1629212697887508
1784717896.511279,0.0327148474752903,0.0068359337747097015,0.9897460341453552,0.9903101551243239,-0.469207763671875,0.00762939453125,0.8182525634765625,0.9432663413834088
1784717896.519146,0.0341796875,0.0107421875,1.0029296875,1.003569431429002,-0.1659393310546875,0.0705718994140625,0.3299713134765625,0.37602835304699245
1784717896.527013,0.0380859412252903,0.0029296837747097015,0.9926757216453552,0.9934103936994835,-0.0438690185546875,0.4978179931640625,-0.0362396240234375,0.5010594330578022
1784717896.535024,0.03564453125,0.02197265625,1.00732421875,1.0081941340391793,0.5054473876953125,0.3757476806640625,-0.2803802490234375,0.6894029774340134
1784717896.543035,0.03125,0.0087890625,1.00634765625,1.0068711016607326,0.9326934814453125,0.1926422119140625,-0.6465911865234375,1.1511334912300601
1784717896.551046,0.0341796837747097,0.014648433774709702,0.9970702528953552,0.997763457240141,1.9092559814453125,0.0705718994140625,-0.8296966552734375,2.082939109874204
1784717896.559057,0.04345703125,0.00390625,1.0107421875,1.0116835186689617,2.5806427001953125,-0.2956390380859375,-1.1959075927734375,2.859600349238489
1784717896.569702,0.0322265625,-0.0009765625,1.0234375,1.0239452238333517,3.803253173828125,-0.232696533203125,-1.2569427490234375,4.01232943003451
1784717896.580347,0.02685546875,0.013671875,1.02490234375,1.0253452835957462,5.5103302001953125,-0.7228851318359375,-1.1348724365234375,5.672233887649082
1784717896.590992,0.0498046875,0.00732421875,1.0419921875,1.043207491292267,7.526397705078125,-0.54168701171875,-1.0128021240234375,7.6135310714606295
1784717896.598999,0.0375976599752903,0.0224609337747097,1.02685546875,1.027789001343871,9.908676147460938,-0.4787445068359375,-1.3179779052734375,10.007403512244116
1784717896.607009,0.03125,0.02294921875,1.02197265625,1.0227078464859434,11.613845825195312,-0.1125335693359375,-0.5893707275390625,11.629335170598274
1784717896.615019,0.03466796875,0.0166015625,1.03466796875,1.0353817100431817,13.202667236328125,-0.05340576171875,-0.8296966552734375,13.22881970806046
1784717896.623029,0.0424804724752903,0.0273437462747097,1.0703125,1.071504138423324,15.277862548828125,0.255584716796875,-0.2193450927734375,15.281574522216909
1784717896.633681,0.0527343787252903,0.0043945349752902985,1.09814453125,1.0994187728756835,18.085479736328125,0.80108642578125,-0.1010894775390625,18.10349512765906
1784717896.644333,0.0371093787252903,0.011230465024709702,1.0791015625,1.0797978567880147,21.379470825195312,1.0471343994140625,0.4520416259765625,21.40987166816815
1784717896.654985,0.04345703125,0.001953125,1.015625,1.0165561808809827,24.311065673828125,2.08282470703125,1.0013580322265625,24.420663194641307
1784717896.662988,0.02978515625,0.00634765625,0.9765624403953552,0.9770371785472838,25.163650512695312,2.5119781494140625,1.0013580322265625,25.308537280074276
1784717896.670991,0.0253906287252903,0.0302734337747097,0.9287108778953552,0.9295509988917976,23.761749267578125,2.391815185546875,1.3637542724609375,23.920730211528195
1784717896.678994,0.04052734375,0.03173828125,0.9165038466453552,0.9179483019232987,22.174835205078125,2.26593017578125,2.0999908447265625,22.389008854387093
1784717896.686997,0.03857421875,0.0458984375,0.9233397841453552,0.9252842773454575,19.121170043945312,2.6340484619140625,2.4051666259765625,19.4510200670272
1784717896.697719,0.041015625,0.041015625,0.9252929091453552,0.9271092334255742,15.399932861328125,3.05938720703125,2.1610260009765625,15.848905816896544
1784717896.708441,0.0532226525247097,0.0488281212747097,0.9472655653953552,0.9500152038534782,13.019561767578125,2.93731689453125,1.9779205322265625,13.49255308644306
1784717896.719163,0.0424804724752903,0.0468749962747097,0.9438475966453552,0.9459651904328674,10.883331298828125,3.24249267578125,1.3637542724609375,11.437678288367897
1784717896.727621,0.06005859375,0.0634765550494194,0.9677733778953552,0.9717106661384115,8.501052856445312,2.5119781494140625,-0.0362396240234375,8.86449362352752
1784717896.736078,0.0385742150247097,0.0385742150247097,0.9741210341453552,0.9756473385880583,7.6465606689453125,3.0002593994140625,-0.2803802490234375,8.21888432889016
1784717896.744535,0.03564453125,0.0483398362994194,0.9536132216453552,0.9555027204976029,6.7958831787109375,2.3288726806640625,-0.4062652587890625,7.1953267890992025
1784717896.752992,0.0366210974752903,0.0361328087747097,0.9467772841453552,0.9481739874220866,5.3272247314453125,1.3523101806640625,-0.4062652587890625,5.511181146047478
1784717896.762992,0.04833984375,0.0673828050494194,0.9311522841453552,0.93483782506872,3.803253173828125,0.49591064453125,-1.0776519775390625,3.983967351307859
1784717896.772992,0.03466796875,0.07470703125,0.9272460341453552,0.9308964584816771,1.6651153564453125,0.3757476806640625,-1.1348724365234375,2.049812410191495
1784717896.782992,0.0327148474752903,0.07666015625,0.9228515028953552,0.9266077580064942,-0.591278076171875,0.12969970703125,-1.6841888427734375,1.7896714322713083
1784717896.793681,0.02587890625,0.0629882737994194,0.9887694716453552,0.991111652884155,-1.506805419921875,0.61798095703125,-1.6231536865234375,2.299345760609705
1784717896.804371,0.0283203162252903,0.0712890625,0.9814452528953552,0.9844383958247753,-1.079559326171875,0.92315673828125,-1.8062591552734375,2.2978770285130277
1784717896.815061,0.0400390625,0.06201171875,0.9809569716453552,0.9837302272512695,-0.4100799560546875,0.6198883056640625,-1.7490386962890625,1.9004113878245994
1784717896.823057,0.015625,0.0634765550494194,0.9794921278953552,0.9816711477245895,-0.0438690185546875,0.8029937744140625,-1.5010833740234375,1.7029312341683915
1784717896.831054,0.03125,0.0825195237994194,0.9794921278953552,0.9834586228800141,0.019073486328125,0.67901611328125,-1.5659332275390625,1.7069193165135808
1784717896.839051,0.0273437537252903,0.0624999962747097,0.9858397841453552,0.9881973539763647,0.568389892578125,0.61798095703125,-1.3828277587890625,1.6177701146070829
1784717896.855037,0.02490234375,0.06201171875,0.9897460341453552,0.991999391175736,0.5702972412109375,0.8640289306640625,-1.0776519775390625,1.4943623125103034
1784717896.863025,0.0307617224752903,0.0585937462747097,0.9912108778953552,0.9934175935276326,0.690460205078125,0.61798095703125,-1.5010833740234375,1.7640541527457068
1784717896.871013,0.02587890625,0.0771484300494194,1.0009765625,1.0042786847892884,0.6275177001953125,0.8640289306640625,-1.1959075927734375,1.6032839510005878
1784717896.879001,0.03125,0.0673828050494194,1.00390625,1.0066502688150392,0.995635986328125,1.16729736328125,-1.1959075927734375,1.9452683933195682
1784717896.887053,0.0283203162252903,0.0585937462747097,0.9941405653953552,0.9962684031816939,1.178741455078125,1.232147216796875,-1.1959075927734375,2.0827417392065533
1784717896.895105,0.0273437537252903,0.06787109375,0.9985350966453552,1.0012125176340734,1.667022705078125,1.35040283203125,-1.0128021240234375,2.372408196417808
1784717896.903157,0.0224609412252903,0.0703125,0.9921874403953552,0.9949292730718413,1.789093017578125,1.28936767578125,-1.0128021240234375,2.4267449333052555
1784717896.911209,0.0288085974752903,0.0791015625,0.9873046278953552,0.9908871887061718,2.948760986328125,0.743865966796875,-0.9517669677734375,3.186595093825714
1784717896.921803,0.0278320349752903,0.07080078125,0.9838866591453552,0.986823353412699,2.338409423828125,0.743865966796875,-0.7076263427734375,2.5538657464701906
1784717896.932397,0.03515625,0.07177734375,0.9916991591453552,0.9949146552541442,2.948760986328125,0.49591064453125,-0.6465911865234375,3.0592807789315453
1784717896.942991,0.0273437537252903,0.0581054650247097,0.9843749403953552,0.9864674090976783,3.070831298828125,1.10626220703125,-0.9517669677734375,3.39995313166413
1784717896.953648,0.0288085974752903,0.0712890625,0.9873046278953552,0.990294145183242,2.826690673828125,1.10626220703125,-1.2569427490234375,3.285407327948111
1784717896.964305,0.037109375,0.052734375,0.9956054091453552,0.9976914105769485,2.582550048828125,0.92315673828125,-1.5659332275390625,3.1581529398126262
1784717896.974962,0.0366210974752903,0.06787109375,0.9692382216453552,0.9723015583888399,2.521514892578125,1.10626220703125,-1.7490386962890625,3.2620530016104072
1784717896.985638,0.0234375037252903,0.07080078125,0.9770507216453552,0.9798929430678602,2.3975372314453125,0.7419586181640625,-1.5659332275390625,2.9581809005443334
1784717896.996317,0.0327148474752903,0.0634765625,0.9980468153953552,1.0005983114881607,1.850128173828125,0.743865966796875,-2.0542144775390625,2.862884551616136
1784717897.006996,0.0375976599752903,0.064453125,0.9931640028953552,0.99596311478137,1.7871856689453125,0.6809234619140625,-2.2945404052734375,2.9870729900189796
1784717897.015007,0.0332031287252903,0.06640625,0.9975585341453552,1.000317582991742,2.338409423828125,1.049041748046875,-2.7828216552734375,3.783218680918699
1784717897.023016,0.0239257849752903,0.06982421875,0.9946288466453552,0.9973637286816687,2.5806427001953125,0.3757476806640625,-3.0879974365234375,4.041859873074658
1784717897.031025,0.0375976599752903,0.06591796875,0.9858397841453552,0.988756209914003,2.8858184814453125,0.2536773681640625,-2.7256011962890625,3.97758750955681
1784717897.039034,0.0273437537252903,0.0590820275247097,1.00439453125,1.006502231119796,3.009796142578125,0.255584716796875,-2.3593902587890625,3.8328734339405233
1784717897.049673,0.0234375037252903,0.07763671875,0.9819335341453552,0.9852767337952962,3.0117034912109375,0.1926422119140625,-2.2945404052734375,3.7910927992091783
1784717897.060312,0.0288085974752903,0.0810546875,0.9902343153953552,0.9939636799404311,2.6416778564453125,0.3757476806640625,-2.3593902587890625,3.5617931733926724
1784717897.070951,0.029296875,0.06689453125,0.9863280653953552,0.9890279256838338,2.8285980224609375,0.8640289306640625,-2.3593902587890625,3.7834158057188385
1784717897.081657,0.02099609375,0.0629882737994194,0.9868163466453552,0.9890474511344111,2.7637481689453125,0.8640289306640625,-1.7490386962890625,3.38289614021619
1784717897.092366,0.013671878725290298,0.0693359375,0.9926757216453552,0.9951881635354239,2.5806427001953125,0.8640289306640625,-2.2373199462890625,3.523047442365591
1784717897.103075,0.014160159975290298,0.064453125,0.9829100966453552,0.9851228215507816,2.7027130126953125,0.5588531494140625,-1.5659332275390625,3.1731878836138105
1784717897.113712,0.0205078125,0.0678710862994194,0.9790038466453552,0.9815679224971651,2.7637481689453125,0.8640289306640625,-1.1348724365234375,3.110110188008408
1784717897.124349,0.0273437537252903,0.08642578125,0.9848632216453552,0.9890261178968583,2.826690673828125,0.80108642578125,-0.8296966552734375,3.0529192860031213
1784717897.134986,0.02978515625,0.0742187425494194,0.9848632216453552,0.9881048237045106,2.826690673828125,1.28936767578125,-1.2569427490234375,3.351500297356251
1784717897.143,0.0229492224752903,0.06640625,0.9780272841453552,0.9805477170357505,2.2144317626953125,1.1081695556640625,-0.9517669677734375,2.6528490640590916
1784717897.151013,0.0332031287252903,0.078125,0.9775390028953552,0.98121784816818,2.2144317626953125,0.9250640869140625,-1.0128021240234375,2.6048454347539325
1784717897.159026,0.0166015662252903,0.0654296875,0.9897460341453552,0.9920452953942874,1.6040802001953125,0.9860992431640625,-0.8945465087890625,2.0846290946866475
1784717897.167039,0.029296875,0.0830078050494194,0.9824218153953552,0.986357554819039,1.483917236328125,0.61798095703125,-0.9517669677734375,1.8680929282210785
1784717897.1777,0.007812503725290298,0.0859375,0.9711913466453552,0.9750173951881711,1.6040802001953125,0.3757476806640625,-0.7076263427734375,1.7930406155940715
1784717897.188361,0.03466796875,0.07470703125,0.9785155653953552,0.9819754173585157,1.178741455078125,0.743865966796875,-0.7686614990234375,1.5917312884275734
1784717897.199022,0.0263671875,0.076171875,0.9921874403953552,0.9954563275181701,0.873565673828125,0.31280517578125,-0.4634857177734375,1.0371996312505531
1784717897.209725,0.0170898474752903,0.076171875,0.9848632216453552,0.9879523180687478,0.507354736328125,0.12969970703125,-0.1010894775390625,0.5333384712803811
1784717897.220428,0.02978515625,0.07568359375,0.9921874403953552,0.995515483944895,0.690460205078125,-0.05340576171875,-0.1583099365234375,0.7103868707847444
1784717897.231131,0.02001953125,0.0751953125,0.9848632216453552,0.9879325290742837,0.873565673828125,0.00762939453125,-0.1010894775390625,0.8794283806091433
1784717897.239954,0.0234375037252903,0.07421875,0.9941405653953552,0.9971826328196014,1.1157989501953125,-0.4177093505859375,0.2079010009765625,1.209425989893943
1784717897.248778,0.0244140625,0.07568359375,1.0009765625,1.004130535082459,1.5468597412109375,0.0095367431640625,0.1468658447265625,1.553845418565371
1784717897.257602,0.0180664099752903,0.06689453125,1.0048828125,1.007268951342422,1.850128173828125,0.19073486328125,0.2689361572265625,1.8792766439051225
1784717897.266426,0.04052734375,0.0830078050494194,0.9853515028953552,0.9896718373019858,1.850128173828125,0.43487548828125,-0.1010894775390625,1.9032367252576776
1784717897.275935,0.0288085974752903,0.07421875,0.9946288466453552,0.9978100524243707,1.667022705078125,0.43487548828125,-0.1583099365234375,1.7300703527764123
1784717897.285444,0.0375976599752903,0.08447265625,0.9965819716453552,1.0008620483853365,1.544952392578125,0.255584716796875,-0.2803802490234375,1.5908533957707909
1784717897.294953,0.04443359375,0.0791015550494194,1.00732421875,1.011401741122228,1.9702911376953125,0.0705718994140625,-0.4634857177734375,2.025301599971608
1784717897.302961,0.0278320349752903,0.08203125,0.9912108778953552,0.994988820341972,1.9702911376953125,0.0705718994140625,-1.0128021240234375,2.2164827323247938
1784717897.310971,0.0278320349752903,0.08740234375,0.9970702528953552,1.0012806205418472,2.155303955078125,-0.05340576171875,-0.7686614990234375,2.2888922679412254
1784717897.318981,0.0224609412252903,0.08740234375,0.9814452528953552,0.9855853326853778,1.9092559814453125,0.0095367431640625,-0.8296966552734375,2.081765090476543
1784717897.326991,0.0224609412252903,0.0908203125,0.9770507216453552,0.9815197072453681,1.850128173828125,0.12969970703125,-0.6465911865234375,1.9641477633025402
1784717897.337656,0.014648433774709702,0.07421875,0.9892577528953552,0.9921461087597846,1.7871856689453125,-0.2956390380859375,-0.7686614990234375,1.9678098374093063
1784717897.348321,0.01953125,0.08056640625,0.9799804091453552,0.9834805630266926,1.178741455078125,0.12969970703125,-0.7076263427734375,1.3809375340364234
1784717897.358986,0.029296875,0.0781249925494194,0.9926757216453552,0.9961761439071602,1.2378692626953125,0.2536773681640625,-0.4062652587890625,1.327299506194222
1784717897.36698,0.0190429724752903,0.09228515625,0.9672850966453552,0.9718640044044207,0.7495880126953125,0.2536773681640625,-0.2193450927734375,0.8211861333576823
1784717897.374974,0.0312500037252903,0.07958984375,0.9624022841453552,0.9661931807300117,0.0782012939453125,0.0705718994140625,0.0820159912109375,0.13350077968290036
1784717897.382968,0.025390625,0.0830078050494194,0.9892577528953552,0.9930588508243511,0.2613067626953125,0.0705718994140625,0.1468658447265625,0.30794673819422036
1784717897.390962,0.0249023474752903,0.08935546875,0.9858397841453552,0.9901942267601205,0.4444122314453125,0.1926422119140625,0.3299713134765625,0.5860838856228624
1784717897.398979,0.025390625,0.0830078050494194,0.9707030653953552,0.9745765340418125,0.2613067626953125,0.1926422119140625,0.3871917724609375,0.5052818171108964
1784717897.406996,0.04052734375,0.09033203125,0.9999999403953552,1.0048891591871691,0.385284423828125,-0.35858154296875,0.4520416259765625,0.6938057666364227
1784717897.415013,0.0190429724752903,0.08935546875,0.9814452528953552,0.9856884999973646,0.019073486328125,0.072479248046875,-0.1583099365234375,0.17515443265930902
1784717897.431035,0.03173828125,0.0922851487994194,0.9892577528953552,0.9940597410866224,0.202178955078125,0.31280517578125,-0.2803802490234375,0.46619362062823855
1784717897.439041,0.0341796875,0.0878906175494194,0.9882811903953552,0.9927702266789009,0.0782012939453125,0.0095367431640625,-0.0362396240234375,0.08671621644339986
1784717897.447047,0.0366210974752903,0.08251953125,0.9741210341453552,0.9782956439555636,-0.4100799560546875,-0.0514984130859375,-0.4634857177734375,0.6209965116553738
1784717897.455053,0.014160159975290298,0.0830078125,0.9843749403953552,0.9879700553887856,-0.347137451171875,-0.17547607421875,-0.5893707275390625,0.7061544569775468
1784717897.465781,0.0229492224752903,0.087890625,0.9648436903953552,0.9691103010859182,-0.4100799560546875,0.0095367431640625,-0.6465911865234375,0.7657262450234931
1784717897.476509,0.0258789099752903,0.08984375,0.9731444716453552,0.9776255827715891,-0.957489013671875,-0.232696533203125,-0.4634857177734375,1.0889223564823396
1784717897.487237,0.013671878725290298,0.09033203125,0.9829100966453552,0.9871469263615278,-1.3866424560546875,-0.1125335693359375,-0.4634857177734375,1.4663765259103205
1784717897.495169,0.01953125,0.0908203125,0.9926757216453552,0.9970129824798105,-1.079559326171875,0.00762939453125,-0.2803802490234375,1.1154011074174308
1784717897.503101,0.02490234375,0.09130859375,0.9912108778953552,0.9957190318934989,-1.506805419921875,-0.05340576171875,-0.4634857177734375,1.57738193202238
1784717897.511033,0.02099609375,0.095703125,0.9643554091453552,0.9693200086841445,-1.5659332275390625,0.1926422119140625,-0.5893707275390625,1.684225563694475
1784717897.518965,0.01953125,0.0830078050494194,0.9804686903953552,0.9841700149218466,-1.6918182373046875,0.4978179931640625,-0.2803802490234375,1.78568888287884
1784717897.529642,0.0332031287252903,0.08544921875,0.9960936903953552,1.0003032824036775,-1.7490386962890625,0.3757476806640625,-0.5245208740234375,1.8642544965554666
1784717897.540319,0.0278320349752903,0.08837890625,0.9931640028953552,0.9974769119573331,-1.3866424560546875,-0.1125335693359375,-0.4062652587890625,1.449307615953151
1784717897.550996,0.0278320349752903,0.07421875,0.9858397841453552,0.9890212965483548,-1.628875732421875,0.00762939453125,-0.4062652587890625,1.678792965148698
1784717897.561743,0.0229492224752903,0.07763671875,0.9863280653953552,0.9896449764925961,-1.3866424560546875,-0.2956390380859375,-0.4634857177734375,1.4916429708055856
1784717897.572493,0.0195312462747097,0.07958984375,0.9882811903953552,0.9916731942018263,-1.445770263671875,-0.232696533203125,-0.7076263427734375,1.6263869074944948
1784717897.583243,0.0234375037252903,0.083984375,0.9980468153953552,1.001848360554542,-1.262664794921875,0.072479248046875,-0.4634857177734375,1.3469946682568938
1784717897.591223,0.0327148474752903,0.08642578125,0.9921874403953552,0.9964816073507282,-0.835418701171875,-0.35858154296875,-0.5893707275390625,1.083449575986569
1784717897.599206,0.0234375037252903,0.07763671875,0.9912108778953552,0.9945228912082519,-0.835418701171875,-0.17547607421875,-0.5893707275390625,1.0373399218052155
1784717897.607189,0.014160159975290298,0.07275390625,0.9926757216453552,0.9954389631460516,-0.8983612060546875,-0.3566741943359375,-0.5245208740234375,1.0997233673681457
1784717897.615172,0.025390625,0.0859375,0.9868163466453552,0.9908766016768317,-0.652313232421875,-0.05340576171875,-0.4062652587890625,0.7703351147886087
1784717897.625941,0.0327148474752903,0.09423828125,0.9814452528953552,0.9865018496328901,-0.8373260498046875,-0.7228851318359375,-0.3414154052734375,1.15768834600207
1784717897.63671,0.0258789099752903,0.0791015625,0.9868163466453552,0.9903197853107533,-0.835418701171875,-0.35858154296875,-0.5893707275390625,1.083449575986569
1784717897.647479,0.0239257849752903,0.07275390625,0.9877929091453552,0.9907574907206917,-0.6542205810546875,-0.7839202880859375,-0.5245208740234375,1.1478927362931535
1784717897.657989,0.0268554724752903,0.0693359375,0.9848632216453552,0.987666064001666,-0.774383544921875,-0.78582763671875,-0.2803802490234375,1.1383356417679233
1784717897.668499,0.03515625,0.0771484300494194,0.9921874403953552,0.9958030724251855,-1.0776519775390625,-0.7839202880859375,-0.4634857177734375,1.4109159483635267
1784717897.679009,0.0268554724752903,0.083984375,0.9912108778953552,0.9951249148243111,-0.8983612060546875,-0.7228851318359375,-0.2193450927734375,1.1737666037578687
1784717897.686997,0.0190429724752903,0.08154296875,0.9750975966453552,0.9786864735638303,-0.4711151123046875,-0.6008148193359375,-0.2193450927734375,0.7943803660081997
1784717897.694983,0.0253906287252903,0.0888671875,0.9746093153953552,0.978981807132609,-0.591278076171875,-0.66375732421875,0.0247955322265625,0.8892684449782006
1784717897.702969,0.03076171875,0.0673828050494194,0.9980468153953552,1.000791772287119,-0.5321502685546875,-0.9059906005859375,0.3871917724609375,1.1197858479791287
1784717897.710955,0.0214843787252903,0.07373046875,1.001953125,1.0048919470513096,-0.4100799560546875,-0.9059906005859375,0.4520416259765625,1.092394695301756
1784717897.721655,0.0317382849752903,0.0751953125,0.9775390028953552,0.9809404446431959,-0.2269744873046875,-0.7839202880859375,0.5130767822265625,0.9640001143256822
1784717897.732355,0.0219726599752903,0.07421875,1.00048828125,1.0034779626661121,-0.469207763671875,-0.66375732421875,0.6961822509765625,1.0702333565717292
1784717897.743055,0.025390625,0.0712890625,0.9936522841453552,0.9965298169434276,-0.286102294921875,-0.54168701171875,0.3299713134765625,0.6958163619388384
1784717897.753696,0.0234375037252903,0.0830078125,0.9814452528953552,0.9852280943759856,-0.286102294921875,-0.54168701171875,0.8754730224609375,1.068518766742654
1784717897.764339,0.02490234375,0.06494140625,0.9853515028953552,0.9878031672494809,-0.4100799560546875,-0.5397796630859375,0.8754730224609375,1.107240113117237
1784717897.774982,0.0175781287252903,0.08642578125,0.9755858778953552,0.9795642967273801,-0.4100799560546875,-0.4177093505859375,0.7534027099609375,0.9540766820865211
1784717897.783008,0.02490234375,0.0820312425494194,0.9858397841453552,0.9895601707234408,-0.469207763671875,-1.15203857421875,1.1844635009765625,1.7176444879903372
1784717897.791033,0.0288085974752903,0.08154296875,0.9804686903953552,0.9842753902677034,-0.652313232421875,-1.21307373046875,1.6117095947265625,2.120063264735207
1784717897.799058,0.03466796875,0.0810546875,0.9770507216453552,0.9810197975019073,-0.8983612060546875,-1.2722015380859375,1.6727447509765625,2.2855250188899485
1784717897.807083,0.0288085974752903,0.0810546875,0.9833983778953552,0.9871535682463148,-1.262664794921875,-1.21307373046875,1.7299652099609375,2.461432486899379
1784717897.817718,0.029296875,0.07080078125,0.9965819716453552,0.9995232282037869,-1.2035369873046875,-1.0890960693359375,1.7948150634765625,2.4199158332751596
1784717897.828353,0.02978515625,0.0644531175494194,0.9711913466453552,0.9737833391948615,-1.323699951171875,-1.21307373046875,1.8558502197265625,2.5822295549282455
1784717897.838988,0.0371093787252903,0.07958984375,0.9814452528953552,0.9853661419230693,-1.445770263671875,-0.904083251953125,2.0351409912109375,2.6550738287074087
1784717897.849643,0.0400390625,0.0820312425494194,0.9814452528953552,0.9856810009891174,-1.567840576171875,-1.02996826171875,1.7948150634765625,2.596212588468301
1784717897.8603,0.0312500037252903,0.08349609375,0.9882811903953552,0.9922942465285183,-1.3866424560546875,-0.5397796630859375,1.6727447509765625,2.238797531608025
1784717897.870957,0.03564453125,0.06689453125,0.9882811903953552,0.9911836975094223,-1.445770263671875,-0.232696533203125,1.4896392822265625,2.08888116536941
1784717897.879013,0.0219726599752903,0.0634765625,0.9814452528953552,0.9837412547026957,-1.445770263671875,-0.29754638671875,0.8754730224609375,1.7161697237231859
1784717897.88707,0.0390625,0.0683593675494194,0.9848632216453552,0.9880052871253648,-1.5659332275390625,-0.2956390380859375,0.6961822509765625,1.7390281885369419
1784717897.895127,0.029296875,0.0727538987994194,0.9892577528953552,0.9923619996447111,-1.445770263671875,-0.48065185546875,0.6351470947265625,1.6506634100939501
1784717897.903184,0.0478515662252903,0.0712890625,0.9814452528953552,0.9851937308231158,-1.3256072998046875,-0.2346038818359375,0.2689361572265625,1.3728074705987565
1784717897.91381,0.04443359375,0.0722656175494194,1.00146484375,1.0050514897260492,-1.323699951171875,-0.17547607421875,-0.2193450927734375,1.3531761463606415
1784717897.924436,0.03564453125,0.0683593675494194,0.9897460341453552,0.992744049514399,-1.0204315185546875,0.1926422119140625,-0.5245208740234375,1.1634060568680562
1784717897.935062,0.0312500037252903,0.0654296875,0.9965819716453552,0.9992163093883736,-1.0204315185546875,0.0705718994140625,-0.9517669677734375,1.3971833229721065
1784717897.945702,0.041015625,0.0678710862994194,0.9941405653953552,0.9972984656632138,-0.957489013671875,-0.35858154296875,-1.3828277587890625,1.719761188286842
1784717897.956343,0.044921875,0.07568359375,0.9824218153953552,0.9863562260061707,-0.8373260498046875,-0.1125335693359375,-1.4400482177734375,1.6695860527153017
1784717897.966984,0.03369140625,0.0532226487994194,0.9980468153953552,1.000032602929094,-0.8373260498046875,0.0705718994140625,-1.6841888427734375,1.882176231066305
1784717897.977681,0.0312500037252903,0.06396484375,1.0029296875,1.005453142636513,-0.102996826171875,0.00762939453125,-1.6841888427734375,1.6873525452568954
1784717897.98838,0.0341796875,0.0771484300494194,0.9824218153953552,0.9860389214738905,0.0782012939453125,0.0705718994140625,-1.3828277587890625,1.386833964769832
1784717897.999079,0.0263671912252903,0.06591796875,0.9941405653953552,0.9966723991070654,0.385284423828125,0.12969970703125,-1.0776519775390625,1.1517811797135835
1784717898.007061,0.021484375,0.0712890625,0.9804686903953552,0.9832916971310459,0.568389892578125,-0.05340576171875,-0.7076263427734375,0.9092053048440946
1784717898.015042,0.03076171875,0.0727538987994194,0.9858397841453552,0.9889992381871336,0.5702972412109375,-0.1125335693359375,-0.8296966552734375,1.0130643056253743
1784717898.023023,0.0224609412252903,0.0751953125,0.9843749403953552,0.9874982795838471,1.056671142578125,-0.05340576171875,-0.4062652587890625,1.1333391105229997
1784717898.031004,0.03466796875,0.0751953125,0.9951171278953552,0.9985561082432596,0.8106231689453125,-0.2956390380859375,-0.2803802490234375,0.9072626118791427
1784717898.039037,0.0288085974752903,0.07470703125,0.9902343153953552,0.9934661922749005,1.2378692626953125,0.1926422119140625,0.1468658447265625,1.2613488453573127
1784717898.04707,0.0312500037252903,0.083984375,0.9833983778953552,0.9874726870269309,0.751495361328125,-0.05340576171875,0.3299713134765625,0.8224831434138312
1784717898.055103,0.0263671875,0.0810546875,0.9765624403953552,0.9802751098203578,0.5702972412109375,-0.1125335693359375,0.5130767822265625,0.775338978782994
1784717898.063136,0.0229492224752903,0.0673828125,0.9760741591453552,0.978666375423179,0.6275177001953125,0.2536773681640625,1.1844635009765625,1.3642156927416993
1784717898.073763,0.0390625,0.07666015625,0.9858397841453552,0.9895871555685659,0.507354736328125,0.43487548828125,0.8182525634765625,1.0564387234565016
1784717898.08439,0.02978515625,0.07958984375,0.9951171278953552,0.9987391035659349,0.1392364501953125,0.0095367431640625,0.6961822509765625,0.7100334253455696
1784717898.095017,0.0361328125,0.06689453125,0.9838866591453552,0.98681985007119,0.324249267578125,-0.05340576171875,0.5702972412109375,0.6582011138265542
1784717898.102997,0.0302734375,0.0683593675494194,1.00244140625,1.0052254757586978,0.507354736328125,0.00762939453125,0.2689361572265625,0.5742766692103076
1784717898.110977,0.04052734375,0.0634765550494194,0.9785155653953552,0.9814094203508362,0.385284423828125,0.12969970703125,0.4520416259765625,0.6079537259233607
1784717898.118957,0.0463867224752903,0.0810546875,0.9814452528953552,0.9858784787277538,1.1157989501953125,0.0705718994140625,-0.0362396240234375,1.1186156625906998
1784717898.126937,0.03564453125,0.08056640625,0.9838866591453552,0.9878230795381735,1.1157989501953125,0.4978179931640625,0.0820159912109375,1.2245638710941822
1784717898.137621,0.0283203162252903,0.07763671875,0.9833983778953552,0.9868646665356821,0.812530517578125,0.43487548828125,-0.2803802490234375,0.9632941484022812
1784717898.148305,0.0244140625,0.0673828050494194,0.9824218153953552,0.9850325437409605,0.812530517578125,0.31280517578125,-0.3414154052734375,0.9352098154688818
1784717898.158989,0.0375976599752903,0.08349609375,0.9868163466453552,0.9910558428835442,0.934600830078125,0.12969970703125,0.2689361572265625,0.9811357613758163
1784717898.166979,0.0307617224752903,0.07421875,0.9824218153953552,0.9857014404909403,-0.4100799560546875,-0.3566741943359375,0.6961822509765625,0.8832053995746392
1784717898.17497,0.02001953125,0.0791015550494194,0.9702147841453552,0.9736398538560982,-0.7152557373046875,-0.1735687255859375,0.8182525634765625,1.100569911402617
1784717898.182961,0.0322265662252903,0.06494140625,0.9785155653953552,0.9811975588725199,-0.8983612060546875,-0.2956390380859375,1.0013580322265625,1.3773791076131017
1784717898.190952,0.02099609375,0.0722656175494194,0.9707030653953552,0.9736157335419847,-1.934051513671875,-0.29754638671875,1.0013580322265625,2.1981371700807273
1784717898.201631,0.0317382849752903,0.07861328125,0.9697265028953552,0.9734253218093927,-2.0542144775390625,-0.4177093505859375,1.2416839599609375,2.436402527851727
1784717898.21231,0.03955078125,0.0834960862994194,0.9794921278953552,0.9838397681196752,-2.422332763671875,-0.35858154296875,1.2416839599609375,2.74555200230124
1784717898.222989,0.03564453125,0.0673828050494194,0.9780272841453552,0.9809935491923989,-2.544403076171875,-0.54168701171875,1.4286041259765625,2.9678816656758653
1784717898.233704,0.0361328162252903,0.07080078125,0.9809569716453552,0.9841721959360603,-1.9969940185546875,-0.1125335693359375,1.3065338134765625,2.38907503442824
1784717898.244419,0.0375976599752903,0.076171875,0.9794921278953552,0.9831686361889318,-2.666473388671875,-0.35858154296875,0.5130767822265625,2.7389612702470045
1784717898.255134,0.0415039099752903,0.080078125,0.9892577528953552,0.993360952680505,-2.605438232421875,-0.17547607421875,0.5130767822265625,2.661268122540232
1784717898.265773,0.02978515625,0.07666015625,0.9907225966453552,0.9941303730360654,-2.727508544921875,-0.54168701171875,-0.2803802490234375,2.7948775939795785
1784717898.276413,0.02099609375,0.07080078125,0.9965819716453552,0.9993143713501336,-2.422332763671875,-0.598907470703125,-0.4062652587890625,2.528129276148904
1784717898.287053,0.029296875,0.06591796875,0.9956054091453552,0.998215215376114,-2.6073455810546875,-0.6008148193359375,-0.6465911865234375,2.7526913355239935
1784717898.295479,0.04541015625,0.0830078050494194,0.9970702528953552,1.0015495330729176,-2.3021697998046875,-0.9059906005859375,-0.8945465087890625,2.6307828135118876
1784717898.303908,0.04150390625,0.0722656175494194,0.9926757216453552,0.9961676475663795,-2.3632049560546875,-1.0280609130859375,-1.1348724365234375,2.815951411604464
1784717898.312337,0.0375976599752903,0.0830078125,0.9804686903953552,0.9846942336670992,-2.1190643310546875,-0.6008148193359375,-1.0128021240234375,2.4242896338326227
1784717898.320766,0.0205078162252903,0.0849609375,0.9829100966453552,0.9867883205199536,-2.239227294921875,-0.54168701171875,-1.1348724365234375,2.5681703884611258
1784717898.330833,0.04541015625,0.06689453125,0.9838866591453552,0.9872030787259606,-2.544403076171875,-0.720977783203125,-1.2569427490234375,2.9280882931066112
1784717898.3409,0.0239257849752903,0.078125,0.9838866591453552,0.9872734762242386,-2.7904510498046875,-0.7839202880859375,-0.8296966552734375,3.0148871652519187
1784717898.350967,0.02490234375,0.0678710862994194,0.9731444716453552,0.975826200598049,-2.8514862060546875,-1.0890960693359375,-0.9517669677734375,3.1973370470608486
1784717898.35898,0.02197265625,0.0722656175494194,0.9853515028953552,0.9882422280800466,-3.8280487060546875,-0.9059906005859375,-0.2803802490234375,3.943778511569771
1784717898.366991,0.0351562537252903,0.0693359375,0.9760741591453552,0.9791650517437359,-4.375457763671875,-0.720977783203125,-0.0362396240234375,4.434608541449666
1784717898.375002,0.015625,0.0751953125,0.9721679091453552,0.9751968617766488,-5.413055419921875,-1.02996826171875,0.2689361572265625,5.5167318455728225
1784717898.383013,0.0322265662252903,0.06640625,0.9750975966453552,0.9778873475985275,-5.657196044921875,-0.54168701171875,0.0820159912109375,5.683662422431404
1784717898.393839,0.0341796875,0.0732421800494194,0.9658202528953552,0.9691962798519385,-6.1473846435546875,-0.3566741943359375,0.3871917724609375,6.169884270015007
1784717898.404665,0.03369140625,0.0678710862994194,0.9824218153953552,0.9853396463023657,-6.511688232421875,-0.720977783203125,0.3299713134765625,6.559784574805141
1784717898.415491,0.0190429724752903,0.06884765625,0.9897460341453552,0.9923204354835546,-6.2694549560546875,-0.6618499755859375,0.8754730224609375,6.364790950945575
1784717898.425999,0.0263671912252903,0.06494140625,1.0029296875,1.0053758367335501,-6.206512451171875,-1.21307373046875,1.0585784912109375,6.411936767011923
1784717898.436507,0.03955078125,0.0742187425494194,0.9990233778953552,1.0025569288696519,-5.5980682373046875,-0.9059906005859375,1.1234283447265625,5.781113924115727
1784717898.447015,0.029296875,0.0751953125,0.9975585341453552,1.0008175013222782,-5.596160888671875,-0.84686279296875,0.8754730224609375,5.727184849039928
1784717898.455012,0.0371093787252903,0.0546874962747097,0.9746093153953552,0.9768475550942308,-4.680633544921875,-0.232696533203125,1.1234283447265625,4.819187618691322
1784717898.463009,0.0302734375,0.0639648362994194,0.9829100966453552,0.9854543314574549,-4.558563232421875,-0.29754638671875,1.2416839599609375,4.734005877970816
1784717898.471006,0.03466796875,0.0712890625,0.9931640028953552,0.9963226059547706,-4.375457763671875,-0.35858154296875,1.3637542724609375,4.597068313641836
1784717898.479003,0.0463867224752903,0.0551757775247097,0.9877929091453552,0.9904195705887984,-4.436492919921875,0.12969970703125,1.0585784912109375,4.5628806542112565
1784717898.489741,0.0273437537252903,0.0620117150247097,0.9873046278953552,0.9896279916876245,-4.4994354248046875,0.2536773681640625,1.0585784912109375,4.629239653675365
1784717898.500479,0.029296875,0.0576171875,0.9912108778953552,0.9933161891554253,-4.4994354248046875,0.0705718994140625,1.1844635009765625,4.653262653248783
1784717898.511217,0.0390625,0.060546875,0.9882811903953552,0.9909043920922825,-4.4994354248046875,-0.2956390380859375,1.1234283447265625,4.646978892631511
1784717898.521821,0.03564453125,0.056640625,0.9819335341453552,0.9842114399292513,-4.192352294921875,0.12969970703125,0.8754730224609375,4.284751193686466
1784717898.532423,0.0429687537252903,0.0522460900247097,0.9843749403953552,0.9866965039960027,-4.1332244873046875,0.3147125244140625,0.9403228759765625,4.2505053519038185
1784717898.543025,0.0498046875,0.037109375,0.9824218153953552,0.9843831753817051,-4.1332244873046875,0.3757476806640625,0.8754730224609375,4.241601583722404
1784717898.551025,0.0375976599752903,0.0556640587747097,0.9790038466453552,0.9813055605779956,-4.192352294921875,0.61798095703125,-0.0362396240234375,4.237809757214135
1784717898.559025,0.03515625,0.04638671875,0.9882811903953552,0.9899936367874869,-4.4994354248046875,0.5588531494140625,0.0247955322265625,4.534076620770293
1784717898.567025,0.03564453125,0.05126953125,0.9995116591453552,1.0014602609240806,-4.436492919921875,0.61798095703125,-0.2193450927734375,4.4846942104778975
1784717898.575025,0.0322265662252903,0.07470703125,0.9921874403953552,0.9955177592424698,-4.1904449462890625,0.5588531494140625,-0.7076263427734375,4.286359846242085
1784717898.585699,0.0302734375,0.0639648362994194,0.9829100966453552,0.9854543314574549,-4.070281982421875,0.560760498046875,-0.5245208740234375,4.142073140334951
1784717898.596373,0.0410156287252903,0.0600585900247097,0.9985350966453552,1.0011801312791,-4.0111541748046875,0.8640289306640625,-0.7076263427734375,4.163728959486252
1784717898.607047,0.0400390625,0.05126953125,0.9926757216453552,0.9948048952958567,-3.8280487060546875,0.6198883056640625,-0.5245208740234375,3.913226361292219
1784717898.617705,0.04541015625,0.06201171875,0.9995116591453552,1.0024625141722154,-4.0111541748046875,1.1692047119140625,-0.8296966552734375,4.259670645975701
1784717898.628365,0.0302734375,0.04541015625,0.9892577528953552,0.9907620627437667,-3.6449432373046875,1.2912750244140625,-0.5245208740234375,3.9023229670460418
1784717898.639025,0.0424804724752903,0.0468749962747097,0.9853515028953552,0.9873800889604839,-3.5228729248046875,1.1692047119140625,-0.9517669677734375,3.8319099237362853
1784717898.647015,0.0366210974752903,0.0488281212747097,0.9907225966453552,0.9926009035414121,-3.765106201171875,1.47247314453125,-0.5893707275390625,4.085530531271132
1784717898.655007,0.0429687537252903,0.0405273400247097,0.9902343153953552,0.9919943439721272,-3.459930419921875,1.41143798828125,-0.4062652587890625,3.758766708105616
1784717898.662999,0.0439453125,0.0488281175494194,0.9960936903953552,0.998257489628593,-3.704071044921875,1.232147216796875,-0.2193450927734375,3.9097878893122457
1784717898.670991,0.0273437537252903,0.0551757775247097,0.9829100966453552,0.9848371973989544,-3.948211669921875,0.92315673828125,-0.4062652587890625,4.075002480298669
1784717898.681662,0.0273437537252903,0.0458984337747097,0.9819335341453552,0.9833858919925322,-4.375457763671875,0.67901611328125,0.0820159912109375,4.428591214662556
1784717898.692333,0.0400390662252903,0.0444335900247097,0.9770507216453552,0.9788797594262467,-4.4994354248046875,0.6198883056640625,0.5702972412109375,4.5775997637210715
1784717898.703004,0.0244140625,0.04736328125,0.9799804091453552,0.9814280050860676,-4.8046112060546875,0.4978179931640625,0.5130767822265625,4.857505468872283
1784717898.711057,0.0292968712747097,0.0498046837747097,0.9833983778953552,0.9850945045220797,-4.9266815185546875,0.7419586181640625,0.8182525634765625,5.048983128707424
1784717898.71911,0.0244140625,0.0478515625,0.9868163466453552,0.9882774511684111,-4.9266815185546875,0.7419586181640625,0.9403228759765625,5.0701972828896
1784717898.727163,0.03662109375,0.03662109375,0.9824218153953552,0.9837859687856897,-5.2928924560546875,0.7419586181640625,1.3065338134765625,5.502021787323834
1784717898.735216,0.0336914025247097,0.0493164025247097,0.9663085341453552,0.9681525713048571,-5.352020263671875,0.92315673828125,1.0585784912109375,5.53325651748072
1784717898.745822,0.048828125,0.04052734375,0.9790038466453552,0.9810581955872182,-6.389617919921875,1.28936767578125,0.9403228759765625,6.585885914364226
1784717898.756428,0.041015625,0.0419921875,0.9658202528953552,0.9676023905551411,-6.9980621337890625,1.8405914306640625,0.9403228759765625,7.2969073965681615
1784717898.767034,0.0341796875,0.0458984375,0.9594725966453552,0.9611777053781052,-8.039474487304688,1.6574859619140625,0.8182525634765625,8.249239177257568
1784717898.77769,0.0317382849752903,0.0400390587747097,0.9746093153953552,0.9759476228856446,-8.462905883789062,1.5354156494140625,0.6961822509765625,8.629191557782915
1784717898.788347,0.0214843787252903,0.0449218712747097,0.9702147841453552,0.9714917809339673,-9.197235107421875,1.28936767578125,0.6961822509765625,9.31323103713839
1784717898.799004,0.0283203162252903,0.0366210900247097,0.9897460341453552,0.9908281166035595,-9.504318237304688,1.0471343994140625,0.1468658447265625,9.562955881041487
1784717898.807009,0.0288085974752903,0.0341796837747097,1.00927734375,1.0102667680758821,-8.831024169921875,0.61798095703125,0.0820159912109375,8.853000337502078
1784717898.815016,0.0283203162252903,0.0224609337747097,1.0087890625,1.0094364301315666,-7.8563690185546875,0.0705718994140625,0.0247955322265625,7.856725104463771
1784717898.823023,0.03125,0.0322265625,1.0166015625,1.0175921829043342,-7.1239471435546875,0.4978179931640625,0.3299713134765625,7.148938853158302
1784717898.83103,0.0380859412252903,0.0297851525247097,1.00048828125,1.001655876610583,-6.2084197998046875,0.3757476806640625,-0.0362396240234375,6.21988553274742
1784717898.841669,0.0302734412252903,0.0292968712747097,1.0078125,1.0086926306196342,-5.168914794921875,0.61798095703125,-0.0362396240234375,5.205851892895616
1784717898.852308,0.0273437537252903,0.0292968712747097,1.01904296875,1.019830652458088,-3.887176513671875,1.10626220703125,-0.1583099365234375,4.044628456997001
1784717898.862947,0.0375976599752903,0.0268554650247097,1.02294921875,1.0239921406820203,-2.483367919921875,0.80108642578125,-0.4062652587890625,2.640815621690962
1784717898.870958,0.01953125,0.01708984375,1.00146484375,1.0018010609662849,-1.445770263671875,1.10626220703125,-0.1583099365234375,1.8273285862223987
1784717898.878968,0.03271484375,0.0087890625,1.01025390625,1.0108216775052856,-0.469207763671875,0.92315673828125,-0.1010894775390625,1.0404774727946584
1784717898.886978,0.0185546912252903,0.014160159975290298,1.00537109375,1.0056419953666726,0.2040863037109375,0.8640289306640625,-0.1583099365234375,0.9018088757541318
1784717898.894988,0.0185546912252903,0.0244140587747097,0.9956054091453552,0.9960775339057754,0.2613067626953125,1.1081695556640625,-0.1010894775390625,1.1430398378009887
1784717898.905651,0.0312500037252903,0.011230465024709702,0.9951171278953552,0.9956710221293993,0.4444122314453125,1.3523101806640625,0.0247955322265625,1.4236782904168588
1784717898.916314,0.02978515625,0.01171875,0.9970702528953552,0.9975838680748637,0.2613067626953125,0.9860992431640625,0.2689361572265625,1.0549879611933168
1784717898.926977,0.0380859412252903,0.0166015587747097,0.9882811903953552,0.9891541143633922,0.141143798828125,1.10626220703125,0.2079010009765625,1.1344428010527208
1784717898.93498,0.03369140625,0.02783203125,0.9770507216453552,0.9780275279798176,0.019073486328125,1.10626220703125,0.3299713134765625,1.1545825809805936
1784717898.942981,0.028808601200580597,0.013671875,0.9990233778953552,0.9995321731943376,-0.0438690185546875,0.7419586181640625,0.2689361572265625,0.7904136502621061
1784717898.950982,0.0332031287252903,0.014648433774709702,0.9936522841453552,0.9943147822276817,0.324249267578125,0.61798095703125,0.3871917724609375,0.7980949313456718
1784717898.958983,0.0322265625,-0.00537109375,0.9892577528953552,0.9897971012496477,0.141143798828125,0.61798095703125,-0.3414154052734375,0.719990634771675
1784717898.969653,0.0322265662252903,0.0253906212747097,0.9765624403953552,0.9774238769389259,-0.041961669921875,0.43487548828125,0.0820159912109375,0.44452682131093124
1784717898.980323,0.0283203162252903,0.013183590024709702,0.9990233778953552,0.9995116592308895,0.3871917724609375,0.1926422119140625,0.0247955322265625,0.4331781491384156
1784717898.990993,0.0361328125,0.03125,0.9926757216453552,0.9938245473841381,0.2613067626953125,0.5588531494140625,0.0820159912109375,0.6223541513114806
1784717899.001635,0.0390624962747097,0.0249023400247097,1.00048828125,1.0015601859461551,0.3871917724609375,0.5588531494140625,-0.2193450927734375,0.7143854568755209
1784717899.012277,0.0234375037252903,0.0239257849752903,0.9750975966453552,0.9756726309326836,0.4444122314453125,0.4978179931640625,-0.4634857177734375,0.8124924592610415
1784717899.022919,0.0400390662252903,0.0249023400247097,0.9960936903953552,0.9972090520088239,0.6275177001953125,0.7419586181640625,-0.5893707275390625,1.1365029298713942
1784717899.033621,0.0180664099752903,0.0327148400247097,0.9892577528953552,0.9899634122485564,0.629425048828125,0.61798095703125,-1.0128021240234375,1.343072782008456
1784717899.044321,0.02587890625,0.03173828125,0.9790038466453552,0.9798599736859357,0.690460205078125,0.43487548828125,-1.0128021240234375,1.3006229767041517
1784717899.055021,0.015625,0.01220703125,0.9902343153953552,0.9904328102518849,0.934600830078125,0.12969970703125,-0.9517669677734375,1.340209344293404
1784717899.063008,0.0283203162252903,0.0258789025247097,0.9970702528953552,0.9978080211723052,0.385284423828125,0.255584716796875,-0.9517669677734375,1.058124754293818
1784717899.070997,0.03857421875,0.0458984375,0.9897460341453552,0.9915603103309314,0.6275177001953125,0.2536773681640625,-0.7686614990234375,1.0241929365397993
1784717899.078986,0.0380859412252903,0.0327148400247097,0.9960936903953552,0.9973582303878062,0.1392364501953125,0.2536773681640625,-0.6465911865234375,0.7083919527150374
1784717899.086975,0.0375976599752903,0.0268554650247097,0.9892577528953552,0.990336155909133,0.1392364501953125,0.5588531494140625,-0.6465911865234375,0.8659005682887585
1784717899.098261,0.0258789099752903,0.0297851525247097,0.9868163466453552,0.987604868000819,-0.041961669921875,0.61798095703125,-0.2193450927734375,0.6570947532279343
1784717899.109547,0.0288085974752903,0.0454101525247097,0.9814452528953552,0.9829174948446275,-0.286102294921875,0.743865966796875,-0.2803802490234375,0.8448693293999125
1784717899.120833,0.0400390625,0.03173828125,0.9877929091453552,0.9891133789310642,-0.530242919921875,0.61798095703125,-0.5245208740234375,0.968597008392472
1784717899.130943,0.0400390625,0.0341796800494194,0.9863280653953552,0.987731962447659,-0.164031982421875,0.98419189453125,-0.4634857177734375,1.1001632547482305
1784717899.141053,0.03759765625,0.02294921875,0.9819335341453552,0.9829210120227952,-0.2269744873046875,0.9860992431640625,-0.6465911865234375,1.2008285879948684
1784717899.151163,0.02685546875,0.03271484375,0.9814452528953552,0.9823575019483471,-0.5893707275390625,1.0471343994140625,-0.8945465087890625,1.4980192793495262
1784717899.15916,0.0385742150247097,0.0205078087747097,0.9809569716453552,0.9819292848800971,-0.8373260498046875,1.1692047119140625,-1.0128021240234375,1.7589550063801958
1784717899.167155,0.02587890625,0.0263671875,0.9912108778953552,0.9918991636368272,-0.713348388671875,0.92315673828125,-0.7686614990234375,1.3971130187410734
1784717899.17515,0.015625,0.03076171875,0.9975585341453552,0.9981550245386154,-0.652313232421875,1.10626220703125,-1.0128021240234375,1.6355723054407327
1784717899.183145,0.0166015662252903,0.0341796837747097,0.9868163466453552,0.9875476519087865,-1.0204315185546875,1.0471343994140625,-0.8945465087890625,1.7140549556192108
1784717899.191399,0.029296875,0.02734375,0.9804686903953552,0.9812873383440811,-1.506805419921875,0.92315673828125,-1.1348724365234375,2.100146752996242
1784717899.199653,0.01513671875,0.04052734375,0.9785155653953552,0.9794714378515277,-1.5087127685546875,0.8640289306640625,-0.6465911865234375,1.8549502347810358
1784717899.207907,0.013183597475290298,0.0317382775247097,0.9946288466453552,0.9952224214122668,-1.628875732421875,0.743865966796875,-0.5893707275390625,1.8851871479276197
1784717899.216161,0.01611328125,0.02880859375,0.9912108778953552,0.9917603427061272,-1.6918182373046875,0.3147125244140625,-0.3414154052734375,1.7543823414688822
1784717899.226463,0.02490234375,0.02880859375,0.9960936903953552,0.9968212988512702,-1.5659332275390625,0.8640289306640625,0.0820159912109375,1.7903685343944418
1784717899.236765,0.0166015662252903,0.0263671837747097,0.9975585341453552,0.9980450237477124,-1.3866424560546875,0.4367828369140625,0.3871917724609375,1.5044846347562062
1784717899.247067,0.0288085974752903,0.014160159975290298,0.9824218153953552,0.9829461169279445,-1.323699951171875,0.31280517578125,0.8754730224609375,1.6175542191175083
1784717899.255074,0.0234375037252903,0.0190429724752903,0.9833983778953552,0.9838619420573109,-1.6918182373046875,-0.1125335693359375,0.7534027099609375,1.855405183694578
1784717899.263081,0.0332031287252903,0.0268554650247097,0.9833983778953552,0.9843251665004088,-1.6918182373046875,0.0705718994140625,0.8182525634765625,1.8806293092206168
1784717899.271088,0.0224609375,0.02880859375,0.9887694716453552,0.9894440342157137,-1.4476776123046875,-0.1125335693359375,0.6351470947265625,1.584880470362128
1784717899.279095,0.03759765625,0.033203125,0.9951171278953552,0.9963805144100117,-1.6307830810546875,0.1926422119140625,0.5130767822265625,1.7204104927967991
1784717899.289727,0.019042976200580597,0.0283203125,1.0009765625,1.0015581629226482,-1.201629638671875,-0.05340576171875,0.5130767822265625,1.3076749398758944
1784717899.300359,0.03076171875,0.02880859375,0.9863280653953552,0.9872280744594183,-1.5087127685546875,-0.1735687255859375,0.3299713134765625,1.5540982556514644
1784717899.310991,0.0209960974752903,0.0205078087747097,0.9902343153953552,0.9906691706702292,-1.3866424560546875,-0.2956390380859375,0.0820159912109375,1.420178286197922
1784717899.319021,0.0224609375,0.0283203125,0.9999999403953552,1.000652994101447,-1.018524169921875,0.12969970703125,-0.0362396240234375,1.0273883438449147
1784717899.327052,0.0332031287252903,0.0278320275247097,0.9873046278953552,0.9882547737182301,-1.0776519775390625,0.0705718994140625,-0.2193450927734375,1.1020101848007342
1784717899.335083,0.0253906287252903,0.0292968712747097,0.9863280653953552,0.9870896835040353,-1.140594482421875,-0.05340576171875,-0.4062652587890625,1.2119651023090263
1784717899.343114,0.0327148474752903,0.0351562462747097,0.9970702528953552,0.9982260826617722,-0.835418701171875,-0.05340576171875,-0.2193450927734375,0.865383644042485
1784717899.353734,0.0312500037252903,0.0400390587747097,0.9975585341453552,0.9988506985564084,-0.591278076171875,0.00762939453125,-0.2193450927734375,0.6306982168566952
1784717899.364354,0.029296875,0.025390625,0.9887694716453552,0.9895292106757088,-0.713348388671875,-0.05340576171875,-0.2193450927734375,0.7482181291102937
1784717899.374974,0.0263671875,0.017578125,0.9941405653953552,0.9946455061074636,-0.8373260498046875,0.0095367431640625,-0.1010894775390625,0.8434601031588986
1784717899.383007,0.0327148474752903,0.0200195275247097,0.9877929091453552,0.9885372396048052,-0.774383544921875,0.072479248046875,-0.1583099365234375,0.793716039931955
1784717899.39104,0.0283203162252903,0.0161132775247097,0.9921874403953552,0.9927223151022522,-1.0204315185546875,0.0705718994140625,-0.0362396240234375,1.023510716795918
1784717899.399073,0.01953125,0.01708984375,0.9892577528953552,0.9895981174949403,-0.8983612060546875,-0.0514984130859375,-0.1010894775390625,0.9054965629772005
1784717899.407106,0.01611328125,0.0224609375,0.9877929091453552,0.9881796207693541,-0.774383544921875,0.19073486328125,0.1468658447265625,0.8109372596347596
1784717899.417733,0.0341796875,0.015625,0.9897460341453552,0.9904592893042381,-1.140594482421875,0.255584716796875,0.2079010009765625,1.1872245562649133
1784717899.42836,0.02783203125,0.02294921875,0.9824218153953552,0.9830838783997232,-1.079559326171875,-0.232696533203125,0.0820159912109375,1.107394526852891
1784717899.438987,0.0253906287252903,0.0244140587747097,0.9877929091453552,0.9884207412082997,-1.018524169921875,-0.05340576171875,-0.1583099365234375,1.0321364716460024
1784717899.446998,0.0361328162252903,0.0244140587747097,0.9858397841453552,0.9868037832710139,-0.957489013671875,0.255584716796875,-0.5245208740234375,1.1212630851182026
1784717899.45501,0.03173828125,0.01904296875,0.9892577528953552,0.9899499254099094,-1.079559326171875,0.255584716796875,-0.7076263427734375,1.3158673668617678
1784717899.463022,0.0219726599752903,0.0205078087747097,0.9887694716453552,0.9892261804385106,-1.0776519775390625,0.6809234619140625,-1.0128021240234375,1.6281150721325781
1784717899.471034,0.0229492224752903,0.015136715024709702,0.9951171278953552,0.9954968032016277,-0.8983612060546875,0.7419586181640625,-0.9517669677734375,1.5044652899141946
1784717899.481675,0.01611328125,0.0234375,0.9975585341453552,0.9979639188292939,-0.591278076171875,0.43487548828125,-0.6465911865234375,0.9781649227809981
1784717899.492316,0.0312500037252903,0.0161132775247097,1.01123046875,1.0118415198902264,-0.2269744873046875,0.7419586181640625,-0.6465911865234375,1.0100000848737278
1784717899.502957,0.03564453125,0.0126953125,0.9960936903953552,0.9968120904227349,-0.2269744873046875,0.6198883056640625,-0.5245208740234375,0.8431494984121136
1784717899.512569,0.02099609375,0.02099609375,1.00390625,1.0043452746414352,0.324249267578125,0.61798095703125,-0.2803802490234375,0.7520978226405491
1784717899.522183,0.0268554724752903,0.015136715024709702,1.01318359375,1.0136524706169148,0.324249267578125,0.80108642578125,-0.2803802490234375,0.9085648755803701
1784717899.531797,0.0288085974752903,0.0166015587747097,0.9897460341453552,0.9903043770218841,0.446319580078125,0.92315673828125,-0.1583099365234375,1.0375362967131536
1784717899.541411,0.0322265662252903,0.0214843712747097,0.9848632216453552,0.9856245203572254,0.7495880126953125,0.7419586181640625,-0.4634857177734375,1.1520433110019743
1784717899.551025,0.0219726599752903,0.0244140587747097,0.9965819716453552,0.9971230968445111,0.934600830078125,0.61798095703125,-0.4634857177734375,1.2125172928317098
1784717899.560625,0.0371093787252903,0.0253906212747097,0.9819335341453552,0.9829624891710163,0.385284423828125,0.31280517578125,-0.3414154052734375,0.6023750029658722
1784717899.570227,0.03125,0.01904296875,0.9941405653953552,0.9948138825546264,0.0782012939453125,0.1316070556640625,-0.2803802490234375,0.319451003313074
1784717899.579829,0.025390625,0.01708984375,0.9848632216453552,0.985338678803871,0.507354736328125,0.31280517578125,-0.7686614990234375,0.9726748719644597
1784717899.589431,0.0244140625,0.033203125,0.9951171278953552,0.9959701763548044,0.0782012939453125,0.1926422119140625,-0.4062652587890625,0.4563747634179695
1784717899.599033,0.0263671875,0.0087890625,0.9892577528953552,0.989648108096942,0.202178955078125,0.31280517578125,-0.4634857177734375,0.5945943309954945
1784717899.608646,0.0341796875,0.02294921875,0.9804686903953552,0.9813326502896028,0.0782012939453125,0.3757476806640625,-0.5245208740234375,0.6499414659686319
1784717899.618255,0.03955078125,0.01708984375,0.9946288466453552,0.9955615850543623,-0.2269744873046875,0.6198883056640625,-0.5245208740234375,0.8431494984121136
1784717899.627864,0.0258789099752903,0.0400390587747097,1.00048828125,1.0016235046801032,-0.3490447998046875,0.9860992431640625,-1.1348724365234375,1.5434245808655747
1784717899.637473,0.0219726599752903,0.0346679650247097,0.9941405653953552,0.9949875021074087,-0.652313232421875,1.41143798828125,-0.9517669677734375,1.8230551579424965
1784717899.647082,0.02978515625,0.03173828125,0.9829100966453552,0.9838733313373844,-0.7152557373046875,1.0471343994140625,-1.2569427490234375,1.7854932916441097
1784717899.655216,0.037109375,0.0234375,0.9887694716453552,0.9897431435362286,-0.5893707275390625,1.1692047119140625,-1.4400482177734375,1.9463135364977615
1784717899.66335,0.0419921912252903,0.0258789025247097,0.9960936903953552,0.9973142442406118,-0.4100799560546875,1.2302398681640625,-1.5010833740234375,1.9836600009446506
1784717899.671484,0.0332031287252903,0.0297851525247097,0.9912108778953552,0.9922139928090861,-0.4100799560546875,0.8029937744140625,-1.9893646240234375,2.184155713181061
1784717899.679618,0.03173828125,0.01318359375,0.9916991591453552,0.9922944864759018,-0.5321502685546875,1.0471343994140625,-2.0542144775390625,2.3663202400541983
1784717899.687464,0.0327148474752903,0.0341796837747097,0.9775390028953552,0.9786833063917643,-0.591278076171875,0.98419189453125,-1.8711090087890625,2.195288676095723
1784717899.69531,0.0229492224752903,0.0258789025247097,0.9916991591453552,0.9923021750745629,-0.5893707275390625,0.8640289306640625,-1.3179779052734375,1.6825485450034912
1784717899.703156,0.0224609412252903,0.0307617150247097,0.9921874403953552,0.9929182714958336,-0.835418701171875,0.92315673828125,-1.5010833740234375,1.9502292340828464
1784717899.711002,0.0229492224752903,0.0292968712747097,0.9838866591453552,0.9845902353379885,-0.652313232421875,1.232147216796875,-1.2569427490234375,1.8771266316835304
1784717899.719002,0.023437507450580597,0.0283203125,0.9702147841453552,0.9709109558707286,-0.7152557373046875,1.2912750244140625,-0.9517669677734375,1.756371919431489
1784717899.727002,0.01708984375,0.033203125,0.9868163466453552,0.9875226641832839,-0.835418701171875,1.41143798828125,-0.9517669677734375,1.896296907653379
1784717899.735002,0.012695316225290298,0.0253906212747097,0.9833983778953552,0.9838080221008526,-0.957489013671875,1.41143798828125,-1.1348724365234375,2.048628285767432
1784717899.743002,0.0214843787252903,0.0195312462747097,0.9736327528953552,0.9740655961591308,-1.140594482421875,1.47247314453125,-0.9517669677734375,2.0916484636863855
1784717899.752597,0.0190429724752903,0.014160159975290298,0.9785155653953552,0.9788032778103127,-1.079559326171875,1.41143798828125,-0.8296966552734375,1.9611226563527393
1784717899.762192,0.01513671875,0.025390625,0.9848632216453552,0.985306738758076,-1.323699951171875,1.28936767578125,-0.7076263427734375,1.9787333334911192
1784717899.771787,0.02490234375,0.03515625,0.9951171278953552,0.996049289377291,-1.1425018310546875,1.3523101806640625,-0.2803802490234375,1.7923912359564325
1784717899.781382,0.0166015662252903,0.0341796837747097,0.9975585341453552,0.9982819701017852,-1.2035369873046875,1.3523101806640625,-0.6465911865234375,1.9223226230338912
1784717899.790977,0.0219726599752903,0.0268554650247097,0.9897460341453552,0.9903540911686798,-1.140594482421875,1.28936767578125,-0.4634857177734375,1.7827629644068574
1784717899.800582,0.01953125,0.01416015625,0.9946288466453552,0.994921364898079,-0.8373260498046875,1.3523101806640625,-0.4634857177734375,1.656706597134553
1784717899.810187,0.029296875,0.01708984375,0.9902343153953552,0.9908150024251111,-1.018524169921875,1.10626220703125,-0.4634857177734375,1.5735395025231032
1784717899.819792,0.03076171875,0.02392578125,0.9999999403953552,1.0007590155175177,-1.0204315185546875,1.0471343994140625,-0.5893707275390625,1.5764291258968792
1784717899.829397,0.0205078125,0.02685546875,0.9819335341453552,0.9825147592044126,-0.8983612060546875,1.0471343994140625,-0.3414154052734375,1.421304958810145
1784717899.839002,0.02978515625,0.02490234375,0.9951171278953552,0.9958741790446125,-1.140594482421875,1.232147216796875,-0.2803802490234375,1.7022795367488723
1784717899.847002,0.0205078125,0.013671875,0.9980468153953552,0.9983511087089356,-1.0776519775390625,1.1692047119140625,-0.1010894775390625,1.59329611984873
1784717899.855002,0.01220703125,0.0087890625,0.9956054091453552,0.9957190316304382,-1.079559326171875,0.80108642578125,0.2079010009765625,1.3602979918027915
1784717899.863002,0.0302734375,0.021484375,0.9931640028953552,0.9938575330671555,-1.1425018310546875,1.0471343994140625,-0.2803802490234375,1.5749330044297147
1784717899.871002,0.014160163700580597,0.01318359375,0.9858397841453552,0.986029612833181,-1.018524169921875,0.92315673828125,-0.9517669677734375,1.6719659712726704
1784717899.881668,0.0278320349752903,0.0219726525247097,0.9921874403953552,0.9928208985049237,-1.079559326171875,0.98419189453125,-0.4062652587890625,1.5162893801925237
1784717899.892334,0.0019531287252902985,0.0205078087747097,0.9838866591453552,0.9841023031051019,-1.079559326171875,1.47247314453125,-0.7076263427734375,1.9581523283639939
1784717899.903,0.0322265625,0.013671875,0.9902343153953552,0.9908529007290082,-1.2035369873046875,1.2302398681640625,-1.2569427490234375,2.1311725616086017
1784717899.913681,0.01611328125,0.01611328125,0.9946288466453552,0.9948898523175079,-1.2035369873046875,1.1692047119140625,-1.0776519775390625,1.994210300561689
1784717899.924362,0.009277347475290298,0.0053710900247097015,0.9863280653953552,0.9863863190306195,-1.0776519775390625,1.1692047119140625,-1.8711090087890625,2.4554882133350766
1784717899.935043,0.0234375037252903,0.0209960900247097,0.9843749403953552,0.9848777465531231,-1.0204315185546875,0.5588531494140625,-1.8711090087890625,2.203326178631169
1784717899.94304,0.01806640625,0.01806640625,0.9946288466453552,0.9949569501484221,-0.7152557373046875,0.3147125244140625,-1.3828277587890625,1.5883473654235478
1784717899.95104,0.008300784975290298,0.012207027524709702,0.9926757216453552,0.9927854767754823,-0.5893707275390625,0.3757476806640625,-1.1959075927734375,1.3851855992817368
1784717899.95904,0.013183597475290298,0.0239257849752903,0.9985350966453552,0.9989086993622707,-0.6542205810546875,0.6809234619140625,-1.1348724365234375,1.4763457511169964
1784717899.96704,0.0244140625,0.01123046875,0.9892577528953552,0.9896226915040228,-0.5893707275390625,0.6809234619140625,-0.7076263427734375,1.1453164001496992
1784717899.975456,0.0156250037252903,0.0205078087747097,0.9916991591453552,0.9920342399392069,-0.591278076171875,0.43487548828125,-0.3414154052734375,0.809500421635094
1784717899.983872,0.012207034975290298,0.0170898400247097,0.9868163466453552,0.9870398048414482,-0.225067138671875,0.43487548828125,0.1468658447265625,0.5112156918220013
1784717899.992288,0.01123046875,0.0087890625,0.9853515028953552,0.9854546946999181,0.0171661376953125,0.3757476806640625,0.5130767822265625,0.6361829770339349
1784717900.011041,0.023925788700580597,0.01318359375,0.9995116591453552,0.9998848970139566,0.019073486328125,0.743865966796875,0.2689361572265625,0.7912186999200341
1784717900.021375,0.0205078162252903,0.0253906212747097,0.9960936903953552,0.9966282628043838,0.507354736328125,0.49591064453125,0.5702972412109375,0.9102610280390935
1784717900.031709,0.0288085974752903,0.0161132775247097,1.00439453125,1.0049367877662698,0.5702972412109375,0.4978179931640625,0.2689361572265625,0.8033606626630975
1784717900.039527,0.0180664099752903,0.0170898400247097,0.9907225966453552,0.9910346721004168,0.8754730224609375,0.1926422119140625,0.1468658447265625,0.9083686538048737
1784717900.047346,0.02685546875,0.0224609375,0.9892577528953552,0.9898770689225652,1.544952392578125,-0.05340576171875,0.3299713134765625,1.5806995724789328
1784717900.055165,0.01953125,0.02392578125,0.9902343153953552,0.990715858418292,1.483917236328125,0.072479248046875,0.0820159912109375,1.4879483285663697
1784717900.062984,0.0166015662252903,0.0200195275247097,0.9780272841453552,0.978373017829184,1.483917236328125,0.00762939453125,0.0247955322265625,1.48414399245862
1784717900.07366,0.0283203162252903,0.0273437462747097,0.9785155653953552,0.9793071185753873,1.2378692626953125,0.1316070556640625,-0.0362396240234375,1.2453730521316737
1784717900.084336,0.013183597475290298,0.0361328087747097,0.9833983778953552,0.9841502714319375,0.6275177001953125,-0.1125335693359375,-0.1583099365234375,0.6568898722677609
1784717900.095012,0.01220703125,0.0185546875,0.9794921278953552,0.9797439036039632,0.385284423828125,-0.17547607421875,-0.2193450927734375,0.4768104545745431
1784717900.105672,0.02001953125,0.01611328125,0.9804686903953552,0.9808054202081544,0.5054473876953125,-0.1125335693359375,-0.1583099365234375,0.5414821344768049
1784717900.116331,0.0219726599752903,0.0166015587747097,0.9731444716453552,0.9735340632119954,-0.1659393310546875,0.0705718994140625,-0.1010894775390625,0.20672526949288603
1784717900.12699,0.02001953125,0.0283203125,0.9643554091453552,0.9649788478922597,-0.4100799560546875,0.0705718994140625,0.0247955322265625,0.41684623275630245
1784717900.134986,0.03173828125,0.017578125,0.9794921278953552,0.9801638320118686,-1.2035369873046875,0.3757476806640625,-0.4062652587890625,1.3246656407689488
1784717900.14298,0.014160163700580597,0.03271484375,0.9804686903953552,0.981116519116459,-1.0776519775390625,0.3757476806640625,-0.7686614990234375,1.375994405620616
1784717900.150974,0.0234375037252903,0.0175781212747097,1.0009765625,1.0014052055001201,-1.079559326171875,0.12969970703125,-0.7686614990234375,1.3315820863955863
1784717900.158968,0.0161132849752903,0.009765621274709702,0.9868163466453552,0.9869962043078291,-1.2035369873046875,0.1926422119140625,-1.2569427490234375,1.750861895165973
1784717900.169684,0.02294921875,0.02294921875,0.9858397841453552,0.9863738709466261,-1.079559326171875,0.255584716796875,-0.7076263427734375,1.3158673668617678
1784717900.1804,0.013671882450580597,0.0234375,0.9936522841453552,0.9940226851351402,-0.591278076171875,0.31280517578125,-0.5245208740234375,0.850046462637992
1784717900.191116,0.0058593787252902985,0.0302734337747097,1.0048828125,1.0053557977002312,-0.347137451171875,-0.17547607421875,0.0247955322265625,0.3897577209597376
1784717900.201733,0.00048828125,0.015625,1.0166015625,1.0167217495072192,0.3223419189453125,-0.4177093505859375,0.6961822509765625,0.8735302747192369
1784717900.212348,0.0014648474752902985,0.015624996274709702,1.00439453125,1.004517128122571,1.2378692626953125,-1.2722015380859375,1.9168853759765625,2.612521121381963
1784717900.222963,0.009765625,0.01708984375,1.00146484375,1.0016582568212833,1.789093017578125,-2.00653076171875,2.5234222412109375,3.68709632783149
1784717900.231098,0.005859375,0.01708984375,0.9995116591453552,0.9996749230636381,2.338409423828125,-1.70135498046875,3.9310455322265625,4.880152290600409
1784717900.239232,0.0,0.02294921875,0.9868163466453552,0.9870831619715338,2.094268798828125,-1.51824951171875,5.2127838134765625,5.81929192149891
1784717900.247366,0.008789069950580597,0.013671875,0.9868163466453552,0.9869501861406672,1.7261505126953125,-0.7228851318359375,5.7010650634765625,6.000358436318682
1784717900.2555,0.009277347475290298,0.0258789025247097,0.9848632216453552,0.9852468483185971,1.056671142578125,-0.35858154296875,5.5789947509765625,5.689491810165408
1784717900.266046,0.025390625,0.0361328125,0.9975585341453552,0.9985355742402374,1.483917236328125,0.00762939453125,5.4569244384765625,5.655094420005325
1784717900.276592,0.01953125,0.01708984375,0.9980468153953552,0.9983841836721835,1.850128173828125,-0.17547607421875,5.6362152099609375,5.9347020148623155
1784717900.287138,0.02685546875,0.02392578125,0.9975585341453552,0.9982067362307444,2.0923614501953125,-0.1125335693359375,5.0907135009765625,5.505088935840725
1784717900.295252,0.029296875,0.02783203125,0.9824218153953552,0.9832525373539455,2.2144317626953125,0.0705718994140625,4.4193267822265625,4.94359561783989
1784717900.303365,0.0327148474752903,0.0249023400247097,0.9765624403953552,0.9774275358178577,1.5468597412109375,0.0705718994140625,3.6830902099609375,3.9953609282111398
1784717900.311478,0.0351562537252903,0.0200195275247097,0.9833983778953552,0.9842302135707507,1.1157989501953125,-0.2346038818359375,3.1375885009765625,3.3383390900401064
1784717900.319591,0.029296875,0.017578125,0.9960936903953552,0.9966794556971258,1.056671142578125,-0.54168701171875,2.1610260009765625,2.4657680546066985
1784717900.327807,0.0302734375,0.015625,0.9833983778953552,0.9839883085130038,0.9937286376953125,-0.7839202880859375,1.9168853759765625,2.297058372806692
1784717900.336023,0.02490234375,0.0234375,0.9794921278953552,0.9800889101196197,1.2378692626953125,-0.4787445068359375,0.9403228759765625,1.6265680820169364
1784717900.344239,0.02490234375,0.0078125,0.9897460341453552,0.9900900837736695,0.7495880126953125,-0.9059906005859375,0.4520416259765625,1.25977886501644
1784717900.352455,0.0166015662252903,0.0249023400247097,0.9868163466453552,0.9872700950329271,0.8106231689453125,-0.6008148193359375,-0.2803802490234375,1.0472351470453332
1784717900.362676,0.02099609375,0.02197265625,0.9941405653953552,0.9946049956339632,0.4444122314453125,-0.8449554443359375,0.0820159912109375,0.9582163415353843
1784717900.372897,0.02685546875,0.013671875,0.9775390028953552,0.9780033939355441,0.0782012939453125,-0.7228851318359375,-0.4634857177734375,0.8622629336717081
1784717900.383118,0.0361328162252903,0.0195312462747097,0.9775390028953552,0.9784015291132058,0.202178955078125,-0.78582763671875,-0.1010894775390625,0.8176921712824324
1784717900.391122,0.0209960974752903,0.0336914025247097,0.9838866591453552,0.9846872116349853,-0.713348388671875,-0.54168701171875,-0.2803802490234375,0.9385647693835489
1784717900.399126,0.0170898474752903,0.0166015587747097,0.9999999403953552,1.0002837374621227,-0.3490447998046875,-0.4177093505859375,-0.5245208740234375,0.7559335427958802
1784717900.40713,0.0219726599752903,0.0263671837747097,0.9892577528953552,0.9898529829374495,-0.7724761962890625,-0.6008148193359375,-0.3414154052734375,1.0364663042882383
1784717900.415134,0.0288085974752903,0.0244140587747097,0.9912108778953552,0.9919299299912414,-0.774383544921875,-0.29754638671875,-0.2803802490234375,0.8756807699941791
1784717900.425908,0.011230472475290298,0.0297851525247097,0.9804686903953552,0.9809852861631113,-1.079559326171875,-0.232696533203125,-0.3414154052734375,1.155924086714803
1784717900.436682,0.0239257849752903,0.0307617150247097,0.9755858778953552,0.9763639339133724,-0.957489013671875,-0.415802001953125,-0.7686614990234375,1.296347567672931
1784717900.447456,0.0273437537252903,0.0307617150247097,0.9775390028953552,0.9784050624157135,-1.140594482421875,-0.54168701171875,-0.6465911865234375,1.4186122636174414
1784717900.458061,0.0268554724752903,0.0307617150247097,0.9912108778953552,0.9920516639627259,-1.2035369873046875,-0.4177093505859375,-0.5893707275390625,1.4036880835346908
1784717900.468668,0.0263671912252903,0.0200195275247097,0.9907225966453552,0.9912755791197213,-0.8983612060546875,-0.3566741943359375,-0.8945465087890625,1.3169976438232238
1784717900.479275,0.03173828125,0.02294921875,0.9902343153953552,0.9910085693496536,-0.835418701171875,-0.17547607421875,-0.7686614990234375,1.1487196172138285
1784717900.487224,0.0234375037252903,0.0229492150247097,0.9916991591453552,0.9922415055321602,-0.286102294921875,0.00762939453125,-0.9517669677734375,0.993867743598272
1784717900.495172,0.0380859412252903,0.0224609337747097,0.9892577528953552,0.9902453908646158,-0.286102294921875,0.43487548828125,-0.6465911865234375,0.8300911853267723
1784717900.50312,0.02587890625,0.037109375,0.9863280653953552,0.9873651179214967,-0.4100799560546875,0.9860992431640625,-0.8296966552734375,1.352388194084258
1784717900.511068,0.03076171875,0.0322265625,0.9941405653953552,0.9951383313065661,-0.0438690185546875,1.2912750244140625,-0.7076263427734375,1.473109201807999
1784717900.521789,0.025390625,0.02392578125,0.9926757216453552,0.9932885860566607,-0.0438690185546875,1.5354156494140625,-1.0128021240234375,1.8398896297552594
1784717900.53251,0.02978515625,0.01806640625,0.9741210341453552,0.9747437302860907,0.263214111328125,1.41143798828125,-1.1959075927734375,1.8685914036029478
1784717900.543231,0.02001953125,0.0166015625,0.9897460341453552,0.9900876757213827,0.2613067626953125,1.1081695556640625,-1.2569427490234375,1.695944003395627
1784717900.551184,0.037109375,0.0283203125,0.9765624403953552,0.9776775264901613,0.019073486328125,1.10626220703125,-0.8296966552734375,1.3829592938182564
1784717900.559137,0.01953125,0.02392578125,0.9877929091453552,0.9882756417583252,-0.286102294921875,1.10626220703125,-0.9517669677734375,1.4871217014117772
1784717900.56709,0.0268554724752903,0.0205078087747097,0.9882811903953552,0.9888586845004049,-0.530242919921875,1.10626220703125,-0.7686614990234375,1.4476926900809737
1784717900.575043,0.0302734375,0.02734375,0.9921874403953552,0.9930257189823511,-0.5321502685546875,1.2302398681640625,-1.1959075927734375,1.7963488002045465
1784717900.585707,0.03076171875,0.02197265625,0.9975585341453552,0.9982745664442045,-0.591278076171875,1.77764892578125,-1.5010833740234375,2.4006034163231402
1784717900.596371,0.0312500037252903,0.0253906212747097,1.00341796875,1.0042255057465541,-0.652313232421875,2.26593017578125,-1.6841888427734375,2.8976618458390297
1784717900.607035,0.04150390625,0.0234375,0.9980468153953552,0.9991843355262677,-0.469207763671875,2.75421142578125,-1.5010833740234375,3.1716065013118406
1784717900.617675,0.0219726599752903,0.0205078087747097,0.9873046278953552,0.9877620139845,-0.286102294921875,2.63214111328125,-2.2373199462890625,3.466355709595874
1784717900.628315,0.0278320349752903,0.0190429724752903,0.9882811903953552,0.9888563941547938,-0.2269744873046875,2.8781890869140625,-2.2945404052734375,3.6878727620880336
1784717900.638955,0.0405273474752903,0.0200195275247097,0.9770507216453552,0.9780957826529081,-0.1010894775390625,3.3054351806640625,-2.2373199462890625,3.992708524060287
1784717900.649636,0.0292968712747097,0.0297851525247097,0.9814452528953552,0.9823340808544896,0.019073486328125,2.75421142578125,-1.9893646240234375,3.397589731427355
1784717900.660317,0.0288085974752903,0.0297851525247097,0.9858397841453552,0.9867102769319747,0.1392364501953125,2.6950836181640625,-2.1114349365234375,3.426517180626856
1784717900.670998,0.0278320349752903,0.0175781212747097,0.9946288466453552,0.9951734296581093,-0.347137451171875,2.93731689453125,-1.8062591552734375,3.465675559672879
1784717900.679032,0.02099609375,0.0166015625,0.9912108778953552,0.9915722123417341,-0.2269744873046875,2.3899078369140625,-1.7490386962890625,2.9702379110009054
1784717900.687065,0.01953125,0.02587890625,0.9951171278953552,0.9956451605597044,-0.286102294921875,1.89971923828125,-1.1959075927734375,2.26295883257045
1784717900.695098,0.011718753725290298,0.0307617150247097,0.9897460341453552,0.9902933022123265,-0.4100799560546875,1.9626617431640625,-0.8945465087890625,2.1955455232867096
1784717900.703131,0.0034179724752902985,0.0175781212747097,0.9985350966453552,0.9986956554005525,0.202178955078125,1.89971923828125,-0.6465911865234375,2.0169010081464487
1784717900.714456,0.015625,0.037109375,1.00634765625,1.0071528441988131,0.385284423828125,1.65557861328125,0.0247955322265625,1.6999998383580028
1784717900.725781,0.009277347475290298,0.0312499962747097,0.9824218153953552,0.9829624890137223,0.385284423828125,1.77764892578125,0.5130767822265625,1.8899014723090106
1784717900.737106,0.0209960974752903,0.015136715024709702,0.9897460341453552,0.9900844248635516,0.5702972412109375,1.7185211181640625,1.1234283447265625,2.1308789319536037
1784717900.747094,0.009765625,0.01904296875,0.9975585341453552,0.9977880692495195,0.385284423828125,1.720428466796875,1.4896392822265625,2.3081038511648657
1784717900.757082,0.0283203162252903,0.0249023400247097,0.9877929091453552,0.9885125179822715,0.1392364501953125,1.6574859619140625,1.2416839599609375,2.0756747238980995
1784717900.76707,0.03125,0.02294921875,0.9916991591453552,0.9924567755780802,0.324249267578125,2.08282470703125,0.8754730224609375,2.2824875379291014
1784717900.777705,0.03466796875,0.025390625,0.9897460341453552,0.9906784362251962,0.324249267578125,2.44903564453125,0.1468658447265625,2.474769232081406
1784717900.78834,0.0322265662252903,0.0244140587747097,0.9907225966453552,0.9915472058052723,-0.102996826171875,2.63214111328125,-1.0128021240234375,2.8221522511823
1784717900.798975,0.0341796837747097,0.0200195275247097,0.9833983778953552,0.9841958148216582,-0.102996826171875,2.63214111328125,-2.1114349365234375,3.37593434142293
1784717900.807121,0.0278320349752903,0.0268554650247097,0.9760741591453552,0.9768401109310937,0.0171661376953125,2.5119781494140625,-3.2711029052734375,4.12437184505779
1784717900.815268,0.013671878725290298,0.0244140587747097,0.9873046278953552,0.9877010655037889,0.202178955078125,2.025604248046875,-3.8204193115234375,4.328920490774027
1784717900.823415,0.0166015625,0.03173828125,0.9819335341453552,0.9825865844053302,-0.0438690185546875,2.1457672119140625,-4.0645599365234375,4.596399557926379
1784717900.831562,0.013671878725290298,0.0327148400247097,0.9951171278953552,0.9957486024375942,-0.0438690185546875,1.9626617431640625,-4.2476654052734375,4.6793831862784545
1784717900.842051,0.0107421875,0.01171875,0.9960936903953552,0.9962205397095993,0.0782012939453125,2.2068023681640625,-3.9424896240234375,4.518773790536732
1784717900.85254,0.0048828125,0.0205078125,0.9829100966453552,0.9831361402770356,-0.469207763671875,2.32696533203125,-3.3931732177734375,4.141080543503134
1784717900.863029,-0.0029296837747097015,0.0346679650247097,0.9873046278953552,0.9879174454930736,-0.1659393310546875,2.3288726806640625,-2.7256011962890625,3.5888836294238717
1784717900.873705,-0.004882805049419403,0.0234375,0.9999999403953552,1.0002864784561043,0.019073486328125,2.08282470703125,-2.2373199462890625,3.056815843351283
1784717900.884383,-0.00732421875,0.0224609375,0.9960936903953552,0.9963738143584037,0.3223419189453125,2.2068023681640625,-1.3828277587890625,2.6241367371616597
1784717900.895061,-0.0053710900247097015,0.015624996274709702,0.9985350966453552,0.9986717820931895,0.812530517578125,2.26593017578125,-0.5893707275390625,2.478306530272586
1784717900.903049,0.008789069950580597,0.0185546875,1.00341796875,1.0036279909354835,0.812530517578125,2.391815185546875,0.3871917724609375,2.5555631849887512
1784717900.911037,-0.0004882737994194031,0.0234375,0.9912108778953552,0.9914880530170971,1.117706298828125,2.08282470703125,0.8182525634765625,2.5013922899648997
1784717900.919025,-0.00439453125,0.02294921875,0.9887694716453552,0.9890455230190254,1.0585784912109375,2.0236968994140625,0.8754730224609375,2.4458925928604067
1784717900.927013,0.008789066225290298,0.0229492150247097,0.9946288466453552,0.9949323880216345,1.056671142578125,1.96075439453125,0.5130767822265625,2.28568577973678
1784717900.937658,0.0107421875,0.02734375,0.9882811903953552,0.9887177486753275,1.0585784912109375,2.1457672119140625,0.5702972412109375,2.4597041068211194
1784717900.948303,0.01123046875,0.02392578125,0.9873046278953552,0.9876583390527077,0.8106231689453125,1.6574859619140625,0.3871917724609375,1.8852817043175718
1784717900.958948,0.004394538700580597,0.0283203125,0.9853515028953552,0.9857681960423677,0.995635986328125,1.77764892578125,-0.5245208740234375,2.1039127519669445
1784717900.966959,0.0068359375,0.02197265625,0.9965819716453552,0.9968476081491735,0.7495880126953125,1.3523101806640625,-0.5245208740234375,1.6327115975549658
1784717900.974969,0.00634765625,0.02734375,0.9892577528953552,0.9896559377215388,0.812530517578125,0.92315673828125,-0.4634857177734375,1.3142462539455118
1784717900.982979,-0.010253898799419403,0.02294921875,0.9746093153953552,0.9749333960518672,0.690460205078125,1.232147216796875,-0.9517669677734375,1.7031683474047583
1784717900.990989,0.00537109375,0.03271484375,0.9843749403953552,0.9849330601254165,0.507354736328125,0.92315673828125,-0.6465911865234375,1.2360045931947197
1784717901.001659,0.00732421875,0.02734375,0.9785155653953552,0.9789249391885734,0.568389892578125,0.92315673828125,-0.7686614990234375,1.3289567086628544
1784717901.012329,-0.0048828087747097015,0.0292968712747097,0.9868163466453552,0.9872632123676559,0.2613067626953125,0.5588531494140625,-1.0128021240234375,1.1859031196799792
1784717901.022999,0.0,0.0336913987994194,0.9887694716453552,0.9893433066488581,0.019073486328125,0.49591064453125,-0.6465911865234375,0.8150897666698409
1784717901.033655,-0.0039062462747097015,0.0390624962747097,0.9755858778953552,0.9763754106510576,-0.041961669921875,0.12969970703125,-0.4634857177734375,0.48311676262222886
1784717901.04431,-0.00439453125,0.0385742112994194,0.9785155653953552,0.9792854504194736,-0.102996826171875,0.12969970703125,-0.4062652587890625,0.43872750165041563
1784717901.054965,-0.0068359337747097015,0.0361328087747097,0.9902343153953552,0.9909169033006904,-0.1010894775390625,-0.1125335693359375,-0.4062652587890625,0.43351395271150245
1784717901.062977,-0.0063476525247097015,0.0385742150247097,0.9921874403953552,0.992957289935289,0.019073486328125,-0.17547607421875,0.0820159912109375,0.1946336900905031
1784717901.070987,-0.0053710900247097015,0.0292968712747097,0.9960936903953552,0.9965389080813545,-0.2269744873046875,-0.2346038818359375,0.2689361572265625,0.42294568909436425
1784717901.078997,0.0,0.02783203125,0.9877929091453552,0.9881849287058293,-0.286102294921875,-0.54168701171875,0.2079010009765625,0.6469174352507508
1784717901.087007,0.01220703125,0.0322265625,0.9877929091453552,0.9883938457418424,-0.5321502685546875,-0.6008148193359375,0.8182525634765625,1.146167358238956
1784717901.097818,0.00146484375,0.03662109375,0.9877929091453552,0.9884726003448463,-0.469207763671875,-0.78582763671875,0.3871917724609375,0.9937798895038983
1784717901.108629,0.011718753725290298,0.0312499962747097,0.9873046278953552,0.9878685741127862,-0.7152557373046875,-0.7839202880859375,0.3871917724609375,1.1296190758310758
1784717901.11944,0.011718753725290298,0.0205078087747097,0.9941405653953552,0.9944211196340365,-0.591278076171875,-1.15203857421875,0.4520416259765625,1.3715481294745067
1784717901.12995,0.011718753725290298,0.0307617150247097,0.9887694716453552,0.9893172799248835,-0.7152557373046875,-1.4553070068359375,0.1468658447265625,1.6282133859664385
1784717901.140459,0.008789066225290298,0.0468749962747097,1.001953125,1.003087522431683,-0.6542205810546875,-1.2722015380859375,0.5130767822265625,1.5197858752612887
1784717901.150968,-0.0029296837747097015,0.0195312462747097,0.9931640028953552,0.9933603521759806,-0.5321502685546875,-1.6384124755859375,0.2689361572265625,1.7435326223338228
1784717901.158977,0.0068359412252902985,0.0415039025247097,0.9956054091453552,0.9964935698421271,-0.4100799560546875,-1.3332366943359375,0.5130767822265625,1.4862481078008463
1784717901.166986,0.010742191225290298,0.0351562462747097,0.9873046278953552,0.987988757318642,-0.7152557373046875,-1.8215179443359375,0.2079010009765625,1.9679281535391855
1784717901.174995,0.01806640625,0.0283203125,0.9780272841453552,0.97860400758817,-0.774383544921875,-1.51824951171875,0.0820159912109375,1.7063053880517125
1784717901.183004,0.01611328125,0.0322265625,0.9887694716453552,0.9894257209215065,-0.8983612060546875,-1.5773773193359375,-0.4062652587890625,1.8601676065877517
1784717901.193669,0.013671878725290298,0.0195312462747097,0.9907225966453552,0.9910094113340385,-0.774383544921875,-1.70135498046875,-1.0128021240234375,2.126040165810133
1784717901.204334,0.01171875,0.03662109375,0.9848632216453552,0.985613513989473,-1.079559326171875,-1.82342529296875,-1.0776519775390625,2.3773224271134734
1784717901.214999,0.0190429724752903,0.0302734337747097,0.9726561903953552,0.9733135056638287,-1.0204315185546875,-1.8825531005859375,-1.2569427490234375,2.482980413718189
1784717901.223046,0.01953125,0.017578125,0.9829100966453552,0.9832612665474317,-1.445770263671875,-2.12860107421875,-1.5659332275390625,3.0121987088493953
1784717901.231092,0.0180664099752903,0.0253906212747097,0.9750975966453552,0.9755954088666361,-1.323699951171875,-1.51824951171875,-1.6231536865234375,2.5868689627890458
1784717901.239138,0.0229492224752903,0.0292968712747097,0.9912108778953552,0.9919092589228049,-1.0204315185546875,-1.2722015380859375,-1.8711090087890625,2.482101158361528
1784717901.255133,0.0126953125,0.01416015625,0.9853515028953552,0.9855350147217664,-0.957489013671875,-1.087188720703125,-1.5010833740234375,2.086148561703127
1784717901.263079,0.008300784975290298,0.0190429724752903,0.9809569716453552,0.9811769045648837,-1.0776519775390625,-0.9670257568359375,-1.3828277587890625,2.002170125028228
1784717901.271025,0.005859375,0.0263671875,0.9951171278953552,0.9954836307457554,-0.835418701171875,-0.66375732421875,-1.3828277587890625,1.746628409879823
1784717901.278971,0.00732421875,0.0234375,0.9819335341453552,0.9822405133498289,-0.9593963623046875,-0.6008148193359375,-1.2569427490234375,1.6915451225018323
1784717901.289672,0.0170898474752903,0.0385742150247097,0.9931640028953552,0.9940597414635733,-1.201629638671875,-0.54168701171875,-0.8296966552734375,1.5574771738203483
1784717901.300373,0.0034179724752902985,0.0224609337747097,0.9877929091453552,0.9880541520785779,-0.7152557373046875,-0.4177093505859375,-1.0776519775390625,1.3591930164653032
1784717901.311074,0.00732421875,0.0224609375,0.9848632216453552,0.9851465389693783,-0.652313232421875,-0.35858154296875,-0.5893707275390625,0.9494478030046983
1784717901.319129,0.01171875,0.0224609375,0.9726561903953552,0.9729860674898417,-0.774383544921875,-0.54168701171875,-0.0362396240234375,0.945731464877805
1784717901.327184,0.009765625,0.0166015625,0.9833983778953552,0.9835869808798294,-0.774383544921875,-1.02996826171875,0.2689361572265625,1.316370446134941
1784717901.335239,0.0161132849752903,0.0307617150247097,0.9838866591453552,0.9844993037621533,-1.0204315185546875,-0.7228851318359375,0.4520416259765625,1.3297311869339685
1784717901.343294,0.0063476599752902985,0.0292968712747097,0.9921874403953552,0.9926401746513867,-1.0204315185546875,-0.6618499755859375,0.7534027099609375,1.4307136392791593
1784717901.35385,0.021484375,0.01318359375,0.9960936903953552,0.9964125779810006,-0.957489013671875,-0.48065185546875,0.5702972412109375,1.2136928609828346
1784717901.364406,0.0205078125,0.01904296875,0.9980468153953552,0.998439107183387,-0.591278076171875,-0.35858154296875,0.6351470947265625,0.9389368020580278
1784717901.374962,0.013671878725290298,0.0312499962747097,0.9775390028953552,0.978133929846365,-1.0204315185546875,-0.2956390380859375,0.5130767822265625,1.1798011312760162
1784717901.385654,0.01611328125,0.03271484375,0.9887694716453552,0.9894417450724744,-0.8983612060546875,0.1316070556640625,0.4520416259765625,1.0142558381691134
1784717901.396346,0.0229492224752903,0.0268554650247097,0.9921874403953552,0.9928160956049213,-0.5321502685546875,0.7419586181640625,0.2689361572265625,0.9518472335698316
1784717901.407038,0.03173828125,0.02783203125,0.9999999403953552,1.0008905141177626,-0.591278076171875,0.80108642578125,-0.0362396240234375,0.9963245130387247
1784717901.417719,0.0166015625,0.02734375,0.9863280653953552,0.9868466674859109,-0.957489013671875,0.743865966796875,-0.2193450927734375,1.2321664082358266
1784717901.4284,0.014160159975290298,0.014648433774709702,0.9858397841453552,0.9860502861144245,-1.0204315185546875,0.7419586181640625,-0.4062652587890625,1.3254563499514778
1784717901.439081,0.03125,0.02294921875,0.9858397841453552,0.9866019000311098,-0.8983612060546875,0.5588531494140625,-0.5893707275390625,1.2110852792573994
1784717901.449723,0.01953125,0.021484375,0.9921874403953552,0.9926121926381872,-1.1425018310546875,0.5588531494140625,-0.5245208740234375,1.3757723008767262
1784717901.460364,0.008300784975290298,0.010742183774709702,0.9931640028953552,0.9932567815980824,-1.140594482421875,0.255584716796875,-0.7076263427734375,1.3663873395850366
1784717901.471005,0.011230472475290298,0.0249023400247097,0.9960936903953552,0.996468208271675,-0.7724761962890625,0.8640289306640625,-0.4634857177734375,1.2482325414111186
1784717901.479008,0.013671878725290298,0.0161132775247097,1.01025390625,1.0104748948261164,-0.8983612060546875,0.5588531494140625,0.0247955322265625,1.0582932096410935
1784717901.487011,0.009765625,0.01708984375,0.9951171278953552,0.9953117744816148,-0.652313232421875,1.10626220703125,0.0820159912109375,1.2868781009530934
1784717901.495014,0.02001953125,0.017578125,0.9946288466453552,0.9949855851664661,-0.5893707275390625,1.3523101806640625,-0.3414154052734375,1.5141549320216934
1784717901.503017,0.0146484375,0.019531242549419403,0.9931640028953552,0.993464031962829,-0.4100799560546875,0.9860992431640625,-0.4634857177734375,1.1642062954247026
1784717901.511222,0.0239257849752903,0.0175781212747097,0.9863280653953552,0.9867747899702223,-0.3490447998046875,1.0471343994140625,-1.0128021240234375,1.4980289934221334
1784717901.519427,0.0107421875,0.02880859375,0.9956054091453552,0.9960800471777496,-0.041961669921875,0.92315673828125,-0.8296966552734375,1.2419241864738113
1784717901.527632,0.0180664099752903,0.0307617150247097,0.9931640028953552,0.9938045154494831,0.1392364501953125,0.6809234619140625,-1.0128021240234375,1.2283369621054354
1784717901.535837,0.0166015625,0.0087890625,0.9916991591453552,0.9918770497126521,0.019073486328125,0.743865966796875,-1.0776519775390625,1.3095931273236014
1784717901.546269,0.008789066225290298,0.012695308774709702,0.9785155653953552,0.9786373844642302,0.0171661376953125,1.3523101806640625,-1.0776519775390625,1.7292690032799685
1784717901.556701,0.01513671875,0.01806640625,0.9985350966453552,0.9988132230411527,0.1392364501953125,0.4978179931640625,-1.1959075927734375,1.302844777336903
1784717901.567133,0.0166015625,0.02197265625,0.9814452528953552,0.9818315506903157,-0.102996826171875,0.80108642578125,-1.3179779052734375,1.5457728056093547
1784717901.577746,0.0073242224752902985,0.0214843712747097,1.0048828125,1.0051391392746813,0.1392364501953125,0.6809234619140625,-0.8296966552734375,1.0823308596819887
1784717901.588359,0.0063476599752902985,0.0258789025247097,1.0029296875,1.0032835932336843,-0.1659393310546875,0.6809234619140625,-0.2803802490234375,0.7548547586246998
1784717901.598972,0.0043945349752902985,0.0200195275247097,0.9946288466453552,0.9948400052264842,0.1392364501953125,0.6809234619140625,0.0247955322265625,0.6954555114933104
1784717901.609659,-0.0004882737994194031,0.0234375,0.9833983778953552,0.9836777543813671,0.019073486328125,0.80108642578125,0.6351470947265625,1.0225043234095788
1784717901.620345,0.01025390625,0.03125,0.9858397841453552,0.9863882527165175,0.019073486328125,0.743865966796875,1.0013580322265625,1.247564941453555
1784717901.631031,0.009277347475290298,0.010742183774709702,0.9970702528953552,0.9971712756077736,0.1392364501953125,0.6809234619140625,1.1844635009765625,1.373316181799981
1784717901.641713,0.015625,0.01171875,0.9990233778953552,0.9992142809768124,0.3223419189453125,0.5588531494140625,1.3637542724609375,1.5086573073348446
1784717901.652394,0.0126953125,0.0185546875,1.00439453125,1.0046461176914996,0.3223419189453125,0.6809234619140625,0.8754730224609375,1.154995275640237
1784717901.663075,0.01953125,0.02685546875,0.9814452528953552,0.9820068586110652,0.3223419189453125,1.1692047119140625,0.7534027099609375,1.4277813608700307
1784717901.673705,0.0229492224752903,0.0307617150247097,0.9863280653953552,0.9870744665474971,0.3871917724609375,1.1692047119140625,0.0247955322265625,1.2318977008834324
1784717901.684335,0.02587890625,0.0322265625,0.9912108778953552,0.9920722118764055,0.385284423828125,1.10626220703125,-0.3414154052734375,1.2201740191088515
1784717901.694965,0.0039062537252902985,0.0273437462747097,0.9941405653953552,0.9945242093800928,0.324249267578125,0.98419189453125,-0.7686614990234375,1.2901983463277729
1784717901.703038,0.021484375,0.0126953125,0.9916991591453552,0.992013090426844,-0.102996826171875,0.743865966796875,-1.0128021240234375,1.2608382391038573
1784717901.711113,0.009277347475290298,0.0219726525247097,0.9926757216453552,0.9929622122615118,0.1392364501953125,0.9860992431640625,-1.0128021240234375,1.420403692215039
1784717901.719188,0.00244140625,0.02880859375,0.9887694716453552,0.9891920761895361,0.507354736328125,1.10626220703125,-1.4400482177734375,1.8854611554451837
1784717901.727263,0.0063476599752902985,0.0253906212747097,0.9946288466453552,0.9949731247701855,0.202178955078125,1.049041748046875,-1.3179779052734375,1.6965938458601941
1784717901.735216,0.011230472475290298,0.014648433774709702,0.9897460341453552,0.9899181341053052,-0.041961669921875,0.92315673828125,-1.0128021240234375,1.3710387622540419
1784717901.743169,0.0009765625,0.02880859375,0.9838866591453552,0.9843088167807791,-0.347137451171875,0.92315673828125,-0.8945465087890625,1.3315165150409822
1784717901.751122,0.011718753725290298,0.015136715024709702,0.9848632216453552,0.9850492447996096,0.0782012939453125,1.0471343994140625,-0.7686614990234375,1.3013248606293237
1784717901.759075,0.0024414099752902985,0.0249023400247097,0.9912108778953552,0.9915266468832064,0.019073486328125,0.92315673828125,-0.6465911865234375,1.127236587325204
1784717901.76974,-0.010253902524709702,0.0263671837747097,0.9916991591453552,0.9921026122064189,-0.0438690185546875,0.8640289306640625,-0.5245208740234375,1.011727547860463
1784717901.780405,0.0107421875,0.02685546875,0.9980468153953552,0.9984658514515545,-0.0438690185546875,0.9860992431640625,-0.4062652587890625,1.0674116678473364
1784717901.79107,0.015625,0.02880859375,0.9931640028953552,0.9937045900799581,0.019073486328125,1.16729736328125,-0.2803802490234375,1.2006498308193412
