timestamp,accel_x,accel_y,accel_z,accel_rms,gyro_x,gyro_y,gyro_z,gyro_rms
1782309321.813049,0.01220703125,-0.45947265625,0.9072265028953552,1.017017237321524,-8.70513916015625,7.1868896484375,30.157089233398438,32.20063449138324
1782309321.821048,0.0214843787252903,-0.5048828125,0.9121093153953552,1.042742363250916,-7.17926025390625,15.0604248046875,30.828475952148438,35.053574748136015
1782309321.829047,0.014160159975290298,-0.57470703125,0.9433593153953552,1.1047241645958088,-5.77545166015625,23.8494873046875,29.729843139648438,38.54889699697455
1782309321.837046,0.0332031287252903,-0.634765625,0.9697265028953552,1.159482357285545,-4.4956207275390625,31.660079956054688,25.884628295898438,41.14104095142077
1782309321.847883,0.07763671875,-0.6728515625,0.9956054091453552,1.2041539834989743,-3.15093994140625,38.6810302734375,18.133163452148438,42.8364580971778
1782309321.85872,0.09326171875,-0.70751953125,1.0302734375,1.2532936572497646,-1.1386871337890625,44.59953308105469,6.9637298583984375,45.15427435999274
1782309321.869557,0.07275390625,-0.70458984375,1.02880859375,1.2490744979240171,2.3403167724609375,46.24748229980469,-6.5860748291015625,46.772674536749925
1782309321.88006,0.011230472475290298,-0.658203125,1.03662109375,1.2279823977888404,5.5751800537109375,39.71672058105469,-38.69056701660156,55.726658812555826
1782309321.890562,-0.011718746274709702,-0.64990234375,1.037109375,1.2239715034014822,3.4389495849609375,34.28459167480469,-50.28724670410156,60.959550372645985
1782309321.901064,-0.01806640625,-0.64453125,1.0341796875,1.2187184060721123,3.19671630859375,29.4647216796875,-61.88392639160156,68.61493397548551
1782309321.911733,-0.0161132775247097,-0.59130859375,1.06689453125,1.2199055010804518,3.3168792724609375,24.946212768554688,-70.85609436035156,75.19242865877605
1782309321.922405,-0.0053710900247097015,-0.505859375,1.07763671875,1.190471945692846,4.47845458984375,20.3094482421875,-79.58412170410156,82.25668769667689
1782309321.933077,-0.0073242150247097015,-0.5703125,1.04833984375,1.1934514735739163,6.5517425537109375,17.927169799804688,-84.77210998535156,86.8943000368245
1782309321.941068,0.03466796875,-0.541015625,1.0234375,1.158155469251707,9.664535522460938,20.982742309570312,-94.17152404785156,96.96367703006021
1782309321.94906,0.011718753725290298,-0.53515625,1.0498046875,1.1783969717374145,11.25335693359375,26.1688232421875,-98.32191467285156,102.36524926502753
1782309321.957052,-0.0014648400247097015,-0.52197265625,1.0849609375,1.2039924565917586,9.97161865234375,30.0140380859375,-101.49574279785156,106.3092727228416
1782309321.965044,-0.0410156212747097,-0.53515625,1.12158203125,1.2433908258972675,11.983871459960938,30.073165893554688,-104.12025451660156,109.03685561603479
1782309321.975724,-0.0375976525247097,-0.5927734375,1.1728515625,1.3146766596162065,16.68548583984375,30.9295654296875,-105.09681701660156,110.81689583453408
1782309321.986404,-0.0361328087747097,-0.58935546875,1.13037109375,1.2752977134775445,17.23480224609375,33.3709716796875,-106.62269592285156,113.04450205633766
1782309321.997084,-0.0673828050494194,-0.60888671875,1.09912109375,1.2583126230840513,14.730453491210938,35.99357604980469,-110.22377014160156,116.8837169204437
1782309322.00774,-0.0898437425494194,-0.60595703125,1.05712890625,1.2217926772680876,9.23919677734375,38.9251708984375,-115.65589904785156,122.37981316838932
1782309322.018395,-0.0571289025247097,-0.59912109375,1.046875,1.2075417434212674,3.80706787109375,38.1317138671875,-121.39320373535156,127.29819826437743
1782309322.02905,-0.0019531212747097015,-0.5595703125,1.02099609375,1.1642833730526345,-0.89263916015625,37.5213623046875,-127.43568420410156,132.84766856229496
1782309322.039783,0.0048828125,-0.51904296875,0.9995116591453552,1.1262561884554616,-6.5097808837890625,43.98918151855469,-140.55824279785156,147.424709449424
1782309322.050518,-0.0576171837747097,-0.51611328125,0.9780272841453552,1.107352711416516,-9.92584228515625,49.7283935546875,-145.74623107910156,154.31590761928126
1782309322.061253,-0.12451171875,-0.46630859375,0.9301757216453552,1.0479378540016764,-16.70074462890625,46.6766357421875,-146.11244201660156,154.2934506303607
1782309322.06924,-0.11328125,-0.37841796875,0.9086913466453552,0.9908343777557315,-25.67291259765625,38.8641357421875,-147.88246154785156,155.04432244260306
1782309322.07723,-0.07470703125,-0.3291015625,0.9394530653953552,0.9982289522143001,-29.153823852539062,35.57014465332031,-146.90589904785156,153.93675263217867
1782309322.08522,-0.1215820237994194,-0.341796875,0.9521483778953552,1.0189179681405587,-28.48052978515625,30.9295654296875,-141.29066467285156,147.41380708132016
1782309322.09321,-0.14990234375,-0.365234375,0.9482421278953552,1.027146530179066,-22.92633056640625,25.8636474609375,-136.83509826660156,141.13252286717722
1782309322.103825,-0.1533203125,-0.3525390625,0.9121093153953552,0.9898152918825108,-16.946792602539062,19.697189331054688,-129.75502014160156,132.33116903815335
1782309322.11444,-0.1499023288488388,-0.40625,0.8535155653953552,0.9570781530608973,-10.53619384765625,12.5579833984375,-125.36048889160156,126.427712559281
1782309322.125055,-0.1845702975988388,-0.37353515625,0.75390625,0.8613764226512695,-4.55474853515625,6.0882568359375,-119.37904357910156,119.62093734534886
1782309322.133056,-0.2001952975988388,-0.30908203125,0.68701171875,0.779483778485571,-1.68609619140625,2.9144287109375,-118.34144592285156,118.38933498499352
1782309322.141057,-0.1708984375,-0.26123046875,0.67431640625,0.7430681324624285,-3.9463043212890625,4.2591094970703125,-113.39759826660156,113.54615195654064
1782309322.149058,-0.08642578125,-0.1962890625,0.71044921875,0.7421165030804039,-7.3032379150390625,11.518478393554688,-106.13441467285156,107.00713343742677
1782309322.157059,-0.0209960900247097,-0.18603515625,0.77734375,0.7995706477987734,-9.43756103515625,21.6522216796875,-98.01673889160156,100.82245466612598
1782309322.165049,-0.0747070237994194,-0.24853515625,0.8369140028953552,0.8762282302799342,-10.59722900390625,32.7606201171875,-85.87074279785156,92.51672260558455
1782309322.173039,-0.15234375,-0.318359375,0.8383788466453552,0.9096375103945797,-8.88824462890625,41.9769287109375,-68.78089904785156,81.06710498356999
1782309322.181029,-0.1791992038488388,-0.34375,0.78173828125,0.8725773074815559,-8.768081665039062,48.38371276855469,-52.36244201660156,71.83097000108489
1782309322.189019,-0.15234375,-0.35107421875,0.69580078125,0.794103552707766,-13.71002197265625,54.2449951171875,-37.34779357910156,67.27066138356001
1782309322.199689,-0.12939453125,-0.36767578125,0.63671875,0.7465515330081156,-27.74810791015625,61.4471435546875,-28.009414672851562,73.00846700171016
1782309322.210359,-0.14892578125,-0.39306640625,0.64501953125,0.769889786746897,-46.11968994140625,74.4476318359375,-25.079727172851562,91.09592966392853
1782309322.221029,-0.1494140475988388,-0.40771484375,0.62548828125,0.7614404385209878,-63.33160400390625,91.1102294921875,-26.605606079101562,114.10444451756905
1782309322.229041,-0.2060546875,-0.43505859375,0.662109375,0.8186106148220538,-91.95709228515625,93.1243896484375,-34.17396545410156,135.26314606644667
1782309322.237054,-0.14697265625,-0.41064453125,0.7001953125,0.8249262805715948,-97.69439697265625,95.0164794921875,-36.92054748535156,141.19296512772274
1782309322.245067,-0.1435546875,-0.43994140625,0.7568359375,0.887105983255639,-98.67095947265625,97.7020263671875,-36.67640686035156,143.6203433351112
1782309322.25308,-0.15576171875,-0.42431640625,0.76123046875,0.8853123472505136,-96.17042541503906,101.36222839355469,-35.88294982910156,144.25892748060537
1782309322.263733,-0.2055663913488388,-0.4809570014476776,0.783203125,0.9417984463267557,-90.55328369140625,106.4910888671875,-35.39466857910156,144.19789096668498
1782309322.274386,-0.240234375,-0.37890625,0.7109375,0.8406632085008556,-90.92140197753906,111.43684387207031,-30.023574829101562,146.92272307321315
1782309322.285039,-0.33349609375,-0.46630859375,0.6982421875,0.9034409231136237,-93.91021728515625,118.3929443359375,-21.844863891601562,152.6866603784373
1782309322.295745,-0.4531249701976776,-0.341796875,0.4121093451976776,0.7014138969080028,-124.73297119140625,51.3153076171875,-13.910293579101562,135.59156008225423
1782309322.306453,-0.1987304538488388,-0.9829100966453552,1.2099609375,1.5714997682628609,-120.70465087890625,63.7054443359375,-0.8487701416015625,136.48705723471053
1782309322.317161,-0.0415039025247097,-0.90283203125,0.9116210341453552,1.2836982357517006,-126.13868713378906,39.04533386230469,-17.084121704101562,133.14418388594868
1782309322.3278,-0.271484375,-1.10498046875,1.072265625,1.5634702340450077,-121.37794494628906,36.42082214355469,-30.389785766601562,130.31738519451946
1782309322.338437,-0.3779296875,-0.87841796875,0.9428710341453552,1.342927683662473,-114.60304260253906,32.81974792480469,-28.924942016601562,122.66884485585925
1782309322.349074,-0.63232421875,-0.52734375,0.4462890326976776,0.9365357702661917,-144.32716369628906,38.74015808105469,-13.666152954101562,150.0596340303595
1782309322.357104,-0.15478515625,-1.064453125,1.0400390625,1.4962286427693734,-145.48492431640625,10.9100341796875,-19.281387329101562,147.16203296532447
1782309322.365135,-0.2319335788488388,-1.052734375,0.8115234375,1.3493009815886474,-131.69097900390625,18.8446044921875,-15.924453735351562,133.98216782931826
1782309322.373166,-0.29150390625,-1.05810546875,0.8295897841453552,1.3757837476565868,-131.56890869140625,25.9857177734375,-18.426895141601562,135.37054970342672
1782309322.381197,-0.40283203125,-1.05224609375,1.189453125,1.6383815867451026,-130.47027587890625,1.8157958984375,-33.19740295410156,134.6397324921573
1782309322.391805,-0.3173827826976776,-1.17333984375,0.9804686903953552,1.5616584365762505,-102.88238525390625,-5.5694580078125,-26.666641235351562,106.42797476607795
1782309322.402413,-0.294921875,-1.208984375,1.03173828125,1.616510443005043,-77.67486572265625,-3.6773681640625,-20.196914672851562,80.34191411678705
1782309322.413021,-0.2475585788488388,-1.080078125,1.0263671875,1.510391872873339,-47.58453369140625,-8.6212158203125,-27.582168579101562,55.6721585029264
1782309322.423703,-0.31005859375,-1.04296875,0.9125975966453552,1.4201248249494367,20.28656005859375,-25.7110595703125,-39.97230529785156,51.67579988799149
1782309322.434384,-0.2041015475988388,-1.015625,0.8969725966453552,1.370296107230095,50.49896240234375,-27.9083251953125,-42.35267639160156,71.57352175527181
1782309322.445065,-0.421875,-1.0009765625,0.9165038466453552,1.421236044862024,82.05604553222656,-33.52546691894531,-45.58753967285156,99.67635283227386
1782309322.453067,-0.16455078125,-0.8916015625,0.65576171875,1.1189520711989325,105.91888427734375,-51.7730712890625,-44.85511779785156,126.13977386185067
1782309322.461069,-0.2578125,-0.90185546875,0.630859375,1.1303955602778715,118.67332458496094,-65.81306457519531,-38.87367248535156,141.1590586867336
1782309322.469071,-0.4404296875,-0.8916015625,0.57568359375,1.1490619025956366,118.37005615234375,-70.0225830078125,-31.244277954101562,141.03487947833386
1782309322.477073,-0.5908203125,-0.9536132216453552,0.73388671875,1.3405359130277237,109.70306396484375,-59.8297119140625,-23.981094360351562,127.23776781174054
1782309322.487852,-0.4086913764476776,-0.9775390028953552,0.7861328125,1.319324047477913,102.86521911621094,-50.67634582519531,-6.9522857666015625,114.88115427432547
1782309322.498631,-0.38720703125,-1.01416015625,0.65478515625,1.267751437948228,97.49603271484375,-43.8995361328125,16.912460327148438,108.2528382174221
1782309322.50941,-0.275390625,-0.9150390625,0.65478515625,1.1583954778417025,88.94920349121094,-44.14558410644531,32.59849548339844,104.5153352652195
1782309322.517321,-0.2338867038488388,-0.80712890625,0.8090819716453552,1.1665220522489625,77.11029052734375,-25.2838134765625,53.41148376464844,97.14965119376531
1782309322.525234,-0.2275390475988388,-0.6953125,0.8774413466453552,1.1424258433882049,78.02391052246094,-13.383865356445312,60.85777282714844,99.8525261502044
1782309322.533145,-0.2319335788488388,-0.59326171875,0.8715819716453552,1.0795405435781646,80.03997802734375,-4.0435791015625,65.31333923339844,103.3855932728794
1782309322.541057,-0.2036132663488388,-0.5107421875,0.826171875,0.9924091451445538,82.72361755371094,0.3528594970703125,66.65611267089844,106.2372757905285
1782309322.551799,-0.2363281100988388,-0.5634765625,0.8178710341453552,1.0209161770702324,89.62249755859375,-0.1983642578125,68.42613220214844,112.75800186756067
1782309322.562541,-0.2260742038488388,-0.56005859375,0.8203124403953552,1.018669560724427,100.85296630859375,-3.4942626953125,74.59068298339844,125.48824914292192
1782309322.573283,-0.1787109375,-0.46923828125,0.7626953125,0.9131409001255258,111.04583740234375,-11.8560791015625,77.21519470214844,135.77161304536736
1782309322.58399,-0.1743163913488388,-0.33837890625,0.8559569716453552,0.9367757606792114,120.32127380371094,-16.008377075195312,78.06968688964844,144.32031415354166
1782309322.594698,-0.1635742038488388,-0.3642578125,0.9047850966453552,0.988977424031313,131.24656677246094,-16.130447387695312,78.74107360839844,153.9025967795491
1782309322.605406,-0.2036132663488388,-0.3291015625,0.9614257216453552,1.0363906690599238,142.72117614746094,-17.473220825195312,81.85386657714844,165.45302366699204
1782309322.616045,-0.240234375,-0.28564453125,1.0654296875,1.1289135361802605,159.99603271484375,-19.3023681640625,80.51109313964844,180.14812799408023
1782309322.626687,-0.25927734375,-0.32861328125,1.13525390625,1.209963991717039,170.67909240722656,-18.938064575195312,81.30455017089844,190.00113882106336
1782309322.637329,-0.37646484375,-0.37109375,1.103515625,1.223594330032595,179.52728271484375,-19.2413330078125,82.95249938964844,198.69924833748766
1782309322.64789,-0.51025390625,-0.35791015625,1.06103515625,1.230550418141713,189.10980224609375,-23.3917236328125,88.26255798339844,209.9999266234237
1782309322.65845,-0.427734375,-0.25830078125,1.03759765625,1.1516444266380548,197.95989990234375,-26.0772705078125,93.93882751464844,220.6641097263224
1782309322.66901,-0.30078125,-0.22412109375,1.0546875,1.1194040144967807,208.52088928222656,-28.764724731445312,96.99058532714844,231.76614139694624
1782309322.677026,-0.2197265625,-0.19921875,1.05419921875,1.095127328411057,230.12542724609375,-24.0020751953125,97.60093688964844,251.11701408032025
1782309322.685043,-0.1474609375,-0.16650390625,1.03466796875,1.0583033990506403,240.13710021972656,-17.473220825195312,94.48814392089844,258.6486993772856
1782309322.69306,-0.078125,-0.10693359375,0.9819335341453552,0.9908237858350382,248.86322021484375,-14.7247314453125,89.23912048339844,264.7892382943251
1782309322.701077,-0.012207027524709702,-0.078125,0.8842772841453552,0.8878056332336905,252.22015380859375,-16.2506103515625,85.82115173339844,266.91638842318395
1782309322.709076,-0.0346679650247097,-0.0434570275247097,0.7607421278953552,0.7627705855596366,245.87440490722656,-12.895584106445312,81.60972595214844,259.3851700616556
1782309322.717075,-0.1787109225988388,-0.0332031287252903,0.6904296875,0.7139560175491373,228.96575927734375,-9.1094970703125,78.92417907714844,242.35785091745296
1782309322.725074,-0.2231445163488388,-0.0693359375,0.60498046875,0.6485385994484297,207.29827880859375,-8.0108642578125,78.98521423339844,221.98066224484154
1782309322.733073,-0.25341796875,-0.15771484375,0.59814453125,0.6684844942769765,180.56488037109375,-9.6588134765625,80.45005798339844,197.91205251508708
1782309322.743849,-0.25146484375,-0.1796875,0.537109375,0.619684311574331,152.66990661621094,-7.2803497314453125,81.91490173339844,173.41036590817473
1782309322.754625,-0.1953125,-0.119140625,0.4799804389476776,0.5317167318733217,118.55316162109375,-8.9874267578125,73.73619079589844,139.90229377380973
1782309322.765401,-0.08935546875,-0.1259765625,0.4497070014476776,0.47549014842151055,80.52825927734375,-11.3067626953125,62.87193298339844,102.78873178493912
1782309322.775953,-0.126953125,-0.125,0.4853515326976776,0.517018574365806,44.02923583984375,-6.5460205078125,58.29429626464844,73.34609035333709
1782309322.786504,-0.1879882663488388,-0.16162109375,0.6728515625,0.7170705623496754,13.51165771484375,-2.9449462890625,50.05455017089844,51.9297178469087
1782309322.797055,-0.20654296875,-0.23291015625,0.8017578125,0.860071350952494,-1.01470947265625,4.9285888671875,46.69761657714844,46.967946703278734
1782309322.805038,-0.1894531100988388,-0.31005859375,0.9189452528953552,0.9881746760078699,1.4858245849609375,7.3070526123046875,45.35484313964844,45.963708388231446
1782309322.813023,-0.1977538913488388,-0.35546875,0.9199218153953552,1.0058433179230535,6.98089599609375,8.7127685546875,46.75865173339844,48.073035651195084
1782309322.821008,-0.2426757663488388,-0.361328125,0.9052733778953552,1.00447470362129,9.302139282226562,12.006759643554688,46.33140563964844,48.757473487760656
1782309322.828993,-0.29150390625,-0.29638671875,0.71533203125,0.8273569540063415,5.63812255859375,10.6658935546875,41.26548767089844,42.992908531788345
1782309322.839683,-0.2568359375,0.0219726525247097,0.599609375,0.6526705898371445,-2.72369384765625,17.0135498046875,38.88511657714844,42.53153743224863
1782309322.850373,-0.2377929538488388,-0.0498046837747097,0.4736327826976776,0.5323100677913206,-18.77593994140625,16.1590576171875,39.92271423339844,46.98376502070129
1782309322.861063,-0.2822265625,-0.07080078125,0.4008788764476776,0.49534680456032937,-34.64698791503906,11.030197143554688,39.12925720214844,53.415145696725666
1782309322.871714,-0.09814453125,-0.2109375,0.4716796576976776,0.5259360012457129,-44.96002197265625,6.5765380859375,38.21372985839844,59.371235279958356
1782309322.882365,-0.1044921875,-0.13671875,0.4584960639476776,0.48972367157981095,-53.26080322265625,11.2762451171875,33.75816345214844,64.0584144631084
1782309322.893016,-0.0175781212747097,-0.14111328125,0.5146484375,0.5339334815441726,-62.47711181640625,13.1072998046875,29.302597045898438,70.24124858460296
1782309322.90368,-0.010742183774709702,-0.0527343787252903,0.60302734375,0.6054240551233264,-66.93458557128906,8.588790893554688,23.870468139648438,71.5807608496822
1782309322.914345,0.05615234375,-0.02587890625,0.587890625,0.5911329718939767,-75.66261291503906,12.006759643554688,26.983261108398438,81.22247010718854
1782309322.92501,0.0014648474752902985,0.0546874962747097,0.51220703125,0.5151202877861254,-88.47808837890625,8.2855224609375,24.480819702148438,92.17555282679537
1782309322.935694,-0.12353515625,0.09326171875,0.6162109375,0.6353539190943461,-97.75543212890625,2.1209716796875,23.809432983398438,100.63554109044267
1782309322.94638,-0.1503906100988388,0.0590820275247097,0.69091796875,0.7095601885139536,-104.04205322265625,-6.5460205078125,26.494979858398438,107.56199691792486
1782309322.957066,-0.1787109225988388,0.1064453125,0.654296875,0.6865658009572837,-107.46192932128906,-13.200759887695312,31.133651733398438,112.6571373030704
1782309322.965051,-0.18603515625,0.1748046875,0.60595703125,0.6575330271965417,-122.59674072265625,-29.0069580078125,40.53306579589844,132.34158028185936
1782309322.973036,-0.3803710639476776,-0.0541992150247097,1.029296875,1.0986681746927724,-116.12701416015625,-52.2613525390625,44.86656188964844,135.0175572389123
1782309322.981021,-0.1059570237994194,0.00439453125,1.06396484375,1.0692368266821433,-101.35650634765625,-41.1529541015625,54.38804626464844,122.1669619282289
1782309322.989006,-0.1699218600988388,-0.12744140625,1.1337890625,1.1535130639967004,-82.86285400390625,-45.5474853515625,54.69322204589844,109.23449333102357
1782309322.999706,-0.0322265625,-0.09521484375,1.09912109375,1.103708112014721,-69.06890869140625,-42.3126220703125,55.12046813964844,97.97519146304798
1782309323.010406,0.05712890625,-0.04541015625,1.0615234375,1.0640290421702723,-59.85260009765625,-40.9698486328125,52.92320251464844,89.78712379763604
1782309323.021106,0.013671882450580597,-0.0908203125,0.8823241591453552,0.8870914109289404,-60.03570556640625,-39.4439697265625,50.78697204589844,87.97402582715577
1782309323.029108,-0.0971679612994194,0.2456054538488388,0.8662108778953552,0.9055854110174376,-61.92970275878906,-44.63386535644531,45.23277282714844,88.73259693078792
1782309323.03711,-0.0537109300494194,0.7021484375,0.9404296278953552,1.174863897357418,-52.83355712890625,-44.8150634765625,41.02134704589844,80.51413283866235
1782309323.045112,-0.1630859375,-0.23291015625,1.0166015625,1.055614939630969,-56.49757385253906,-44.51179504394531,40.10581970214844,82.351396607699
1782309323.053114,-0.333984375,-0.2431640625,1.11376953125,1.1879212485583752,-60.34088134765625,-40.2984619140625,41.75376892089844,83.71597943971545
1782309323.063757,-0.14453125,-0.13427734375,1.17626953125,1.1926984939280392,-42.39654541015625,-34.4390869140625,42.05894470214844,68.93817954985592
1782309323.0744,-0.1499023288488388,-0.1796875,1.1298828125,1.153860249698145,-36.84425354003906,-25.774002075195312,42.97447204589844,62.19809843973174
1782309323.085043,-0.08056640625,-0.1611328125,0.9404296278953552,0.9575294324999083,-36.29302978515625,-19.5465087890625,42.30308532714844,59.06607355346331
1782309323.093074,-0.0537109300494194,-0.08544921875,1.15576171875,1.1601601542544517,-45.51124572753906,-9.294509887695312,29.363632202148438,54.95347393775899
1782309323.101106,-0.0927734300494194,-0.1923828125,1.11474609375,1.1350228673464815,-41.96739196777344,-5.9986114501953125,23.504257202148438,48.47365711942823
1782309323.109138,-0.0332031212747097,-0.201171875,1.02099609375,1.0411558932293268,-37.39166259765625,-8.3770751953125,14.959335327148438,41.13506453228142
1782309323.11717,0.0522460974752903,-0.2744140625,1.0693359375,1.1052203760464043,-25.12359619140625,-4.8980712890625,4.8885345458984375,26.059239396959065
1782309323.127796,0.04931640625,-0.21875,1.015625,1.04008548256882,-10.10894775390625,-3.3111572265625,-3.9615631103515625,11.35114836250155
1782309323.138422,0.0332031287252903,-0.3291015625,0.9096679091453552,0.9679390430837945,0.63323974609375,-4.7149658203125,-11.529922485351562,12.472810741006358
1782309323.149048,-0.0297851525247097,-0.259765625,0.8481444716453552,0.887532748705725,5.02777099609375,-3.3111572265625,-16.168594360351562,17.25299066706323
1782309323.157067,-0.1416015625,-0.2412109375,0.8046874403953552,0.8519129037654605,2.2182464599609375,-0.4444122314453125,-21.051406860351562,21.17262030048818
1782309323.165087,-0.14794921875,-0.23291015625,0.8154296278953552,0.860849342372225,-4.31060791015625,3.2196044921875,-21.966934204101562,22.616219665729787
1782309323.173107,-0.1044921800494194,-0.203125,0.7753905653953552,0.8083371265880399,-12.613296508789062,0.5931854248046875,-25.445938110351562,28.40674011713898
1782309323.181127,-0.0722656175494194,-0.146484375,0.7470703125,0.7647182771568803,-28.11431884765625,-4.7149658203125,-31.305313110351562,42.33991563396819
1782309323.190713,-0.0771484300494194,-0.24560546875,0.591796875,0.6453661501804716,-52.83355712890625,-5.6304931640625,-31.854629516601562,61.95001722198226
1782309323.200299,-0.1059570237994194,-0.04541015625,0.3706054389476776,0.38812029650699914,-83.90045166015625,-1.1138916015625,-34.11293029785156,90.57714146949178
1782309323.209885,0.04150390625,-0.2041015625,0.51904296875,0.5592724072022182,-124.67384338378906,5.7811737060546875,-44.00062561035156,132.3368589910138
1782309323.219471,-0.4008788764476776,-0.31982421875,0.18701171875,0.5458615093875271,-151.10015869140625,14.5111083984375,-31.732559204101562,155.07670855793003
1782309323.229057,0.15625,-0.2666015625,0.4272460639476776,0.5272851740625981,-199.68414306640625,-16.5557861328125,-52.30140686035156,207.08280519205948
1782309323.238675,-0.033203125,-0.34130859375,1.38916015625,1.4308598615482553,-186.86676025390625,-39.6270751953125,-15.192031860351562,191.6253871708333
1782309323.248294,-0.51220703125,-0.81689453125,2.61181640625,2.7841080542975987,-54.54254150390625,-9.6588134765625,-42.53578186035156,69.83891644313917
1782309323.257913,-0.31591796875,-0.9770507216453552,1.7910155057907104,2.0645020749879595,3.9272308349609375,31.415939331054688,-24.347305297851562,39.939650240711515
1782309323.267532,-0.298828125,-0.36962890625,0.8603515625,0.982918403390016,20.77484130859375,10.9100341796875,-18.976211547851562,30.17812919827897
1782309323.277151,0.05908203125,-0.20947265625,0.55810546875,0.5990418970169898,10.152816772460938,-11.610031127929688,-19.037246704101562,24.500801482390045
1782309323.286792,0.00341796875,-0.404296875,0.9335936903953552,1.017381356420079,1.97601318359375,-16.8609619140625,-17.267227172851562,24.21474342230505
1782309323.296437,0.0009765625,-0.46923828125,0.8725585341453552,0.9907289809905944,9.78851318359375,-10.3912353515625,-12.384414672851562,18.898848887328878
1782309323.306082,-0.0375976525247097,-0.568359375,0.75244140625,0.9437234936490863,24.00970458984375,-10.7574462890625,-10.004043579101562,28.14728145107786
1782309323.315727,-0.07568359375,-0.51611328125,0.8930663466453552,1.034247758013542,32.91893005371094,-18.571853637695312,-6.0367584228515625,38.27547721030999
1782309323.325372,-0.1215820237994194,-0.47412109375,0.9555663466453552,1.0736293787387758,48.91204833984375,-25.2838134765625,-2.9239654541015625,55.13809273717758
1782309323.333328,-0.15771484375,-0.37255859375,0.9482421278953552,1.0309398677088668,68.93157958984375,-27.6641845703125,4.3392181396484375,74.40227541382544
1782309323.341284,-0.1215820237994194,-0.3564453125,1.0048828125,1.0731378831130207,88.64402770996094,-32.23991394042969,10.198593139648438,94.87458564630846
1782309323.34924,-0.1401367038488388,-0.1650390625,1.02685546875,1.049432390208287,106.52732849121094,-35.29548645019531,10.076522827148438,112.67377419575651
1782309323.357196,-0.1088867112994194,-0.18310546875,1.1357421875,1.1555493261003813,117.75970458984375,-31.8145751953125,8.306503295898438,122.264112547183
1782309323.365152,-0.10986328125,-0.1474609375,0.9819335341453552,0.9990035706315483,124.22752380371094,-21.867752075195312,8.245468139648438,126.40674031105198
1782309323.373108,-0.0576171875,-0.23681640625,0.9697265028953552,0.999885613949031,119.58885192871094,-25.037765502929688,6.0482025146484375,122.33136948740926
1782309323.382737,-0.0336914025247097,-0.1875,0.9829100966453552,1.0012010880394924,113.54637145996094,-25.651931762695312,7.4520111083984375,116.64618529742455
1782309323.392366,-0.0351562462747097,-0.2109375,0.9370116591453552,0.9611042815078442,107.50579833984375,-25.0396728515625,10.808944702148438,110.91129418943109
1782309323.401995,0.0263671912252903,-0.19580078125,1.009765625,1.0289119457674023,99.14207458496094,-21.745681762695312,17.522811889648438,103.00036196467651
1782309323.411624,-0.014648433774709702,-0.11279296875,1.03515625,1.04138623590172,81.62498474121094,-13.872146606445312,21.978378295898438,85.66284899529813
1782309323.421253,-0.0429687462747097,-0.2060546875,0.9277343153953552,0.9513126759164052,74.23973083496094,-15.947341918945312,15.142440795898438,77.4283466308334
1782309323.430797,-0.0024414025247097015,-0.18212890625,1.072265625,1.0876260706211256,48.24066162109375,-21.9268798828125,5.7430267333984375,53.30039259796014
1782309323.440341,-0.0195312462747097,-0.21142578125,1.12451171875,1.1443814644445685,40.24505615234375,-20.6451416015625,-8.783340454101562,46.07638751016105
1782309323.449885,0.0019531287252902985,-0.1630859375,1.05615234375,1.0686714232778425,40.91644287109375,-17.6544189453125,-20.318984985351562,48.976473498558775
1782309323.459429,0.0522460974752903,-0.15966796875,0.9682616591453552,0.9827279153036534,44.82269287109375,-11.5509033203125,-22.089004516601562,51.28763285886812
1782309323.468973,0.0498046875,-0.1108398362994194,0.8925780653953552,0.9008116223899255,43.47991943359375,-2.3345947265625,-19.586563110351562,47.74502257790734
1782309323.478654,0.012207034975290298,-0.1181640625,0.9208983778953552,0.9285287178002026,30.84564208984375,6.6986083984375,-22.455215454101562,38.737084189449256
1782309323.488338,0.0405273474752903,-0.15625,0.9116210341453552,0.9258020513531118,25.716781616210938,11.213302612304688,-18.915176391601562,33.83600020830484
1782309323.498022,0.02099609375,-0.134765625,0.8999022841453552,0.9101795046277559,18.63861083984375,6.6375732421875,-16.229629516601562,25.5901556624943
1782309323.507706,0.0317382849752903,-0.0966796875,0.8466796278953552,0.8527723453544255,8.87298583984375,4.5623779296875,-12.384414672851562,15.903424061393457
1782309323.51739,-0.010253902524709702,-0.10791015625,0.9472655653953552,0.9534473219442529,5.63812255859375,4.9896240234375,-10.187149047851562,12.667390402294048
1782309323.525335,-0.0234375,-0.10546875,0.9208983778953552,0.9272145361474382,5.5751800537109375,6.2694549560546875,-5.7315826416015625,10.160695726907845
1782309323.533283,0.0541992150247097,-0.17138671875,0.9443358778953552,0.961291429564197,3.13568115234375,4.7454833984375,-3.1070709228515625,6.481203491145716
1782309323.541231,0.0195312462747097,-0.13720703125,0.9497069716453552,0.9597658938497833,-2.4776458740234375,5.2928924560546875,-5.1822662353515625,7.810846494618291
1782309323.549179,-0.0405273400247097,-0.18017578125,1.05810546875,1.074101001040956,-6.62994384765625,6.9427490234375,-6.6471099853515625,11.676557308679548
1782309323.557127,-0.06201171875,-0.19287109375,1.00830078125,1.0284528076367971,-2.17437744140625,10.9100341796875,-7.1353912353515625,13.216299449587913
1782309323.565075,-0.0395507775247097,-0.17724609375,0.9799804091453552,0.9966654624602684,3.19671630859375,11.0931396484375,-5.9146881103515625,12.971517947414615
1782309323.574683,-0.09375,-0.14697265625,0.9628905653953552,0.9785439515487118,3.31878662109375,12.9241943359375,-2.4967193603515625,13.575078321460401
1782309323.584291,-0.01318359375,-0.203125,0.8876952528953552,0.9107340087984601,5.94329833984375,11.8255615234375,1.7147064208984375,13.345670406947162
1782309323.593899,-0.0615234337747097,-0.19091796875,0.9140624403953552,0.9358124537729605,5.3920745849609375,13.044357299804688,5.8040618896484375,15.261613941966258
1782309323.603507,-0.0405273400247097,-0.28076171875,0.9975585341453552,1.0371078232523185,6.73675537109375,10.1165771484375,3.1795501708984375,12.563381130074363
1782309323.613115,-0.0009765587747097015,-0.4873046576976776,0.9643554091453552,1.0804851402165587,13.69476318359375,13.0462646484375,-7.9898834228515625,20.532651972956224
1782309323.623746,-0.18017578125,-0.03759765625,0.8749999403953552,0.8941486406612807,23.15521240234375,21.2249755859375,-16.168594360351562,35.32827328940503
1782309323.634377,-0.12841796875,-0.09814453125,0.9199218153953552,0.9340126713018642,16.687393188476562,19.208908081054688,-11.041641235351562,27.737503172842324
1782309323.645008,-0.0317382775247097,-0.2001953125,0.9121093153953552,0.9343601471799788,16.13616943359375,15.4266357421875,-3.7784576416015625,22.641417721979323
1782309323.655694,-0.0224609337747097,-0.16455078125,0.8662108778953552,0.8819879467091709,25.77972412109375,22.4456787109375,-6.1588287353515625,34.732316938922
1782309323.666378,-0.0405273400247097,-0.10205078125,0.8671874403953552,0.8741114826054291,23.46038818359375,23.1170654296875,-6.3419342041015625,33.541148716979144
1782309323.677063,-0.0581054612994194,-0.09423828125,0.8051757216453552,0.812751524768112,19.24896240234375,23.8494873046875,-4.5719146728515625,30.987465240628005
1782309323.685078,-0.0834960862994194,-0.103515625,0.8872069716453552,0.8971194410905288,13.99993896484375,19.0887451171875,-4.0225982666015625,24.01165920928343
1782309323.693096,-0.1533203125,-0.0966796875,0.9458007216453552,0.9630125052485404,9.11712646484375,14.0228271484375,-8.356094360351562,18.697218754938106
1782309323.701114,-0.150390625,-0.03173828125,0.9189452528953552,0.9317108115737968,7.40814208984375,11.0931396484375,-9.454727172851562,16.350234933972914
1782309323.709132,-0.16064453125,-0.03466796875,0.9199218153953552,0.9344863187431206,3.86810302734375,8.2855224609375,-8.966445922851562,12.806609854612855
1782309323.719809,-0.1279296875,-0.0283203125,0.8144530653953552,0.8249253546690367,0.4520416259765625,4.3163299560546875,-8.722305297851562,9.742363965182168
1782309323.730486,0.0556640625,-0.03173828125,0.640625,0.6438215567808429,-10.71929931640625,-1.4801025390625,-12.384414672851562,16.445905513226926
1782309323.741163,0.0170898474752903,-0.1025390625,0.9677733778953552,0.9733404508126093,-25.97808837890625,6.3323974609375,-5.1822662353515625,27.236303287333552
1782309323.749139,-0.07666015625,-0.16162109375,0.8344725966453552,0.853429945603775,-51.61476135253906,-3.8623809814453125,-9.576797485351562,52.63759708042177
1782309323.757116,-0.1083984375,-0.1875,1.056640625,1.0786083077989117,-54.05616760253906,-1.4209747314453125,-9.210586547851562,54.85365374901351
1782309323.765093,-0.0415039025247097,-0.208984375,1.158203125,1.1776381115090861,-46.60797119140625,6.6986083984375,-7.1964263916015625,47.633631877742765
1782309323.77307,-0.0498046800494194,-0.1884765625,1.13818359375,1.1547579027000883,-40.14015197753906,13.780593872070312,-6.3419342041015625,42.91103235411644
1782309323.783721,-0.0488281212747097,-0.1904296875,1.099609375,1.1170445062290293,-35.98785400390625,19.1497802734375,-4.7550201416015625,41.04205083660469
1782309323.794372,-0.0361328087747097,-0.1220703125,1.02978515625,1.037624310189692,-33.42628479003906,16.588211059570312,-4.8770904541015625,37.63337976210928
1782309323.805023,-0.0312499962747097,-0.13916015625,0.8969725966453552,0.9082411301451861,-32.38868713378906,18.598556518554688,-5.0601959228515625,37.6900376970094
1782309323.813038,-0.015624992549419403,-0.09130859375,0.9589843153953552,0.9634481391642573,-33.85353088378906,15.790939331054688,-4.8160552978515625,37.66443557108846
1782309323.821053,-0.0610351525247097,-0.154296875,0.9799804091453552,0.9939287790315652,-34.82818603515625,13.1072998046875,-6.5860748291015625,37.79127190667098
1782309323.829068,-0.1611328125,-0.21728515625,1.091796875,1.1248097788739715,-34.40284729003906,12.315750122070312,-7.4405670166015625,37.290691067068764
1782309323.837083,-0.25341796875,-0.25146484375,1.177734375,1.2306557165122294,-32.08160400390625,19.3328857421875,-6.7691802978515625,38.06325772301619
1782309323.847762,-0.15380859375,-0.20654296875,1.06201171875,1.0927881643821666,-25.36773681640625,31.2957763671875,-1.2760162353515625,40.306028172524584
1782309323.858441,-0.10400390625,-0.14697265625,0.9394530653953552,0.9565510108097576,-22.07183837890625,34.1033935546875,3.1185150146484375,40.742270889912945
1782309323.86912,-0.0825195237994194,-0.18212890625,0.9726561903953552,0.9929957074500925,-20.666122436523438,31.843185424804688,3.7899017333984375,38.15023498890521
1782309323.879789,-0.0966796800494194,-0.2216796875,1.0234375,1.0516240586781977,-15.84625244140625,26.0467529296875,0.8602142333984375,30.500442999148376
1782309323.890459,-0.10009765625,-0.265625,1.05908203125,1.0964629178993557,-12.06207275390625,26.5350341796875,1.6536712646484375,29.19479862388565
1782309323.901129,-0.0966796800494194,-0.22021484375,1.03076171875,1.0584475701624285,-8.09478759765625,25.8026123046875,2.1419525146484375,27.127262091338835
1782309323.911842,-0.0693359375,-0.18017578125,0.9648436903953552,0.9839685621369109,-7.5473785400390625,24.030685424804688,0.6160736083984375,25.195561345275237
1782309323.922556,0.0048828125,-0.22802734375,1.005859375,1.031393908083125,-6.6318511962890625,21.345138549804688,-2.4967193603515625,22.49066467591461
1782309323.93327,0.0332031287252903,-0.2265624850988388,1.05322265625,1.0778269671193124,-5.95855712890625,19.3328857421875,-7.1353912353515625,21.451775736764734
1782309323.943874,-0.1220703050494194,-0.32666015625,1.064453125,1.1201198473281322,1.60980224609375,18.2952880859375,-13.055801391601562,22.533596681309454
1782309323.954479,-0.0737304612994194,-0.19384765625,1.01708984375,1.0380196746769508,3.6220550537109375,14.451980590820312,-16.351699829101562,22.12141752037152
1782309323.965084,-0.0551757775247097,-0.21484375,0.9794921278953552,1.0042942954873784,4.7817230224609375,9.260177612304688,-18.610000610351562,21.32950742966765
1782309323.97573,-0.08349609375,-0.1904296875,0.9829100966453552,1.0046627900147582,4.4155120849609375,2.5463104248046875,-20.868301391601562,21.481770102173257
1782309323.986378,-0.13330078125,-0.18603515625,0.9731444716453552,0.999694123388119,5.3920745849609375,-3.3740997314453125,-22.089004516601562,22.98658604190638
1782309323.997026,-0.07958984375,-0.18115234375,0.9965819716453552,1.0160346160849103,6.30950927734375,-8.4991455078125,-20.990371704101562,23.508319505234816
1782309324.005022,-0.01904296875,-0.21337890625,0.9790038466453552,1.0021685107992877,8.871078491210938,-8.623123168945312,-22.455215454101562,25.637686866684138
1782309324.013021,-0.32373046875,-0.31787109375,1.02392578125,1.1199408261811599,12.71820068359375,-3.5552978515625,-29.230117797851562,32.07479630360524
1782309324.021018,-0.1069335862994194,-0.1806640625,1.04345703125,1.0643668876016967,13.08441162109375,-6.7291259765625,-32.77015686035156,35.921666783860516
1782309324.029016,-0.1157226487994194,-0.18896484375,1.0400390625,1.0633817259782559,14.425277709960938,-4.2247772216796875,-32.40394592285156,35.720485592351736
1782309324.03973,-0.1904296875,-0.13330078125,0.9609374403953552,0.9886522788709815,13.69476318359375,-3.6163330078125,-29.413223266601562,32.646012099628045
1782309324.050444,-0.1826171875,-0.15771484375,0.9238280653953552,0.9548200372434702,11.86370849609375,-3.1280517578125,-27.643203735351562,30.243660489993527
1782309324.061158,-0.1953124850988388,-0.18115234375,0.9335936903953552,0.9708554564030738,10.641098022460938,-3.6792755126953125,-25.568008422851562,27.937306422290426
1782309324.071786,-0.18115234375,-0.1650390625,0.9653319716453552,0.9959517454564282,11.49749755859375,-3.4332275390625,-22.638320922851562,25.621730535833546
1782309324.082414,-0.1728515625,-0.15576171875,0.9516600966453552,0.9796919491522283,11.495590209960938,-1.5430450439453125,-18.182754516601562,21.567154288268735
1782309324.093042,-0.1875,-0.1416015625,0.9570311903953552,0.9854521560644088,10.09368896484375,-0.0762939453125,-14.520645141601562,17.684386136177217
1782309324.101032,-0.14697265625,-0.17724609375,0.9458007216453552,0.9734249557617111,5.21087646484375,1.5716552734375,-6.2808990478515625,8.311018390046376
1782309324.109022,-0.126953125,-0.15966796875,0.9301757216453552,0.9522803312735563,2.2792816162109375,0.8411407470703125,-5.0601959228515625,5.613218793172303
1782309324.117012,-0.0849609375,-0.1865234375,0.9497069716453552,0.9715722750415878,-0.34332275390625,1.6326904296875,-7.0133209228515625,7.209037308784747
1782309324.125002,-0.07568359375,-0.15087890625,0.9228515028953552,0.9381616849511214,-3.82232666015625,1.5716552734375,-9.271621704101562,10.151022136683197
1782309324.135694,-0.30078125,0.2377929538488388,1.0126953125,1.082851164847317,-15.359878540039062,-5.9986114501953125,-0.1773834228515625,16.490623789713638
1782309324.146386,-0.01318359375,-0.3603515625,0.8764647841453552,0.9477434112603055,-15.29693603515625,-6.8511962890625,-6.7691802978515625,18.07641957246366
1782309324.157078,0.025390625,-0.4345703125,0.9462890028953552,1.0416136123078097,-12.735366821289062,8.100509643554688,0.0057220458984375,15.093305048925568
1782309324.16507,0.1240234375,-0.28076171875,1.25390625,1.2909259620728963,-5.8383941650390625,22.504806518554688,-3.9615631103515625,23.58489230717923
1782309324.173062,-0.0546874925494194,-0.27734375,1.1005859375,1.1363096775651254,1.3637542724609375,30.195236206054688,-15.863418579101562,34.135907257181195
1782309324.181054,-0.0781249925494194,-0.267578125,0.9018554091453552,0.9439516653113645,3.80706787109375,28.7933349609375,-18.854141235351562,34.62699157695401
1782309324.189046,0.0068359375,-0.19287109375,0.8935546278953552,0.9141585540151292,4.11224365234375,16.2200927734375,-20.196914672851562,26.228177972127757
1782309324.199743,0.0888671875,-0.19921875,0.9394530653953552,0.9644467582227918,1.4858245849609375,7.9174041748046875,-25.873184204101562,27.09824024588792
1782309324.21044,0.119140625,-0.2109375,1.00634765625,1.035096479885575,-0.6504058837890625,13.292312622070312,-31.549453735351562,34.24144613849722
1782309324.221138,0.09326171875,-0.22119140625,1.04150390625,1.068809512082048,-0.95367431640625,25.8636474609375,-36.37123107910156,44.63971555571154
1782309324.231861,0.05078125,-0.22412109375,1.04296875,1.0679853994750215,5.82122802734375,33.1268310546875,-48.39515686035156,58.93525972633169
1782309324.242584,0.0209960974752903,-0.20166015625,1.0048828125,1.0251327336427594,8.93402099609375,28.1219482421875,-54.74281311035156,62.188715144548496
1782309324.253307,0.03515625,-0.1826171875,1.00732421875,1.0243471485608628,12.04681396484375,25.9857177734375,-59.50355529785156,66.03829455693703
1782309324.263993,0.025390625,-0.17822265625,0.9755858778953552,0.9920563513165708,14.18304443359375,27.4505615234375,-63.65394592285156,70.75674461778632
1782309324.274681,0.014160159975290298,-0.15283203125,0.9458007216453552,0.958173859469878,15.64788818359375,29.5867919921875,-67.49916076660156,75.34169741378771
1782309324.285369,0.0166015625,-0.14892578125,0.9311522841453552,0.9431325868972382,17.354965209960938,29.279708862304688,-71.52748107910156,79.21285702473753
1782309324.293339,0.0073242224752902985,-0.14990234375,0.8945311903953552,0.9070338513455504,17.66204833984375,26.0467529296875,-78.66859436035156,84.72974110884972
1782309324.301311,-0.00830078125,-0.1337890625,0.8862304091453552,0.8963106349407738,16.866683959960938,25.495529174804688,-81.47621154785156,87.0222964756664
1782309324.309283,-0.0410156212747097,-0.12939453125,0.8764647841453552,0.8869136055743658,15.52581787109375,26.0467529296875,-82.88002014160156,88.25294384562386
1782309324.317255,-0.06884765625,-0.1416015625,0.8735350966453552,0.887611721049677,14.06097412109375,24.8260498046875,-83.49037170410156,88.23086710119047
1782309324.327863,-0.0976562425494194,-0.134765625,0.8701171278953552,0.8858906996054161,12.29095458984375,22.4456787109375,-83.67347717285156,87.49929622414083
1782309324.338471,-0.1010742112994194,-0.12451171875,0.8447265028953552,0.8598151132596445,9.542465209960938,19.697189331054688,-83.42933654785156,86.2524904373283
1782309324.349079,-0.1005859375,-0.13330078125,0.845703125,0.8620327167453564,7.28607177734375,18.1121826171875,-82.39173889160156,84.67311638699029
1782309324.357087,-0.08642578125,-0.12939453125,0.8735350966453552,0.8872857067784256,5.02777099609375,18.2952880859375,-82.14759826660156,84.31028376365228
1782309324.365097,-0.08935546875,-0.14501953125,0.8774413466453552,0.893822343109813,3.2596588134765625,20.368576049804688,-82.20863342285156,84.75708628268046
1782309324.373107,-0.0937499925494194,-0.16455078125,0.8911132216453552,0.9110152548141911,1.7299652099609375,22.321701049804688,-82.20863342285156,85.2027612618119
1782309324.381117,-0.1010742112994194,-0.15966796875,0.8842772841453552,0.904243425018969,1.3027191162109375,24.335861206054688,-82.75794982910156,86.2717188750299
1782309324.391787,-0.0961913913488388,-0.171875,0.8847655653953552,0.9064236896198091,0.8144378662109375,26.350021362304688,-83.12416076660156,87.2044324445934
1782309324.402457,-0.0654296875,-0.171875,0.8789061903953552,0.8979410621787067,0.99945068359375,29.3426513671875,-83.55140686035156,88.5597407362355
1782309324.413127,-0.068359375,-0.16748046875,0.8857421278953552,0.9040253473723523,1.4858245849609375,32.64045715332031,-84.46693420410156,90.56638499860219
1782309324.423764,-0.0576171837747097,-0.16162109375,0.8876952528953552,0.9041260862424132,2.6454925537109375,38.43498229980469,-87.57972717285156,95.67891673147828
1782309324.434401,-0.04296875,-0.18798828125,0.8544921278953552,0.875980995227079,2.9506683349609375,40.81916809082031,-90.02113342285156,98.88738741611301
1782309324.445038,-0.0444335900247097,-0.19580078125,0.8720702528953552,0.8948848059083153,2.58636474609375,42.8924560546875,-91.60804748535156,101.1854062258069
1782309324.453053,-0.0498046837747097,-0.2158203125,0.8862304091453552,0.9134896014227202,1.67083740234375,43.3807373046875,-93.19496154785156,102.81041253019515
1782309324.461065,-0.06201171875,-0.22705078125,0.9023436903953552,0.9325350642870611,0.3261566162109375,43.01261901855469,-94.53773498535156,103.86325196687322
1782309324.469078,-0.0654296875,-0.2412109225988388,0.8886718153953552,0.9231475226990575,-1.0776519775390625,40.69328308105469,-95.14808654785156,103.49040049887235
1782309324.477091,-0.07373046875,-0.2548828125,0.8808593153953552,0.9199535660286223,-3.21197509765625,37.2161865234375,-95.14808654785156,102.21800084668408
1782309324.487745,-0.07958984375,-0.2646484375,0.9072265028953552,0.9483845561032069,-6.32476806640625,33.6761474609375,-94.78187561035156,100.78536373462565
1782309324.498399,-0.0927734300494194,-0.28515625,0.9311522841453552,0.9782461717309755,-9.622573852539062,29.890060424804688,-93.80531311035156,98.92141531274783
1782309324.509053,-0.1000976487994194,-0.296875,0.9799804091453552,1.0288420224839525,-13.345718383789062,24.946212768554688,-92.46253967285156,96.694068967166
1782309324.51974,-0.1113281175494194,-0.3271484375,1.00927734375,1.0667993281413541,-20.792007446289062,13.532638549804688,-88.19007873535156,91.61293504256759
1782309324.53043,-0.1259765475988388,-0.3330078125,1.02685546875,1.086828619163454,-24.14703369140625,7.1868896484375,-85.56556701660156,89.19751609649934
1782309324.54112,-0.1142578125,-0.3291015625,1.04150390625,1.0982226882063744,-26.64947509765625,1.5106201171875,-82.39173889160156,86.60759281784075
1782309324.549105,-0.1225585862994194,-0.34716796875,1.06103515625,1.1230947459587615,-29.153823852539062,-3.1909942626953125,-79.58412170410156,84.81603808845753
1782309324.557089,-0.1162109225988388,-0.3525390625,1.0546875,1.1181030774378105,-30.740737915039062,-6.9751739501953125,-76.65443420410156,82.88273826525966
1782309324.565073,-0.1186523362994194,-0.3515625,1.0703125,1.1328033439091758,-30.79986572265625,-9.8419189453125,-73.72474670410156,80.50362335723585
1782309324.573057,-0.1074218675494194,-0.3310546875,1.0634765625,1.1189812611167105,-28.665542602539062,-11.610031127929688,-71.10023498535156,77.53547298147919
1782309324.583713,-0.1020507737994194,-0.31884765625,1.08056640625,1.1312391200118648,-25.79498291015625,-11.0015869140625,-68.41468811035156,73.93906685372492
1782309324.594369,-0.0932617112994194,-0.306640625,1.08935546875,1.135526995271543,-21.768569946289062,-10.210037231445312,-66.09535217285156,70.33285915293969
1782309324.605025,-0.09521484375,-0.298828125,1.064453125,1.1096957105817875,-16.39556884765625,-9.7198486328125,-64.87464904785156,67.61664162293873
1782309324.615708,-0.0854492112994194,-0.30224609375,1.03466796875,1.0812918544297268,-6.32476806640625,-5.7525634765625,-60.84632873535156,61.44404282122216
1782309324.626392,-0.0737304612994194,-0.28759765625,0.9873046278953552,1.0309796414418202,-2.41851806640625,-2.4566650390625,-59.19837951660156,59.2986725833157
1782309324.637076,-0.0893554612994194,-0.296875,0.9541015028953552,1.003209271247135,-0.28228759765625,0.4730224609375,-56.87904357910156,56.88171090086581
1782309324.645069,-0.1005859375,-0.28857421875,0.8686522841453552,0.9208416809098455,1.3027191162109375,2.7294158935546875,-54.01039123535156,54.09500115178362
1782309324.653065,-0.1171874925494194,-0.31005859375,0.8442382216453552,0.9069770751541406,1.67083740234375,2.4871826171875,-50.47035217285156,50.55921502009276
1782309324.661061,-0.09521484375,-0.302734375,0.8359375,0.8941506988104564,1.06048583984375,2.3651123046875,-47.54066467285156,47.61127160627838
1782309324.669057,-0.1181640550494194,-0.287109375,0.8422850966453552,0.8976852015876658,0.08392333984375,1.5106201171875,-43.20716857910156,43.23364931263984
1782309324.679721,-0.1044921875,-0.29345703125,0.8496093153953552,0.9049152641243062,-1.56402587890625,-0.0762939453125,-39.05677795410156,39.08815551892892
1782309324.690385,-0.08544921875,-0.2880859375,0.8740233778953552,0.9242358689630294,-3.45611572265625,-2.1514892578125,-34.54017639160156,34.77926720156456
1782309324.701049,-0.0903320237994194,-0.2919921875,0.8828124403953552,0.9342254101669129,-4.98199462890625,-4.8980712890625,-30.145645141601562,30.944648872439238
1782309324.711721,-0.064453125,-0.29443359375,0.9086913466453552,0.9573741744579048,-10.110855102539062,-11.552810668945312,-21.722793579101562,26.600311767670938
1782309324.722394,-0.0605468712747097,-0.29150390625,0.9345702528953552,0.9808475970185446,-12.67242431640625,-14.9688720703125,-18.182754516601562,26.7445327295771
1782309324.733067,-0.0468749962747097,-0.30126953125,0.9467772841453552,0.9946596510912682,-15.237808227539062,-19.300460815429688,-14.642715454101562,28.6200577067374
1782309324.743737,-0.0336913987994194,-0.296875,1.05810546875,1.099480358613431,-18.041610717773438,-23.515701293945312,-11.407852172851562,31.75888876890016
1782309324.754409,-0.0312499962747097,-0.3251953125,1.0205078125,1.0715244975793494,-20.30181884765625,-27.0538330078125,-8.417129516601562,34.855728341793416
1782309324.765081,-0.011718746274709702,-0.328125,0.9824218153953552,1.0358358788939281,-21.64459228515625,-28.5186767578125,-6.2198638916015625,36.33854710960923
1782309324.773068,0.0014648474752902985,-0.30859375,0.9868163466453552,1.0339433013099288,-24.81842041015625,-28.7628173828125,-3.2901763916015625,38.13238670920211
1782309324.781057,-0.0009765550494194031,-0.30224609375,0.9565429091453552,1.0031590062812363,-25.18463134765625,-27.4200439453125,-2.4967193603515625,37.31431459432925
1782309324.789046,-0.005371086299419403,-0.33154296875,0.9296874403953552,0.987050315599193,-25.12359619140625,-25.7720947265625,-2.6187896728515625,36.08675673338333
1782309324.797035,-0.010742183774709702,-0.322265625,0.9165038466453552,0.9715708046687195,-25.491714477539062,-23.210525512695312,-2.1915435791015625,34.54502662958817
1782309324.807709,-0.00927734375,-0.310546875,0.8901366591453552,0.9427983361428761,-25.67291259765625,-21.1334228515625,-2.3136138916015625,33.33275884035483
1782309324.818383,-0.0229492150247097,-0.31494140625,0.8989257216453552,0.9527760538954579,-26.403427124023438,-20.097732543945312,-2.2525787353515625,33.258591796113876
1782309324.829057,-0.029785148799419403,-0.31689453125,0.9072265028953552,0.961441223674592,-26.52740478515625,-20.3399658203125,-1.1539459228515625,33.447705532665125
1782309324.837039,-0.0556640587747097,-0.3095703125,0.9301757216453552,0.9819160549451665,-26.403427124023438,-21.562576293945312,-0.4215240478515625,34.09198355697049
1782309324.845021,-0.0551757775247097,-0.3251953125,0.9575194716453552,1.0127388095049132,-25.48980712890625,-22.9034423828125,0.9212493896484375,34.28041191248406
1782309324.853003,-0.0639648362994194,-0.3251953125,0.9702147841453552,1.0252610491621157,-24.81842041015625,-24.3682861328125,2.3860931396484375,34.863459397727006
1782309324.860985,-0.07568359375,-0.3056640625,0.9667968153953552,1.0167864120480365,-23.599624633789062,-25.220870971679688,3.6678314208984375,34.73453040934897
1782309324.871692,-0.06640625,-0.3212890625,0.9443358778953552,0.9997033069874195,-22.74322509765625,-25.5279541015625,4.8274993896484375,34.528763065177976
1782309324.882399,-0.0712890625,-0.33447265625,0.9101561903953552,0.9722851326262506,-22.07183837890625,-24.9176025390625,6.7806243896484375,33.971014598224
1782309324.893106,-0.0771484300494194,-0.31884765625,0.8999022841453552,0.9578307935983453,-21.768569946289062,-23.637771606445312,7.8792572021484375,33.0862143208098
1782309324.903749,-0.0776367112994194,-0.33056640625,0.8876952528953552,0.9504233108964542,-21.03424072265625,-20.1568603515625,10.381698608398438,30.927624674498766
1782309324.914393,-0.0776367112994194,-0.35400390625,0.8818358778953552,0.953404814402109,-20.91217041015625,-18.0816650390625,11.480331420898438,29.934319624503537
1782309324.925037,-0.08056640625,-0.3486328125,0.8779296278953552,0.9480486355162255,-20.24078369140625,-15.9454345703125,12.639999389648438,28.700449345763335
1782309324.935719,-0.07177734375,-0.34814453125,0.8745116591453552,0.943995362115858,-19.506454467773438,-15.153884887695312,13.677597045898438,28.235060723200302
1782309324.9464,-0.0722656175494194,-0.361328125,0.8793944716453552,0.9534752068912059,-19.02008056640625,-14.9078369140625,14.837265014648438,28.35756511627505
1782309324.957081,-0.0820312425494194,-0.38134765625,0.8579100966453552,0.9424250068878757,-18.95904541015625,-15.8843994140625,15.813827514648438,29.357055170314474
1782309324.965089,-0.0781249925494194,-0.39501953125,0.80712890625,0.9019983458045463,-18.655776977539062,-16.008377075195312,19.720077514648438,31.514879158915686
1782309324.973097,-0.0878906175494194,-0.38525390625,0.7885741591453552,0.8820399862851491,-19.20318603515625,-15.8233642578125,21.184921264648438,32.67938339879735
1782309324.981105,-0.0917968675494194,-0.3818359375,0.7734375,0.8674277574902935,-20.05767822265625,-15.2740478515625,22.954940795898438,34.095986573182515
1782309324.989113,-0.09521484375,-0.40625,0.74365234375,0.8527155078542932,-20.91217041015625,-15.2130126953125,24.602890014648438,35.693932588103
1782309324.999759,-0.095703125,-0.4111328125,0.7470703125,0.8580811904871085,-21.951675415039062,-14.848709106445312,26.433944702148438,37.43145265911148
1782309325.010405,-0.095703125,-0.4228515625,0.7607421278953552,0.8756089978970123,-22.256851196289062,-14.360427856445312,27.593612670898438,38.24914082205627
1782309325.021051,-0.0971679612994194,-0.42529296875,0.767578125,0.8828883847632097,-22.562026977539062,-13.200759887695312,29.241561889648438,39.22211193566616
1782309325.031731,-0.1157226487994194,-0.45068359375,0.7705077528953552,0.9001053440528051,-22.68218994140625,-11.7950439453125,30.584335327148438,39.86234275118992
1782309325.042409,-0.1093749925494194,-0.462890625,0.7685546875,0.9038290365917101,-22.49908447265625,-10.5133056640625,31.499862670898438,40.11208977826001
1782309325.053087,-0.1210937425494194,-0.47216796875,0.7851561903953552,0.9241626093465767,-22.619247436523438,-9.111404418945312,32.47642517089844,40.61239019020198
1782309325.063781,-0.1220703050494194,-0.49755859375,0.7763671875,0.9301675781363248,-22.49908447265625,-4.7760009765625,32.96470642089844,40.19565718895351
1782309325.074475,-0.13134765625,-0.50439453125,0.7954100966453552,0.9509696482026379,-23.04840087890625,-2.3345947265625,33.69712829589844,40.892243408772515
1782309325.085169,-0.130859375,-0.52783203125,0.81201171875,0.9772890363788088,-23.111343383789062,-0.1354217529296875,32.72056579589844,40.0598047681001
1782309325.093138,-0.13232421875,-0.56591796875,0.8540038466453552,1.0330031056618307,-23.111343383789062,1.7528533935546875,32.78160095214844,40.14772781875216
1782309325.101109,-0.1376953125,-0.55810546875,0.8950194716453552,1.0637206249563185,-22.439956665039062,3.2176971435546875,32.17124938964844,39.355997221864754
1782309325.10908,-0.14111328125,-0.56298828125,0.9414061903953552,1.1059450159409674,-21.64459228515625,4.1351318359375,31.499862670898438,38.44254204363559
1782309325.117051,-0.1484375,-0.5771484375,0.9428710341453552,1.1154101475893399,-20.54595947265625,4.1961669921875,30.096054077148438,36.68128595200828
1782309325.127743,-0.1401367038488388,-0.58935546875,0.9414061903953552,1.1194747784679409,-18.529891967773438,4.4994354248046875,28.814315795898438,34.552374886035025
1782309325.138435,-0.1455077975988388,-0.568359375,0.9262694716453552,1.0964397076057675,-16.33453369140625,5.1116943359375,27.288436889648438,32.211879761666616
1782309325.149127,-0.15673828125,-0.572265625,0.9384765028953552,1.1103121096577035,-14.99176025390625,5.5999755859375,26.128768920898438,30.640254036078215
1782309325.157101,-0.1733398288488388,-0.57666015625,0.9277343153953552,1.106017446532245,-12.430191040039062,5.7811737060546875,24.175643920898438,27.791966063981853
1782309325.165077,-0.18115234375,-0.56591796875,0.8974608778953552,1.0763435076001275,-12.00103759765625,6.0882568359375,23.931503295898438,27.455575476072184
1782309325.173053,-0.1987304538488388,-0.5458984375,0.8940429091453552,1.0662136843733514,-11.636734008789062,6.0901641845703125,23.626327514648438,27.03159318308421
1782309325.181029,-0.18017578125,-0.5517578125,0.8916015028953552,1.063885912947948,-11.39068603515625,5.7220458984375,23.748397827148438,26.953217562507035
1782309325.189071,-0.1943359225988388,-0.5498046875,0.9057616591453552,1.0772445536585744,-11.51275634765625,4.3792724609375,23.565292358398438,26.59031007612391
1782309325.197113,-0.19091796875,-0.52783203125,0.8989257216453552,1.0597753427216305,-11.94000244140625,2.4261474609375,23.260116577148438,26.258005883645016
1782309325.205155,-0.1796875,-0.52685546875,0.9213866591453552,1.0764839331170117,-11.758804321289062,0.5931854248046875,23.260116577148438,26.07018164871704
1782309325.213197,-0.1655273288488388,-0.529296875,0.9326171278953552,1.0850480107923237,-11.26861572265625,-1.2969970703125,22.893905639648438,25.549849650094252
1782309325.223799,-0.14208984375,-0.5205078125,0.9355468153953552,1.079984143571944,-10.477066040039062,-2.0313262939453125,21.856307983398438,24.322693066043893
1782309325.234401,-0.12939453125,-0.505859375,0.9306640028953552,1.0671326713572233,-9.62066650390625,-1.9683837890625,21.062850952148438,23.239523423531043
1782309325.245003,-0.1328125,-0.50146484375,0.9584960341453552,1.0898719177709992,-7.72857666015625,-1.1749267578125,19.292831420898438,20.816452491078824
1782309325.255734,-0.14404296875,-0.4794921875,0.9428710341453552,1.067551835626814,-6.5097808837890625,-0.0782012939453125,17.950057983398438,19.094186136221836
1782309325.266465,-0.12890625,-0.46484375,0.9306640028953552,1.0482518874241682,-4.3735504150390625,1.2035369873046875,17.217636108398438,17.80515199805732
1782309325.277196,-0.1572265625,-0.462890625,0.9277343153953552,1.0486557502968004,-2.47955322265625,2.1209716796875,16.119003295898438,16.445940906594736
1782309325.287821,-0.1694335788488388,-0.44189453125,0.9287108778953552,1.042344669056903,1.30462646484375,2.6092529296875,16.546249389648438,16.801446959363197
1782309325.298447,-0.1586913913488388,-0.4462890625,0.9199218153953552,1.0347043207775086,2.89154052734375,2.0599365234375,16.546249389648438,16.922845918057178
1782309325.309073,-0.1796875,-0.44921875,0.8891600966453552,1.0122701025290581,4.23431396484375,2.0599365234375,16.912460327148438,17.55574172602321
1782309325.317054,-0.1650390475988388,-0.4228515625,0.8593749403953552,0.9718881722299864,4.96673583984375,2.2430419921875,17.522811889648438,18.35071221510243
1782309325.325036,-0.1630859375,-0.4169921875,0.8486327528953552,0.9595087580283143,4.96673583984375,2.7313232421875,17.339706420898438,18.242642635294057
1782309325.333018,-0.142578125,-0.4296875,0.8476561903953552,0.9609791290659399,4.66156005859375,3.4637451171875,16.851425170898438,17.82409051556646
1782309325.341,-0.13671875,-0.4365234375,0.8422850966453552,0.958482609189783,4.17327880859375,4.2572021484375,15.935897827148438,17.014489874934036
1782309325.351699,-0.13818359375,-0.44775390625,0.8232421278953552,0.9472623012056751,3.2596588134765625,4.3163299560546875,14.410018920898438,15.391709624679821
1782309325.362398,-0.12841796875,-0.44775390625,0.8105468153953552,0.9348587461256176,1.73187255859375,4.3792724609375,13.372421264648438,14.177413738956671
1782309325.373097,-0.1435546875,-0.4580078125,0.8251952528953552,0.9546341236386258,0.32806396484375,3.0975341796875,12.273788452148438,12.662868037196535
1782309325.383755,-0.15576171875,-0.4775390625,0.79736328125,0.9423871134131131,-1.7490386962890625,-0.9326934814453125,10.747909545898438,10.929163421701675
1782309325.394413,-0.16162109375,-0.48486328125,0.79150390625,0.9421741946468666,-2.66265869140625,-3.9825439453125,10.503768920898438,11.544677090629188
1782309325.405071,-0.16748046875,-0.47900390625,0.8076171875,0.953802899534746,-3.2749176025390625,-6.3037872314453125,10.198593139648438,12.42876183659649
1782309325.41573,-0.16162109375,-0.494140625,0.8149413466453552,0.9666569886430667,-3.82232666015625,-7.4615478515625,9.588241577148438,12.736532258815826
1782309325.426391,-0.1611328125,-0.49169921875,0.8344725966453552,0.9818739326082357,-4.18853759765625,-8.1939697265625,9.527206420898438,13.245854040914505
1782309325.437052,-0.15478515625,-0.48828125,0.8374022841453552,0.981641283355971,-4.37164306640625,-7.5225830078125,9.405136108398438,12.812380864889526
1782309325.447717,-0.15234375,-0.49072265625,0.8330077528953552,0.9787334978965865,-4.7397613525390625,-6.7920684814453125,9.222030639648438,12.395296731191243
1782309325.458383,-0.1669921875,-0.4873046875,0.8520507216453552,0.9956619312808331,-4.00543212890625,-6.4239501953125,9.710311889648438,12.312626837737664
1782309325.469049,-0.1533203125,-0.48486328125,0.8588866591453552,0.9981411788857746,-3.5800933837890625,-6.1206817626953125,9.771347045898438,12.073070734830859
1782309325.477042,-0.1630859375,-0.482421875,0.8720702528953552,1.0098685134579344,-3.02886962890625,-5.8135986328125,9.649276733398438,11.66535562124252
1782309325.485036,-0.1650390625,-0.47900390625,0.8549804091453552,0.9938179583686324,-2.17437744140625,-5.7525634765625,10.320663452148438,12.013991755536114
1782309325.49303,-0.166015625,-0.4873046875,0.8725585341453552,1.0131068264075138,-2.05230712890625,-5.2642822265625,10.992050170898438,12.359198957529959
1782309325.501024,-0.1684570163488388,-0.4829101264476776,0.8671874403953552,1.0067740627183006,-2.0542144775390625,-5.0220489501953125,11.663436889648438,12.863768221508849
1782309325.511733,-0.1684570163488388,-0.490234375,0.85546875,1.0002671098338463,-1.56402587890625,-4.9591064453125,12.212753295898438,13.27366779576416
1782309325.522442,-0.16064453125,-0.48974609375,0.84130859375,0.9866397780758277,-1.74713134765625,-4.9591064453125,13.006210327148438,14.028781549226782
1782309325.533151,-0.14404296875,-0.494140625,0.85546875,0.9983737358065198,-1.68609619140625,-4.2877197265625,13.799667358398438,14.548480333790026
1782309325.543774,-0.14404296875,-0.48291015625,0.8623046278953552,0.9987591637354122,-2.1152496337890625,-4.2247772216796875,14.837265014648438,15.571366564980057
1782309325.554395,-0.1376953125,-0.48193359375,0.8637694716453552,0.9986579434499877,-2.23541259765625,-4.4708251953125,14.837265014648438,15.656620980393944
1782309325.565016,-0.14697265625,-0.4931640625,0.8471679091453552,0.9912140134766041,-2.35748291015625,-5.0811767578125,14.959335327148438,15.973659453797179
1782309325.573022,-0.1303710788488388,-0.50146484375,0.8227538466453552,0.9723103927692796,-3.02886962890625,-5.5084228515625,14.776229858398438,16.05782495759473
1782309325.581029,-0.138671875,-0.51513671875,0.83056640625,0.9871353924926267,-4.37164306640625,-5.4473876953125,14.959335327148438,16.50960354560857
1782309325.589036,-0.1328125,-0.53173828125,0.8300780653953552,0.9946930956598873,-5.65338134765625,-5.1422119140625,15.447616577148438,17.23461406431096
1782309325.597043,-0.1362304538488388,-0.525390625,0.83154296875,0.9930044079818149,-7.4863433837890625,-4.8389434814453125,15.508651733398438,17.8879565592179
1782309325.607718,-0.13037109375,-0.5283203125,0.8378905653953552,0.9990893725108966,-8.64410400390625,-5.2642822265625,15.874862670898438,18.826695573337734
1782309325.618393,-0.12744140625,-0.52880859375,0.8608397841453552,1.0182951314909896,-9.500503540039062,-5.0220489501953125,15.691757202148438,19.018722019726507
1782309325.629068,-0.1254882663488388,-0.529296875,0.8476561903953552,1.0071859331779656,-9.988784790039062,-4.5337677001953125,16.057968139648438,19.447087491833173
1782309325.639733,-0.1191406175494194,-0.537109375,0.8417968153953552,1.0056355432624233,-11.02447509765625,-2.9449462890625,15.508651733398438,19.254351155314172
1782309325.650398,-0.1074218675494194,-0.54931640625,0.8598632216453552,1.0259886606301014,-10.96343994140625,-1.9683837890625,14.959335327148438,18.650824741011782
1782309325.661063,-0.1137695237994194,-0.546875,0.85546875,1.0216861320371873,-10.71929931640625,-1.1138916015625,14.715194702148438,18.239547347916186
1782309325.669085,-0.09130859375,-0.56298828125,0.8735350966453552,1.043243322139491,-9.988784790039062,-1.1768341064453125,13.433456420898438,16.781493125106184
1782309325.67711,-0.099609375,-0.5517578125,0.8666991591453552,1.0322432580094392,-9.13238525390625,-1.1138916015625,12.212753295898438,15.290276583249694
1782309325.685135,-0.1015624850988388,-0.5498046875,0.8593749403953552,1.0252440787226937,-8.214950561523438,-1.2378692626953125,10.808944702148438,13.632718680215728
1782309325.69316,-0.1005859375,-0.54931640625,0.85546875,1.0216128558435096,-7.5473785400390625,-0.7495880126953125,8.977890014648438,11.752757724489296
1782309325.703856,-0.1025390550494194,-0.55224609375,0.8598632216453552,1.0270612278783047,-7.0590972900390625,-0.6885528564453125,7.7571868896484375,10.510894730102164
1782309325.714552,-0.10986328125,-0.54736328125,0.8505859375,1.0174344889478326,-6.69097900390625,-0.8087158203125,6.8416595458984375,9.603724623848874
1782309325.725248,-0.115234375,-0.54345703125,0.8471679091453552,1.0130735275795222,-6.50787353515625,-1.2969970703125,6.4754486083984375,9.271788070808974
1782309325.733207,-0.125,-0.55419921875,0.84130859375,1.015165958836639,-6.3266754150390625,-1.7261505126953125,5.3768157958984375,8.480363524210558
1782309325.741167,-0.1240234300494194,-0.56201171875,0.8500975966453552,1.0265987078872452,-6.56890869140625,-2.0294189453125,5.6819915771484375,8.919312245594481
1782309325.749127,-0.12744140625,-0.548828125,0.8432616591453552,1.014171508475056,-6.01959228515625,-1.9683837890625,5.7430267333984375,8.549408288360418
1782309325.757087,-0.13818359375,-0.5546875,0.8623046278953552,1.0345734384410137,-5.83648681640625,-1.9683837890625,5.6209564208984375,8.33872077628022
1782309325.767739,-0.1220703050494194,-0.5439453125,0.8544921278953552,1.0202619560684958,-5.28717041015625,-1.7852783203125,5.7430267333984375,8.007730370556864
1782309325.778391,-0.12744140625,-0.546875,0.8593749403953552,1.0265665423300614,-5.16510009765625,-1.3580322265625,5.5599212646484375,7.709425076896512
1782309325.789043,-0.1254882663488388,-0.5439453125,0.8642577528953552,1.02886601237561,-4.4345855712890625,-0.9326934814453125,5.4378509521484375,7.078537228636817
1782309325.79704,-0.1074218675494194,-0.5537109375,0.8671874403953552,1.0344802157191706,-3.76129150390625,-0.0152587890625,5.1326751708984375,6.363324682739228
1782309325.805036,-0.1166992038488388,-0.54443359375,0.8657225966453552,1.029321260115067,-3.51715087890625,1.0223388671875,5.1326751708984375,6.305543709650305
1782309325.813032,-0.1196288987994194,-0.54248046875,0.8769530653953552,1.0380957621093978,-2.7866363525390625,1.4476776123046875,4.4612884521484375,5.455658281429787
1782309325.821028,-0.1176757737994194,-0.5322265625,0.8666991591453552,1.0238555240038139,-2.1152496337890625,2.1800994873046875,3.6678314208984375,4.762363081488094
1782309325.831734,-0.1201171800494194,-0.5380859375,0.8862304091453552,1.0437283895593825,-1.19781494140625,2.1820068359375,3.3016204833984375,4.134804987218886
1782309325.84244,-0.13037109375,-0.5380859375,0.8706054091453552,1.0317397330014855,-0.34332275390625,2.7923583984375,2.8743743896484375,4.022084542938032
1782309325.853146,-0.12890625,-0.52880859375,0.8735350966453552,1.0292321969235734,0.51116943359375,3.0975341796875,2.1419525146484375,3.800522695522503
1782309325.863784,-0.138671875,-0.51806640625,0.865234375,1.0179652321579782,1.73187255859375,3.2806396484375,0.7381439208984375,3.7824377734563597
1782309325.874421,-0.13232421875,-0.517578125,0.8642577528953552,1.0160404902296178,1.91497802734375,2.9754638671875,-0.1163482666015625,3.5403478627514757
1782309325.885058,-0.12744140625,-0.515625,0.8510741591453552,1.003213674656078,2.70843505859375,3.0364990234375,-0.2384185791015625,4.075879071417285
1782309325.895718,-0.14794921875,-0.5205078125,0.8432616591453552,1.001951885065769,1.85394287109375,3.0975341796875,-0.7266998291015625,3.682378960024062
1782309325.906378,-0.13232421875,-0.5234375,0.8481444716453552,1.0054081559529078,2.03704833984375,3.0975341796875,-1.2149810791015625,3.9013411739768786
1782309325.917038,-0.1601562350988388,-0.5263671875,0.8671874403953552,1.0269987792091781,1.9741058349609375,2.9125213623046875,-1.1539459228515625,3.7028996376318
1782309325.92508,-0.14501953125,-0.5185546875,0.8432616591453552,1.000509797131827,1.85394287109375,1.2664794921875,-0.9708404541015625,2.4461409731924637
1782309325.933122,-0.14453125,-0.50927734375,0.8623046278953552,1.0118408799674805,1.3027191162109375,1.2645721435546875,-0.9098052978515625,2.0307549044615585
1782309325.941164,-0.14794921875,-0.52392578125,0.8564452528953552,1.0148328270183948,1.73187255859375,1.0223388671875,-0.6046295166015625,2.100032421396899
1782309325.949206,-0.15673828125,-0.52685546875,0.8540038466453552,1.015611216876837,1.6689300537109375,0.4100799560546875,-0.4825592041015625,1.785036828751872
1782309325.959811,-0.1533203125,-0.50927734375,0.8588866591453552,1.0102261253501728,2.22015380859375,0.1678466796875,0.1277923583984375,2.230153880018257
1782309325.970416,-0.14404296875,-0.51904296875,0.8447265028953552,1.0018566988092377,2.46429443359375,-0.8087158203125,0.3108978271484375,2.6121687909456544
1782309325.981021,-0.1601562350988388,-0.5107421875,0.8271483778953552,0.9852319730846321,2.70843505859375,-1.8463134765625,0.7991790771484375,3.373897022392335
1782309325.9917,-0.154296875,-0.51318359375,0.8291015028953552,0.9872052616514295,2.6454925537109375,-2.0313262939453125,1.0433197021484375,3.494772290880297
1782309326.002378,-0.14404296875,-0.49951171875,0.8383788466453552,0.9864782939919604,2.46429443359375,-1.9683837890625,1.2874603271484375,3.406587132375502
1782309326.013056,-0.14697265625,-0.494140625,0.8251952528953552,0.9729969806538973,2.40325927734375,-2.2125244140625,1.8978118896484375,3.777910719624325
1782309326.021058,-0.146484375,-0.48583984375,0.8247069716453552,0.968317930730717,1.91497802734375,-2.5177001953125,2.6912689208984375,4.153177521281724
1782309326.029059,-0.138671875,-0.4912109076976776,0.83544921875,0.9790267830183081,1.4858245849609375,-3.0689239501953125,2.7523040771484375,4.381911300157119
1782309326.03706,-0.1352538913488388,-0.4956054389476776,0.82568359375,0.9724565611005145,0.9975433349609375,-3.0078887939453125,2.6302337646484375,4.118327009668303
1782309326.045061,-0.1298827975988388,-0.51025390625,0.8237304091453552,0.9776299795455635,0.5092620849609375,-2.7027130126953125,2.8133392333984375,3.9343211793586756
1782309326.055703,-0.10888671875,-0.4956054389476776,0.8403319716453552,0.981651104621205,0.02288818359375,-2.4566650390625,3.3016204833984375,4.115388778657043
1782309326.066345,-0.1176757737994194,-0.50341796875,0.8271483778953552,0.9754238453383152,0.02288818359375,-2.2735595703125,2.9964447021484375,3.761419657754399
1782309326.076988,-0.1279296875,-0.49365234375,0.8442382216453552,0.9863046265331151,-0.09918212890625,-2.0294189453125,2.5691986083984375,3.275539625723393
1782309326.085001,-0.11962890625,-0.4863280951976776,0.8300780653953552,0.969461544384133,0.0209808349609375,-1.6002655029296875,2.3250579833984375,2.822620148278417
1782309326.093014,-0.1254882663488388,-0.51025390625,0.84130859375,0.9919206136340869,0.02288818359375,-1.4801025390625,1.7757415771484375,2.311814340274993
1782309326.101027,-0.1225585862994194,-0.48388671875,0.83642578125,0.9740508463104104,0.3261566162109375,-1.2950897216796875,1.6536712646484375,2.1256208921212885
1782309326.10904,-0.11962890625,-0.4965820014476776,0.8461913466453552,0.9884050558904646,0.26702880859375,-1.5411376953125,1.5926361083984375,2.2322409265817704
1782309326.119696,-0.1201171800494194,-0.50390625,0.8481444716453552,0.9938303127368705,0.3871917724609375,-1.2378692626953125,1.5316009521484375,2.0069975726964095
1782309326.130352,-0.1176757737994194,-0.482421875,0.8325194716453552,0.9693642885347433,0.08392333984375,-1.5411376953125,1.5316009521484375,2.1743849704009763
1782309326.141008,-0.1186523362994194,-0.49267578125,0.8383788466453552,0.9796361022553244,-0.09918212890625,-1.2969970703125,1.3484954833984375,1.8736271144065912
1782309326.15169,-0.1064453050494194,-0.501953125,0.8374022841453552,0.9821049476284028,-0.1621246337890625,-0.5664825439453125,1.4095306396484375,1.5277314860876972
1782309326.162373,-0.1166992112994194,-0.49365234375,0.8505859375,0.9903573998716466,-0.6504058837890625,-0.6885528564453125,1.1043548583984375,1.4548994821136831
1782309326.173056,-0.115234375,-0.49951171875,0.8334960341453552,0.9785226401500656,-0.89263916015625,-0.3204345703125,0.8602142333984375,1.2804106807728033
1782309326.183721,-0.13037109375,-0.498046875,0.8417968153953552,0.9867467710575994,-0.8945465087890625,0.0438690185546875,0.7381439208984375,1.1606008767595217
1782309326.194386,-0.1225585862994194,-0.50830078125,0.8520507216453552,0.9996903138229575,-0.8335113525390625,0.3528594970703125,0.3719329833984375,0.9785627949313593
1782309326.205051,-0.13671875,-0.4970703125,0.8432616591453552,0.9883628574339424,-0.8335113525390625,0.2880096435546875,0.3108978271484375,0.9350658738921099
1782309326.2157,-0.1215820237994194,-0.494140625,0.8559569716453552,0.9958009254338142,-0.89263916015625,-0.5035400390625,0.4940032958984375,1.1377154730168868
1782309326.226348,-0.1259765625,-0.49267578125,0.8461913466453552,0.9872382259956783,-0.89263916015625,-0.6866455078125,0.3108978271484375,1.168308256655392
1782309326.236996,-0.1157226487994194,-0.49169921875,0.8359375,0.9767043345203112,-0.70953369140625,-1.1749267578125,0.5550384521484375,1.4805264701543521
1782309326.24501,-0.1196288987994194,-0.49365234375,0.8471679091453552,0.987773848714139,-0.5245208740234375,-0.9326934814453125,0.4940032958984375,1.1785917588272063
1782309326.253025,-0.1166992112994194,-0.494140625,0.8549804091453552,0.9943767712570805,-0.70953369140625,-0.8697509765625,0.1888275146484375,1.1382269768197852
1782309326.26104,-0.1171874925494194,-0.4912109375,0.8466796278953552,0.9858435402347911,-0.22125244140625,-1.2969970703125,0.3719329833984375,1.3672922830788947
1782309326.269055,-0.1171874925494194,-0.50244140625,0.8466796278953552,0.9914870989667566,-0.22125244140625,-1.3580322265625,0.3108978271484375,1.410624553216109
1782309326.279732,-0.1210937425494194,-0.48828125,0.8559569716453552,0.9928467207451889,0.0209808349609375,-1.6002655029296875,-0.1773834228515625,1.6102033269140268
1782309326.290409,-0.1137695237994194,-0.49951171875,0.8486327528953552,0.9912784729836892,0.3871917724609375,-1.7261505126953125,-0.2384185791015625,1.785036828751872
1782309326.301086,-0.1186523362994194,-0.4931640625,0.8569335341453552,0.9958033196337834,0.8144378662109375,-1.8482208251953125,-0.7877349853515625,2.167891986181667
1782309326.311748,-0.1191406175494194,-0.482421875,0.8530272841453552,0.987208640422567,0.75531005859375,-1.5411376953125,-0.7266998291015625,1.8637841404364022
1782309326.322412,-0.1113281175494194,-0.49951171875,0.8544921278953552,0.9960234452867104,0.63323974609375,-1.2969970703125,-1.5201568603515625,2.096203915773941
1782309326.333076,-0.12451171875,-0.4863280951976776,0.8588866591453552,0.994838920399956,0.63323974609375,-1.0528564453125,-1.4591217041015625,1.9074945394021965
1782309326.343741,-0.1103515625,-0.4990234375,0.8525390028953552,0.9939942705963221,0.3261566162109375,-1.1119842529296875,-1.4591217041015625,1.8633097607327698
1782309326.354408,-0.1176757737994194,-0.5009765625,0.8447265028953552,0.9891349597539383,0.45013427734375,-1.0528564453125,-1.6422271728515625,2.0020084039104056
1782309326.365075,-0.1010742038488388,-0.4907226264476776,0.8515624403953552,0.9880198786884181,0.5092620849609375,-0.9326934814453125,-1.6422271728515625,1.9560611158042518
1782309326.373064,-0.1010742112994194,-0.49462890625,0.8696288466453552,1.0055486472595951,0.57220458984375,-0.3204345703125,-1.9474029541015625,2.0548660959130896
1782309326.381056,-0.1054687425494194,-0.49853515625,0.8583983778953552,0.9982528401389823,0.87738037109375,-0.0152587890625,-2.2525787353515625,2.417465636815197
1782309326.389048,-0.1059570163488388,-0.4956054389476776,0.8598632216453552,0.9981064073366114,0.75531005859375,-0.5035400390625,-2.3136138916015625,2.4853279652721256
1782309326.39704,-0.11279296875,-0.4956054389476776,0.8613280653953552,1.0001165137881005,0.5092620849609375,-0.2613067626953125,-2.6798248291015625,2.7402719226526195
1782309326.405051,-0.1064453050494194,-0.501953125,0.8549804091453552,0.9971354184295574,0.3871917724609375,-0.4444122314453125,-2.2525787353515625,2.3284180593436585
1782309326.413062,-0.1201171875,-0.5126953125,0.8422850966453552,0.9933422402290453,0.38909912109375,-0.5035400390625,-2.4967193603515625,2.576539978601013
1782309326.421073,-0.1118163987994194,-0.494140625,0.8574218153953552,0.9959166801654283,0.08392333984375,-0.6866455078125,-2.3746490478515625,2.4733546613520567
1782309326.429084,-0.1142578125,-0.501953125,0.8505859375,0.9942375090929253,-0.03814697265625,-1.0528564453125,-2.4356842041015625,2.653774562405174
1782309326.439743,-0.1181640550494194,-0.4990234375,0.8500975966453552,0.9928006138708052,0.20599365234375,-0.8697509765625,-2.3746490478515625,2.537293488443872
1782309326.450402,-0.1118163987994194,-0.49755859375,0.8452147841453552,0.9871451223568031,0.3261566162109375,-0.7495880126953125,-2.0694732666015625,2.225079757728522
1782309326.461061,-0.1118163987994194,-0.4912109375,0.8588866591453552,0.9957295744417604,0.93841552734375,-1.0528564453125,-2.2525787353515625,2.6576759312139555
1782309326.469085,-0.1069335862994194,-0.4892578125,0.8525390028953552,0.9887521177873385,1.3027191162109375,-0.8068084716796875,-2.1915435791015625,2.6741129865465307
1782309326.477107,-0.1044921875,-0.50146484375,0.8481444716453552,0.990825237642,1.67083740234375,-0.5035400390625,-2.4356842041015625,2.9962990067948385
1782309326.48513,-0.1118163987994194,-0.4990234375,0.8471679091453552,0.9895558420324242,1.9741058349609375,0.1049041748046875,-2.8018951416015625,3.429098295186172
1782309326.493153,-0.1137695237994194,-0.49267578125,0.8647460341453552,1.0017278240849479,2.40325927734375,0.1068115234375,-2.6187896728515625,3.555998201112008
1782309326.501131,-0.1030273362994194,-0.4951171875,0.8432616591453552,0.9832832181866225,2.76947021484375,-0.0152587890625,-2.6187896728515625,3.8115951322490083
1782309326.509109,-0.095703125,-0.49462890625,0.8593749403953552,0.9961637070343193,3.01361083984375,-0.3814697265625,-2.4356842041015625,3.8935750908923388
1782309326.517087,-0.1093749925494194,-0.48388671875,0.8471679091453552,0.9817345424622381,3.13568115234375,-0.1373291015625,-2.6798248291015625,4.127083314638682
1782309326.525065,-0.0908203125,-0.490234375,0.8466796278953552,0.9825703353385219,3.0117034912109375,0.0438690185546875,-2.6798248291015625,4.0315931744696565
1782309326.53573,-0.0981445237994194,-0.4970703125,0.8549804091453552,0.9938323516282922,2.9506683349609375,0.0438690185546875,-2.9850006103515625,4.197451221578317
1782309326.546395,-0.0976562425494194,-0.49658203125,0.8442382216453552,0.9843112466878344,3.31878662109375,0.6561279296875,-2.9850006103515625,4.511660131289377
1782309326.55706,-0.1059570237994194,-0.48974609375,0.8442382216453552,0.9817414639928,2.95257568359375,1.1444091796875,-2.8629302978515625,4.26892790150625
1782309326.56773,-0.1132812425494194,-0.4814453125,0.8579100966453552,0.9902686316186158,3.07464599609375,1.5106201171875,-2.4967193603515625,4.238989113468118
1782309326.578401,-0.119140625,-0.4916991889476776,0.8481444716453552,0.987578668117013,2.70843505859375,1.3885498046875,-2.1915435791015625,3.750540532485779
1782309326.589072,-0.1098632737994194,-0.47802734375,0.8745116591453552,1.0026717919058903,2.9506683349609375,1.8177032470703125,-2.0694732666015625,4.036484648618108
1782309326.599757,-0.1191406175494194,-0.48828125,0.8637694716453552,0.9993551750994817,2.22015380859375,2.5482177734375,-1.5201568603515625,3.7058566667843515
1782309326.610442,-0.1103515625,-0.4960937201976776,0.8427733778953552,0.9841511129165633,1.60980224609375,2.5482177734375,-1.3370513916015625,3.2973600828806866
1782309326.621127,-0.115234375,-0.4926757514476776,0.8471679091453552,0.986763306741737,1.1234283447265625,2.8514862060546875,-1.2760162353515625,3.319831661686477
1782309326.629144,-0.12841796875,-0.4833984375,0.8447265028953552,0.9816965359871318,0.8754730224609375,3.1566619873046875,-0.9708404541015625,3.416650275119096
1782309326.63716,-0.1132812425494194,-0.48193359375,0.845703125,0.9799522459452277,0.38909912109375,3.0975341796875,-0.6046295166015625,3.1798888302445545
1782309326.645176,-0.126953125,-0.49462890625,0.8427733778953552,0.9854145408580514,-0.40435791015625,3.0975341796875,-0.4825592041015625,3.160868029402901
1782309326.653192,-0.1176757737994194,-0.48486328125,0.8476561903953552,0.9835959568640852,-0.77056884765625,2.9144287109375,-0.2384185791015625,3.023989827855892
1782309326.663859,-0.1220703050494194,-0.48486328125,0.8520507216453552,0.9879190215476902,-1.25885009765625,2.7923583984375,-0.3604888916015625,3.084140274802966
1782309326.674526,-0.1215820237994194,-0.4853515625,0.8520507216453552,0.9880985578315175,-1.6269683837890625,2.8514862060546875,-0.3604888916015625,3.302718871799032
1782309326.685193,-0.1132812425494194,-0.48876953125,0.8442382216453552,0.9820725377887303,-1.56402587890625,2.9754638671875,-0.1163482666015625,3.3634950711972285
1782309326.693141,-0.12646484375,-0.48876953125,0.8408203125,0.9807485963771013,-2.11334228515625,2.3040771484375,-0.3604888916015625,3.1472113626430374
1782309326.701087,-0.11865234375,-0.50146484375,0.845703125,0.9903328449715003,-2.2983551025390625,2.0580291748046875,-0.7266998291015625,3.169544589263708
1782309326.709033,-0.1181640625,-0.4956054389476776,0.8388671278953552,0.9814711177841283,-2.2373199462890625,1.6918182373046875,-0.9098052978515625,2.948829457621855
1782309326.725,-0.115234375,-0.4956054389476776,0.8515624403953552,0.9919991442477426,-2.4776458740234375,1.3866424560546875,-0.9098052978515625,2.981484874688703
1782309326.733023,-0.13427734375,-0.48779296875,0.83056640625,0.9725291464000111,-2.60162353515625,0.6561279296875,-1.0929107666015625,2.897137004449138
1782309326.741046,-0.12548828125,-0.498046875,0.8491210341453552,0.9923731803391415,-2.60162353515625,0.1678466796875,-0.9098052978515625,2.761224946750951
1782309326.749069,-0.10888671875,-0.4916991889476776,0.8461913466453552,0.9847152913758501,-2.54058837890625,-0.3204345703125,-1.2760162353515625,2.8610286712589263
1782309326.759781,-0.125,-0.49462890625,0.8481444716453552,0.9897635069452956,-2.84576416015625,-0.0152587890625,-1.3370513916015625,3.1442507707969374
1782309326.770493,-0.119140625,-0.490234375,0.845703125,0.984752764196068,-2.84576416015625,-0.1373291015625,-2.0084381103515625,3.4858365682398715
1782309326.781205,-0.119140625,-0.50146484375,0.8388671278953552,0.9845605803128646,-2.96783447265625,0.4730224609375,-2.1305084228515625,3.6838645259400655
1782309326.789167,-0.1118163987994194,-0.4951171875,0.8598632216453552,0.9985032280051528,-2.23541259765625,0.2899169921875,-2.6187896728515625,3.4553119533195993
1782309326.797129,-0.125,-0.5009765625,0.8515624403953552,0.9958720329773345,-2.41851806640625,0.3509521484375,-2.6798248291015625,3.626824804521931
1782309326.805091,-0.1225585862994194,-0.484375,0.8588866591453552,0.9936428135696357,-1.9893646240234375,0.2269744873046875,-2.6187896728515625,3.2965358144326498
1782309326.813053,-0.1191406175494194,-0.494140625,0.8491210341453552,0.9896342630757714,-1.68609619140625,0.3509521484375,-2.6798248291015625,3.18552176131898
1782309326.823713,-0.1186523362994194,-0.50732421875,0.8676757216453552,1.0120856672102398,-1.38092041015625,0.1678466796875,-2.5577545166015625,2.9115669070560473
1782309326.834373,-0.1201171875,-0.5029296875,0.8574218153953552,1.0012684848818645,-1.07574462890625,0.9613037109375,-2.3136138916015625,2.7265620423336383
1782309326.845033,-0.123046875,-0.5009765625,0.8598632216453552,1.0027376573959468,-1.07574462890625,0.9613037109375,-2.1915435791015625,2.6237748741811178
1782309326.85569,-0.1308593600988388,-0.50537109375,0.8593749403953552,1.0055095239245968,-0.95367431640625,1.8157958984375,-1.8863677978515625,2.786573687402996
1782309326.866347,-0.1279296875,-0.5029296875,0.8559569716453552,1.0009828234395348,-0.6504058837890625,1.9359588623046875,-1.7642974853515625,2.6988349610565923
1782309326.877004,-0.1230468675494194,-0.50244140625,0.8603515625,1.0038887933553164,-0.6504058837890625,1.5697479248046875,-2.1915435791015625,2.773084856292238
1782309326.887684,-0.13427734375,-0.50634765625,0.8432616591453552,0.9927278478107688,-0.09918212890625,1.6326904296875,-1.3980865478515625,2.1517809203473828
1782309326.898363,-0.13720703125,-0.51806640625,0.8530272841453552,1.0074096079577706,-0.3414154052734375,1.3866424560546875,-1.3370513916015625,1.9562842849839275
1782309326.909042,-0.140625,-0.50390625,0.8461913466453552,0.9948551123412606,0.08392333984375,1.0833740234375,-1.0318756103515625,1.4985024780987504
1782309326.919717,-0.1166992112994194,-0.50146484375,0.8500975966453552,0.9938569410419829,-0.09918212890625,0.6561279296875,-1.1539459228515625,1.3311394170694988
1782309326.930394,-0.1240234300494194,-0.50732421875,0.8510741591453552,0.9985423869303168,0.08392333984375,0.6561279296875,-1.0929107666015625,1.2774979181353485
1782309326.941071,-0.1181640550494194,-0.48974609375,0.8598632216453552,0.9965835339736631,0.0209808349609375,0.5931854248046875,-1.2760162353515625,1.4073118263260456
1782309326.949065,-0.1196288987994194,-0.5126953125,0.8593749403953552,1.0078158785546865,0.26702880859375,0.1678466796875,-1.3370513916015625,1.3737479085643007
1782309326.95706,-0.13232421875,-0.51611328125,0.8461913466453552,0.9999612057914643,0.45013427734375,-0.0152587890625,-1.3980865478515625,1.4688429778458054
1782309326.965055,-0.1357421875,-0.50634765625,0.8442382216453552,0.993756542289944,0.3261566162109375,0.1049041748046875,-1.7032623291015625,1.7373789413729235
1782309326.97305,-0.10546875,-0.5029296875,0.8378905653953552,0.9829153205510422,0.14495849609375,-0.1373291015625,-1.7642974853515625,1.7755612815511528
1782309326.983739,-0.1137695237994194,-0.5,0.8505859375,0.9931968292429756,0.5092620849609375,-0.6237030029296875,-2.0694732666015625,2.2206019247539195
1782309326.994428,-0.1259765625,-0.49267578125,0.8461913466453552,0.9872382259956783,0.5092620849609375,-0.4444122314453125,-2.5577545166015625,2.6455544352427633
1782309327.005117,-0.099609375,-0.5048828125,0.8461913466453552,0.9903880436895836,0.32806396484375,-0.9918212890625,-3.2291412353515625,3.3939193497068274
1782309327.013089,-0.1118163987994194,-0.50439453125,0.8422850966453552,0.9881097784286184,0.2040863037109375,-0.9326934814453125,-3.4732818603515625,3.6021181589642755
1782309327.021059,-0.1166992112994194,-0.49462890625,0.8564452528953552,0.995878974586253,0.0820159912109375,-1.4209747314453125,-3.7174224853515625,3.980593642262141
1782309327.029029,-0.1201171875,-0.49951171875,0.8525390028953552,0.9953707085097973,0.14495849609375,-1.3580322265625,-4.0836334228515625,4.305964053055068
1782309327.045016,-0.1157226413488388,-0.4858398139476776,0.8344725966453552,0.9725104467765412,-0.09918212890625,-1.2969970703125,-3.9005279541015625,4.111709719304283
1782309327.053035,-0.12451171875,-0.4912109076976776,0.8466796278953552,0.986740957009626,0.02288818359375,-1.6632080078125,-3.5343170166015625,3.906172233790929
1782309327.061054,-0.1318359375,-0.50244140625,0.8515624403953552,0.9974901859281997,-0.22125244140625,-1.4190673828125,-3.7174224853515625,3.985214525516529
1782309327.069073,-0.1201171875,-0.48974609375,0.8500975966453552,0.9884054324509265,-0.4673004150390625,-1.4209747314453125,-3.1070709228515625,3.4483950737888804
1782309327.080179,-0.1166992112994194,-0.4912109375,0.8442382216453552,0.983689517034947,-0.40435791015625,-1.6021728515625,-2.9239654541015625,3.358576654264303
1782309327.091285,-0.1181640550494194,-0.4970703125,0.8613280653953552,1.0014627680110106,-0.52642822265625,-1.5411376953125,-2.6798248291015625,3.13587199741816
1782309327.102391,-0.1215820237994194,-0.4931640625,0.8730468153953552,1.0100513466773053,-0.34332275390625,-1.1749267578125,-2.0694732666015625,2.404379961809719
1782309327.110056,-0.109375,-0.4921874701976776,0.8432616591453552,0.9824976448975168,-0.34332275390625,-0.9918212890625,-1.6422271728515625,1.9489715416186575
1782309327.117723,-0.1162109300494194,-0.49755859375,0.8486327528953552,0.9905791658238011,-0.28228759765625,-1.6021728515625,-1.0318756103515625,1.9265023771884786
1782309327.12539,-0.1083984300494194,-0.490234375,0.8515624403953552,0.9885537678654168,-0.8335113525390625,-1.2950897216796875,-0.7877349853515625,1.7298916061877097
1782309327.141064,-0.1132812425494194,-0.50732421875,0.8432616591453552,0.9906062429787204,-0.8335113525390625,-1.2950897216796875,0.0667572021484375,1.5415755207094315
1782309327.149069,-0.1166992112994194,-0.49755859375,0.8515624403953552,0.9931474462658991,-0.6504058837890625,-1.1119842529296875,0.1888275146484375,1.3019956308372669
1782309327.157074,-0.1127929612994194,-0.4873046875,0.8583983778953552,0.9934967970514762,-0.8335113525390625,-1.1119842529296875,0.6771087646484375,1.5458740028666067
1782309327.165079,-0.1118163913488388,-0.509765625,0.8559569716453552,1.0025099675884548,-1.07574462890625,-0.8087158203125,1.0433197021484375,1.7028692802254286
1782309327.173057,-0.1157226413488388,-0.5107421875,0.8461913466453552,0.9951327082105768,-0.8335113525390625,-0.5054473876953125,0.9822845458984375,1.3838718024623569
1782309327.181035,-0.1118163987994194,-0.50341796875,0.8496093153953552,0.993865457246307,-0.8335113525390625,-0.4444122314453125,1.3484954833984375,1.6464153409804236
1782309327.189013,-0.10400390625,-0.51171875,0.8627929091453552,1.0085060712203604,-0.22125244140625,-0.8087158203125,1.0433197021484375,1.338465510105901
1782309327.196991,-0.11962890625,-0.50048828125,0.85546875,0.9983117634815853,0.08392333984375,-0.5035400390625,0.8602142333984375,1.0002820728428832
1782309327.20769,-0.1142578125,-0.4814452826976776,0.8388671278953552,0.9739314484154078,0.45013427734375,-0.7476806640625,1.1043548583984375,1.4075677235291217
1782309327.218389,-0.11474609375,-0.48974609375,0.8505859375,0.9881874009756558,0.8144378662109375,-0.4444122314453125,0.6160736083984375,1.1137135899060846
1782309327.229088,-0.09033203125,-0.4873046576976776,0.8471679091453552,0.9814882432150243,0.9975433349609375,-0.1354217529296875,0.7381439208984375,1.248314144857318
1782309327.239758,-0.0932617112994194,-0.4990234375,0.8500975966453552,0.9901454750646602,1.1806488037109375,0.0438690185546875,0.5550384521484375,1.3053443116114432
1782309327.250426,-0.1064453050494194,-0.498046875,0.84130859375,0.9834538334776738,1.36566162109375,0.7781982421875,0.3108978271484375,1.6022738924409097
1782309327.261094,-0.1127929612994194,-0.4921875,0.8520507216453552,0.9904348638508809,0.9975433349609375,1.0242462158203125,0.3108978271484375,1.4631577066990553
1782309327.269094,-0.1142578125,-0.5,0.8515624403953552,0.9940892503238218,1.3637542724609375,0.7152557373046875,0.0667572021484375,1.5413867163828228
1782309327.277092,-0.10888671875,-0.4912109076976776,0.8574218153953552,0.9941411584262995,1.12152099609375,0.9613037109375,0.1277923583984375,1.4826479879615257
1782309327.28509,-0.12548828125,-0.4990234375,0.8466796278953552,0.9907765097126661,1.06048583984375,1.3275146484375,0.0667572021484375,1.7004063874156468
1782309327.301312,-0.1210937425494194,-0.4951171875,0.8471679091453552,0.9886850813723488,1.24359130859375,1.1444091796875,0.0057220458984375,1.6900368206557501
1782309327.309534,-0.1132812425494194,-0.4853515625,0.8339843153953552,0.9715598887666118,1.06048583984375,1.1444091796875,-0.1773834228515625,1.570276238680525
1782309327.317756,-0.1083984300494194,-0.48291015625,0.8403319716453552,0.9752488201561427,1.3027191162109375,0.8411407470703125,-0.0553131103515625,1.5516618163440685
1782309327.325978,-0.1005859375,-0.4926757514476776,0.8344725966453552,0.9742645643968221,0.69427490234375,1.0223388671875,-0.1163482666015625,1.2412619862574672
1782309327.336384,-0.1118163987994194,-0.49072265625,0.8432616591453552,0.9820396418587712,0.57220458984375,0.9613037109375,-0.3604888916015625,1.1753617138007286
1782309327.34679,-0.1201171875,-0.5,0.8427733778953552,0.987266481362584,0.45013427734375,0.9002685546875,-0.6656646728515625,1.206736837459385
1782309327.357196,-0.1030273362994194,-0.49267578125,0.8422850966453552,0.9812177339847292,0.3261566162109375,0.5321502685546875,-1.0318756103515625,1.2059557711041498
1782309327.367826,-0.10009765625,-0.501953125,0.8442382216453552,0.9872763824638573,0.14495849609375,0.3509521484375,-1.2149810791015625,1.2729333834327137
1782309327.378456,-0.1103515625,-0.5009765625,0.8408203125,0.9849536950705375,-0.3414154052734375,0.0438690185546875,-1.5201568603515625,1.5586423097750481
1782309327.389087,-0.1166992112994194,-0.4931640625,0.8510741591453552,0.9905335546181078,-0.22125244140625,0.0457763671875,-1.6422271728515625,1.6576966567720244
1782309327.397074,-0.1171874925494194,-0.48828125,0.8520507216453552,0.9890105761658736,-0.2841949462890625,0.0438690185546875,-1.3980865478515625,1.427353233635141
1782309327.405062,-0.1118163987994194,-0.4990234375,0.8500975966453552,0.9920651299370401,-0.22125244140625,-0.0762939453125,-1.3980865478515625,1.4175399127372295
1782309327.413051,-0.1157226487994194,-0.49755859375,0.8540038466453552,0.9951275575245089,-0.34332275390625,-0.3814697265625,-1.4591217041015625,1.5467468483930031
1782309327.42104,-0.1137695237994194,-0.4921875,0.8496093153953552,0.9884472816030002,-0.28228759765625,-0.1983642578125,-1.3980865478515625,1.4400280073149758
1782309327.431762,-0.1118163987994194,-0.49658203125,0.8417968153953552,0.9837268417658473,-0.40435791015625,-0.1373291015625,-1.3980865478515625,1.461851769819838
1782309327.442484,-0.1186523362994194,-0.48486328125,0.8422850966453552,0.9790888429783594,-0.4673004150390625,-0.2613067626953125,-1.0318756103515625,1.1625051300378826
1782309327.453206,-0.1376953125,-0.49755859375,0.8339843153953552,0.9808437141687811,-0.70953369140625,0.1068115234375,-0.9098052978515625,1.1587029130792714
1782309327.461174,-0.10546875,-0.5078125,0.8447265028953552,0.9912416744046979,-0.70953369140625,-0.0152587890625,-0.8487701416015625,1.106382231942727
1782309327.469141,-0.1157226413488388,-0.5009765625,0.8442382216453552,0.9884874408822706,-1.01470947265625,-0.1983642578125,-0.5435943603515625,1.1681089509467228
1782309327.477108,-0.1093749925494194,-0.50830078125,0.8491210341453552,0.9956601347059263,-0.64849853515625,-0.5035400390625,-0.5435943603515625,0.9846815473262868
1782309327.493073,-0.1064453050494194,-0.49951171875,0.8505859375,0.9921385977817802,-0.6504058837890625,-0.1354217529296875,-0.6656646728515625,0.9404660129513233
1782309327.501072,-0.1059570237994194,-0.4853515625,0.8486327528953552,0.9833466222041805,-0.58746337890625,0.4119873046875,-0.6656646728515625,0.9787523780110049
1782309327.509071,-0.1083984300494194,-0.4931640625,0.8530272841453552,0.9912701749145302,-0.40435791015625,0.1068115234375,-0.3604888916015625,0.5521469568992413
1782309327.51707,-0.1123046800494194,-0.4912109375,0.865234375,1.0012647252161997,-0.4673004150390625,0.0438690185546875,-0.3604888916015625,0.5918161958351214
1782309327.527745,-0.11865234375,-0.4965820014476776,0.8476561903953552,0.9895418535639188,-0.52642822265625,0.2899169921875,-0.4825592041015625,0.7707411507316829
1782309327.53842,-0.10986328125,-0.4926757514476776,0.84130859375,0.9811215452476584,-0.58746337890625,0.2899169921875,-0.3604888916015625,0.7477414826550138
1782309327.549095,-0.1171874925494194,-0.48974609375,0.8442382216453552,0.9830169477889564,-0.4673004150390625,0.2269744873046875,-0.3604888916015625,0.6323285038261591
1782309327.559753,-0.1132812425494194,-0.5,0.84130859375,0.9852069781681121,-0.70953369140625,-0.0762939453125,-0.1773834228515625,0.735339176186379
1782309327.570414,-0.109375,-0.490234375,0.8417968153953552,0.9802624707018026,-1.01470947265625,-0.0152587890625,0.2498626708984375,1.0451313309103691
1782309327.581075,-0.1157226487994194,-0.4990234375,0.8530272841453552,0.9950234520431519,-1.07574462890625,0.3509521484375,0.2498626708984375,1.1588033791036525
1782309327.589062,-0.10498046875,-0.5068359375,0.8349608778953552,0.982376319938676,-1.2607574462890625,-0.2613067626953125,0.3108978271484375,1.3245557827170746
1782309327.597049,-0.1171874925494194,-0.50439453125,0.8344725966453552,0.9820851623545532,-1.6269683837890625,-0.3833770751953125,0.5550384521484375,1.7612699358695247
1782309327.605036,-0.1166992112994194,-0.50439453125,0.8520507216453552,0.9970070116750355,-1.8100738525390625,-0.8716583251953125,0.6160736083984375,2.1013572467557657
1782309327.613023,-0.099609375,-0.50634765625,0.8383788466453552,0.9844740052841187,-1.99127197265625,-0.8697509765625,0.4329681396484375,2.215647138031768
1782309327.6237,-0.0917968675494194,-0.5107421875,0.845703125,0.9922187372847463,-2.05230712890625,-0.8087158203125,0.7381439208984375,2.3261217245325865
1782309327.634377,-0.0986328050494194,-0.50146484375,0.8569335341453552,0.9977627481981762,-1.80816650390625,-0.9918212890625,0.4940032958984375,2.1206637714745518
1782309327.645054,-0.1201171875,-0.505859375,0.8579100966453552,1.003160794655744,-1.74713134765625,-0.5645751953125,0.3108978271484375,1.8622219405996998
1782309327.655721,-0.0981445237994194,-0.5029296875,0.8466796278953552,0.9896651001291698,-1.56402587890625,-0.8087158203125,-0.1773834228515625,1.7696505605951487
1782309327.666387,-0.1015624850988388,-0.51025390625,0.8422850966453552,0.9900091773583268,-1.56402587890625,-1.1138916015625,-0.1773834228515625,1.9283143749457647
1782309327.677053,-0.0839843675494194,-0.5029296875,0.8500975966453552,0.9912908596288642,-1.93023681640625,-0.3814697265625,-0.4215240478515625,2.012216649024396
1782309327.687719,-0.1074218675494194,-0.49853515625,0.8437499403953552,0.9858958979335406,-1.5659332275390625,-0.4444122314453125,-0.9098052978515625,1.8647774088528308
1782309327.698388,-0.1118163987994194,-0.498046875,0.8500975966453552,0.9915742637644169,-1.86920166015625,-0.3814697265625,-0.6046295166015625,2.0012523206633364
1782309327.709057,-0.11962890625,-0.4853515625,0.8476561903953552,0.9840722694738072,-1.56402587890625,-0.5645751953125,-1.1539459228515625,2.0239845093074105
1782309327.717054,-0.10302734375,-0.51025390625,0.85546875,1.0013992533600806,-1.38092041015625,-0.2593994140625,-1.1539459228515625,1.8181915267836384
1782309327.725051,-0.1108398362994194,-0.51904296875,0.8471679091453552,0.9996922221390984,-1.56402587890625,-0.3814697265625,-1.1539459228515625,1.9807289807133839
1782309327.733048,-0.10498046875,-0.4921874701976776,0.8569335341453552,0.9937829172316297,-1.07574462890625,-0.1983642578125,-1.2760162353515625,1.6807118486757102
1782309327.741045,-0.1103515625,-0.505859375,0.8627929091453552,1.0062220325023137,-0.9555816650390625,-0.5664825439453125,-0.9708404541015625,1.4753202969096941
1782309327.751717,-0.1123046800494194,-0.51416015625,0.8505859375,1.000234694713586,-0.95367431640625,-0.6256103515625,-0.6656646728515625,1.3206030707361167
1782309327.762389,-0.1030273362994194,-0.498046875,0.8510741591453552,0.9914598055832584,-0.3414154052734375,-0.2613067626953125,-1.0929107666015625,1.1744358845598788
1782309327.773061,-0.1010742112994194,-0.5078125,0.8525390028953552,0.9974528975364482,0.08392333984375,-0.3204345703125,-1.2760162353515625,1.3183090964195991
1782309327.783759,-0.0976562425494194,-0.4951171875,0.8525390028953552,0.9907070821007528,0.14495849609375,-0.1983642578125,-1.2760162353515625,1.2994532608939962
1782309327.794457,-0.11474609375,-0.51611328125,0.8452147841453552,0.996959184947611,0.0209808349609375,-0.0782012939453125,-1.1539459228515625,1.156782966107352
1782309327.805155,-0.1166992112994194,-0.50537109375,0.84130859375,0.9883414380838134,-0.1010894775390625,0.2269744873046875,-0.9708404541015625,1.0021315720385595
1782309327.813132,-0.1103515625,-0.5,0.8447265028953552,0.9877956934710781,0.14495849609375,0.3509521484375,-0.4215240478515625,0.5673296211197024
1782309327.821111,-0.1137695237994194,-0.5087890625,0.8588866591453552,1.0047368351578663,-0.22125244140625,0.4730224609375,-0.1773834228515625,0.5515140706111957
1782309327.82909,-0.11376953125,-0.5009765625,0.845703125,0.9895124041920479,-0.22125244140625,0.7171630859375,0.0057220458984375,0.750538657544625
1782309327.837069,-0.1098632737994194,-0.49365234375,0.8398436903953552,0.9803570776593005,-0.40435791015625,1.1444091796875,0.2498626708984375,1.239196935263902
1782309327.847737,-0.1000976487994194,-0.494140625,0.8471679091453552,0.985843782176606,-0.7076263427734375,0.5321502685546875,0.6160736083984375,1.0786406446425092
1782309327.858405,-0.1098632737994194,-0.498046875,0.8408203125,0.9834121346311471,-0.89263916015625,0.7781982421875,0.1277923583984375,1.1911037155735873
1782309327.869073,-0.10546875,-0.50439453125,0.8442382216453552,0.9890781947188916,-1.1386871337890625,0.7152557373046875,0.4329681396484375,1.4126785084918123
1782309327.879735,-0.1108398362994194,-0.4970703125,0.83056640625,0.9742714817086507,-1.38092041015625,0.7781982421875,0.4940032958984375,1.6602930282598731
1782309327.890399,-0.1123046800494194,-0.51025390625,0.8374022841453552,0.9870227836763671,-1.56402587890625,0.6561279296875,0.6771087646484375,1.8262412461578579
1782309327.901063,-0.115234375,-0.51025390625,0.83056640625,0.9815694398340162,-1.86920166015625,0.2899169921875,0.8602142333984375,2.077964204704015
1782309327.909064,-0.1201171875,-0.50146484375,0.83544921875,0.9817690794479664,-2.2983551025390625,-0.1354217529296875,0.7381439208984375,2.4177741161020836
1782309327.917067,-0.1074218675494194,-0.5126953125,0.8300780653953552,0.981542426865886,-2.54058837890625,-0.1373291015625,0.3719329833984375,2.571338705287406
1782309327.92507,-0.1171874925494194,-0.51171875,0.8378905653953552,0.9887616432134343,-3.15093994140625,-0.3814697265625,0.3108978271484375,3.1891376774229285
1782309327.933074,-0.1201171875,-0.5146484375,0.8349608778953552,0.9881552613683154,-3.51715087890625,-0.3814697265625,0.2498626708984375,3.5465900258675482
1782309327.943741,-0.1025390550494194,-0.5166015625,0.8383788466453552,0.9900861188251582,-3.51715087890625,-0.6256103515625,0.1888275146484375,3.5773446084018055
1782309327.954409,-0.1196288987994194,-0.513671875,0.8422850966453552,0.9937877301641698,-3.7021636962890625,-0.4444122314453125,0.2498626708984375,3.737104443267193
1782309327.965077,-0.1123046800494194,-0.51220703125,0.8496093153953552,0.9984009078669275,-4.1255950927734375,-0.2613067626953125,0.2498626708984375,4.141406457721226
1782309327.973079,-0.1186523362994194,-0.51220703125,0.8247069716453552,0.9780470381590559,-4.55474853515625,0.1678466796875,0.3719329833984375,4.572990364141366
1782309327.981079,-0.1181640550494194,-0.513671875,0.8173827528953552,0.9725924654255385,-5.34820556640625,0.1068115234375,0.5550384521484375,5.377990253379154
1782309327.989079,-0.12744140625,-0.51708984375,0.8276366591453552,0.9841776557602098,-6.01959228515625,-0.1373291015625,0.6771087646484375,6.059111060280405
1782309327.997079,-0.1279296875,-0.5234375,0.81689453125,0.9786058943907169,-6.50787353515625,0.1678466796875,1.0433197021484375,6.5931105298152195
1782309328.007733,-0.1455077975988388,-0.52001953125,0.8212890625,0.9829082135304716,-7.30133056640625,-0.1983642578125,1.7147064208984375,7.502599184854942
1782309328.018387,-0.13671875,-0.52587890625,0.8183593153953552,0.9823200139132936,-7.8525543212890625,-0.2613067626953125,1.9588470458984375,8.097405284549543
1782309328.029041,-0.142578125,-0.52880859375,0.8173827528953552,0.9839113858895818,-8.46099853515625,-0.5035400390625,2.5691986083984375,8.856795711331031
1782309328.037044,-0.1455078125,-0.52685546875,0.8081054091453552,0.97559395280019,-9.25445556640625,-0.8087158203125,3.7288665771484375,10.010165585982385
1782309328.045047,-0.1416015625,-0.52880859375,0.8017578125,0.9708270295119925,-10.10894775390625,-0.9918212890625,4.0950775146484375,10.951903670669454
1782309328.05305,-0.12939453125,-0.52978515625,0.796875,0.9656215729390288,-11.63482666015625,-1.4801025390625,4.7054290771484375,12.637284428946588
1782309328.061053,-0.13525390625,-0.53271484375,0.783203125,0.9568102523056682,-14.078140258789062,-0.5664825439453125,5.4988861083984375,15.12457219401162
1782309328.071774,-0.1166992112994194,-0.5263671875,0.7695311903953552,0.9396059679386136,-17.25006103515625,1.0223388671875,5.6819915771484375,18.190514307153713
1782309328.082495,-0.1176757737994194,-0.51904296875,0.7529296875,0.9220392103739152,-20.730972290039062,3.1566619873046875,5.6819915771484375,21.726084674309075
1782309328.093216,-0.1225585862994194,-0.513671875,0.72021484375,0.893078285146137,-25.42877197265625,5.4779052734375,5.5599212646484375,26.599673206473653
1782309328.101208,-0.13330078125,-0.52880859375,0.6953125,0.8836668488530974,-39.34478759765625,11.3372802734375,5.6209564208984375,41.32966714345519
1782309328.1092,-0.14794921875,-0.5400390625,0.65234375,0.8596996734433932,-47.82867431640625,13.5955810546875,6.4144134521484375,50.13548255491852
1782309328.117192,-0.16259765625,-0.55908203125,0.61572265625,0.8474226247299365,-57.34825134277344,15.790939331054688,6.9637298583984375,59.888807222816816
1782309328.125184,-0.166015625,-0.5615234375,0.5625,0.8119581322986777,-68.03131103515625,17.5628662109375,7.8792572021484375,70.70216577137556
1782309328.135819,-0.15966796875,-0.5771484375,0.52978515625,0.7995414254035117,-79.01763916015625,20.0653076171875,8.794784545898438,81.998488421591
1782309328.146454,-0.158203125,-0.58740234375,0.4999999701976776,0.7874450535754461,-90.25001525878906,22.871017456054688,10.137557983398438,93.65318347794474
1782309328.157089,-0.1850585788488388,-0.578125,0.4765624701976776,0.771742820654306,-101.47857666015625,25.1312255859375,11.358261108398438,105.15935581691743
1782309328.165064,-0.1982421725988388,-0.61181640625,0.51953125,0.8267599371522155,-110.69679260253906,26.960372924804688,12.456893920898438,114.61158670435815
1782309328.17304,-0.1894531100988388,-0.642578125,0.5322265625,0.855607527716537,-117.04254150390625,27.5115966796875,13.921737670898438,121.0357767494253
1782309328.181016,-0.1850585788488388,-0.6630859375,0.552734375,0.8828617827397709,-121.62017822265625,27.3895263671875,14.226913452148438,125.47533212510119
1782309328.188992,-0.19677734375,-0.67138671875,0.53076171875,0.8781739299350962,-125.89454650878906,28.059005737304688,14.471054077148438,129.79274266970208
1782309328.199688,-0.2021484225988388,-0.70556640625,0.5185546875,0.898658390221758,-129.79888916015625,30.3802490234375,15.142440795898438,134.16409605849805
1782309328.210384,-0.2177734225988388,-0.70947265625,0.5517578125,0.9247774852426005,-133.82911682128906,34.16252136230469,15.203475952148438,138.9548705732322
1782309328.22108,-0.2221679538488388,-0.73828125,0.6083984375,0.9821234456886688,-136.20948791503906,36.90910339355469,15.935897827148438,142.01851763397124
1782309328.231801,-0.22998046875,-0.75244140625,0.6904296875,1.0467818489194847,-133.03184509277344,38.25187683105469,16.057968139648438,139.35040807496694
1782309328.242521,-0.2397460788488388,-0.77685546875,0.7695311903953552,1.1194466734246291,-125.89454650878906,37.88566589355469,15.752792358398438,132.41189896659031
1782309328.253241,-0.2377929538488388,-0.80224609375,0.8271483778953552,1.1765707470833222,-116.49322509765625,37.2772216796875,15.264511108398438,123.26097537009916
1782309328.261195,-0.2260742038488388,-0.83544921875,0.7949218153953552,1.1751534518297255,-107.27882385253906,36.48185729980469,14.654159545898438,114.25592479702776
1782309328.26915,-0.2216796725988388,-0.822265625,0.74951171875,1.1344736452839035,-98.42872619628906,35.93254089355469,13.860702514648438,105.69522557755673
1782309328.277105,-0.2250976413488388,-0.82568359375,0.68603515625,1.0968439181304181,-91.34674072265625,36.7279052734375,12.639999389648438,99.26195470066614
1782309328.28506,-0.2333984225988388,-0.84375,0.673828125,1.104732197508809,-84.57183837890625,38.0096435546875,11.663436889648438,93.45140239729444
1782309328.295741,-0.2392578125,-0.87255859375,0.65576171875,1.1174194521965406,-79.32281494140625,39.6575927734375,10.503768920898438,89.30376697741264
1782309328.306422,-0.2368163913488388,-0.88134765625,0.68701171875,1.1422962820952731,-73.76861572265625,40.8172607421875,8.916854858398438,84.77834476267151
1782309328.317103,-0.2451171875,-0.87646484375,0.70166015625,1.149173630399861,-68.03131103515625,39.9627685546875,7.7571868896484375,79.28086843721269
1782309328.325081,-0.2353515625,-0.89892578125,0.7216796875,1.1765540742002518,-61.62261962890625,38.3148193359375,5.8040618896484375,72.79464104653076
1782309328.333059,-0.2426757663488388,-0.90185546875,0.72265625,1.1808754675033861,-54.29840087890625,35.3851318359375,3.7288665771484375,64.91785839815773
1782309328.341037,-0.2382812350988388,-0.9101561903953552,0.6845703125,1.1635285775053237,-47.15728759765625,33.7371826171875,1.1043548583984375,57.99333465293051
1782309328.349015,-0.2475585788488388,-0.9331054091453552,0.6689453125,1.174503633733715,-39.95513916015625,32.4554443359375,-1.5811920166015625,51.50018621853666
1782309328.359691,-0.2626953125,-0.9233397841453552,0.62060546875,1.1431169371667411,-34.15679931640625,32.6385498046875,-4.5719146728515625,47.46434742699147
1782309328.370367,-0.29150390625,-0.93115234375,0.58984375,1.1401468607351377,-29.275894165039062,33.79631042480469,-7.7457427978515625,45.37912635764157
1782309328.381043,-0.3076171875,-0.9208984375,0.56103515625,1.1213575312021646,-25.61187744140625,34.9578857421875,-10.858535766601562,44.67583060931286
1782309328.389047,-0.30126953125,-0.9375,0.568359375,1.1369705183556806,-18.65386962890625,35.5072021484375,-16.229629516601562,43.26810754803566
1782309328.39705,-0.33642578125,-0.9379882216453552,0.5634765625,1.1447751074870143,-15.35797119140625,34.4085693359375,-18.976211547851562,42.18902141044395
1782309328.405053,-0.34619140625,-0.921875,0.5625,1.1340671300175984,-11.636734008789062,32.45735168457031,-21.417617797851562,40.59073304218631
1782309328.413056,-0.3471679389476776,-0.9477538466453552,0.54931640625,1.1491350859840896,-7.72857666015625,30.0750732421875,-22.943496704101562,38.608871632384876
1782309328.423721,-0.3505859375,-0.9399413466453552,0.53955078125,1.1390852822566548,-4.31060791015625,27.5115966796875,-24.469375610351562,37.07046850501571
1782309328.434386,-0.36767578125,-0.94091796875,0.513671875,1.1333008864376837,-2.11334228515625,24.2156982421875,-25.568008422851562,35.27873738786467
1782309328.445051,-0.369140625,-0.95166015625,0.4897460639476776,1.13215416846444,-1.3217926025390625,20.368576049804688,-26.300430297851562,33.291720589854656
1782309328.455721,-0.3642578125,-0.94091796875,0.50537109375,1.1284548375021406,-0.7724761962890625,16.279220581054688,-26.971817016601562,31.513309178464667
1782309328.466391,-0.35693359375,-0.939453125,0.51513671875,1.1293093479751561,0.57220458984375,13.4124755859375,-27.582168579101562,30.67568977157621
1782309328.477061,-0.35791015625,-0.908203125,0.5283203125,1.1099797064842054,1.60980224609375,10.9100341796875,-27.887344360351562,29.988735961128974
1782309328.485053,-0.34765625,-0.8828125,0.53857421875,1.0910018182489365,4.53948974609375,6.8817138671875,-27.948379516601562,29.138923633324634
1782309328.493047,-0.35009765625,-0.880859375,0.5458984375,1.093840350097799,6.98089599609375,4.3182373046875,-28.253555297851562,29.421819612264443
1782309328.501041,-0.33056640625,-0.8671875,0.54345703125,1.0754691320127945,9.42230224609375,3.3416748046875,-28.314590454101562,30.027697259372484
1782309328.509035,-0.330078125,-0.83251953125,0.54296875,1.0473086469579052,10.70404052734375,2.9144287109375,-28.131484985351562,30.239887992570587
1782309328.519719,-0.32421875,-0.82421875,0.546875,1.040925843337615,12.109756469726562,3.3397674560546875,-27.948379516601562,30.64167368177855
1782309328.530403,-0.30908203125,-0.80908203125,0.5185546875,1.0094772901167588,13.69476318359375,2.9754638671875,-27.704238891601562,31.04713797506272
1782309328.541087,-0.29833984375,-0.80029296875,0.4838866889476776,0.9816424124599595,13.57269287109375,1.9378662109375,-27.704238891601562,30.911133427738637
1782309328.549191,-0.291015625,-0.80029296875,0.4497070014476776,0.9630136639611562,12.59613037109375,0.3509521484375,-27.276992797851562,30.04696330463578
1782309328.557297,-0.2685546875,-0.783203125,0.4399413764476776,0.9375911528479061,10.76507568359375,-1.5411376953125,-26.849746704101562,28.968445901425696
1782309328.565403,-0.2431640475988388,-0.783203125,0.4711913764476776,0.9458103416082281,8.87298583984375,-3.7384033203125,-26.544570922851562,28.236851499019643
1782309328.573509,-0.2241210788488388,-0.7822265625,0.4794921576976776,0.9444688360970458,7.5283050537109375,-5.4492950439453125,-25.812149047851562,27.43423466995573
1782309328.584056,-0.2080077975988388,-0.75634765625,0.4716796576976776,0.9153200098668148,6.18743896484375,-6.9732666015625,-25.506973266601562,27.15725562834471
1782309328.594603,-0.2050781100988388,-0.76123046875,0.4790038764476776,0.9224822878770943,5.63812255859375,-8.0108642578125,-24.774551391601562,26.640960358026295
1782309328.60515,-0.18701171875,-0.7451171875,0.4853515326976776,0.9087018853010728,5.0868988037109375,-8.806228637695312,-24.835586547851562,26.837148906588165
1782309328.613168,-0.1699218600988388,-0.7421875,0.4863280951976776,0.9034548908906856,4.4155120849609375,-9.050369262695312,-24.469375610351562,26.46046623784328
1782309328.621186,-0.1513671875,-0.75927734375,0.50146484375,0.9224321653655231,3.86810302734375,-9.5977783203125,-24.469375610351562,26.567459654179856
1782309328.629204,-0.1303710788488388,-0.75732421875,0.4853515326976776,0.9089019203398642,3.0117034912109375,-9.294509887695312,-24.713516235351562,26.574727781981576
1782309328.637222,-0.1249999925494194,-0.76416015625,0.4848632514476776,0.9135962539009194,1.7910003662109375,-9.168624877929688,-24.774551391601562,26.477344298835295
1782309328.645212,-0.1142578125,-0.7822265625,0.4829101264476776,0.9263559969167164,0.3261566162109375,-8.314132690429688,-24.957656860351562,26.30809412502972
1782309328.653202,-0.0996093675494194,-0.77880859375,0.4775390326976776,0.9189713703659551,-1.1386871337890625,-6.6089630126953125,-25.506973266601562,26.37386368575826
1782309328.661192,-0.08154296875,-0.78564453125,0.4550780951976776,0.9115825020064515,-3.08990478515625,-5.7525634765625,-25.934219360351562,26.74365778954042
1782309328.669182,-0.06494140625,-0.79296875,0.4545898139476776,0.9163343951130909,-5.04302978515625,-5.2032470703125,-26.361465454101562,27.33921707687473
1782309328.679803,-0.0722656175494194,-0.8193359375,0.4667968451976776,0.9457446762447608,-6.8759918212890625,-4.6558380126953125,-26.910781860351562,28.16285268686962
1782309328.690424,-0.0688476487994194,-0.83251953125,0.50244140625,0.9748210786459254,-9.012222290039062,-4.7130584716796875,-27.399063110351562,29.22570324367878
1782309328.701045,-0.0512695275247097,-0.8388671875,0.51123046875,0.9837089584298355,-10.04791259765625,-4.4708251953125,-28.558731079101562,30.603103541072787
1782309328.711735,-0.0351562462747097,-0.8388671875,0.533203125,0.9946052947908802,-10.29205322265625,-0.1983642578125,-30.878067016601562,32.548743917369585
1782309328.722426,-0.0312499962747097,-0.83935546875,0.55224609375,1.0052213255049036,-9.98687744140625,2.7923583984375,-32.28187561035156,33.90655510925881
1782309328.733117,-0.01904296875,-0.84228515625,0.556640625,1.0097800277774813,-9.07135009765625,6.1492919921875,-33.13636779785156,34.901605341787985
1782309328.74112,-0.02392578125,-0.84228515625,0.56640625,1.015299348707844,-8.15582275390625,9.1400146484375,-34.66224670410156,36.763142672285056
1782309328.749123,-0.0263671837747097,-0.8510741591453552,0.58056640625,1.0305725616429067,-6.3266754150390625,12.189865112304688,-35.33363342285156,37.908907714729736
1782309328.757126,-0.0341796800494194,-0.85205078125,0.58056640625,1.0316085189756121,-4.9228668212890625,14.020919799804688,-36.55433654785156,39.45935035230941
1782309328.765129,-0.0278320275247097,-0.85009765625,0.5419921875,1.0085614399871305,-2.96783447265625,14.8773193359375,-37.34779357910156,40.311293173349405
1782309328.77578,-0.0371093712747097,-0.84375,0.55078125,1.0082912046070653,-2.05230712890625,15.1824951171875,-37.83607482910156,40.82019942391456
1782309328.786431,-0.0185546875,-0.84765625,0.54931640625,1.0102543782472315,-1.19781494140625,15.2435302734375,-38.01918029785156,40.97875115656413
1782309328.797082,-0.0307617150247097,-0.83544921875,0.55517578125,1.0035645611059583,-1.01470947265625,15.8538818359375,-38.01918029785156,41.204772479681424
1782309328.807731,-0.0449218712747097,-0.85888671875,0.57177734375,1.032779599425632,0.99945068359375,14.2669677734375,-37.53089904785156,40.16358617525663
1782309328.818381,-0.0429687462747097,-0.85009765625,0.552734375,1.0149027675717532,1.42669677734375,13.4124755859375,-37.10365295410156,39.47924806244747
1782309328.829031,-0.0439453050494194,-0.841796875,0.5673828125,1.0161084708416037,1.6689300537109375,13.654708862304688,-35.69984436035156,38.2585322378134
1782309328.839779,-0.0385742112994194,-0.82763671875,0.576171875,1.009180131364889,2.5234222412109375,14.814376831054688,-35.21156311035156,38.28429961974228
1782309328.850528,-0.0385742112994194,-0.80908203125,0.55615234375,0.9825513383674241,3.31878662109375,16.0369873046875,-34.29603576660156,38.0054913894173
1782309328.861277,-0.0292968712747097,-0.8154296875,0.54345703125,0.9803720858622496,4.47845458984375,17.3187255859375,-33.80775451660156,38.248648040016946
1782309328.869226,-0.0336913987994194,-0.822265625,0.53515625,0.9816557850508316,6.06536865234375,18.8446044921875,-32.64808654785156,38.18121751060086
1782309328.877177,-0.0390624962747097,-0.80126953125,0.54833984375,0.9717177185626393,5.94329833984375,19.5159912109375,-31.610488891601562,37.622064218591795
1782309328.885128,-0.0361328087747097,-0.810546875,0.5458984375,0.9779043514102781,6.0634613037109375,19.517898559570312,-30.633926391601562,36.825960589363305
1782309328.893079,-0.0205078087747097,-0.818359375,0.509765625,0.9643617730409949,6.67572021484375,19.3328857421875,-30.023574829101562,36.328236359972266
1782309328.90375,-0.0380859375,-0.8369140625,0.4853515326976776,0.9682157801531086,5.69915771484375,18.5394287109375,-29.291152954101562,35.13064839946979
1782309328.914421,-0.015624996274709702,-0.83642578125,0.4858398139476776,0.9674153982984618,4.84466552734375,18.3563232421875,-28.802871704101562,34.49682312107073
1782309328.925092,-0.0214843712747097,-0.8271484375,0.4853515326976776,0.9592717165432043,3.3168792724609375,18.598556518554688,-28.314590454101562,34.03856673341951
1782309328.935747,-0.01318359375,-0.8466796875,0.4711913764476776,0.9690519148156717,1.85394287109375,18.6614990234375,-27.765274047851562,33.50520993701334
