timestamp,accel_x,accel_y,accel_z,accel_rms,gyro_x,gyro_y,gyro_z,gyro_rms
1780422200.533201,-0.1328125,-0.20703125,0.9638671278953552,0.9947567234605924,-0.25177001953125,0.34332275390625,-0.8869171142578125,0.983809241493463
1780422200.543879,-0.1279296875,-0.20458984375,0.9692382216453552,0.998822176069268,-0.06866455078125,0.34332275390625,-0.5817413330078125,0.6789759291856148
1780422200.554557,-0.12353515625,-0.21044921875,0.9667968153953552,0.9971187947084328,-0.19073486328125,0.22125244140625,-0.2155303955078125,0.3630231153616768
1780422200.565374,-0.1337890625,-0.20068359375,0.9638671278953552,0.9935860598268703,-0.1277923583984375,-0.0209808349609375,-0.3376007080078125,0.3615872237069074
1780422200.576193,-0.12939453125,-0.193359375,0.9648436903953552,0.9924989367820632,-0.0705718994140625,-0.0820159912109375,-0.5817413330078125,0.5917178333724004
1780422200.587011,-0.1225585862994194,-0.21240234375,0.9482421278953552,0.9794378468395616,-0.1926422119140625,-0.3261566162109375,-0.5207061767578125,0.643913101763778
1780422200.597517,-0.1245117112994194,-0.21240234375,0.9604491591453552,0.9915041649858174,0.2956390380859375,-0.5092620849609375,-0.7648468017578125,0.9652672905357842
1780422200.608027,-0.115234375,-0.19873046875,0.9570311903953552,0.9842161651694133,0.0553131103515625,-0.8754730224609375,-1.0089874267578125,1.336999693563542
1780422200.618536,-0.1240234300494194,-0.203125,0.9580077528953552,0.9871273633294901,0.1125335693359375,-0.3871917724609375,-0.9479522705078125,1.0301430871727701
1780422200.626568,-0.1254882663488388,-0.19189453125,0.9560546278953552,0.9831639068003973,0.05340576171875,-0.63323974609375,-0.8869171142578125,1.0910851107869828
1780422200.634601,-0.1279296875,-0.18994140625,0.9599608778953552,0.9868984901405495,0.2346038818359375,-0.6313323974609375,-0.7648468017578125,1.0191222731426393
1780422200.642633,-0.1201171875,-0.20068359375,0.9707030653953552,0.9984820903257426,-0.00762939453125,-0.57220458984375,-0.6427764892578125,0.860603227650098
1780422200.650666,-0.1162109225988388,-0.201171875,0.9614257216453552,0.9890978313916076,-0.1926422119140625,-0.5702972412109375,-0.5817413330078125,0.8371218212862781
1780422200.661292,-0.123046875,-0.2060546875,0.9570311903953552,0.9866649720536039,-0.0705718994140625,-0.2651214599609375,-0.3986358642578125,0.48392182611585177
1780422200.671916,-0.1166992112994194,-0.2001953125,0.9462890028953552,0.9742482979536401,-0.2536773681640625,-0.0209808349609375,-0.4596710205078125,0.5254425274461492
1780422200.682542,-0.12744140625,-0.21533203125,0.9570311903953552,0.989200634400716,0.2346038818359375,0.1010894775390625,-0.3986358642578125,0.47346448242099876
1780422200.693215,-0.1064453050494194,-0.1982421875,0.9702147841453552,0.9959655090644792,-0.19073486328125,0.34332275390625,0.0286102294921875,0.3937878193295017
1780422200.703892,-0.1127929612994194,-0.19287109375,0.9643554091453552,0.9899004324026326,-0.31280517578125,0.77056884765625,-0.2765655517578125,0.8764199515032294
1780422200.714568,-0.1108398362994194,-0.2041015625,0.9560546278953552,0.9838614580549182,-0.43487548828125,0.835418701171875,-0.6427764892578125,1.140264316603022
1780422200.722565,-0.1103515625,-0.1953125,0.9624022841453552,0.9882016983038627,-0.80108642578125,0.89263916015625,-0.8258819580078125,1.4562366361200543
1780422200.730564,-0.1181640625,-0.21142578125,0.9741210341453552,1.0037805516187754,-0.8640289306640625,0.7724761962890625,-1.0700225830078125,1.5774073015567072
1780422200.738563,-0.1059570237994194,-0.2021484375,0.9604491591453552,0.9871947472404531,-0.6809234619140625,0.4673004150390625,-1.1310577392578125,1.4004706524649868
1780422200.746562,-0.123046875,-0.20166015625,0.9697265028953552,0.9980865906742237,-0.4978179931640625,0.2841949462890625,-1.1310577392578125,1.2680225279343942
1780422200.757213,-0.1298827975988388,-0.2109375,0.9682616591453552,0.9994472525297505,-0.12969970703125,0.22125244140625,-1.3141632080078125,1.3389546646969057
1780422200.767864,-0.1220703050494194,-0.20166015625,0.9614257216453552,0.9899027205917381,-0.5588531494140625,0.1621246337890625,-1.3141632080078125,1.4372286445700417
1780422200.778515,-0.1171874925494194,-0.20166015625,0.9633788466453552,0.9912106381554475,-0.31280517578125,0.03814697265625,-0.8869171142578125,0.941235484393667
1780422200.789171,-0.14453125,-0.20751953125,0.9541015028953552,0.987047777923621,-0.2536773681640625,-0.2040863037109375,-0.7038116455078125,0.7754703468434193
1780422200.799832,-0.13330078125,-0.19775390625,0.9633788466453552,0.9924588192377198,-0.43487548828125,-0.14495849609375,-0.4596710205078125,0.6491741699977835
1780422200.810492,-0.1328125,-0.2138671875,0.9677733778953552,0.9999818223389844,-0.5588531494140625,-0.3261566162109375,-0.1544952392578125,0.6652546579029072
1780422200.821187,-0.119140625,-0.1865234375,0.9702147841453552,0.995139291072574,-0.31280517578125,-0.08392333984375,0.0286102294921875,0.3251288209274347
1780422200.831885,-0.1162109225988388,-0.201171875,0.9624022841453552,0.9900470990566489,-0.0095367431640625,-0.5092620849609375,-0.1544952392578125,0.5322664742422419
1780422200.842582,-0.1201171800494194,-0.203125,0.9545897841453552,0.9833257642117899,0.1125335693359375,-0.3261566162109375,0.1506805419921875,0.37649245445388996
1780422200.850747,-0.1225585862994194,-0.2138671875,0.9594725966453552,0.9906298222233434,-0.00762939453125,-0.26702880859375,-0.2155303955078125,0.343243271846172
1780422200.85891,-0.1025390550494194,-0.20068359375,0.9619140028953552,0.9879608856513543,0.2346038818359375,0.1010894775390625,0.0286102294921875,0.25705370853813175
1780422200.867073,-0.1044921800494194,-0.2021484375,0.9545897841453552,0.9813379960390036,0.17547607421875,0.03814697265625,-0.0934600830078125,0.20243969784083393
1780422200.875236,-0.1157226487994194,-0.2080078125,0.9702147841453552,0.998987341701789,0.2346038818359375,-0.0209808349609375,-0.5817413330078125,0.6276162484654577
1780422200.885774,-0.1235351487994194,-0.20361328125,0.9550780653953552,0.9843238350713757,-0.0705718994140625,0.2841949462890625,-0.4596710205078125,0.5450179883066663
1780422200.896312,-0.12646484375,-0.20703125,0.9633788466453552,0.9934556343113714,0.05340576171875,0.40435791015625,-0.8258819580078125,0.9211072160468118
1780422200.90685,-0.11962890625,-0.21044921875,0.9716796278953552,1.0013796723270914,0.17547607421875,0.28228759765625,-0.8869171142578125,0.9471536876226406
1780422200.917513,-0.1225585862994194,-0.2001953125,0.9594725966453552,0.9877684110843318,-0.0705718994140625,-0.2651214599609375,-0.7038116455078125,0.7553943432877573
1780422200.928176,-0.12841796875,-0.20556640625,0.9653319716453552,0.9952962059392796,0.05340576171875,-0.08392333984375,-0.1544952392578125,0.1837500511799063
1780422200.938838,-0.1225585862994194,-0.205078125,0.9624022841453552,0.9916127273070999,-0.31280517578125,0.164031982421875,-0.1544952392578125,0.38551569125797946
1780422200.946756,-0.10546875,-0.2109375,0.9589843153953552,0.9875571898918617,0.1125335693359375,0.1010894775390625,0.5168914794921875,0.5385718970278985
1780422200.954674,-0.1279296875,-0.2099609375,0.9506835341453552,0.9819617010427797,-0.3757476806640625,0.4673004150390625,-0.0934600830078125,0.6068696602532784
1780422200.962591,-0.1279296875,-0.20703125,0.9594725966453552,0.9898563568183975,-0.0095367431640625,-0.0209808349609375,0.3337860107421875,0.3345807015848629
1780422200.97051,-0.1171874925494194,-0.2119140625,0.9565429091453552,0.9867192180815845,0.05340576171875,0.03814697265625,0.2727508544921875,0.28053590774411574
1780422200.981215,-0.1166992112994194,-0.20947265625,0.9628905653953552,0.9922982115078732,-0.0705718994140625,-0.2040863037109375,0.4558563232421875,0.5044170891129556
1780422200.99192,-0.1230468675494194,-0.20849609375,0.9658202528953552,0.9957007148865471,0.35858154296875,-0.019073486328125,0.5168914794921875,0.6293816985027298
1780422201.002625,-0.1181640550494194,-0.2197265625,0.9663085341453552,0.9979953353277428,0.2956390380859375,0.1010894775390625,0.4558563232421875,0.552654060646789
1780422201.013268,-0.1206054612994194,-0.216796875,0.9833983778953552,1.0142085248863901,-0.0705718994140625,-0.0820159912109375,0.3337860107421875,0.35088476280454933
1780422201.023913,-0.1298827975988388,-0.20458984375,0.9575194716453552,0.9877095139046452,0.17547607421875,0.03814697265625,0.5779266357421875,0.6051828157229384
1780422201.034558,-0.1098632737994194,-0.2021484375,0.9497069716453552,0.9771782138921278,-0.1277923583984375,-0.2040863037109375,0.5168914794921875,0.5702270668769155
1780422201.042557,-0.109375,-0.20654296875,0.9482421278953552,0.9766196914257743,0.05340576171875,-0.14495849609375,0.3948211669921875,0.4239680352097248
1780422201.050557,-0.13720703125,-0.1982421875,0.9570311903953552,0.9869318283036445,0.2346038818359375,-0.2040863037109375,0.1506805419921875,0.34553556469623053
1780422201.058557,-0.130859375,-0.1943359375,0.9643554091453552,0.9924071683423593,0.2346038818359375,-0.0820159912109375,-0.0934600830078125,0.26551909781149513
1780422201.066557,-0.1152343675494194,-0.203125,0.9619140028953552,0.989857198819951,0.05340576171875,-0.26702880859375,0.4558563232421875,0.5310005154834063
1780422201.074705,-0.1215820237994194,-0.19482421875,0.9594725966453552,0.9865730223536882,-0.00762939453125,0.09918212890625,0.3337860107421875,0.34829355911712345
1780422201.082853,-0.1230468675494194,-0.20849609375,0.9555663466453552,0.9857576758838271,-0.00762939453125,0.34332275390625,0.5168914794921875,0.6205687089938611
1780422201.091001,-0.1396484375,-0.18798828125,0.9599608778953552,0.9881124263327233,0.05340576171875,-0.14495849609375,0.6389617919921875,0.6573715179412545
1780422201.099149,-0.1103515550494194,-0.203125,0.9609374403953552,0.9883511499868869,0.48065185546875,-0.08392333984375,0.5779266357421875,0.7563521200052028
1780422201.109591,-0.1206054612994194,-0.20361328125,0.9609374403953552,0.9896488316318138,0.2346038818359375,0.1621246337890625,0.3948211669921875,0.48703914848685514
1780422201.120033,-0.1259765625,-0.1953125,0.9584960341453552,0.9862716230470896,0.05340576171875,0.40435791015625,0.7610321044921875,0.8634392618815163
1780422201.130475,-0.1298827975988388,-0.2158203125,0.9550780653953552,0.9877358247016421,0.0553131103515625,0.2841949462890625,0.6389617919921875,0.7014973123960453
1780422201.138532,-0.125,-0.19921875,0.9482421278953552,0.9769730003777349,0.0553131103515625,0.1621246337890625,0.4558563232421875,0.4869793881653386
1780422201.146589,-0.1254882663488388,-0.21484375,0.9506835341453552,0.9827025613075415,-0.00762939453125,0.164031982421875,0.3948211669921875,0.42760782596116803
1780422201.154645,-0.1215820163488388,-0.20654296875,0.9619140028953552,0.9913227192018138,-0.2536773681640625,0.1621246337890625,0.5779266357421875,0.6516408522339326
1780422201.162703,-0.1215820237994194,-0.18994140625,0.9624022841453552,0.9884726009594738,0.05340576171875,-0.14495849609375,0.5779266357421875,0.5982176337043273
1780422201.17334,-0.1206054612994194,-0.20263671875,0.9682616591453552,0.9965630725909567,-0.1926422119140625,-0.0209808349609375,0.6999969482421875,0.7263242697274933
1780422201.183977,-0.1059570163488388,-0.2060546875,0.9682616591453552,0.9955983447782478,-0.19073486328125,-0.26702880859375,0.6999969482421875,0.7730976007195278
1780422201.194613,-0.1396484375,-0.1982421875,0.9594725966453552,0.9896410029472087,-0.0705718994140625,-0.2040863037109375,0.4558563232421875,0.5044170891129556
1780422201.202635,-0.1201171875,-0.19189453125,0.9667968153953552,0.9929490078121676,-0.2536773681640625,-0.4482269287109375,0.3948211669921875,0.648955576788857
1780422201.210658,-0.13427734375,-0.19091796875,0.9497069716453552,0.977969021916325,-0.12969970703125,-0.45013427734375,0.2727508544921875,0.5420663338282415
1780422201.218681,-0.12744140625,-0.2001953125,0.9536132216453552,0.9826991664140067,-0.12969970703125,-0.14495849609375,0.5779266357421875,0.6097820724603479
1780422201.226704,-0.1142578125,-0.2099609375,0.9599608778953552,0.9892741430376036,-0.3757476806640625,-0.2040863037109375,0.1506805419921875,0.4533675822352925
1780422201.237316,-0.1235351487994194,-0.22119140625,0.9594725966453552,0.9923579167322281,-0.19073486328125,-0.08392333984375,0.5168914794921875,0.5573147374805992
1780422201.247928,-0.1162109225988388,-0.20068359375,0.9648436903953552,0.9923216364805397,0.0553131103515625,-0.2040863037109375,0.6389617919921875,0.6730400665376651
1780422201.258539,-0.12841796875,-0.208984375,0.9541015028953552,0.9851270585661487,-0.0095367431640625,-0.2040863037109375,0.0286102294921875,0.20630248196317452
1780422201.269207,-0.12646484375,-0.20263671875,0.9643554091453552,0.9934970315196638,-0.2536773681640625,-0.3261566162109375,0.1506805419921875,0.43981242723674085
1780422201.279874,-0.12744140625,-0.19873046875,0.9716796278953552,0.9999482039102967,0.11444091796875,-0.14495849609375,0.7610321044921875,0.7831216721321788
1780422201.29054,-0.1206054538488388,-0.20166015625,0.9619140028953552,0.9901974768110774,-0.00762939453125,-0.324249267578125,0.3948211669921875,0.510959439770846
1780422201.29891,-0.1044921875,-0.19970703125,0.9550780653953552,0.9813132153286014,0.2346038818359375,-0.3871917724609375,0.4558563232421875,0.6424651254922858
1780422201.307282,-0.1103515625,-0.20947265625,0.9707030653953552,0.9991599983138644,0.0553131103515625,0.1010894775390625,0.2727508544921875,0.2960939906045092
1780422201.315653,-0.1201171875,-0.201171875,0.9653319716453552,0.9933599939118923,0.11444091796875,0.34332275390625,0.0896453857421875,0.3728317747190645
1780422201.324023,-0.1279296875,-0.2041015625,0.9594725966453552,0.9892477528264442,-0.0705718994140625,0.4673004150390625,0.0286102294921875,0.47346448242099876
1780422201.334219,-0.1113281175494194,-0.1943359375,0.9638671278953552,0.9895454747500704,-0.2536773681640625,0.5283355712890625,-0.0934600830078125,0.5934858634574312
1780422201.344414,-0.1181640625,-0.2060546875,0.9609374403953552,0.9898596083590862,-0.4978179931640625,0.2841949462890625,-0.4596710205078125,0.7347700108937704
1780422201.354609,-0.1298827975988388,-0.201171875,0.9575194716453552,0.9870071950006832,-0.43487548828125,-0.08392333984375,-0.4596710205078125,0.6383237927361621
1780422201.362585,-0.11962890625,-0.20654296875,0.9560546278953552,0.9853991702202518,-0.6809234619140625,-0.3871917724609375,-0.8869171142578125,1.183298862168759
1780422201.370562,-0.1215820237994194,-0.20849609375,0.9501952528953552,0.980369230568279,-0.4329681396484375,-0.3871917724609375,-0.5817413330078125,0.8220716861331364
1780422201.378539,-0.12841796875,-0.19873046875,0.9614257216453552,0.9901133228821652,-0.4978179931640625,-0.5092620849609375,-0.5817413330078125,0.9195616368826846
1780422201.386515,-0.1347656100988388,-0.20947265625,0.9594725966453552,0.9912760599828503,-0.2536773681640625,-0.5702972412109375,-0.3986358642578125,0.7406090079954636
1780422201.397172,-0.1181640550494194,-0.208984375,0.9643554091453552,0.9937900019862186,-0.1926422119140625,-0.5092620849609375,-0.3986358642578125,0.6748106736429684
1780422201.40783,-0.13427734375,-0.21630859375,0.9643554091453552,0.9973971966686911,-0.19073486328125,-0.26702880859375,0.2117156982421875,0.390522354766141
1780422201.418487,-0.13427734375,-0.20849609375,0.9775390028953552,1.0085055916231749,-0.3147125244140625,-0.6923675537109375,0.1506805419921875,0.7753202101001877
1780422201.429156,-0.1318359375,-0.19873046875,0.9687499403953552,0.9976727723267298,0.2346038818359375,-0.4482269287109375,0.2117156982421875,0.5484249245578718
1780422201.439827,-0.1176757737994194,-0.21826171875,0.9614257216453552,0.9928872966516835,-0.00762939453125,-0.324249267578125,0.2117156982421875,0.38732329140918054
1780422201.450498,-0.1235351487994194,-0.2041015625,0.9589843153953552,0.9882152083317349,0.17547607421875,-0.38909912109375,-0.0934600830078125,0.43694938582744364
1780422201.461185,-0.1215820237994194,-0.20263671875,0.9545897841453552,0.9834050458949278,0.2346038818359375,-0.6313323974609375,-0.1544952392578125,0.6910053229965702
1780422201.471877,-0.1201171875,-0.1972656100988388,0.9663085341453552,0.9935260654973892,0.17547607421875,-0.324249267578125,-0.6427764892578125,0.741006784915478
1780422201.482568,-0.1176757737994194,-0.205078125,0.9555663466453552,0.9843839027198479,0.2346038818359375,-0.4482269287109375,-0.1544952392578125,0.5289755570415887
1780422201.493235,-0.1181640550494194,-0.2021484375,0.9643554091453552,0.9923749744110434,-0.0705718994140625,-0.2651214599609375,-0.7038116455078125,0.7553943432877573
1780422201.503903,-0.1225585862994194,-0.20263671875,0.9672850966453552,0.9958527526967493,0.1125335693359375,-0.0209808349609375,-0.5817413330078125,0.5928971059069617
1780422201.514573,-0.1279296875,-0.21337890625,0.9648436903953552,0.9964034872841534,0.0553131103515625,-0.0209808349609375,-0.4596710205078125,0.4634621696612529
1780422201.522563,-0.1279296875,-0.18994140625,0.9589843153953552,0.9859486091710731,0.1735687255859375,-0.2040863037109375,-0.5207061767578125,0.5855870937594662
1780422201.530554,-0.1171874925494194,-0.20654296875,0.9604491591453552,0.9893712617885682,0.17547607421875,0.03814697265625,-0.3986358642578125,0.4372157321261828
1780422201.538545,-0.1069335862994194,-0.20458984375,0.9667968153953552,0.9939757936203001,0.2346038818359375,-0.2040863037109375,-0.5207061767578125,0.6064858805022767
1780422201.546536,-0.1313476413488388,-0.2060546875,0.9755858778953552,1.005722895373013,0.2956390380859375,-0.0820159912109375,-0.2765655517578125,0.4130587949357745
1780422201.557204,-0.12939453125,-0.2080078125,0.9711913466453552,1.0016101170501728,0.48065185546875,0.22125244140625,-0.2155303955078125,0.5713424545590257
1780422201.567873,-0.123046875,-0.2109375,0.9633788466453552,0.9938480590700223,0.17547607421875,0.03814697265625,0.0286102294921875,0.18183946045250074
1780422201.578543,-0.14306640625,-0.2060546875,0.9560546278953552,0.9884164012996439,0.11444091796875,0.34332275390625,0.2117156982421875,0.4192741035855645
1780422201.587994,-0.125,-0.2099609375,0.9736327528953552,1.003827342119384,-0.31280517578125,0.03814697265625,-0.0934600830078125,0.32868990954120053
1780422201.597447,-0.1191406175494194,-0.19921875,0.9560546278953552,0.983830802842514,-0.12969970703125,-0.324249267578125,0.0286102294921875,0.35039712721501903
1780422201.606899,-0.1123046800494194,-0.19873046875,0.9619140028953552,0.9886276798354184,-0.5588531494140625,-0.3261566162109375,-0.0934600830078125,0.6537811315906972
1780422201.616353,-0.1206054612994194,-0.20703125,0.9594725966453552,0.9889364385465775,-0.1926422119140625,-0.2040863037109375,-0.2155303955078125,0.35385815316492236
1780422201.62482,-0.1201171875,-0.2099609375,0.9550780653953552,0.9852339037041526,-0.43487548828125,0.03814697265625,0.0896453857421875,0.44565477335663967
1780422201.633289,-0.1220703050494194,-0.1982421875,0.9628905653953552,0.9906358388464604,0.05340576171875,-0.14495849609375,-0.0934600830078125,0.18055450171720683
1780422201.641757,-0.12939453125,-0.1865234375,0.9619140028953552,0.9883382449447098,-0.1926422119140625,-0.2040863037109375,-0.3376007080078125,0.43901762973815966
1780422201.650225,-0.119140625,-0.2197265625,0.9628905653953552,0.994802740105215,0.1125335693359375,-0.0209808349609375,-0.0324249267578125,0.11897636546135479
1780422201.658693,-0.1201171875,-0.2119140475988388,0.9736327528953552,1.003641589320222,-0.1926422119140625,-0.0209808349609375,-0.2155303955078125,0.2898354164600226
1780422201.668278,-0.1162109225988388,-0.20654296875,0.9653319716453552,0.993997380254116,0.1735687255859375,-0.2040863037109375,-0.0934600830078125,0.28374655765268186
1780422201.677863,-0.12744140625,-0.208984375,0.9584960341453552,0.9892575137412362,-0.1926422119140625,0.1621246337890625,-0.2765655517578125,0.3740105922450372
1780422201.687448,-0.1020507737994194,-0.21044921875,0.9570311903953552,0.9851963933628138,-0.2536773681640625,-0.0820159912109375,-0.3986358642578125,0.47957208238754995
1780422201.697033,-0.119140625,-0.21484375,0.9599608778953552,0.9908971755581273,0.05340576171875,0.22125244140625,-0.0324249267578125,0.22990475003408584
1780422201.706618,-0.1157226487994194,-0.19873046875,0.9575194716453552,0.9847482263171377,-0.12969970703125,0.22125244140625,-0.0934600830078125,0.27296418070517126
1780422201.714665,-0.1220703050494194,-0.1982421875,0.9555663466453552,0.9835182596783827,-0.0095367431640625,-0.0209808349609375,0.0286102294921875,0.03673812920428891
1780422201.722714,-0.13232421875,-0.19580078125,0.9628905653953552,0.9914665328357256,-0.1926422119140625,0.1621246337890625,-0.3376007080078125,0.42115277125973716
1780422201.730762,-0.13330078125,-0.20361328125,0.9648436903953552,0.9950632208452788,-0.0705718994140625,-0.0209808349609375,0.0896453857421875,0.1160038085902021
1780422201.73881,-0.125,-0.22900390625,0.9721679091453552,1.0065675499686102,-0.2536773681640625,0.2841949462890625,-0.2155303955078125,0.4376897599929001
1780422201.747009,-0.13232421875,-0.21337890625,0.9584960341453552,0.9908354575673087,-0.2536773681640625,0.1010894775390625,0.2727508544921875,0.385958959235285
1780422201.755208,-0.12890625,-0.2177734375,0.9614257216453552,0.9941737823996974,-0.31280517578125,0.03814697265625,0.1506805419921875,0.3492948543185754
1780422201.763407,-0.11767578125,-0.2109375,0.9589843153953552,0.9889353545977341,-0.0705718994140625,0.2231597900390625,-0.0324249267578125,0.236288088469217
1780422201.771605,-0.1225585862994194,-0.21044921875,0.9633788466453552,0.9936841967707509,-0.2536773681640625,0.1621246337890625,-0.2155303955078125,0.3702566074868037
1780422201.781912,-0.12890625,-0.20166015625,0.9667968153953552,0.9959817880696602,-0.3757476806640625,-0.2040863037109375,-0.1544952392578125,0.4546496649510962
1780422201.792217,-0.1259765475988388,-0.20166015625,0.9638671278953552,0.9927621816935503,-0.19073486328125,0.03814697265625,-0.3986358642578125,0.44356006568031675
1780422201.802524,-0.12451171875,-0.2041015625,0.9628905653953552,0.9921284477568453,0.2346038818359375,-0.2040863037109375,-0.3376007080078125,0.45898195910325257
1780422201.8132,-0.1298828125,-0.1982421875,0.9589843153953552,0.9878362349407889,-0.00762939453125,-0.08392333984375,-0.2155303955078125,0.2314188540702704
1780422201.823878,-0.1357421875,-0.21337890625,0.9667968153953552,0.9993260635840197,-0.0705718994140625,-0.3871917724609375,-0.5207061767578125,0.6527118691751279
1780422201.834556,-0.12744140625,-0.20556640625,0.9770507216453552,1.00654208658815,-0.2536773681640625,-0.3871917724609375,-0.3986358642578125,0.6108847911453197
1780422201.845287,-0.13671875,-0.208984375,0.9418944716453552,0.9744391624477056,0.3604888916015625,-0.2040863037109375,-0.2155303955078125,0.46696553589988865
1780422201.856018,-0.1240234300494194,-0.1982421875,0.9541015028953552,0.9823397853763146,0.05340576171875,-0.08392333984375,0.2727508544921875,0.290324527006431
1780422201.866749,-0.12451171875,-0.20654296875,0.9521483778953552,0.9822167273951807,0.17547607421875,-0.38909912109375,-0.0324249267578125,0.42806699771694906
1780422201.874769,-0.1220703050494194,-0.20361328125,0.9648436903953552,0.9936210920526888,0.29754638671875,-0.63323974609375,0.2727508544921875,0.7509457083627813
1780422201.88279,-0.1162109300494194,-0.19970703125,0.9555663466453552,0.983104735740191,0.17547607421875,-0.019073486328125,0.1506805419921875,0.2320781683808126
1780422201.890811,-0.1235351487994194,-0.20751953125,0.9565429091453552,0.9865594892733908,0.29754638671875,-0.14495849609375,-0.0324249267578125,0.33256306727355517
1780422201.898832,-0.1201171800494194,-0.20263671875,0.9697265028953552,0.9979274859159089,0.29754638671875,-0.26702880859375,0.3948211669921875,0.5618914403810172
1780422201.9094,-0.1171874925494194,-0.19970703125,0.9653319716453552,0.9927142701812126,0.2346038818359375,-0.5092620849609375,0.3337860107421875,0.6525334884267897
1780422201.91997,-0.1279296875,-0.208984375,0.9531249403953552,0.9841176890705896,-0.1926422119140625,-0.5702972412109375,-0.2155303955078125,0.6393772880949893
1780422201.930538,-0.126953125,-0.2177734375,0.9462890028953552,0.9792881307503516,-0.31280517578125,0.164031982421875,-0.2155303955078125,0.4137715802717039
1780422201.938529,-0.12646484375,-0.19970703125,0.9594725966453552,0.9881618889376279,-0.7419586181640625,0.1621246337890625,-0.2765655517578125,0.8082545962555772
1780422201.946523,-0.1166992112994194,-0.19873046875,0.9560546278953552,0.9834393507723937,-0.61798095703125,0.03814697265625,-0.8258819580078125,1.0321999144249696
1780422201.954515,-0.1201171875,-0.205078125,0.9707030653953552,0.9993746130727782,-0.7419586181640625,0.1010894775390625,-0.4596710205078125,0.8786461862614209
1780422201.962508,-0.126953125,-0.201171875,0.9609374403953552,0.9899434244399313,-0.61798095703125,-0.14495849609375,-0.5817413330078125,0.8610089473244329
1780422201.97318,-0.1259765475988388,-0.2158203125,0.9648436903953552,0.9966804125336507,-0.61798095703125,-0.38909912109375,-0.0934600830078125,0.7362291602517627
1780422201.98385,-0.1069335788488388,-0.20654296875,0.9599608778953552,0.9877346178580082,-0.61798095703125,-0.57220458984375,0.0896453857421875,0.8469680342707034
1780422201.994522,-0.1171874925494194,-0.205078125,0.9648436903953552,0.9933344314274342,-0.5588531494140625,-0.2040863037109375,-0.0324249267578125,0.595835076046769
1780422202.005214,-0.1337890625,-0.21337890625,0.9531249403953552,0.9858383350634751,-0.0705718994140625,-0.4482269287109375,0.3948211669921875,0.6014744604001248
1780422202.015907,-0.1137695237994194,-0.21337890625,0.9619140028953552,0.9918430375539057,-0.49591064453125,-0.26702880859375,0.5168914794921875,0.7644661886244675
1780422202.026599,-0.11962890625,-0.2041015625,0.9682616591453552,0.996744281948198,-0.19073486328125,-0.14495849609375,0.5168914794921875,0.5697100624285141
1780422202.037294,-0.14111328125,-0.2138671875,0.9702147841453552,1.0034783801400606,0.11444091796875,0.03814697265625,0.5168914794921875,0.5307812325242758
1780422202.04799,-0.1137695237994194,-0.21240234375,0.9565429091453552,0.986424146709872,0.17547607421875,-0.019073486328125,0.7610321044921875,0.7812333291480473
1780422202.058686,-0.1206054612994194,-0.19873046875,0.9580077528953552,0.98580846573381,0.2956390380859375,-0.2040863037109375,0.1506805419921875,0.389561658711212
1780422202.066874,-0.1240234375,-0.20068359375,0.9541015028953552,0.9828353858489768,0.05340576171875,-0.08392333984375,0.2727508544921875,0.290324527006431
1780422202.07506,-0.1186523362994194,-0.2021484375,0.9614257216453552,0.989586674290986,0.48065185546875,0.03814697265625,0.2727508544921875,0.5539624773525796
1780422202.083248,-0.1166992112994194,-0.20849609375,0.9614257216453552,0.9906708561718203,0.2346038818359375,-0.3261566162109375,0.0286102294921875,0.4027848866358505
1780422202.091434,-0.1157226487994194,-0.20849609375,0.9692382216453552,0.9981408131383133,0.2346038818359375,-0.0209808349609375,-0.0324249267578125,0.23776154584666992
1780422202.101815,-0.1118163987994194,-0.2041015625,0.9628905653953552,0.9906152612305138,0.1125335693359375,0.1621246337890625,0.0286102294921875,0.19941601324948685
1780422202.112195,-0.1210937350988388,-0.20166015625,0.9555663466453552,0.9840922487958704,0.11444091796875,0.03814697265625,0.0896453857421875,0.1502937470862725
1780422202.122575,-0.13427734375,-0.20263671875,0.9663085341453552,0.9964156903584304,0.11444091796875,0.03814697265625,0.2117156982421875,0.24367078632971956
1780422202.133337,-0.1210937425494194,-0.216796875,0.9677733778953552,0.9991245620328711,0.2346038818359375,-0.4482269287109375,0.2117156982421875,0.5484249245578718
1780422202.144099,-0.1181640625,-0.19677734375,0.9511718153953552,0.9784742669494714,0.17547607421875,-0.324249267578125,0.5168914794921875,0.6349064826569322
1780422202.154863,-0.13232421875,-0.20068359375,0.9672850966453552,0.9967066077138382,-0.0705718994140625,-0.2651214599609375,0.2117156982421875,0.3465448288474444
1780422202.162842,-0.12646484375,-0.19921875,0.9653319716453552,0.9937541358590581,0.0553131103515625,-0.0209808349609375,0.3337860107421875,0.33898795934310993
1780422202.170821,-0.12451171875,-0.21533203125,0.9633788466453552,0.9949722880322169,0.5435943603515625,-0.0209808349609375,0.3337860107421875,0.6382382979803595
1780422202.1788,-0.13037109375,-0.2119140625,0.9648436903953552,0.9964073157431921,0.2346038818359375,0.0400543212890625,0.3948211669921875,0.4610065985769518
1780422202.186779,-0.1201171875,-0.1962890625,0.9638671278953552,0.99095780688548,0.2956390380859375,0.2841949462890625,0.0896453857421875,0.4197683927137525
1780422202.197386,-0.1298828125,-0.203125,0.9682616591453552,0.9978276159632115,0.29754638671875,-0.14495849609375,0.2117156982421875,0.39289992965298765
1780422202.207993,-0.123046875,-0.1962890625,0.9711913466453552,0.9984400639513686,0.0553131103515625,-0.2040863037109375,0.0286102294921875,0.21337597046235732
1780422202.2186,-0.12841796875,-0.20068359375,0.9565429091453552,0.9857684396117327,0.11444091796875,-0.45013427734375,-0.1544952392578125,0.48947560746030944
1780422202.229248,-0.1201171875,-0.1953125,0.9560546278953552,0.9831660912121035,0.35858154296875,-0.38909912109375,0.0896453857421875,0.5366704241698473
1780422202.239897,-0.12451171875,-0.20458984375,0.9575194716453552,0.9870175838614673,0.17547607421875,-0.38909912109375,0.0896453857421875,0.43614937102329815
1780422202.250546,-0.1337890625,-0.20751953125,0.9477538466453552,0.9793881880673854,-0.19073486328125,-0.26702880859375,0.1506805419921875,0.3610938914257261
1780422202.261193,-0.126953125,-0.19384765625,0.9584960341453552,0.9861078324672499,0.11444091796875,-0.14495849609375,-0.0324249267578125,0.18751284001513444
1780422202.271842,-0.12451171875,-0.19970703125,0.9628905653953552,0.9912337299366656,-0.0705718994140625,-0.2040863037109375,-0.0324249267578125,0.21836434742088984
1780422202.282491,-0.11962890625,-0.20458984375,0.9521483778953552,0.9812005976888604,0.2956390380859375,0.1621246337890625,0.0286102294921875,0.33838644026203485
1780422202.290529,-0.1083984300494194,-0.20703125,0.9707030653953552,0.9984370782786868,0.1125335693359375,-0.2651214599609375,0.1506805419921875,0.32505048607003284
1780422202.298568,-0.1166992112994194,-0.19873046875,0.9560546278953552,0.9834393507723937,0.1125335693359375,-0.2040863037109375,0.1506805419921875,0.27752414187767277
1780422202.306607,-0.1259765625,-0.205078125,0.9609374403953552,0.990619955384712,0.1125335693359375,0.1621246337890625,-0.0324249267578125,0.19999894245713748
1780422202.314646,-0.1113281175494194,-0.205078125,0.9638671278953552,0.9917110604141984,-0.00762939453125,0.22125244140625,-0.0934600830078125,0.24030322013024868
1780422202.32527,-0.1220703050494194,-0.1962890625,0.9682616591453552,0.9954703390874603,0.1125335693359375,-0.0209808349609375,-0.3986358642578125,0.4147463706118686
1780422202.335896,-0.1191406175494194,-0.20751953125,0.9589843153953552,0.9883874542782172,-0.06866455078125,0.03814697265625,-0.0934600830078125,0.12208521275181015
1780422202.346521,-0.11865234375,-0.2099609375,0.9526366591453552,0.9826894617837676,-0.12969970703125,0.22125244140625,-0.1544952392578125,0.29940513653834816
1780422202.357196,-0.1240234375,-0.18017578125,0.9584960341453552,0.9831377180592443,-0.0095367431640625,-0.0209808349609375,0.0286102294921875,0.03673812920428891
1780422202.367869,-0.130859375,-0.2099609375,0.9589843153953552,0.9903831018729912,-0.12969970703125,-0.14495849609375,-0.3376007080078125,0.3896270237562201
1780422202.378541,-0.12646484375,-0.2001953125,0.9492186903953552,0.9783085617777031,-0.12969970703125,0.22125244140625,-0.1544952392578125,0.29940513653834816
1780422202.386539,-0.1093749925494194,-0.20361328125,0.9677733778953552,0.994990737775766,0.1125335693359375,-0.2651214599609375,-0.3376007080078125,0.44376506262512544
1780422202.394537,-0.1088867112994194,-0.21337890625,0.9677733778953552,0.9969815366861291,0.35858154296875,-0.14495849609375,-0.2765655517578125,0.4754810122041831
1780422202.402535,-0.1118163987994194,-0.2119140625,0.9497069716453552,0.9794660835973424,0.35858154296875,-0.507354736328125,-0.3986358642578125,0.7381734916027558
1780422202.410533,-0.1201171875,-0.1953125,0.9594725966453552,0.9864901292473943,0.05340576171875,-0.324249267578125,-0.4596710205078125,0.5650550504193411
1780422202.421171,-0.1108398362994194,-0.19921875,0.9736327528953552,0.9999671580472193,-0.0705718994140625,-0.0820159912109375,-0.1544952392578125,0.1886154679620679
1780422202.431811,-0.12890625,-0.2119140625,0.9638671278953552,0.9952709336716096,0.2346038818359375,-0.0209808349609375,-0.0934600830078125,0.25340474329415347
1780422202.44245,-0.1181640625,-0.201171875,0.9570311903953552,0.985059169972581,0.1125335693359375,-0.0820159912109375,-0.5207061767578125,0.5390040348230587
1780422202.453147,-0.1279296875,-0.2060546875,0.9604491591453552,0.9905993773910774,0.4177093505859375,0.1621246337890625,-0.5207061767578125,0.6869500862230833
1780422202.463844,-0.142578125,-0.20703125,0.9545897841453552,0.9871332818823171,0.4787445068359375,0.2841949462890625,0.2727508544921875,0.6199645949149407
1780422202.47454,-0.1201171875,-0.20556640625,0.9628905653953552,0.9918890699260866,0.1735687255859375,-0.2040863037109375,0.2727508544921875,0.38232231231009517
1780422202.485197,-0.1206054612994194,-0.19921875,0.9580077528953552,0.9859070150143046,0.2956390380859375,0.1621246337890625,0.0286102294921875,0.33838644026203485
1780422202.495852,-0.1240234300494194,-0.212890625,0.9619140028953552,0.9929666552207477,0.7839202880859375,0.1621246337890625,0.1506805419921875,0.814567394810912
1780422202.506506,-0.12744140625,-0.2001953125,0.9609374403953552,0.9898081831989101,0.48065185546875,-0.08392333984375,0.1506805419921875,0.5106603165227753
1780422202.514513,-0.1142578125,-0.1943359375,0.9536132216453552,0.9798976889543737,0.4177093505859375,-0.5702972412109375,0.0896453857421875,0.7125702351941158
1780422202.522521,-0.11962890625,-0.21142578125,0.9638671278953552,0.9940079357957788,0.2956390380859375,-0.0820159912109375,-0.0324249267578125,0.3085132728586251
1780422202.530529,-0.1166992038488388,-0.1962890625,0.9658202528953552,0.9924499287817646,0.0553131103515625,0.4673004150390625,-0.1544952392578125,0.4952756778055762
1780422202.538537,-0.1206054612994194,-0.19921875,0.9541015028953552,0.9821117377742635,-0.12969970703125,0.09918212890625,-0.3376007080078125,0.37501112882919135
1780422202.546535,-0.1137695237994194,-0.197265625,0.9541015028953552,0.9809010700266173,-0.1926422119140625,0.1621246337890625,-0.1544952392578125,0.2954051415356695
1780422202.554533,-0.138671875,-0.2021484375,0.9638671278953552,0.9945520197239298,-0.12969970703125,0.22125244140625,-0.5207061767578125,0.5804391263052108
1780422202.562531,-0.1210937350988388,-0.20068359375,0.9599608778953552,0.988161163257403,-0.49591064453125,0.03814697265625,-0.1544952392578125,0.5208179507616507
1780422202.578549,-0.12744140625,-0.20654296875,0.9692382216453552,0.9991616687329893,-0.31280517578125,-0.45013427734375,-0.3376007080078125,0.6437718413247779
1780422202.586573,-0.1259765625,-0.208984375,0.9628905653953552,0.9933291520039286,-0.49591064453125,-0.324249267578125,0.5168914794921875,0.7862835089558808
1780422202.594596,-0.12744140625,-0.21435546875,0.9638671278953552,0.9956050518389563,-0.61798095703125,-0.63323974609375,0.3337860107421875,0.9456776090472484
1780422202.602619,-0.12548828125,-0.2080078125,0.9741210341453552,1.0039553515752235,-0.2536773681640625,-0.4482269287109375,0.5779266357421875,0.7741180678944061
1780422202.613405,-0.1240234300494194,-0.19921875,0.9624022841453552,0.9905998577028884,-0.12969970703125,-0.14495849609375,0.5779266357421875,0.6097820724603479
1780422202.624191,-0.1201171800494194,-0.212890625,0.9526366591453552,0.9834974120471995,0.2346038818359375,0.0400543212890625,0.6389617919921875,0.681847124839788
1780422202.634977,-0.1220703050494194,-0.20556640625,0.9731444716453552,1.002082266806132,0.0553131103515625,0.1010894775390625,0.4558563232421875,0.4701952893062312
1780422202.6455,-0.1298828125,-0.20751953125,0.9624022841453552,0.9930518905683262,0.2346038818359375,-0.2040863037109375,0.6999969482421875,0.7659542599158642
1780422202.656025,-0.1235351487994194,-0.19921875,0.9692382216453552,0.9971819160206967,0.2346038818359375,-0.0209808349609375,0.6999969482421875,0.738562728789183
1780422202.666549,-0.10546875,-0.19091796875,0.9638671278953552,0.9882374048048523,0.2956390380859375,-0.0209808349609375,0.8220672607421875,0.8738633860393741
1780422202.677211,-0.1230468675494194,-0.19921875,0.9541015028953552,0.9824145356174563,0.4177093505859375,-0.0820159912109375,0.5168914794921875,0.6696152073787308
1780422202.687872,-0.1328125,-0.21044921875,0.9628905653953552,0.9945281668993202,0.66375732421875,-0.26702880859375,0.5779266357421875,0.9197159161248192
1780422202.698535,-0.125,-0.1943359375,0.9667968153953552,0.9940259246431173,0.0553131103515625,0.1010894775390625,0.3337860107421875,0.35311715281626926
1780422202.706651,-0.1171874925494194,-0.20751953125,0.9580077528953552,0.9872062190180164,0.2956390380859375,0.2841949462890625,0.0896453857421875,0.4197683927137525
1780422202.714768,-0.1230468675494194,-0.19970703125,0.9711913466453552,0.9991176415934369,0.0553131103515625,-0.0209808349609375,0.2727508544921875,0.27909275203530576
1780422202.722885,-0.1113281175494194,-0.2138671875,0.9775390028953552,1.0068344580058346,0.2346038818359375,0.0400543212890625,0.4558563232421875,0.5142453864317148
1780422202.731002,-0.13671875,-0.19970703125,0.9667968153953552,0.99662981953725,0.1125335693359375,0.1621246337890625,0.5168914794921875,0.5532856429371237
1780422202.738877,-0.1240234375,-0.20654296875,0.9536132216453552,0.9835751051578183,0.1125335693359375,-0.3261566162109375,0.5168914794921875,0.6214649982881397
1780422202.746752,-0.12353515625,-0.20166015625,0.9570311903953552,0.9858176569924263,0.48065185546875,-0.14495849609375,0.3337860107421875,0.602870029709968
1780422202.754627,-0.1157226487994194,-0.21337890625,0.9614257216453552,0.9915955361531696,0.17547607421875,-0.26702880859375,0.5168914794921875,0.6076784008123411
1780422202.762502,-0.13232421875,-0.205078125,0.9541015028953552,0.9848230369200799,0.11444091796875,-0.14495849609375,0.5168914794921875,0.5488957012647434
1780422202.773193,-0.1201171875,-0.205078125,0.9624022841453552,0.9913139425099512,0.2346038818359375,0.2841949462890625,0.5168914794921875,0.6348090661296167
1780422202.783884,-0.1362304538488388,-0.2060546875,0.9565429091453552,0.9879228754476953,0.2346038818359375,0.0400543212890625,0.5168914794921875,0.5690519586101435
1780422202.794574,-0.1249999925494194,-0.19775390625,0.9536132216453552,0.9818909216768031,-0.00762939453125,-0.08392333984375,0.6999969482421875,0.705051106076587
1780422202.805223,-0.1162109225988388,-0.20166015625,0.9624022841453552,0.9901464304224122,0.1125335693359375,-0.0820159912109375,0.5168914794921875,0.5353197442775872
1780422202.815871,-0.12939453125,-0.21875,0.9628905653953552,0.9958678366855684,-0.0705718994140625,-0.2040863037109375,0.5779266357421875,0.6169528415118815
1780422202.826519,-0.1079101487994194,-0.20556640625,0.9511718153953552,0.9790965069874106,-0.06866455078125,-0.14495849609375,0.4558563232421875,0.4832522876962284
1780422202.837267,-0.1225585862994194,-0.20849609375,0.9550780653953552,0.9852234970726467,0.1125335693359375,-0.2040863037109375,0.4558563232421875,0.5119765727352815
1780422202.848017,-0.1206054538488388,-0.19677734375,0.9643554091453552,0.9915888027097197,0.17547607421875,-0.14495849609375,0.5779266357421875,0.6211312377535597
1780422202.858766,-0.10888671875,-0.19091796875,0.9682616591453552,0.9928930601442855,0.17547607421875,-0.26702880859375,0.3337860107421875,0.4620707069371586
1780422202.866714,-0.125,-0.19873046875,0.9604491591453552,0.9887271547361358,0.0553131103515625,-0.0209808349609375,0.4558563232421875,0.4596789347493617
1780422202.87466,-0.1064452975988388,-0.19677734375,0.9599608778953552,0.9856859598694871,0.05340576171875,-0.08392333984375,0.5168914794921875,0.5263763899786084
1780422202.882608,-0.1303710788488388,-0.21484375,0.9575194716453552,0.9899484803232302,-0.0705718994140625,-0.0209808349609375,0.3948211669921875,0.4016271185162171
1780422202.890555,-0.12646484375,-0.20361328125,0.9658202528953552,0.9951183275917249,-0.19073486328125,-0.26702880859375,0.4558563232421875,0.5616842174476692
1780422202.901209,-0.1215820237994194,-0.21044921875,0.9638671278953552,0.9940376765600432,-0.00762939453125,-0.26702880859375,0.2727508544921875,0.3817795449027219
1780422202.911863,-0.1308593600988388,-0.21044921875,0.9550780653953552,0.9867052025794215,0.2956390380859375,0.1010894775390625,0.5168914794921875,0.6039853681018452
1780422202.922517,-0.13037109375,-0.2021484375,0.9653319716453552,0.9948499526812934,-0.12969970703125,0.03814697265625,0.2727508544921875,0.30441786109400215
1780422202.933208,-0.1279296875,-0.2041015625,0.9541015028953552,0.984039191590439,0.17547607421875,0.164031982421875,0.4558563232421875,0.5152701537255582
1780422202.9439,-0.1303710788488388,-0.21142578125,0.9707030653953552,1.0019790019483055,0.17547607421875,-0.08392333984375,0.6389617919921875,0.6679125326115848
1780422202.954591,-0.126953125,-0.20751953125,0.9492186903953552,0.9798967159825359,0.1125335693359375,-0.2040863037109375,0.7610321044921875,0.7959176387401444
1780422202.965231,-0.12744140625,-0.20263671875,0.9643554091453552,0.9936218128446304,0.54168701171875,0.164031982421875,0.8831024169921875,1.0489047567913319
1780422202.975873,-0.13037109375,-0.2041015625,0.9506835341453552,0.9810470182389912,0.1125335693359375,0.1010894775390625,0.8831024169921875,0.8959647122482282
1780422202.986515,-0.1171874925494194,-0.1884765625,0.9677733778953552,0.9928955806049409,-0.0705718994140625,-0.0820159912109375,0.5779266357421875,0.5879678665552261
1780422202.994513,-0.1210937425494194,-0.20703125,0.9555663466453552,0.985206920297629,-0.00762939453125,-0.14495849609375,0.4558563232421875,0.4784100340613279
1780422203.002511,-0.1308593600988388,-0.20166015625,0.9707030653953552,1.0000277155720192,-0.12969970703125,-0.507354736328125,0.6389617919921875,0.8261374063098952
1780422203.010509,-0.1215820163488388,-0.2109375,0.9541015028953552,0.9846758316486065,0.2956390380859375,-0.3261566162109375,0.5168914794921875,0.6789384218838772
1780422203.018507,-0.1230468675494194,-0.2080078125,0.9604491591453552,0.99038899881702,0.05340576171875,-0.57220458984375,0.5168914794921875,0.7729470030957081
1780422203.029182,-0.13037109375,-0.20849609375,0.9589843153953552,0.9900091718609875,-0.31280517578125,-0.45013427734375,0.8831024169921875,1.0393930077370936
1780422203.039857,-0.1254882663488388,-0.20556640625,0.9594725966453552,0.9892383515023857,0.1125335693359375,-0.5092620849609375,0.7610321044921875,0.9225950029531134
1780422203.050532,-0.12744140625,-0.20654296875,0.9609374403953552,0.9911115347530861,-0.00762939453125,-0.57220458984375,0.8831024169921875,1.0523051739854798
1780422203.060115,-0.1259765475988388,-0.2109375,0.9560546278953552,0.9871196335659111,0.1125335693359375,-0.2651214599609375,1.1882781982421875,1.2226848609421008
1780422203.069701,-0.1220703050494194,-0.20263671875,0.9541015028953552,0.9829915955835026,-0.12969970703125,0.03814697265625,1.1272430419921875,1.1353211357350084
1780422203.079286,-0.12744140625,-0.20849609375,0.9663085341453552,0.996726700905585,0.2346038818359375,-0.0209808349609375,1.3103485107421875,1.3313498399791157
1780422203.088871,-0.13134765625,-0.2041015625,0.9658202528953552,0.9958505989957316,-0.0705718994140625,-0.5092620849609375,1.0662078857421875,1.1836923247974938
1780422203.098456,-0.1176757737994194,-0.2021484375,0.9672850966453552,0.9951643264884437,-0.0705718994140625,-0.3261566162109375,1.2493133544921875,1.2931134478450061
1780422203.108081,-0.1235351487994194,-0.18896484375,0.9653319716453552,0.9913800788007925,-0.12969970703125,-0.26702880859375,1.0662078857421875,1.1067635945592966
1780422203.117707,-0.12890625,-0.20361328125,0.9526366591453552,0.9826453042365174,0.0553131103515625,-0.0209808349609375,1.1272430419921875,1.1287943175495803
1780422203.127335,-0.126953125,-0.203125,0.9565429091453552,0.9860786979792865,0.4177093505859375,0.2231597900390625,1.1882781982421875,1.279174135868492
1780422203.136961,-0.1132812425494194,-0.20849609375,0.9663085341453552,0.9950152984676639,0.17547607421875,-0.08392333984375,1.0662078857421875,1.0838054415865328
1780422203.146589,-0.1176757737994194,-0.2021484375,0.9575194716453552,0.9856749550957373,0.11444091796875,-0.14495849609375,1.0051727294921875,1.0219989752490295
1780422203.156183,-0.1123046800494194,-0.18994140625,0.9628905653953552,0.9878503529870386,-0.1277923583984375,0.2841949462890625,0.8831024169921875,0.9364654469112682
1780422203.165778,-0.1176757737994194,-0.19580078125,0.9555663466453552,0.9824930414606271,-0.5588531494140625,0.5893707275390625,0.6389617919921875,1.0334151482902734
1780422203.175373,-0.1220703050494194,-0.21435546875,0.9482421278953552,0.9798023063217405,-0.4978179931640625,0.2841949462890625,0.6389617919921875,0.8584064849708472
1780422203.184968,-0.1142578050494194,-0.1982421875,0.9462890028953552,0.9735592883436436,-0.80108642578125,0.164031982421875,0.8220672607421875,1.1595001224719177
1780422203.194563,-0.13623046875,-0.20703125,0.9638671278953552,0.9952188298709226,-0.8640289306640625,-0.0209808349609375,0.8831024169921875,1.2356601747072635
1780422203.202559,-0.12744140625,-0.193359375,0.9501952528953552,0.9780082712084986,-1.04522705078125,-0.14495849609375,0.5168914794921875,1.1750273847218429
1780422203.210553,-0.126953125,-0.2158203125,0.9648436903953552,0.9968043188763738,-0.7419586181640625,-0.0820159912109375,0.5779266357421875,0.9440489448023978
1780422203.218547,-0.1303710788488388,-0.21484375,0.9760741591453552,1.0079063544127425,-0.55694580078125,-0.14495849609375,0.7610321044921875,0.9541338766994061
1780422203.226541,-0.12744140625,-0.19970703125,0.9575194716453552,0.9863912757814042,-0.80108642578125,-0.20599365234375,0.9441375732421875,1.2552165564493414
1780422203.237187,-0.1352538913488388,-0.20068359375,0.9755858778953552,1.0051543787271036,-0.61798095703125,0.03814697265625,0.7610321044921875,0.9810838490383501
1780422203.247833,-0.1142578050494194,-0.216796875,0.9653319716453552,0.995952582458214,-0.49591064453125,-0.14495849609375,1.0662078857421875,1.1847951673466546
1780422203.258479,-0.1245117112994194,-0.21337890625,0.9619140028953552,0.9931325555278719,-0.3757476806640625,-0.0820159912109375,0.6999969482421875,0.7986918491427784
1780422203.266516,-0.13818359375,-0.2119140625,0.9550780653953552,0.9880163897761278,-0.3757476806640625,-0.3261566162109375,0.8831024169921875,1.0136243568107637
1780422203.274555,-0.1328125,-0.2080078125,0.9604491591453552,0.9916496344578084,-0.31280517578125,-0.019073486328125,0.9441375732421875,0.9947897431537455
1780422203.282593,-0.125,-0.2138671875,0.9697265028953552,1.0008664567797323,-0.00762939453125,-0.08392333984375,0.9441375732421875,0.94789086494126
1780422203.290631,-0.13427734375,-0.212890625,0.9628905653953552,0.9952442233868193,0.17547607421875,-0.324249267578125,1.0662078857421875,1.1281527803303062
1780422203.298584,-0.1225585862994194,-0.20361328125,0.9560546278953552,0.985149443940984,0.2956390380859375,-0.3871917724609375,1.1882781982421875,1.2842604821139363
1780422203.306539,-0.1166992112994194,-0.20361328125,0.9550780653953552,0.9834892908510151,0.2346038818359375,-0.2040863037109375,1.0051727294921875,1.0521703364235555
1780422203.314493,-0.126953125,-0.22119140625,0.9711913466453552,1.0041191990719711,0.05340576171875,-0.14495849609375,0.8220672607421875,0.8364566469092617
1780422203.322447,-0.1313476413488388,-0.20166015625,0.9560546278953552,0.9858800500196785,-0.00762939453125,-0.14495849609375,1.1882781982421875,1.1971116279062595
1780422203.33452,-0.13330078125,-0.201171875,0.9707030653953552,1.000251799668871,-0.00762939453125,-0.08392333984375,0.9441375732421875,0.94789086494126
1780422203.346592,-0.1303710788488388,-0.20166015625,0.9672850966453552,0.9966463239340216,0.17547607421875,0.22125244140625,0.8220672607421875,0.8692175082426803
1780422203.358665,-0.1357421875,-0.20849609375,0.9521483778953552,0.9841153875969272,0.1125335693359375,0.1010894775390625,0.8831024169921875,0.8959647122482282
1780422203.370739,-0.1318359375,-0.19384765625,0.9716796278953552,0.9995593666796275,-0.2536773681640625,-0.3261566162109375,0.7610321044921875,0.8659677877869487
1780422203.381318,-0.12548828125,-0.20751953125,0.9594725966453552,0.9896460621326593,-0.1926422119140625,-0.5092620849609375,1.0662078857421875,1.1971875995886063
1780422203.391899,-0.125,-0.20458984375,0.9653319716453552,0.9946596501549454,-0.00762939453125,-0.45013427734375,0.7610321044921875,0.8842222228424828
1780422203.40248,-0.13330078125,-0.205078125,0.9599608778953552,0.9906316281670988,-0.1926422119140625,-0.3871917724609375,1.0051727294921875,1.0942580621532378
1780422203.410536,-0.1240234300494194,-0.19287109375,0.9736327528953552,1.0002708670735805,0.17547607421875,0.22125244140625,1.0662078857421875,1.1029704216660916
1780422203.418592,-0.1352538913488388,-0.21044921875,0.9589843153953552,0.9910768920582232,-0.0705718994140625,0.2231597900390625,0.6389617919921875,0.6804798722247811
1780422203.42665,-0.12890625,-0.203125,0.9682616591453552,0.997700970975261,0.11444091796875,0.22125244140625,0.6389617919921875,0.6857999257506695
1780422203.434707,-0.126953125,-0.1982421875,0.9584960341453552,0.9869811083928733,0.1125335693359375,-0.2651214599609375,0.7610321044921875,0.8137094425082659
1780422203.442692,-0.1201171875,-0.19873046875,0.9746093153953552,1.0018908401606972,0.05340576171875,-0.324249267578125,0.6389617919921875,0.7185136982240338
1780422203.450676,-0.1279296875,-0.21337890625,0.9648436903953552,0.9964034872841534,-0.1926422119140625,-0.3261566162109375,0.5779266357421875,0.6910053229965702
1780422203.458662,-0.1298827975988388,-0.20458984375,0.9667968153953552,0.9967058881818401,-0.3757476806640625,-0.3261566162109375,0.3948211669921875,0.635175732949287
1780422203.466646,-0.13623046875,-0.20263671875,0.9609374403953552,0.9914742279833542,-0.19073486328125,-0.63323974609375,0.6389617919921875,0.9195893299346516
1780422203.477473,-0.13671875,-0.203125,0.9560546278953552,0.9869104486966832,-0.0705718994140625,-0.3871917724609375,0.6999969482421875,0.8030526690054187
1780422203.488301,-0.1298828125,-0.2021484375,0.9516600966453552,0.9815245668416295,-0.19073486328125,-0.14495849609375,0.4558563232421875,0.5149735343690631
1780422203.499128,-0.1181640550494194,-0.21337890625,0.9624022841453552,0.9928300247607168,-0.3757476806640625,-0.0820159912109375,0.6389617919921875,0.7457781935432293
1780422203.509606,-0.12646484375,-0.20263671875,0.9614257216453552,0.9906535291068066,-0.3757476806640625,-0.0820159912109375,0.6389617919921875,0.7457781935432293
1780422203.520083,-0.1240234300494194,-0.20361328125,0.9599608778953552,0.9891233828963077,0.0553131103515625,-0.3871917724609375,0.2117156982421875,0.4447477326759334
1780422203.530561,-0.13134765625,-0.20751953125,0.9624022841453552,0.993244541480488,0.11444091796875,-0.14495849609375,0.4558563232421875,0.4918482253044913
1780422203.541225,-0.1201171875,-0.19677734375,0.9614257216453552,0.988680373016228,-0.12969970703125,-0.38909912109375,0.0896453857421875,0.4198290547648964
1780422203.55189,-0.125,-0.20166015625,0.9599608778953552,0.9888461486542766,-0.1277923583984375,-0.2040863037109375,0.2727508544921875,0.3638339385676468
1780422203.562555,-0.11962890625,-0.19091796875,0.9638671278953552,0.9898487693781501,-0.31280517578125,-0.38909912109375,-0.2155303955078125,0.5437817167018596
1780422203.570609,-0.12841796875,-0.19140625,0.9609374403953552,0.988194460412785,-0.00762939453125,-0.08392333984375,-0.2765655517578125,0.289119074172816
1780422203.578664,-0.1215820237994194,-0.20068359375,0.9458007216453552,0.9744717021937848,-0.00762939453125,0.09918212890625,0.1506805419921875,0.18055450171720683
1780422203.586719,-0.1245117112994194,-0.20361328125,0.9604491591453552,0.9896585885319853,-0.2536773681640625,-0.0820159912109375,0.0896453857421875,0.2812741102871423
1780422203.594774,-0.13427734375,-0.2060546875,0.9604491591453552,0.99143911895199,-0.31280517578125,-0.14495849609375,-0.0934600830078125,0.35720418628723777
1780422203.6027,-0.12255859375,-0.2060546875,0.9628905653953552,0.9922889619813813,-0.06866455078125,0.03814697265625,0.0286102294921875,0.08359759140324069
1780422203.610628,-0.14111328125,-0.208984375,0.9628905653953552,0.9953620788771638,-0.1926422119140625,0.1621246337890625,0.2117156982421875,0.3289664961277321
1780422203.618555,-0.1162109225988388,-0.20654296875,0.9648436903953552,0.9935231871310628,-0.37384033203125,-0.26702880859375,-0.0324249267578125,0.4605565701925034
1780422203.626482,-0.1210937350988388,-0.20654296875,0.9741210341453552,1.0031128948352062,-0.31280517578125,-0.08392333984375,-0.0324249267578125,0.32548668304758305
1780422203.637148,-0.12841796875,-0.2021484375,0.9677733778953552,0.9969656345353903,-0.31280517578125,-0.20599365234375,0.0286102294921875,0.3756314790230607
1780422203.647814,-0.10498046875,-0.20068359375,0.9560546278953552,0.9825147607743666,-0.12969970703125,-0.324249267578125,0.0286102294921875,0.35039712721501903
1780422203.65848,-0.1181640550494194,-0.208984375,0.9580077528953552,0.9876315444068556,-0.31280517578125,-0.63323974609375,-0.0324249267578125,0.7070297234937617
1780422203.669172,-0.1152343675494194,-0.20751953125,0.9638671278953552,0.9926646742742362,-0.0705718994140625,-0.3871917724609375,-0.3986358642578125,0.5601860529510924
1780422203.679865,-0.1235351487994194,-0.21337890625,0.9648436903953552,0.9958488025383517,0.1125335693359375,-0.2651214599609375,0.0896453857421875,0.30164463851388246
1780422203.690558,-0.1318359375,-0.20654296875,0.9638671278953552,0.9945252900725091,-0.2536773681640625,-0.2651214599609375,0.0286102294921875,0.36804910118360556
1780422203.698557,-0.125,-0.20458984375,0.9707030653953552,0.9998732146295293,-0.00762939453125,-0.26702880859375,-0.2155303955078125,0.343243271846172
1780422203.706558,-0.1201171875,-0.19482421875,0.9575194716453552,0.9844938565194088,0.1125335693359375,-0.2040863037109375,-0.0324249267578125,0.23530065759603983
1780422203.714558,-0.12646484375,-0.212890625,0.9667968153953552,0.9980039364532602,0.17547607421875,-0.019073486328125,-0.0934600830078125,0.19972590623091596
1780422203.722559,-0.1176757737994194,-0.1982421875,0.9604491591453552,0.9877297909585886,0.05340576171875,0.22125244140625,-0.0324249267578125,0.22990475003408584
1780422203.733264,-0.12744140625,-0.22509765625,0.9619140028953552,0.9960867511629627,0.0553131103515625,0.1010894775390625,-0.0324249267578125,0.11970797183619084
1780422203.743968,-0.1376953125,-0.208984375,0.9575194716453552,0.9896858120932186,-0.12969970703125,-0.08392333984375,0.1506805419921875,0.21580029358084993
1780422203.754672,-0.12744140625,-0.20361328125,0.9633788466453552,0.9928738502408572,-0.3757476806640625,0.1010894775390625,-0.0934600830078125,0.40017519801878043
1780422203.765471,-0.1206054538488388,-0.20166015625,0.9643554091453552,0.9925693171082633,-0.0705718994140625,-0.2040863037109375,0.0286102294921875,0.21783057081341273
1780422203.77627,-0.1171874925494194,-0.20361328125,0.9584960341453552,0.9868667205777008,-0.12969970703125,-0.324249267578125,-0.2765655517578125,0.44547514627422913
1780422203.787068,-0.13525390625,-0.21337890625,0.9638671278953552,0.9964256204180878,0.0553131103515625,-0.3871917724609375,-0.4596710205078125,0.6035515354407611
1780422203.797543,-0.14208984375,-0.2060546875,0.9638671278953552,0.995835276627045,-0.12969970703125,-0.38909912109375,-0.4596710205078125,0.6160499875291083
1780422203.808018,-0.1318359375,-0.20751953125,0.9692382216453552,0.9999338980977565,0.1125335693359375,-0.3261566162109375,-0.1544952392578125,0.3780353442192724
1780422203.818493,-0.1113281175494194,-0.18505859375,0.9487304091453552,0.973000525238778,-0.0705718994140625,-0.0820159912109375,-0.2155303955078125,0.24116460600381479
1780422203.82918,-0.130859375,-0.212890625,0.9658202528953552,0.9976248569182351,0.0553131103515625,-0.5092620849609375,-0.0934600830078125,0.5207131633359698
1780422203.839868,-0.1230468675494194,-0.2080078125,0.9624022841453552,0.9922831945583662,0.17547607421875,-0.45013427734375,0.3948211669921875,0.6239362741242708
1780422203.850556,-0.1249999925494194,-0.203125,0.9750975966453552,1.0038426603536545,-0.0705718994140625,-0.5092620849609375,0.0286102294921875,0.5149240811976706
1780422203.861222,-0.1162109300494194,-0.212890625,0.9677733778953552,0.9977037182645094,-0.19073486328125,-0.08392333984375,0.0286102294921875,0.21033654050840125
1780422203.871886,-0.12451171875,-0.20654296875,0.9633788466453552,0.9931072289586244,0.2956390380859375,-0.0820159912109375,0.5168914794921875,0.6010872359535789
1780422203.882552,-0.1176757737994194,-0.19775390625,0.9550780653953552,0.9824094391727719,-0.0095367431640625,-0.0209808349609375,0.6389617919921875,0.6393772880949893
1780422203.890557,-0.1162109225988388,-0.20166015625,0.9624022841453552,0.9901464304224122,0.17547607421875,-0.019073486328125,0.8831024169921875,0.9005695583359327
1780422203.898561,-0.11474609375,-0.208984375,0.9599608778953552,0.9891238659109614,0.05340576171875,0.52642822265625,0.6389617919921875,0.8296089564485462
1780422203.906567,-0.1186523362994194,-0.19921875,0.9624022841453552,0.98994173757301,-0.00762939453125,0.52642822265625,0.4558563232421875,0.6964121399787755
1780422203.914572,-0.1176757737994194,-0.20556640625,0.9443358778953552,0.9735889201291392,-0.2536773681640625,0.2841949462890625,-0.2155303955078125,0.4376897599929001
1780422203.925242,-0.13720703125,-0.1923828125,0.9716796278953552,0.9999991076179542,-0.1926422119140625,0.1010894775390625,0.0896453857421875,0.23530065759603983
1780422203.935912,-0.12744140625,-0.2021484375,0.9643554091453552,0.9935223489980356,-0.49591064453125,-0.14495849609375,0.1506805419921875,0.5381867321703694
1780422203.946582,-0.1181640625,-0.21044921875,0.9594725966453552,0.9893630693796741,-0.49591064453125,0.09918212890625,-0.1544952392578125,0.5288035939808886
1780422203.954575,-0.1162109225988388,-0.21630859375,0.9711913466453552,1.0017519743230827,-0.49591064453125,-0.14495849609375,-0.0934600830078125,0.5250477312254466
1780422203.962569,-0.1230468675494194,-0.208984375,0.9653319716453552,0.9953295012650705,-0.61798095703125,-0.45013427734375,-0.2155303955078125,0.7943391481481911
1780422203.970565,-0.13818359375,-0.19580078125,0.9653319716453552,0.9946348410348816,-0.74005126953125,-0.63323974609375,0.0896453857421875,0.9781128527693302
1780422203.978559,-0.13330078125,-0.203125,0.9545897841453552,0.985023106277988,-0.37384033203125,-0.63323974609375,0.5779266357421875,0.9352798330908217
1780422203.98922,-0.1337890625,-0.2119140625,0.9697265028953552,1.0015870274457124,-0.37384033203125,-0.26702880859375,0.1506805419921875,0.48349312736303934
1780422203.99988,-0.12646484375,-0.21044921875,0.9736327528953552,1.004113025454697,-0.3757476806640625,-0.3871917724609375,0.2117156982421875,0.5795923783729748
1780422204.01054,-0.1235351487994194,-0.22900390625,0.9619140028953552,0.9964849577554189,-0.0705718994140625,-0.5092620849609375,0.6389617919921875,0.8201222078395007
1780422204.021294,-0.12646484375,-0.205078125,0.9716796278953552,1.0011052358893562,-0.00762939453125,-0.08392333984375,0.7610321044921875,0.7656834846718654
1780422204.03205,-0.1279296875,-0.22265625,0.9541015028953552,0.9880543954839155,0.11444091796875,-0.63323974609375,0.8220672607421875,1.0439750384576112
1780422204.042805,-0.13134765625,-0.2001953125,0.9492186903953552,0.9789517312642202,0.05340576171875,-0.45013427734375,0.3337860107421875,0.5629264108138147
1780422204.050727,-0.126953125,-0.19970703125,0.9624022841453552,0.9910691957709871,0.2956390380859375,-0.5702972412109375,0.4558563232421875,0.7876841826602019
1780422204.05865,-0.119140625,-0.2099609375,0.9716796278953552,1.0012189486161982,0.29754638671875,-0.14495849609375,0.2727508544921875,0.42888208923358423
1780422204.066572,-0.1186523362994194,-0.21337890625,0.9565429091453552,0.9872098417145243,0.2346038818359375,-0.1430511474609375,0.2727508544921875,0.3871635840166271
1780422204.074496,-0.1225585862994194,-0.1904296875,0.9584960341453552,0.9848851305758626,0.5435943603515625,-0.2040863037109375,0.4558563232421875,0.7382079892606846
1780422204.082504,-0.1137695237994194,-0.2080078125,0.9638671278953552,0.992597901893724,0.35858154296875,-0.08392333984375,0.7610321044921875,0.8454547379938129
1780422204.090512,-0.13818359375,-0.2099609375,0.9565429091453552,0.9890159947613604,0.2346038818359375,0.1010894775390625,0.1506805419921875,0.296585046111011
1780422204.09852,-0.1249999925494194,-0.203125,0.9560546278953552,0.9853553751223367,0.2346038818359375,0.2841949462890625,-0.0934600830078125,0.3801848707991427
1780422204.106528,-0.1240234375,-0.20556640625,0.9506835341453552,0.9805297254662703,-0.00762939453125,0.22125244140625,0.2727508544921875,0.3512888827095984
1780422204.114536,-0.11962890625,-0.20458984375,0.9633788466453552,0.9921022535706466,-0.00762939453125,-0.324249267578125,0.2117156982421875,0.38732329140918054
1780422204.132141,-0.1206054612994194,-0.2080078125,0.9487304091453552,0.9787248421254024,0.2346038818359375,-0.2040863037109375,0.2727508544921875,0.41362208519505095
1780422204.141734,-0.12890625,-0.205078125,0.9619140028953552,0.9919437522403897,-0.00762939453125,-0.14495849609375,0.2727508544921875,0.3089728173754022
1780422204.151326,-0.12890625,-0.2021484375,0.9663085341453552,0.9956068477239894,0.1125335693359375,-0.2040863037109375,0.2727508544921875,0.35875904478646625
1780422204.16092,-0.12890625,-0.19921875,0.9521483778953552,0.9812703323597332,0.17547607421875,-0.019073486328125,0.3948211669921875,0.432480524889857
1780422204.170513,-0.1303710788488388,-0.20068359375,0.9643554091453552,0.9936054942221941,-0.1277923583984375,0.2841949462890625,0.3337860107421875,0.45662977928346016
1780422204.181189,-0.12646484375,-0.205078125,0.9741210341453552,1.003475053612517,0.0553131103515625,-0.0209808349609375,0.3337860107421875,0.33898795934310993
1780422204.191868,-0.115234375,-0.19921875,0.9658202528953552,0.9928624438642298,0.05340576171875,-0.26702880859375,0.3948211669921875,0.47962518064508486
1780422204.202547,-0.1254882663488388,-0.19189453125,0.9448241591453552,0.9722466291119871,0.2346038818359375,-0.2651214599609375,0.0896453857421875,0.36519127192359774
1780422204.213211,-0.12890625,-0.20849609375,0.9609374403953552,0.9917097391634551,0.35858154296875,-0.38909912109375,0.0286102294921875,0.5299031932583289
1780422204.223872,-0.1220703050494194,-0.21044921875,0.9672850966453552,0.9974118964798634,0.0553131103515625,-0.2040863037109375,-0.0324249267578125,0.21392086250388637
1780422204.234535,-0.125,-0.20849609375,0.9682616591453552,0.998311705671092,-0.0705718994140625,-0.3261566162109375,-0.0324249267578125,0.3352758672501301
1780422204.245207,-0.11962890625,-0.2060546875,0.9536132216453552,0.9829281692718586,-0.00762939453125,-0.324249267578125,-0.0934600830078125,0.337536045929455
1780422204.255879,-0.1220703050494194,-0.21923828125,0.9580077528953552,0.9903259251114859,-0.2536773681640625,-0.4482269287109375,-0.0934600830078125,0.5234447190068043
1780422204.266551,-0.12255859375,-0.19677734375,0.9741210341453552,1.001325981426478,-0.12969970703125,-0.45013427734375,-0.6427764892578125,0.7953643798828125
1780422204.274534,-0.1240234375,-0.20458984375,0.9643554091453552,0.993589539177457,-0.25177001953125,-0.14495849609375,-0.2765655517578125,0.4011104744875544
1780422204.282516,-0.1376953125,-0.2099609375,0.9648436903953552,0.9969789071269661,-0.00762939453125,-0.08392333984375,-0.3376007080078125,0.34795915375057934
1780422204.2905,-0.12841796875,-0.20263671875,0.9545897841453552,0.9842735750177988,0.11444091796875,0.03814697265625,-0.2765655517578125,0.30172905005562545
1780422204.298483,-0.1235351487994194,-0.20458984375,0.9633788466453552,0.9925808477490783,-0.19073486328125,-0.08392333984375,-0.2765655517578125,0.34628228291460417
1780422204.309182,-0.12841796875,-0.2119140625,0.9702147841453552,1.0013568155045174,-0.3757476806640625,-0.0209808349609375,-0.3986358642578125,0.5482126113403937
1780422204.319881,-0.13232421875,-0.1982421875,0.9643554091453552,0.9933735545707307,-0.0705718994140625,-0.0209808349609375,0.0896453857421875,0.1160038085902021
1780422204.33058,-0.14404296875,-0.19091796875,0.9653319716453552,0.9945168993630266,-0.19073486328125,-0.14495849609375,-0.0934600830078125,0.257152757668484
1780422204.338577,-0.13330078125,-0.21826171875,0.9580077528953552,0.9915574268599738,-0.19073486328125,-0.08392333984375,0.3948211669921875,0.4464377548399323
1780422204.346575,-0.11962890625,-0.21142578125,0.9594725966453552,0.9897472404109671,-0.31280517578125,-0.20599365234375,-0.0934600830078125,0.38602493432067786
1780422204.354573,-0.1225585862994194,-0.2001953125,0.9555663466453552,0.983974498177588,-0.37384033203125,-0.45013427734375,-0.5207061767578125,0.7832703134976797
1780422204.362571,-0.123046875,-0.20068359375,0.9560546278953552,0.9846090034972292,-0.4978179931640625,-0.2040863037109375,-0.1544952392578125,0.5597702677291965
1780422204.373351,-0.1279296875,-0.20068359375,0.9516600966453552,0.9809673028655489,-0.6809234619140625,0.1010894775390625,-0.0934600830078125,0.694701828535077
1780422204.38413,-0.130859375,-0.19970703125,0.9624022841453552,0.9915771431836639,-0.0705718994140625,-0.0820159912109375,-0.2765655517578125,0.29697730590118226
1780422204.394911,-0.12646484375,-0.205078125,0.9614257216453552,0.9911557961791474,0.11444091796875,-0.14495849609375,-0.3376007080078125,0.38481674514328007
1780422204.402834,-0.1254882663488388,-0.20068359375,0.9633788466453552,0.9920282314306317,-0.2536773681640625,-0.3871917724609375,-0.3376007080078125,0.5729257489653122
1780422204.410756,-0.1230468675494194,-0.197265625,0.9526366591453552,0.9805971970019028,-0.102996826171875,-0.308990478515625,-0.5779266357421875,0.663387261194453
1780422204.418678,-0.13330078125,-0.2119140625,0.9506835341453552,0.9830950362310945,-0.1621246337890625,-0.3108978271484375,-0.7610321044921875,0.8379210701937654
1780422204.4266,-0.13720703125,-0.2099609375,0.9555663466453552,0.9879354268075766,-0.16021728515625,-0.125885009765625,-0.8220672607421875,0.8469422620997811
1780422204.437231,-0.1416015625,-0.2041015625,0.9658202528953552,0.9972548376519568,-0.286102294921875,0.057220458984375,-0.6999969482421875,0.758369587756736
1780422204.447861,-0.1298827975988388,-0.201171875,0.9667968153953552,0.9960099129334593,-0.102996826171875,-0.125885009765625,-0.5168914794921875,0.5418783843786292
1780422204.458493,-0.1318359375,-0.2080078125,0.9633788466453552,0.9943574642155978,-0.1621246337890625,-0.0057220458984375,-0.4558563232421875,0.4838616807832453
1780422204.466511,-0.12646484375,-0.197265625,0.9770507216453552,1.0047562869567237,-0.3452301025390625,0.1163482666015625,-0.3337860107421875,0.49409902226932567
1780422204.474526,-0.1318359375,-0.18994140625,0.9599608778953552,0.9874124464044154,-0.5283355712890625,-0.0667572021484375,-0.6999969482421875,0.8795400658732967
1780422204.482543,-0.126953125,-0.20458984375,0.9702147841453552,0.9996453508555588,0.02288818359375,-0.125885009765625,-0.5168914794921875,0.5324919775954706
1780422204.490558,-0.12744140625,-0.20458984375,0.9663085341453552,0.9959169138812595,-0.16021728515625,-0.125885009765625,-0.4558563232421875,0.49932114073651673
1780422204.5002,-0.119140625,-0.205078125,0.9648436903953552,0.9935667429894351,-0.2231597900390625,-0.0057220458984375,-0.3337860107421875,0.40155464717361444
1780422204.509841,-0.1176757737994194,-0.2080078125,0.9619140028953552,0.9911575993586956,0.202178955078125,0.301361083984375,-0.5168914794921875,0.6315628507031921
1780422204.519482,-0.1157226487994194,-0.2099609375,0.9609374403953552,0.9903918876256053,-0.16021728515625,0.057220458984375,-0.4558563232421875,0.48656833726528836
1780422204.529123,-0.12841796875,-0.20751953125,0.9692382216453552,0.999488999862603,-0.0400543212890625,-0.0667572021484375,-0.3337860107421875,0.34274476459867115
1780422204.538764,-0.1303710788488388,-0.20166015625,0.9599608778953552,0.9895394504053922,-0.2841949462890625,-0.0667572021484375,-0.5779266357421875,0.6474739283053902
1780422204.548331,-0.13232421875,-0.2138671875,0.9746093153953552,1.006534743768123,-0.102996826171875,0.057220458984375,-0.2117156982421875,0.24229334289253382
1780422204.557899,-0.1220703050494194,-0.20556640625,0.9584960341453552,0.9878630240199155,-0.0400543212890625,-0.0057220458984375,-0.5168914794921875,0.5184726531214677
1780422204.567467,-0.1196288987994194,-0.20361328125,0.9697265028953552,0.9980675989866662,-0.3452301025390625,-0.0057220458984375,-0.6999969482421875,0.7805205269925777
1780422204.577035,-0.134765625,-0.208984375,0.9672850966453552,0.9987375535484763,-0.1621246337890625,0.2994537353515625,-0.0286102294921875,0.3417242773477426
1780422204.586603,-0.1308593600988388,-0.20556640625,0.9604491591453552,0.9908805714146571,0.02288818359375,0.240325927734375,-0.1506805419921875,0.2845787170971656
1780422204.597233,-0.13330078125,-0.20458984375,0.9511718153953552,0.9820152365671346,-0.3452301025390625,-0.0057220458984375,-0.2727508544921875,0.44001090229062945
1780422204.607866,-0.13427734375,-0.20654296875,0.9599608778953552,0.9910677525145495,-0.102996826171875,-0.247955322265625,-0.6389617919921875,0.6930817842557954
1780422204.618499,-0.1337890625,-0.201171875,0.9604491591453552,0.9903697409748868,-0.286102294921875,0.118255615234375,0.0324249267578125,0.31127205073580505
1780422204.626504,-0.1206054538488388,-0.20654296875,0.9604491591453552,0.9897819258509258,-0.102996826171875,0.240325927734375,-0.1506805419921875,0.3017772746214116
1780422204.634512,-0.11376953125,-0.2109375,0.9497069716453552,0.9794802025252406,-0.1010894775390625,0.4215240478515625,-0.2117156982421875,0.4824159432154621
1780422204.642519,-0.1230468675494194,-0.20703125,0.9545897841453552,0.9845019685531171,-0.102996826171875,0.240325927734375,-0.0896453857421875,0.2764076571438155
1780422204.650527,-0.134765625,-0.20263671875,0.9614257216453552,0.9917473628443382,0.02288818359375,0.240325927734375,-0.3337860107421875,0.41193873507694434
1780422204.661202,-0.12646484375,-0.20556640625,0.9677733778953552,0.9974147658051981,-0.102996826171875,0.240325927734375,-0.2117156982421875,0.336434889131678
1780422204.671875,-0.12939453125,-0.19921875,0.9589843153953552,0.9879686089361686,-0.3452301025390625,0.1163482666015625,-0.2727508544921875,0.45509754060699814
1780422204.682549,-0.1220703050494194,-0.20556640625,0.9677733778953552,0.9968671013311575,-0.102996826171875,-0.003814697265625,-0.1506805419921875,0.18255827522127607
1780422204.693309,-0.1186523362994194,-0.208984375,0.9692382216453552,0.998586789518919,-0.4062652587890625,-0.0667572021484375,-0.6389617919921875,0.7601185145511842
1780422204.704067,-0.1225585862994194,-0.21240234375,0.9682616591453552,0.9988323199001529,0.202178955078125,-0.186920166015625,-0.5779266357421875,0.6401676925931785
1780422204.714825,-0.1308593600988388,-0.20166015625,0.9604491591453552,0.9900775616320531,0.263214111328125,-0.492095947265625,-0.6389617919921875,0.8483585688512699
1780422204.725443,-0.1240234375,-0.19580078125,0.9609374403953552,0.9884940684399698,-0.102996826171875,-0.186920166015625,-0.4558563232421875,0.503341317700697
1780422204.736063,-0.12890625,-0.20654296875,0.9687499403953552,0.9988760014361794,0.202178955078125,0.240325927734375,-0.2117156982421875,0.3787564102428466
1780422204.746685,-0.12939453125,-0.20751953125,0.9589843153953552,0.9896758144675079,0.263214111328125,-0.308990478515625,-0.2727508544921875,0.48902946009600273
1780422204.75465,-0.126953125,-0.2041015625,0.9677733778953552,0.9971759397043197,0.1430511474609375,-0.0057220458984375,0.0934600830078125,0.17097122481570376
1780422204.762614,-0.1416015625,-0.2099609375,0.9501952528953552,0.9833644372272105,0.1430511474609375,0.3604888916015625,-0.1506805419921875,0.4160775138037062
1780422204.770579,-0.13720703125,-0.20556640625,0.9536132216453552,0.9851200400457865,0.263214111328125,0.362396240234375,-0.0896453857421875,0.4567811275908091
1780422204.778545,-0.1455077975988388,-0.21044921875,0.9707030653953552,1.0038554846204155,0.385284423828125,0.362396240234375,-0.1506805419921875,0.5499815887060588
1780422204.789235,-0.11962890625,-0.2041015625,0.9492186903953552,0.9782559201054629,0.3261566162109375,0.1773834228515625,-0.2727508544921875,0.46069083518876675
1780422204.799924,-0.12939453125,-0.20166015625,0.9521483778953552,0.9818331308653919,0.02288818359375,0.240325927734375,-0.0896453857421875,0.2575203208961864
1780422204.810615,-0.12646484375,-0.2001953125,0.9584960341453552,0.9873125985846927,0.0209808349609375,0.2994537353515625,-0.3337860107421875,0.448916290658788
1780422204.818604,-0.126953125,-0.208984375,0.9653319716453552,0.9958199538180158,-0.3452301025390625,0.1773834228515625,-0.3337860107421875,0.5119197235591255
1780422204.826595,-0.1401367038488388,-0.21142578125,0.9716796278953552,1.0042412339720204,-0.408172607421875,0.362396240234375,-0.6389617919921875,0.8403618768194154
1780422204.834584,-0.1083984375,-0.2060546875,0.9624022841453552,0.9901650933159385,-0.408172607421875,0.362396240234375,-0.7610321044921875,0.9365392551587951
1780422204.842575,-0.12841796875,-0.201171875,0.9663085341453552,0.9953459103000508,-0.8335113525390625,0.2422332763671875,-0.6389617919921875,1.0778173809217158
1780422204.850625,-0.1308593600988388,-0.20654296875,0.9765624403953552,1.00670669514833,-0.7114410400390625,-0.0057220458984375,-0.6999969482421875,0.9980865808182687
1780422204.858675,-0.13232421875,-0.2080078125,0.9545897841453552,0.9859100389607101,-1.1386871337890625,-0.0057220458984375,-0.7610321044921875,1.3696024950816283
1780422204.866724,-0.12939453125,-0.1923828125,0.9497069716453552,0.9775977819403074,-0.6504058837890625,-0.1888275146484375,-0.6389617919921875,0.9311046211793843
1780422204.874774,-0.1357421875,-0.2119140625,0.9653319716453552,0.9975967756730412,-0.5283355712890625,0.1163482666015625,-0.3337860107421875,0.6356795544908709
1780422204.885375,-0.130859375,-0.2021484375,0.9697265028953552,0.9991784911749939,-0.3452301025390625,-0.1277923583984375,-0.6999969482421875,0.7908921785632615
1780422204.895977,-0.1220703050494194,-0.2138671875,0.9599608778953552,0.9910424916993416,0.02288818359375,0.057220458984375,-0.4558563232421875,0.4600033014169458
1780422204.906578,-0.1308593600988388,-0.2060546875,0.9711913466453552,1.0013966937058554,-0.3452301025390625,0.1163482666015625,-0.4558563232421875,0.5835458253472521
1780422204.917228,-0.12646484375,-0.21875,0.9594725966453552,0.9921857602879072,-0.4673004150390625,-0.0667572021484375,-0.3337860107421875,0.5781343294611998
1780422204.927877,-0.12890625,-0.2080078125,0.9692382216453552,0.9996533407378522,-0.286102294921875,-0.247955322265625,-0.1506805419921875,0.4074812765446688
1780422204.938526,-0.1279296875,-0.20751953125,0.9580077528953552,0.988538929633869,-0.102996826171875,0.057220458984375,-0.2117156982421875,0.24229334289253382
1780422204.946541,-0.1279296875,-0.20361328125,0.9672850966453552,0.9967270596494576,0.446319580078125,0.057220458984375,-0.6999969482421875,0.832148469947444
1780422204.954556,-0.12744140625,-0.20556640625,0.9614257216453552,0.9913820038949717,0.3261566162109375,-0.1888275146484375,-0.6389617919921875,0.7418262196851376
1780422204.96257,-0.1206054538488388,-0.20166015625,0.9643554091453552,0.9925693171082633,0.4482269287109375,-0.0057220458984375,-0.8220672607421875,0.9363411251328585
1780422204.970586,-0.1328125,-0.20556640625,0.9643554091453552,0.9949261594121925,0.1430511474609375,0.0591278076171875,-0.8220672607421875,0.8365131855551768
1780422204.981235,-0.1303710788488388,-0.20654296875,0.9609374403953552,0.9914925014814033,-0.2231597900390625,0.2994537353515625,-0.7610321044921875,0.8477279608306487
1780422204.991884,-0.12744140625,-0.19384765625,0.9575194716453552,0.985221682892026,0.080108642578125,-0.003814697265625,-0.9441375732421875,0.947537705708108
1780422205.002533,-0.1215820237994194,-0.2080078125,0.9584960341453552,0.9883137589068421,-0.2231597900390625,0.1163482666015625,-0.8831024169921875,0.9182630831787316
1780422205.010685,-0.1230468675494194,-0.197265625,0.9609374403953552,0.9886632504416971,-0.225067138671875,0.057220458984375,-1.0662078857421875,1.0912051381180137
1780422205.01884,-0.13037109375,-0.20751953125,0.9614257216453552,0.9921695400369249,-0.225067138671875,-0.125885009765625,-1.1882781982421875,1.2159388673002176
1780422205.026995,-0.13671875,-0.2041015625,0.9624022841453552,0.9932611041134657,-0.3452301025390625,0.2422332763671875,-1.0051727294921875,1.0900610074640265
1780422205.03515,-0.125,-0.19873046875,0.9541015028953552,0.9825622000854553,0.02288818359375,-0.431060791015625,-0.8220672607421875,0.9285105576585553
1780422205.045606,-0.130859375,-0.19482421875,0.9609374403953552,0.9891821958519651,-0.286102294921875,-0.186920166015625,-0.2117156982421875,0.40201642815319044
1780422205.056062,-0.14306640625,-0.20263671875,0.9755858778953552,1.0066267637669424,-0.286102294921875,0.179290771484375,-0.5168914794921875,0.6173949347627079
1780422205.066518,-0.1166992112994194,-0.20068359375,0.9667968153953552,0.9942779757074588,-0.2841949462890625,-0.0667572021484375,-0.3337860107421875,0.44343702202467733
1780422205.07719,-0.12841796875,-0.21484375,0.9521483778953552,0.9844976105307187,0.2040863037109375,0.4215240478515625,-0.3337860107421875,0.5751059408898008
1780422205.087862,-0.1162109300494194,-0.20703125,0.9658202528953552,0.9945731142768547,0.0209808349609375,0.1163482666015625,-0.6389617919921875,0.6498071146138013
1780422205.098536,-0.1254882663488388,-0.21142578125,0.9580077528953552,0.9890535984343912,-0.225067138671875,-0.308990478515625,-0.5779266357421875,0.6929137962427527
1780422205.106597,-0.12939453125,-0.20458984375,0.9707030653953552,1.0004321016695716,-0.0400543212890625,0.2422332763671875,-0.5779266357421875,0.6279175942221978
1780422205.11466,-0.1230468675494194,-0.20458984375,0.9570311903953552,0.986360094067539,-0.1621246337890625,-0.0057220458984375,-0.5168914794921875,0.5417508101167214
1780422205.122723,-0.13134765625,-0.21826171875,0.9628905653953552,0.9960163781793245,-0.225067138671875,0.179290771484375,-0.5779266357421875,0.645600181187777
1780422205.130785,-0.1249999925494194,-0.20751953125,0.9560546278953552,0.9862706553009173,-0.1621246337890625,-0.0057220458984375,-0.7610321044921875,0.7781304535605256
1780422205.141397,-0.12646484375,-0.20703125,0.9653319716453552,0.9953497428853756,0.0820159912109375,-0.0667572021484375,-0.5779266357421875,0.5875222065192796
1780422205.152008,-0.1201171875,-0.2070312350988388,0.9687499403953552,0.9978810139768494,-0.1621246337890625,0.1773834228515625,-0.6999969482421875,0.7400979686042582
1780422205.162619,-0.1210937425494194,-0.2001953125,0.9653319716453552,0.9932812658619443,-0.1010894775390625,0.1163482666015625,-0.8220672607421875,0.8363914052610013
1780422205.173281,-0.1196288987994194,-0.20361328125,0.9584960341453552,0.9871596067514753,-0.225067138671875,0.179290771484375,-0.4558563232421875,0.5390782736201609
1780422205.183944,-0.12939453125,-0.2021484375,0.9736327528953552,1.0027799723826192,-0.2841949462890625,0.4215240478515625,-0.7610321044921875,0.9152153596182798
1780422205.194606,-0.125,-0.2119140475988388,0.9643554091453552,0.9952456574723793,0.0820159912109375,0.2994537353515625,-0.2727508544921875,0.41327011875592295
1780422205.202715,-0.12939453125,-0.1982421875,0.9541015028953552,0.9830323430332126,0.02288818359375,0.545501708984375,-0.2117156982421875,0.5855933062589359
1780422205.210823,-0.1147460862994194,-0.2080078125,0.9609374403953552,0.9898659902914363,0.080108642578125,0.240325927734375,-0.3948211669921875,0.46910308042281135
1780422205.218931,-0.1259765625,-0.22216796875,0.9594725966453552,0.9928828553012676,0.0820159912109375,-0.0667572021484375,-0.2727508544921875,0.29253405866534304
1780422205.227038,-0.1303710788488388,-0.1953125,0.9628905653953552,0.9911114123971366,0.0209808349609375,0.1163482666015625,-0.3948211669921875,0.41214180627778974
1780422205.237563,-0.1220703050494194,-0.201171875,0.9677733778953552,0.9959701770780388,-0.041961669921875,0.057220458984375,-0.4558563232421875,0.4613458031768585
1780422205.248086,-0.12744140625,-0.203125,0.9609374403953552,0.9904048879148135,0.3261566162109375,-0.0057220458984375,-0.2117156982421875,0.38888869485960836
1780422205.258611,-0.130859375,-0.203125,0.9541015028953552,0.9842223425007005,0.02288818359375,-0.125885009765625,-0.3948211669921875,0.41503573163883795
1780422205.269737,-0.1240234375,-0.21044921875,0.9521483778953552,0.9829838351929079,-0.0400543212890625,0.1163482666015625,-0.6389617919921875,0.650702266340746
1780422205.280865,-0.11962890625,-0.220703125,0.9663085341453552,0.9983852601864083,0.263214111328125,-0.125885009765625,-0.3337860107421875,0.4433303565662178
1780422205.291994,-0.1249999925494194,-0.21728515625,0.9555663466453552,0.9878992256830111,-0.2841949462890625,-0.0667572021484375,-0.3948211669921875,0.4910265221350098
1780422205.299642,-0.13330078125,-0.1904296875,0.9609374403953552,0.9886522788709815,0.1430511474609375,0.1773834228515625,-0.6389617919921875,0.6783809262636256
1780422205.307289,-0.1245117112994194,-0.2080078125,0.9716796278953552,1.0014647849917644,0.02288818359375,0.057220458984375,-0.4558563232421875,0.4600033014169458
1780422205.314935,-0.1298827975988388,-0.205078125,0.9711913466453552,1.001069033715675,0.1430511474609375,0.1773834228515625,-0.5168914794921875,0.5648940706575434
1780422205.322582,-0.1235351487994194,-0.21728515625,0.9550780653953552,0.9872425654897665,0.3261566162109375,0.1163482666015625,-0.7610321044921875,0.8361129836972782
1780422205.333251,-0.13232421875,-0.19921875,0.9648436903953552,0.9940428341450325,0.385284423828125,0.057220458984375,-0.2727508544921875,0.4755116158383213
1780422205.343919,-0.1220703050494194,-0.19189453125,0.9628905653953552,0.9893851178514372,0.51116943359375,0.179290771484375,-0.1506805419921875,0.5622668372890909
1780422205.354587,-0.12451171875,-0.20947265625,0.9643554091453552,0.9946674403892063,0.1430511474609375,-0.1888275146484375,-0.3337860107421875,0.4093074175303698
1780422205.362579,-0.12939453125,-0.20849609375,0.9604491591453552,0.9913002335969844,0.263214111328125,-0.308990478515625,-0.1506805419921875,0.4329681396484375
1780422205.370572,-0.1308593600988388,-0.19189453125,0.9731444716453552,1.0004788083428116,0.202178955078125,-0.186920166015625,-0.3337860107421875,0.432699178768547
1780422205.378565,-0.1220703050494194,-0.2099609375,0.9624022841453552,0.9925738819750065,0.202178955078125,-0.125885009765625,-0.5168914794921875,0.5691222778382484
1780422205.386558,-0.12939453125,-0.19580078125,0.9648436903953552,0.9929774607468418,0.0209808349609375,-0.0057220458984375,-0.3337860107421875,0.3344937042936767
1780422205.397206,-0.1318359375,-0.19921875,0.9638671278953552,0.9930300423478171,0.4482269287109375,-0.0667572021484375,-0.0896453857421875,0.4619525937206033
1780422205.407854,-0.1201171875,-0.20068359375,0.9604491591453552,0.988516378638384,0.0209808349609375,-0.0057220458984375,-0.2117156982421875,0.21282968337874986
1780422205.418502,-0.12451171875,-0.2001953125,0.9624022841453552,0.9908579554008984,0.080108642578125,0.057220458984375,-0.6389617919921875,0.6465011579014842
1780422205.426507,-0.1113281100988388,-0.2060546875,0.9643554091453552,0.9923879470684875,0.1430511474609375,0.0591278076171875,-0.0286102294921875,0.15741116115162118
1780422205.434512,-0.1254882663488388,-0.1953125,0.9550780653953552,0.9828877802917388,0.0209808349609375,0.1163482666015625,-0.0896453857421875,0.14836916715312504
1780422205.442517,-0.1171874925494194,-0.2099609375,0.9672850966453552,0.9967231119413823,0.263214111328125,-0.125885009765625,-0.0286102294921875,0.2931676130092506
1780422205.450522,-0.12939453125,-0.20068359375,0.9594725966453552,0.9887388498644133,0.202178955078125,0.057220458984375,0.0934600830078125,0.2299680367326995
1780422205.461198,-0.1127929612994194,-0.2119140625,0.9536132216453552,0.9833656484242164,0.02288818359375,0.179290771484375,-0.1506805419921875,0.2353161180683188
1780422205.471874,-0.1171874925494194,-0.2119140625,0.9599608778953552,0.9900330122702451,0.1430511474609375,0.2994537353515625,0.1544952392578125,0.36606686460156873
1780422205.482549,-0.138671875,-0.20068359375,0.9565429091453552,0.9871565887703379,0.080108642578125,0.240325927734375,0.3986358642578125,0.4723182173383438
1780422205.490545,-0.1313476413488388,-0.2109375,0.9765624403953552,1.0076810168823689,-0.1621246337890625,0.1773834228515625,-0.0896453857421875,0.25648697972536433
1780422205.498543,-0.1220703050494194,-0.21142578125,0.9663085341453552,0.9966715625090224,-0.1621246337890625,0.1163482666015625,0.2155303955078125,0.29372549669747766
1780422205.506541,-0.1201171875,-0.1884765625,0.9711913466453552,0.9965762314763207,0.202178955078125,-0.125885009765625,0.1544952392578125,0.28388755610893324
1780422205.514539,-0.12841796875,-0.22021484375,0.9677733778953552,1.000785223246576,-0.0400543212890625,-0.0057220458984375,0.2155303955078125,0.21929533020779388
1780422205.525217,-0.12548828125,-0.21435546875,0.9692382216453552,1.000558996767488,-0.102996826171875,-0.247955322265625,0.0934600830078125,0.28429733582493627
1780422205.535895,-0.1235351487994194,-0.20263671875,0.9589843153953552,0.9879137057197654,-0.102996826171875,-0.003814697265625,-0.0286102294921875,0.10696468271491968
1780422205.546572,-0.1328125,-0.208984375,0.9653319716453552,0.9965838874029118,-0.286102294921875,0.118255615234375,0.0934600830078125,0.3233785719707651
1780422205.553012,-0.1445312350988388,-0.21533203125,0.9648436903953552,0.9990898400530229,0.080108642578125,-0.003814697265625,0.0324249267578125,0.0865061986575971
1780422205.559453,-0.12841796875,-0.19482421875,0.9633788466453552,0.9912348122786844,0.2651214599609375,0.1163482666015625,0.3376007080078125,0.4447477326759334
1780422205.565893,-0.1416015625,-0.21484375,0.9677733778953552,1.0013961006412446,0.3261566162109375,-0.0057220458984375,0.2765655517578125,0.4276673760371907
1780422205.572333,-0.126953125,-0.20458984375,0.9541015028953552,0.9840141147057244,0.5092620849609375,-0.0057220458984375,0.5207061767578125,0.7283649741041666
1780422205.578773,-0.13818359375,-0.20751953125,0.9599608778953552,0.9918084232963067,0.4482269287109375,-0.5550384521484375,0.5817413330078125,0.9205422540626149
1780422205.590733,-0.12890625,-0.20751953125,0.9633788466453552,0.9938712086095547,0.32806396484375,-0.125885009765625,0.5817413330078125,0.6796292954562798
1780422205.602693,-0.1220703050494194,-0.2060546875,0.9516600966453552,0.9813341088348186,0.02288818359375,0.179290771484375,0.3986358642578125,0.43769807168898595
1780422205.614653,-0.13720703125,-0.19482421875,0.9658202528953552,0.9947818889278364,0.0209808349609375,-0.5550384521484375,0.5817413330078125,0.8043201211760763
1780422205.626612,-0.1303710788488388,-0.201171875,0.9702147841453552,0.999391549326611,0.2651214599609375,-0.3719329833984375,0.2155303955078125,0.5050513677431588
1780422205.637289,-0.1298828125,-0.2021484375,0.9584960341453552,0.9881539268954891,-0.1621246337890625,-0.3108978271484375,0.3986358642578125,0.5308977378737175
1780422205.647965,-0.1328125,-0.20849609375,0.9482421278953552,0.9799351582532234,-0.591278076171875,-0.003814697265625,0.2155303955078125,0.6293470160924703
1780422205.658641,-0.130859375,-0.2080078125,0.9619140028953552,0.9928091332439439,-0.2841949462890625,-0.0667572021484375,0.2155303955078125,0.3628727640960183
1780422205.666615,-0.1215820237994194,-0.20263671875,0.9658202528953552,0.994310107159621,-0.408172607421875,0.179290771484375,-0.0286102294921875,0.4467310190938504
1780422205.674589,-0.1357421875,-0.22216796875,0.9643554091453552,0.9988823268802445,-0.6504058837890625,0.1773834228515625,0.0324249267578125,0.6749400478896013
1780422205.682563,-0.12939453125,-0.18505859375,0.9545897841453552,0.9809338835175441,-0.5283355712890625,-0.0057220458984375,0.0934600830078125,0.5365687326097478
1780422205.690537,-0.13330078125,-0.2041015625,0.9526366591453552,0.9833326753670019,-0.6504058837890625,-0.0057220458984375,0.0324249267578125,0.651238766776015
1780422205.701215,-0.12890625,-0.2041015625,0.9653319716453552,0.9950578297690607,-0.774383544921875,-0.308990478515625,0.3986358642578125,0.9241512553319708
1780422205.711892,-0.1220703050494194,-0.21142578125,0.9658202528953552,0.9961981636476144,-0.3452301025390625,-0.4940032958984375,-0.0896453857421875,0.6093105737163244
1780422205.72257,-0.1357421875,-0.21240234375,0.9628905653953552,0.9953386047095557,-0.3452301025390625,-0.1888275146484375,0.1544952392578125,0.42273920203923154
1780422205.733231,-0.1318359375,-0.21435546875,0.9716796278953552,1.0037381534376344,-0.0400543212890625,-0.3108978271484375,0.2765655517578125,0.41803147249776595
1780422205.743892,-0.13427734375,-0.197265625,0.9707030653953552,0.999604208183987,0.0209808349609375,0.1163482666015625,0.3986358642578125,0.41579762727728437
1780422205.754555,-0.12841796875,-0.21435546875,0.9633788466453552,0.9952578780620845,0.080108642578125,-0.125885009765625,0.2765655517578125,0.31424979668808783
1780422205.762656,-0.138671875,-0.20263671875,0.9511718153953552,0.9823539846227927,0.3261566162109375,-0.0667572021484375,0.1544952392578125,0.3670196742549163
1780422205.770759,-0.1259765625,-0.2080078125,0.9487304091453552,0.9794012117602595,0.3261566162109375,-0.0057220458984375,0.4596710205078125,0.5636562136640795
1780422205.778861,-0.12939453125,-0.20703125,0.9658202528953552,0.9961996005303444,0.385284423828125,-0.247955322265625,0.5207061767578125,0.6935855041724549
1780422205.786963,-0.12353515625,-0.20654296875,0.9599608778953552,0.9896695508397723,0.4482269287109375,-0.3719329833984375,0.3986358642578125,0.7057988920605326
1780422205.797497,-0.1318359375,-0.19482421875,0.9555663466453552,0.9840956424399018,0.6313323974609375,-0.1888275146484375,0.0934600830078125,0.6655608262870556
1780422205.80803,-0.1259765625,-0.21435546875,0.9550780653953552,0.986910569546037,0.51116943359375,-0.125885009765625,0.0324249267578125,0.5274396661225776
1780422205.818565,-0.13330078125,-0.19482421875,0.9702147841453552,0.99852005581642,0.0209808349609375,-0.0057220458984375,0.0934600830078125,0.09595688803180898
1780422205.829211,-0.12548828125,-0.203125,0.9780272841453552,1.0067494439476083,0.690460205078125,-0.125885009765625,0.1544952392578125,0.7186453293757267
1780422205.839854,-0.1230468675494194,-0.19873046875,0.9628905653953552,0.9908544654744742,0.690460205078125,-0.492095947265625,0.3376007080078125,0.9126159949064861
1780422205.850499,-0.1245117112994194,-0.19287109375,0.9726561903953552,0.9993810533372327,1.056671142578125,-0.675201416015625,0.7038116455078125,1.4379852878591213
1780422205.861171,-0.1318359375,-0.19970703125,0.9541015028953552,0.9836530336324735,1.056671142578125,-0.675201416015625,0.7038116455078125,1.4379852878591213
1780422205.871845,-0.1396484375,-0.19873046875,0.9609374403953552,0.991159043574422,1.4247894287109375,-1.2226104736328125,0.9479522705078125,2.1031915731963187
1780422205.882519,-0.12646484375,-0.19580078125,0.9726561903953552,1.0001956645363086,1.48773193359375,-1.285552978515625,1.0700225830078125,2.23851314379695
1780422205.890615,-0.1396484375,-0.203125,0.9653319716453552,0.9963068137887547,1.850128173828125,-1.224517822265625,1.4362335205078125,2.6429500339713208
1780422205.898713,-0.1230468675494194,-0.2099609375,0.9667968153953552,0.996955469992619,1.9741058349609375,-0.9822845458984375,1.8634796142578125,2.886959135403923
1780422205.90681,-0.1337890625,-0.2236328125,0.9824218153953552,1.0163974475745177,2.826690673828125,-0.858306884765625,2.4738311767578125,3.853143076118757
1780422205.914907,-0.1376953125,-0.20849609375,0.9819335341453552,1.0132245978422894,3.8661956787109375,-1.0433197021484375,2.5348663330078125,4.7393599096492665
1780422205.925462,-0.1435546875,-0.20166015625,0.9858397841453552,1.0164422496756802,5.3310394287109375,-1.3484954833984375,2.3517608642578125,5.980735792682308
1780422205.936017,-0.13037109375,-0.20947265625,0.9877929091453552,1.018140583200496,6.5517425537109375,-1.4705657958984375,3.5114288330078125,7.577468356875648
1780422205.946572,-0.1298828125,-0.18896484375,0.9960936903953552,1.0221447535460964,8.258819580078125,-1.712799072265625,3.1452178955078125,9.001898529113644
1780422205.954558,-0.1337890625,-0.2099609375,1.0146484375,1.04474617024505,9.847640991210938,-2.2029876708984375,3.6945343017578125,10.746104944433288
1780422205.962545,-0.1220703050494194,-0.2080078125,1.04736328125,1.0747735818983737,11.617660522460938,-2.0771026611328125,3.6945343017578125,12.366647693975011
1780422205.970532,-0.1215820237994194,-0.23583984375,1.037109375,1.070513183535858,13.874053955078125,-2.445220947265625,4.6710968017578125,14.8420896089721
1780422205.978518,-0.1206054612994194,-0.22265625,1.0400390625,1.0704217554240885,16.073226928710938,-2.9964447021484375,4.3048858642578125,16.907375522509653
1780422205.989193,-0.142578125,-0.22998046875,1.04638671875,1.0808074310030336,18.878936767578125,-2.750396728515625,4.4879913330078125,19.59900512382187
1780422205.999867,-0.1450195163488388,-0.2353515625,1.046875,1.0827595687493334,21.261215209960938,-2.4471282958984375,4.9152374267578125,21.95876289917676
1780422206.01054,-0.1318359375,-0.24658203125,1.04736328125,1.084044858602561,24.005889892578125,-4.032135009765625,5.0983428955078125,24.87034303245006
1780422206.018547,-0.14599609375,-0.22705078125,1.02294921875,1.0579659828169001,27.853012084960938,-4.8236846923828125,5.4035186767578125,28.779441104833477
1780422206.026553,-0.0986328050494194,-0.244140625,0.9770507216453552,1.0119096736739979,29.438018798828125,-4.703521728515625,5.9528350830078125,30.399939358101776
1780422206.034559,-0.1201171800494194,-0.20263671875,0.9482421278953552,0.9770634113732345,30.172348022460938,-3.9730072021484375,6.1969757080078125,31.057332134980054
1780422206.042565,-0.1059570163488388,-0.16162109375,0.9853515028953552,1.0041244203367576,29.01458740234375,-2.750396728515625,5.3424835205078125,29.630273276825708
1780422206.053253,-0.1127929612994194,-0.16845703125,0.9545897841453552,0.975879951372571,27.975082397460938,-1.8939971923828125,4.9762725830078125,28.477284795602934
1780422206.063941,-0.0927734300494194,-0.15380859375,0.9296874403953552,0.9468805255486852,27.54974365234375,-1.590728759765625,4.0607452392578125,27.892802749009558
1780422206.074629,-0.0830078125,-0.1220703125,0.8945311903953552,0.9066297528318901,26.510238647460938,-1.8367767333984375,2.5348663330078125,26.69441981463358
1780422206.082613,-0.0727538987994194,-0.1015624925494194,0.9003905653953552,0.9090166334761617,20.467758178710938,-0.7343292236328125,-0.0286102294921875,20.4809468242096
1780422206.090598,-0.08447265625,-0.1025390625,0.9003905653953552,0.9101390329203979,18.331527709960938,-0.0057220458984375,-1.3713836669921875,18.382753713330544
1780422206.098582,-0.0917968675494194,-0.0732421875,0.8623046278953552,0.8702645311693553,15.096664428710938,0.4825592041015625,-2.8362274169921875,15.368354701120984
1780422206.106566,-0.0810546875,-0.0327148474752903,0.8359375,0.8404948706073727,10.152816772460938,1.0929107666015625,-4.4841766357421875,11.152667055886402
1780422206.117298,-0.0869140550494194,-0.0322265625,0.806640625,0.8119493224309572,4.9037933349609375,1.4019012451171875,-5.2165985107421875,7.295575110664411
1780422206.12803,-0.10400390625,-0.0195312462747097,0.7954100966453552,0.8024185341464113,-1.384735107421875,2.376556396484375,-6.5593719482421875,7.112726058185004
1780422206.138762,-0.1210937425494194,-0.015625,0.8100585341453552,0.8192085594348649,-7.6084136962890625,2.9239654541015625,-6.9255828857421875,10.695851123587287
1780422206.149333,-0.12841796875,-0.052734375,0.8535155653953552,0.8647316979136763,-12.61138916015625,2.986907958984375,-6.8035125732421875,14.637504535904176
1780422206.159904,-0.1337890625,-0.0791015625,0.8662108778953552,0.8800442349216386,-17.18902587890625,2.681732177734375,-7.0476531982421875,18.770288056966468
1780422206.170476,-0.14892578125,-0.0908203125,0.8857421278953552,0.9027548585369742,-21.587371826171875,2.376556396484375,-6.6204071044921875,22.704458436533574
1780422206.17873,-0.1645507663488388,-0.11083984375,0.9399413466453552,0.9606519457129092,-26.712417602539062,2.7408599853515625,-4.9114227294921875,27.298125226094054
1780422206.186982,-0.16796875,-0.16455078125,0.9980468153953552,1.025372081884112,-26.958465576171875,2.315521240234375,-3.4465789794921875,27.276352606195314
1780422206.195234,-0.17919921875,-0.1982421875,1.02099609375,1.0553887190784987,-25.491714477539062,2.0694732666015625,-1.9817352294921875,25.652241639384336
1780422206.203486,-0.150390625,-0.22314453125,1.037109375,1.0714507350445766,-23.357391357421875,1.399993896484375,-0.3948211669921875,23.402640827220004
1780422206.213896,-0.146484375,-0.24755859375,1.05615234375,1.0946235438118606,-20.915985107421875,0.484466552734375,0.3376007080078125,20.92431874859154
1780422206.224306,-0.14697265625,-0.22705078125,1.04296875,1.0774677871880805,-18.596649169921875,0.484466552734375,0.4596710205078125,18.608636855959357
1780422206.234716,-0.12841796875,-0.251953125,1.044921875,1.0825124834146982,-16.338348388671875,0.057220458984375,0.6427764892578125,16.35108754382062
1780422206.242672,-0.12841796875,-0.2236328125,0.9941405653953552,1.0270434622201403,-14.141082763671875,0.057220458984375,0.7038116455078125,14.158702155999206
1780422206.250627,-0.1030273362994194,-0.216796875,0.9965819716453552,1.0250810422806886,-12.91656494140625,-0.247955322265625,0.2155303955078125,12.92074243527796
1780422206.258581,-0.0947265625,-0.18701171875,0.9575194716453552,0.9801989814180057,-11.331558227539062,-0.3108978271484375,-1.0051727294921875,11.380300590896034
1780422206.266537,-0.0966796725988388,-0.1962890625,0.9521483778953552,0.976966165575709,-11.026382446289062,0.4215240478515625,-2.2258758544921875,11.256700924087841
1780422206.277201,-0.095703125,-0.16796875,0.9555663466453552,0.9749254494331755,-10.843276977539062,0.4825592041015625,-3.2024383544921875,11.316586517648085
1780422206.287865,-0.1113281100988388,-0.17138671875,0.9682616591453552,0.9895948645950963,-10.234832763671875,0.484466552734375,-4.1179656982421875,11.042832563837454
1780422206.298528,-0.1171874925494194,-0.1875,0.9663085341453552,0.9912826749077003,-9.624481201171875,-0.003814697265625,-4.5452117919921875,10.643758883857284
1780422206.309199,-0.12646484375,-0.1953125,0.9726561903953552,1.0001001920184633,-8.218765258789062,-0.3719329833984375,-4.9114227294921875,9.581675727710168
1780422206.31987,-0.1210937425494194,-0.2080078125,0.9726561903953552,1.0019935175738741,-7.3642730712890625,-0.3719329833984375,-4.6672821044921875,8.726647366289411
1780422206.330541,-0.1196288987994194,-0.19384765625,0.9736327528953552,0.9999243595253431,-6.2656402587890625,-0.0057220458984375,-4.3010711669921875,7.599835115178426
1780422206.338551,-0.15576171875,-0.20947265625,0.9711913466453552,1.0056605483676901,-5.6552886962890625,0.1163482666015625,-3.5686492919921875,6.688130151750366
1780422206.34656,-0.13720703125,-0.19873046875,0.9736327528953552,1.0031352382129843,-4.680633544921875,0.240325927734375,-2.6531219482421875,5.385642302050306
1780422206.35457,-0.13525390625,-0.193359375,0.9531249403953552,0.9819005138301558,-4.619598388671875,0.850677490234375,-1.9817352294921875,5.098197326979576
1780422206.362581,-0.150390625,-0.18310546875,0.9638671278953552,0.9925647550720753,-4.3125152587890625,0.6046295166015625,-1.0662078857421875,4.4833206404687544
1780422206.373271,-0.1230468675494194,-0.1845703125,1.01611328125,1.040044677983938,-4.375457763671875,0.972747802734375,-0.6999969482421875,4.536613787501579
1780422206.383963,-0.14013671875,-0.2373046875,1.0234375,1.059894396181874,-3.5190582275390625,0.9098052978515625,0.2155303955078125,3.6411495218127055
1780422206.394654,-0.14111328125,-0.23681640625,0.9809569716453552,1.018956107314703,-1.6269683837890625,0.2994537353515625,0.4596710205078125,1.7169729492801835
1780422206.405282,-0.10986328125,-0.19189453125,0.9536132216453552,0.9789134937202097,0.263214111328125,-0.247955322265625,0.5207061767578125,0.6339545983395363
1780422206.415911,-0.10986328125,-0.1806640625,0.9409179091453552,0.9643837181311635,-0.225067138671875,-0.308990478515625,-0.0286102294921875,0.38333911612938165
1780422206.426539,-0.11474609375,-0.18994140625,0.9497069716453552,0.9752885397824086,-0.46539306640625,0.057220458984375,-0.2727508544921875,0.5424554505317586
1780422206.437334,-0.1235351487994194,-0.19384765625,0.9565429091453552,0.9837744578198664,-0.8945465087890625,-0.1888275146484375,-0.4558563232421875,1.0216037754995289
1780422206.44813,-0.1083984375,-0.185546875,0.9882811903953552,1.0113741025772647,-1.0776519775390625,-0.3719329833984375,-1.1272430419921875,1.6032294921667687
1780422206.458925,-0.12255859375,-0.201171875,0.9755858778953552,1.0036227066691168,-1.3217926025390625,-0.1888275146484375,-1.3713836669921875,1.9140231650918524
1780422206.466814,-0.1215820237994194,-0.1943359375,0.9790038466453552,1.0054835537499203,-0.4673004150390625,0.1163482666015625,-1.4324188232421875,1.5112016021085346
1780422206.474704,-0.119140625,-0.19677734375,0.9736327528953552,1.0004381785244325,-0.1621246337890625,0.4215240478515625,-1.0051727294921875,1.101970569440572
1780422206.482594,-0.1215820237994194,-0.208984375,0.9785155653953552,1.007943137893351,0.6313323974609375,0.3604888916015625,-0.8220672607421875,1.0974185246459356
1780422206.490484,-0.1137695237994194,-0.189453125,0.9726561903953552,0.9974447632988093,1.1196136474609375,0.1773834228515625,-0.0896453857421875,1.1371173613432284
1780422206.501178,-0.125,-0.1796875,0.9462890028953552,0.9712751796771786,0.9365081787109375,0.4215240478515625,0.1544952392578125,1.038556147092189
1780422206.511872,-0.1118163987994194,-0.18115234375,0.9628905653953552,0.9861426466865612,0.5702972412109375,0.7877349853515625,0.3986358642578125,1.0510356334359963
1780422206.522566,-0.1318359375,-0.193359375,0.9506835341453552,0.9790647294290594,0.1430511474609375,1.1539459228515625,0.9479522705078125,1.500222760398119
1780422206.5306,-0.11767578125,-0.18212890625,0.9599608778953552,0.9841460334087824,-0.286102294921875,0.789642333984375,1.3751983642578125,1.6113845226503878
1780422206.538634,-0.1142578050494194,-0.18408203125,0.9545897841453552,0.9788680688624555,-0.5893707275390625,0.4215240478515625,1.4972686767578125,1.663386265362673
1780422206.546668,-0.11328125,-0.1962890625,0.9633788466453552,0.9896771391834946,-1.0166168212890625,0.4825592041015625,1.1310577392578125,1.5955139473931292
1780422206.554702,-0.1230468675494194,-0.1845703125,0.9697265028953552,0.9947744579992629,-0.8335113525390625,0.2994537353515625,1.0700225830078125,1.3890147740662127
1780422206.565321,-0.1201171875,-0.18603515625,0.9663085341453552,0.9913573529540279,-1.0166168212890625,0.2994537353515625,0.7038116455078125,1.272215835971356
1780422206.57594,-0.1235351487994194,-0.18896484375,0.9667968153953552,0.992806490420443,-0.95367431640625,0.057220458984375,0.4596710205078125,1.0602199440653832
1780422206.586559,-0.1215820237994194,-0.1904296875,0.9619140028953552,0.9880911918232425,-1.1386871337890625,-0.1888275146484375,-0.0286102294921875,1.1545920336537283
1780422206.597232,-0.12841796875,-0.201171875,0.9614257216453552,0.9906062367208192,-0.5283355712890625,0.1773834228515625,-0.1506805419921875,0.5773283124245127
1780422206.607906,-0.1328125,-0.1962890625,0.9628905653953552,0.9916283563617803,-0.4062652587890625,0.1163482666015625,0.0324249267578125,0.4238393038822399
1780422206.618579,-0.138671875,-0.19775390625,0.9702147841453552,0.999826596829354,-0.774383544921875,0.301361083984375,0.0934600830078125,0.8361956497745215
1780422206.629241,-0.1298827975988388,-0.2001953125,0.9570311903953552,0.9863348334356971,-0.3452301025390625,-0.2460479736328125,0.3986358642578125,0.5819226592086941
1780422206.639902,-0.13134765625,-0.18896484375,0.9624022841453552,0.9895342720209478,-0.5283355712890625,-0.0667572021484375,0.8258819580078125,0.9826881542436774
1780422206.650565,-0.1298827975988388,-0.20556640625,0.9682616591453552,0.9983274658455296,-0.16021728515625,0.362396240234375,1.6193389892578125,1.6671110867393821
1780422206.658564,-0.1416015625,-0.1953125,0.9516600966453552,0.9817611291478892,-0.4062652587890625,0.4215240478515625,2.0465850830078125,2.1286720004280144
1780422206.666564,-0.13330078125,-0.21435546875,0.9526366591453552,0.9855120342301845,-0.3452301025390625,0.5474090576171875,1.7414093017578125,1.8577800882529398
1780422206.674564,-0.1230468675494194,-0.19287109375,0.9677733778953552,0.994447133527485,-0.225067138671875,0.362396240234375,2.1686553955078125,2.2102154818730013
1780422206.682564,-0.10498046875,-0.20556640625,0.9711913466453552,0.9982439972252918,-0.1621246337890625,0.2422332763671875,1.8634796142578125,1.886138284913189
1780422206.693401,-0.126953125,-0.19580078125,0.9575194716453552,0.9855448140320034,-0.4062652587890625,0.4215240478515625,1.8024444580078125,1.8951358810436751
1780422206.704237,-0.1181640550494194,-0.20849609375,0.9687499403953552,0.9979528105229902,-0.3452301025390625,0.2994537353515625,1.4362335205078125,1.5071904620005396
1780422206.715075,-0.1162109300494194,-0.197265625,0.9658202528953552,0.992586252157685,-0.3452301025390625,0.7877349853515625,0.7648468017578125,1.1509564983113447
1780422206.725543,-0.12646484375,-0.19970703125,0.9648436903953552,0.9933778746937786,-0.102996826171875,0.850677490234375,0.5817413330078125,1.0357043579722165
1780422206.736009,-0.12744140625,-0.20263671875,0.9609374403953552,0.9903048602154394,0.263214111328125,0.545501708984375,0.2155303955078125,0.6428896750569901
1780422206.746475,-0.1259765475988388,-0.18603515625,0.9638671278953552,0.989706527281257,0.385284423828125,0.362396240234375,0.2765655517578125,0.59687823431558
1780422206.754482,-0.125,-0.2109375,0.9594725966453552,0.9903066659472866,0.568389892578125,0.484466552734375,0.2765655517578125,0.7964065639624053
1780422206.762489,-0.1298827975988388,-0.20458984375,0.9604491591453552,0.9905499142298535,0.32806396484375,0.545501708984375,-0.0286102294921875,0.6371943383030569
1780422206.770495,-0.12890625,-0.19775390625,0.9682616591453552,0.9966213269327083,0.385284423828125,0.545501708984375,0.2765655517578125,0.7228448700575714
1780422206.786505,-0.1308593600988388,-0.18701171875,0.9570311903953552,0.9838730885967241,0.385284423828125,0.545501708984375,0.7038116455078125,0.9702407093612692
1780422206.794508,-0.138671875,-0.19140625,0.9726561903953552,1.0009626896990136,0.202178955078125,0.118255615234375,0.7648468017578125,0.7999070887109937
1780422206.802512,-0.12646484375,-0.20068359375,0.9663085341453552,0.9949972083715974,0.202178955078125,-0.003814697265625,0.7038116455078125,0.7322852682828773
1780422206.810515,-0.13330078125,-0.1953125,0.9594725966453552,0.9881820351794961,0.3261566162109375,0.1773834228515625,0.8258819580078125,0.9054965629772005
1780422206.820125,-0.1166992038488388,-0.201171875,0.9697265028953552,0.997225309490099,0.5702972412109375,0.2994537353515625,0.5817413330078125,0.8679484209781803
1780422206.829734,-0.125,-0.19091796875,0.9633788466453552,0.990037106857799,0.2651214599609375,-0.0057220458984375,-0.2117156982421875,0.33933120579053705
1780422206.839343,-0.1206054612994194,-0.1943359375,0.9589843153953552,0.9858818646640923,0.385284423828125,-0.125885009765625,-0.2727508544921875,0.4885531205042909
1780422206.848952,-0.1196288987994194,-0.19384765625,0.9531249403953552,0.9799669072296417,0.263214111328125,-0.125885009765625,-0.1506805419921875,0.3283798559915109
1780422206.858561,-0.1259765625,-0.203125,0.9648436903953552,0.9940086553043914,0.263214111328125,-0.125885009765625,-0.3337860107421875,0.4433303565662178
1780422206.870543,-0.1157226487994194,-0.197265625,0.9614257216453552,0.9882534474987105,-0.1621246337890625,0.2422332763671875,-0.4558563232421875,0.5410788708688462
1780422206.882523,-0.1357421875,-0.2001953125,0.9663085341453552,0.9961206190900793,0.1430511474609375,-0.1277923583984375,-0.3337860107421875,0.38497742612016783
1780422206.894503,-0.126953125,-0.18798828125,0.9736327528953552,0.999708671236367,0.202178955078125,-0.125885009765625,-0.2117156982421875,0.31866424719813013
1780422206.906483,-0.1445312350988388,-0.20068359375,0.9614257216453552,0.9927248364783179,0.2040863037109375,-0.0667572021484375,-0.4558563232421875,0.5038975400227372
1780422206.914515,-0.134765625,-0.19873046875,0.9575194716453552,0.9871672155573419,-0.1621246337890625,0.1163482666015625,-0.3337860107421875,0.38888869485960836
1780422206.92255,-0.13720703125,-0.18798828125,0.9702147841453552,0.9977384881250125,-0.0400543212890625,0.2994537353515625,-0.1506805419921875,0.3376114838168134
1780422206.930586,-0.12890625,-0.1953125,0.9565429091453552,0.9847528273539364,-0.0400543212890625,0.1163482666015625,-0.1506805419921875,0.19454021057399698
1780422206.938621,-0.1206054612994194,-0.197265625,0.9721679091453552,0.9992846679870246,-0.2231597900390625,0.2994537353515625,-0.1506805419921875,0.40271262364289184
1780422206.949294,-0.1201171875,-0.1796875,0.9609374403953552,0.9849449226950393,0.02288818359375,0.545501708984375,-0.2727508544921875,0.6103187790649354
1780422206.959966,-0.11328125,-0.18701171875,0.9711913466453552,0.9954991995728626,0.02288818359375,0.545501708984375,-0.6389617919921875,0.8404571107908853
1780422206.97064,-0.12353515625,-0.205078125,0.9633788466453552,0.9926816077408518,0.202178955078125,0.179290771484375,-0.8220672607421875,0.8653416041079434
1780422206.978611,-0.1313476413488388,-0.20654296875,0.9614257216453552,0.9920945615561345,0.1430511474609375,0.2422332763671875,-1.1882781982421875,1.2211247550464173
1780422206.986583,-0.1337890625,-0.1884765625,0.9658202528953552,0.9930919840373766,-0.041961669921875,0.057220458984375,-1.3103485107421875,1.3122683347064668
1780422206.994555,-0.1279296875,-0.1865234375,0.9541015028953552,0.9805440711706127,-0.041961669921875,0.057220458984375,-1.3103485107421875,1.3122683347064668
1780422207.002527,-0.138671875,-0.193359375,0.9609374403953552,0.9899588381190316,0.0209808349609375,0.2994537353515625,-1.3103485107421875,1.3442938498170445
1780422207.013245,-0.1225585862994194,-0.203125,0.9462890028953552,0.9755732928393427,-0.102996826171875,0.179290771484375,-1.3103485107421875,1.3265620025257812
1780422207.023963,-0.1240234300494194,-0.18359375,0.9716796278953552,0.9966191727571478,0.1430511474609375,-0.1888275146484375,-1.4934539794921875,1.5121257387992733
1780422207.034681,-0.1376953125,-0.2060546875,0.9555663466453552,0.9871806198291914,-0.3452301025390625,-0.3108978271484375,-1.1882781982421875,1.2758708238071952
1780422207.045308,-0.1298828125,-0.193359375,0.9599608778953552,0.9878169263446147,-0.102996826171875,-0.675201416015625,-0.7610321044921875,1.0225825944434965
1780422207.055935,-0.1303710788488388,-0.18994140625,0.9653319716453552,0.9924415204379282,-0.408172607421875,-0.125885009765625,-0.6389617919921875,0.7685857692926217
1780422207.066564,-0.13623046875,-0.19482421875,0.9663085341453552,0.9951218015848802,-0.286102294921875,-0.492095947265625,-0.6389617919921875,0.8557365927086932
1780422207.074727,-0.1347656100988388,-0.18505859375,0.9667968153953552,0.9935313457786021,-0.286102294921875,-0.247955322265625,-0.6389617919921875,0.7427035321211829
1780422207.082889,-0.1206054538488388,-0.1953125,0.9663085341453552,0.9931992908356708,-0.5893707275390625,-0.0667572021484375,-0.6999969482421875,0.9175021013964965
1780422207.09105,-0.1113281175494194,-0.197265625,0.9575194716453552,0.9839467542218624,-0.2231597900390625,0.1163482666015625,-0.6999969482421875,0.7438635214740957
1780422207.099213,-0.1298828125,-0.1943359375,0.9565429091453552,0.9846879397165242,0.080108642578125,-0.003814697265625,-0.6389617919921875,0.6439752465404285
1780422207.109664,-0.13916015625,-0.1943359375,0.9638671278953552,0.9930618540296317,-0.2231597900390625,0.1163482666015625,-0.5779266357421875,0.6303462598697241
1780422207.120116,-0.1347656100988388,-0.20166015625,0.9716796278953552,1.001493828014403,-0.225067138671875,0.362396240234375,-0.5779266357421875,0.7183212708435126
1780422207.130569,-0.12841796875,-0.19873046875,0.9604491591453552,0.9891650828908644,-0.286102294921875,-0.003814697265625,-0.5168914794921875,0.5908010465854088
1780422207.138567,-0.1313476413488388,-0.20654296875,0.9716796278953552,1.0020346800858855,-0.1621246337890625,0.4825592041015625,-0.5779266357421875,0.7701603590452147
1780422207.146566,-0.12939453125,-0.1923828125,0.9575194716453552,0.985189134046259,-0.3452301025390625,0.4825592041015625,-0.7610321044921875,0.9649958928565825
1780422207.154565,-0.123046875,-0.19677734375,0.9697265028953552,0.9971115017279796,0.0209808349609375,0.2994537353515625,-0.3948211669921875,0.49598033121963064
1780422207.162564,-0.11474609375,-0.2001953125,0.9633788466453552,0.9906278975183322,0.02288818359375,0.728607177734375,-0.0896453857421875,0.7344580202973741
1780422207.173269,-0.1357421875,-0.193359375,0.9472655653953552,0.9762816400770107,-0.4062652587890625,0.4215240478515625,-0.7610321044921875,0.9601582408561196
1780422207.183974,-0.1245117112994194,-0.19287109375,0.9770507216453552,1.0036585762712043,-0.46539306640625,0.545501708984375,-0.5168914794921875,0.8839341730782381
1780422207.194679,-0.12841796875,-0.19580078125,0.9599608778953552,0.9881062734977485,-0.4673004150390625,0.4215240478515625,-0.5168914794921875,0.8143887292837917
1780422207.205301,-0.1264648288488388,-0.19140625,0.9550780653953552,0.9822442753583057,-0.591278076171875,0.545501708984375,-0.6389617919921875,1.0273529332669737
1780422207.215925,-0.14111328125,-0.20703125,0.9492186903953552,0.9817285871449284,-0.6504058837890625,0.6046295166015625,-0.6389617919921875,1.0940186642096825
1780422207.226548,-0.1298827975988388,-0.1953125,0.9672850966453552,0.9953175231857244,-0.4062652587890625,0.2994537353515625,-0.2727508544921875,0.5736872220480128
1780422207.237318,-0.140625,-0.20703125,0.9541015028953552,0.9863807616375828,-0.3452301025390625,-0.0667572021484375,-0.3948211669921875,0.5287003892970874
1780422207.248085,-0.10546875,-0.181640625,0.9658202528953552,0.9883955355928117,-0.408172607421875,0.179290771484375,0.2155303955078125,0.49518017890136573
1780422207.258852,-0.13818359375,-0.2041015625,0.9526366591453552,0.9840064825722593,-0.4062652587890625,-0.1888275146484375,-0.0286102294921875,0.448916290658788
1780422207.266792,-0.1337890625,-0.19970703125,0.9584960341453552,0.9881786574540513,-0.1010894775390625,-0.0667572021484375,0.3376007080078125,0.35867791199791527
1780422207.27473,-0.13134765625,-0.18994140625,0.9716796278953552,0.9987448342181559,-0.2841949462890625,-0.0667572021484375,0.5207061767578125,0.5969574641870798
1780422207.28267,-0.13427734375,-0.19873046875,0.9658202528953552,0.9951547443272319,-0.2231597900390625,-0.3719329833984375,0.7038116455078125,0.8267316785888609
1780422207.290609,-0.1259765625,-0.197265625,0.9707030653953552,0.9985230404321657,-0.286102294921875,0.179290771484375,1.0700225830078125,1.1220285344169
1780422207.301245,-0.126953125,-0.19873046875,0.9667968153953552,0.9951416871056407,-0.0400543212890625,0.4825592041015625,0.8258819580078125,0.9573655219820061
1780422207.311881,-0.13134765625,-0.197265625,0.9750975966453552,1.003484557226745,-0.4062652587890625,0.4215240478515625,0.7038116455078125,0.9154697241135422
1780422207.322516,-0.12646484375,-0.2080078125,0.9653319716453552,0.9955533246624492,-0.5283355712890625,0.1163482666015625,0.8258819580078125,0.9872975253657564
1780422207.33062,-0.12744140625,-0.20166015625,0.9721679091453552,1.0010087782920805,-0.225067138671875,0.240325927734375,0.5207061767578125,0.6160736083984375
1780422207.338724,-0.13720703125,-0.1943359375,0.9672850966453552,0.9961087712798521,0.0209808349609375,0.4215240478515625,0.5207061767578125,0.6702668430308654
1780422207.346828,-0.1245117112994194,-0.19287109375,0.9760741591453552,1.0027079281656965,0.02288818359375,0.728607177734375,0.0934600830078125,0.7349333816817001
1780422207.354931,-0.1318359375,-0.18896484375,0.9809569716453552,1.0076532175354733,-0.102996826171875,0.789642333984375,-0.0896453857421875,0.8013611277112437
1780422207.365515,-0.13134765625,-0.19287109375,0.9643554091453552,0.9921858801427256,-0.1010894775390625,1.0929107666015625,-0.0896453857421875,1.10123082113043
1780422207.376097,-0.12890625,-0.1923828125,0.9497069716453552,0.9775332730021338,-0.0400543212890625,0.6046295166015625,-0.3337860107421875,0.6918051040336074
1780422207.386681,-0.1435546875,-0.2021484375,0.9570311903953552,0.9886256311043451,-0.3452301025390625,0.2422332763671875,-0.3948211669921875,0.577706272930965
1780422207.397513,-0.1298827975988388,-0.21044921875,0.9663085341453552,0.9974520529562969,-0.5283355712890625,0.4825592041015625,-0.5168914794921875,0.8827109736057981
1780422207.408345,-0.1401367038488388,-0.19970703125,0.9594725966453552,0.9900044736311479,-0.713348388671875,0.179290771484375,-0.4558563232421875,0.8653416041079434
1780422207.419177,-0.13671875,-0.2001953125,0.9536132216453552,0.9839453014499172,-0.713348388671875,0.057220458984375,-0.3948211669921875,0.8173272652078944
1780422207.429622,-0.13623046875,-0.2041015625,0.9702147841453552,1.0007661643985595,-0.591278076171875,0.179290771484375,-0.6389617919921875,0.8888346953887677
1780422207.440069,-0.125,-0.20068359375,0.9658202528953552,0.9943378026120011,-0.3452301025390625,0.2422332763671875,-0.0286102294921875,0.42270477772354254
1780422207.450515,-0.13818359375,-0.2119140625,0.9663085341453552,0.998876598298841,-0.5893707275390625,0.1163482666015625,-0.3337860107421875,0.6872465893609774
1780422207.458539,-0.1259765625,-0.19921875,0.9726561903953552,1.000808807597777,-0.5283355712890625,0.1163482666015625,-0.2727508544921875,0.6058617199136671
1780422207.466565,-0.1328125,-0.19384765625,0.9614257216453552,0.9897249578701954,0.02288818359375,-0.125885009765625,-0.1506805419921875,0.19767531552263193
1780422207.474591,-0.125,-0.2001953125,0.9570311903953552,0.9857037397395443,-0.102996826171875,0.057220458984375,0.2155303955078125,0.24563362659785826
1780422207.482617,-0.1279296875,-0.201171875,0.9560546278953552,0.9853306956321768,-0.0400543212890625,0.1773834228515625,0.2765655517578125,0.3309950630682683
1780422207.493381,-0.12744140625,-0.19140625,0.9736327528953552,1.0004191132103724,0.3261566162109375,-0.0057220458984375,0.0324249267578125,0.3278143620750654
1780422207.504145,-0.1108398288488388,-0.20654296875,0.9667968153953552,0.9948072918198297,0.263214111328125,-0.247955322265625,0.0324249267578125,0.3630631985169442
1780422207.514909,-0.1303710788488388,-0.19580078125,0.9584960341453552,0.9869393150597936,0.5702972412109375,0.2994537353515625,-0.5168914794921875,0.8258863629582658
