timestamp,accel_x,accel_y,accel_z,accel_rms,gyro_x,gyro_y,gyro_z,gyro_rms
1782814210.475434,-0.0068359337747097015,0.015624996274709702,1.00146484375,1.001610055743436,0.06103515625,-0.164031982421875,-0.1850128173828125,0.25467925740357844
1782814210.483452,-0.02294921875,0.0126953125,0.9907225966453552,0.9910696752017102,0.1850128173828125,0.0820159912109375,-0.1201629638671875,0.23536249339175838
1782814210.491471,-0.009765621274709702,0.0053710900247097015,0.9951171278953552,0.9951795386751253,0.2460479736328125,0.0209808349609375,-0.1850128173828125,0.30856043712763503
1782814210.49949,-0.010742183774709702,0.009765621274709702,0.9858397841453552,0.9859466729366712,-0.1220703125,0.14495849609375,0.1850128173828125,0.26484687911987054
1782814210.510136,-0.014648430049419403,0.00439453125,0.9985350966453552,0.9986522055452383,-0.1220703125,0.202178955078125,-0.1850128173828125,0.30001205586818686
1782814210.520782,-0.0029296875,0.01708984375,0.9975585341453552,0.9977092135860413,-0.0591278076171875,-0.2841949462890625,0.0,0.290280666131691
1782814210.531428,-0.013183590024709702,0.0195312462747097,0.9941405653953552,0.9944198008847066,0.1239776611328125,-0.0400543212890625,0.0629425048828125,0.14469474086784498
1782814210.539435,-0.013183590024709702,0.009765621274709702,1.00439453125,1.0045285206552017,0.1239776611328125,0.2040863037109375,-0.1850128173828125,0.3020785037341807
1782814210.547442,-0.010742180049419403,0.01806640625,0.9912108778953552,0.9914337062683944,0.0,-0.408172607421875,0.0629425048828125,0.4129971384531556
1782814210.555449,-0.0126953125,0.02294921875,0.9868163466453552,0.9871647986061871,0.06103515625,0.019073486328125,0.1201629638671875,0.1361184266163773
1782814210.563456,-0.011230465024709702,0.009277347475290298,0.9765624403953552,0.9766710769300891,0.0629425048828125,-0.0400543212890625,0.1850128173828125,0.19948897255431502
1782814210.574121,-0.0244140587747097,0.0205078087747097,0.9965819716453552,0.9970918928038371,0.0,-0.03814697265625,0.3032684326171875,0.30565819757520374
1782814210.584786,-0.013671875,-0.0029296875,0.9877929091453552,0.9878918638154215,0.2460479736328125,0.0209808349609375,-0.1850128173828125,0.30856043712763503
1782814210.595451,-0.010253902524709702,0.010742183774709702,1.00341796875,1.003527855637108,0.1239776611328125,0.0209808349609375,0.2460479736328125,0.27631551028567647
1782814210.606106,-0.009765617549419403,0.00732421875,0.9985350966453552,0.9986097088948055,-0.2422332763671875,0.1430511474609375,0.0629425048828125,0.28827478191891154
1782814210.61676,-0.0205078087747097,0.0170898400247097,0.9951171278953552,0.9954751283098493,-0.0591278076171875,0.0209808349609375,-0.1201629638671875,0.13555600670800333
1782814210.627414,-0.0087890625,0.01708984375,1.00244140625,1.002625594797732,-0.0591278076171875,0.0820159912109375,0.1201629638671875,0.1570409447668815
1782814210.635422,-0.015624996274709702,-0.00048827752470970154,0.9892577528953552,0.9893812614897725,-0.1220703125,0.019073486328125,-0.0591278076171875,0.13697100681593885
1782814210.643429,-0.0170898400247097,0.015624996274709702,0.9921874403953552,0.9924576162330265,-0.0591278076171875,0.3871917724609375,0.1850128173828125,0.4331781491384156
1782814210.651436,-0.0190429650247097,0.015136715024709702,0.9965819716453552,0.9968788195499065,0.0,-0.164031982421875,0.0629425048828125,0.17569362588942486
1782814210.659443,-0.0087890625,0.00341796875,0.9892577528953552,0.9893026997807964,0.0629425048828125,0.0820159912109375,0.0629425048828125,0.1210377654129418
1782814210.670114,-0.0180664025247097,0.0161132775247097,0.9990233778953552,0.999316637605028,0.0,0.080108642578125,0.0,0.080108642578125
1782814210.680785,-0.009765621274709702,0.011230465024709702,0.9941405653953552,0.9942519572362676,-0.0591278076171875,0.1430511474609375,0.2460479736328125,0.2906876910918645
1782814210.691456,-0.009765621274709702,0.010253902524709702,0.9985350966453552,0.9986354936153713,-0.1220703125,0.324249267578125,0.0629425048828125,0.3521370580324102
1782814210.702276,-0.01904296875,0.0224609375,0.9809569716453552,0.9813988529603133,0.0629425048828125,-0.1010894775390625,0.2460479736328125,0.2733504101311295
1782814210.713098,-0.012695308774709702,0.014648433774709702,0.9941405653953552,0.9943295284972351,-0.0591278076171875,0.0209808349609375,-0.0591278076171875,0.08621131423942202
1782814210.72392,-0.0078125,0.0126953125,0.9975585341453552,0.9976699029047396,0.0,-0.102996826171875,0.1201629638671875,0.15826396964194486
1782814210.731808,-0.00341796875,0.0166015625,0.9848632216453552,0.9850090658148714,-0.2422332763671875,-0.0400543212890625,-0.1850128173828125,0.3074264976046073
1782814210.739697,-0.0161132775247097,0.0073242150247097015,0.9838866591453552,0.9840458525305236,-0.0591278076171875,-0.1010894775390625,-0.0591278076171875,0.13119175940717806
1782814210.747584,-0.015624996274709702,0.009765621274709702,0.9931640028953552,0.9933349105485978,-0.1811981201171875,-0.2231597900390625,0.1201629638671875,0.31156410016179364
1782814210.755472,-0.0166015587747097,0.0229492150247097,0.9936522841453552,0.9940559038662173,0.0,0.202178955078125,0.1850128173828125,0.2740548712802026
1782814210.76614,-0.01416015625,0.015625,0.9794921278953552,0.9797190818081453,0.3070831298828125,-0.0400543212890625,-0.1850128173828125,0.36074109816941796
1782814210.776806,-0.00390625,0.02587890625,0.9985350966453552,0.998878028495125,0.0629425048828125,0.2651214599609375,0.0,0.2724906373671247
1782814210.787473,-0.011230465024709702,0.013183590024709702,1.00146484375,1.001614578397211,0.06103515625,0.019073486328125,0.0629425048828125,0.08972651280471096
1782814210.795575,-0.0029296875,0.02392578125,0.9799804091453552,0.9802768121229678,0.1850128173828125,0.0820159912109375,0.2460479736328125,0.318584322808031
1782814210.803679,-0.01318359375,0.0185546875,0.9907225966453552,0.9909840296776244,0.2460479736328125,-0.1010894775390625,-0.0591278076171875,0.2724973127051879
1782814210.811781,-0.00830078125,0.0166015625,0.9907225966453552,0.9908964518810818,-0.1354217529296875,-0.2956390380859375,0.1888275146484375,0.37602835304699245
1782814210.819884,-0.0029296837747097015,0.0205078087747097,1.0009765625,1.0011909068414855,0.1697540283203125,0.2536773681640625,0.1277923583984375,0.3309071230944621
1782814210.830413,-0.00830078125,0.01708984375,0.9926757216453552,0.9928575195227594,0.049591064453125,-0.05340576171875,0.0667572021484375,0.09883305670190136
1782814210.840942,-0.0317382775247097,0.0161132775247097,0.9980468153953552,0.9986813314033832,0.0476837158203125,-0.1735687255859375,0.3108978271484375,0.35924545673060154
1782814210.851471,-0.011718746274709702,0.0166015587747097,1.01318359375,1.0133873570418008,-0.4405975341796875,-0.2346038818359375,-0.0553131103515625,0.5022197812456968
1782814210.859493,-0.0073242150247097015,0.0068359337747097015,0.9863280653953552,0.9863789468063704,-0.2574920654296875,0.0705718994140625,0.0667572021484375,0.2752073414443052
1782814210.867515,-0.0058593712747097015,0.0205078087747097,0.9990233778953552,0.9992510255355862,0.0476837158203125,-0.1735687255859375,-0.2384185791015625,0.29873610112734417
1782814210.875537,-0.02392578125,0.0068359375,0.9951171278953552,0.9954281848936304,-0.0743865966796875,-0.1125335693359375,-0.4215240478515625,0.4425829785590936
1782814210.883559,-0.01708984375,0.0087890625,0.9838866591453552,0.9840743205791099,-0.0095367431640625,-0.1125335693359375,0.1888275146484375,0.22002405319866605
1782814210.891655,-0.0126953125,0.0078125,0.9926757216453552,0.9927876381481839,-0.0743865966796875,-0.1125335693359375,-0.1163482666015625,0.17814064425127976
1782814210.899751,-0.0078124962747097015,0.009765621274709702,1.00244140625,1.0025194139872808,-0.133514404296875,-0.05340576171875,0.2498626708984375,0.2882874014729228
1782814210.907847,-0.0273437462747097,0.015136715024709702,0.9907225966453552,0.9912154478748756,-0.072479248046875,0.12969970703125,-0.1773834228515625,0.23138741129103965
1782814210.915943,-0.0170898400247097,0.015136715024709702,0.9887694716453552,0.9890329877368319,-0.1354217529296875,0.0705718994140625,0.0667572021484375,0.16666123782135192
1782814210.926817,-0.0195312462747097,0.0058593712747097015,0.9926757216453552,0.9928851344223586,0.0476837158203125,-0.1735687255859375,-0.2994537353515625,0.34938857862265965
1782814210.937691,-0.013671875,0.01171875,0.9995116591453552,0.999673849830573,0.2307891845703125,-0.1125335693359375,0.1888275146484375,0.31872132377740575
1782814210.948565,-0.0073242150247097015,0.014648433774709702,0.9916991591453552,0.9918343828419062,-0.1354217529296875,-0.2346038818359375,-0.2384185791015625,0.3608620947118828
1782814210.956315,-0.012695308774709702,0.0205078087747097,0.9897460341453552,0.9900398745465174,0.354766845703125,-0.05340576171875,0.0057220458984375,0.35880974346325745
1782814210.964065,-0.00732421875,0.01416015625,0.9843749403953552,0.9845040261388885,0.232696533203125,-0.05340576171875,0.1888275146484375,0.3043939589377865
1782814210.971815,-0.017578125,0.00830078125,0.9897460341453552,0.9899369199874983,-0.1926422119140625,0.1926422119140625,0.0057220458984375,0.2724973127051879
1782814210.979565,-0.015136715024709702,0.011718746274709702,0.9877929091453552,0.9879783805903013,0.1697540283203125,-0.1125335693359375,-0.0553131103515625,0.21104448473064594
1782814210.990212,-0.0312499962747097,0.013183590024709702,0.9790038466453552,0.9795911907829261,-0.072479248046875,0.12969970703125,0.0057220458984375,0.1486875825706247
1782814211.000859,-0.0195312462747097,0.0205078087747097,1.001953125,1.0023532832784303,-0.072479248046875,-0.17547607421875,0.1888275146484375,0.26777028272190806
1782814211.011506,-0.0205078087747097,0.0170898400247097,0.9785155653953552,0.9788796374293429,-0.1354217529296875,-0.1735687255859375,0.2498626708984375,0.33301127304728995
1782814211.019502,-0.00830078125,0.00830078125,0.9916991591453552,0.9917686364209776,0.0476837158203125,0.0095367431640625,-0.1773834228515625,0.18392815153517375
1782814211.027498,-0.0239257775247097,0.014648433774709702,0.9946288466453552,0.9950244027265278,0.0476837158203125,0.0705718994140625,0.0057220458984375,0.08536317444076633
1782814211.035494,-0.0205078087747097,0.0224609337747097,1.00048828125,1.000950480635956,-0.2574920654296875,-0.1125335693359375,0.1277923583984375,0.30870188669939713
1782814211.04349,-0.011230465024709702,0.0073242150247097015,0.9897460341453552,0.9898368449279195,-0.194549560546875,0.12969970703125,0.3719329833984375,0.43932412823863504
1782814211.054152,-0.011230465024709702,0.0190429724752903,0.9931640028953552,0.9934100335674545,-0.011444091796875,-0.17547607421875,-0.1773834228515625,0.24977529614198396
1782814211.064814,-0.012207027524709702,0.011230465024709702,0.9995116591453552,0.9996492843158349,0.110626220703125,0.12969970703125,0.0667572021484375,0.1830756640018983
1782814211.075476,-0.0170898400247097,0.015624996274709702,0.9843749403953552,0.9846472598951433,-0.194549560546875,-0.17547607421875,0.1277923583984375,0.2915000360158488
1782814211.083466,-0.015136711299419403,0.0126953125,0.9970702528953552,0.9972659525910038,0.0476837158203125,-0.1125335693359375,0.0057220458984375,0.12235310699439716
1782814211.091455,-0.020019523799419403,0.01220703125,0.9936522841453552,0.9939288982278238,-0.194549560546875,-0.17547607421875,0.3108978271484375,0.40656960419813254
1782814211.099442,-0.0058593712747097015,0.0166015587747097,1.0029296875,1.0030841948980818,-0.2574920654296875,-0.1125335693359375,0.1277923583984375,0.30870188669939713
1782814211.10743,-0.0175781212747097,0.0209960900247097,0.9887694716453552,0.9891485703379999,0.2307891845703125,0.0705718994140625,-0.1773834228515625,0.299514472778987
1782814211.11811,-0.0219726525247097,0.0170898400247097,0.9985350966453552,0.998923019718532,0.0476837158203125,-0.2346038818359375,0.0057220458984375,0.23946912104943024
1782814211.12879,-0.0185546875,0.00146484375,0.9916991591453552,0.9918738046974722,0.110626220703125,0.072479248046875,0.0057220458984375,0.13237878951614862
1782814211.13947,0.0068359375,0.01806640625,0.9799804091453552,0.9801707644002609,-0.011444091796875,-0.05340576171875,-0.0553131103515625,0.07773469494749005
1782814211.150133,-0.00390625,0.00634765625,0.9804686903953552,0.980497019054374,-0.1354217529296875,0.0095367431640625,0.0667572021484375,0.15128292922671072
1782814211.160799,-0.0048828087747097015,-0.0048828087747097015,0.9907225966453552,0.9907466614360989,0.598907470703125,0.12969970703125,-0.1163482666015625,0.6237379991704809
1782814211.171463,-0.013671875,0.01171875,0.9926757216453552,0.9928390290534035,-0.0095367431640625,0.1926422119140625,-0.0553131103515625,0.20065271355773884
1782814211.179497,-0.015624996274709702,0.012695308774709702,1.0029296875,1.0031317308520937,0.049591064453125,-0.05340576171875,0.3108978271484375,0.31932570830419155
1782814211.18753,-0.0014648400247097015,0.008789066225290298,0.9887694716453552,0.9888096184297791,0.110626220703125,0.255584716796875,0.3719329833984375,0.46464594295749284
1782814211.195562,-0.0185546837747097,0.0200195275247097,0.9995116591453552,0.9998843005767182,-0.1926422119140625,-0.1125335693359375,-0.4825592041015625,0.5316372931818857
1782814211.203595,-0.010742183774709702,0.0244140587747097,0.9965819716453552,0.996938848168055,0.110626220703125,0.19073486328125,0.1277923583984375,0.2548506143665507
1782814211.214296,-0.014648433774709702,0.0249023400247097,1.00146484375,1.0018814981912632,-0.1926422119140625,-0.2956390380859375,0.1888275146484375,0.40021156022762117
1782814211.224997,-0.01220703125,0.01806640625,0.9975585341453552,0.997796790781048,-0.1926422119140625,-0.1125335693359375,-0.0553131103515625,0.22985727357513172
1782814211.235698,-0.0053710900247097015,0.015624996274709702,0.9951171278953552,0.9952542827575971,-0.255584716796875,0.12969970703125,-0.2384185791015625,0.37281225881794566
1782814211.243642,-0.0214843712747097,0.0190429724752903,0.9990233778953552,0.99943580213599,0.1697540283203125,-0.0514984130859375,-0.0553131103515625,0.18581726738413587
1782814211.251587,-0.0078125,0.00341796875,0.9941405653953552,0.9941771378538246,0.1697540283203125,0.0705718994140625,-0.1773834228515625,0.25546369961389476
1782814211.259532,-0.0214843712747097,0.015624996274709702,0.9838866591453552,0.9842452320239417,-0.1926422119140625,0.1926422119140625,-0.1163482666015625,0.29624139272470584
1782814211.267477,-0.0048828087747097015,0.0166015587747097,0.9931640028953552,0.9933147488195299,0.110626220703125,-0.17547607421875,0.2498626708984375,0.32474816033163556
1782814211.278166,-0.015136715024709702,0.0161132775247097,0.9843749403953552,0.9846231670708783,-0.0743865966796875,0.1926422119140625,0.3108978271484375,0.37323162580674857
1782814211.288855,-0.01904296875,0.01904296875,0.9873046278953552,0.987671857238634,0.049591064453125,-0.05340576171875,0.0057220458984375,0.07310397299475403
1782814211.299544,-0.024414055049419403,0.01318359375,1.001953125,1.0023372276461584,-0.255584716796875,-0.232696533203125,-0.2384185791015625,0.4198983720922241
1782814211.310198,-0.0166015587747097,0.0249023400247097,0.9887694716453552,0.9892223240254393,0.0476837158203125,-0.1125335693359375,0.0667572021484375,0.13926257580773782
1782814211.320854,-0.014648430049419403,0.0234375,0.9956054091453552,0.9959889676239656,0.232696533203125,-0.17547607421875,-0.1773834228515625,0.3411809020014361
1782814211.33151,-0.010253902524709702,0.011718746274709702,1.0009765625,1.0010976726601424,-0.072479248046875,0.072479248046875,-0.2384185791015625,0.2595185959727913
1782814211.339698,-0.011718746274709702,0.009765621274709702,0.9931640028953552,0.9932811450038993,-0.072479248046875,0.00762939453125,-0.1773834228515625,0.19177155096856813
1782814211.347884,-0.011230465024709702,0.014648433774709702,0.9975585341453552,0.9977292864314213,0.0476837158203125,-0.1125335693359375,0.0667572021484375,0.13926257580773782
1782814211.356071,-0.0166015587747097,0.0214843712747097,0.9916991591453552,0.9920707697601135,-0.1354217529296875,-0.1735687255859375,-0.1163482666015625,0.24900215422615135
1782814211.364256,-0.0170898400247097,0.0219726525247097,0.9931640028953552,0.9935540230597262,-0.2574920654296875,-0.2956390380859375,-0.1163482666015625,0.4089517376669442
1782814211.373704,-0.0263671837747097,0.014160159975290298,0.9936522841453552,0.9941029123274998,-0.0095367431640625,-0.1125335693359375,0.0057220458984375,0.1130818089125186
1782814211.383152,-0.014648433774709702,0.0205078087747097,0.9990233778953552,0.9993412112057812,-0.0095367431640625,0.0705718994140625,0.0667572021484375,0.09761079087771596
1782814211.3926,-0.0166015587747097,0.0063476525247097015,0.9897460341453552,0.9899056099208566,0.0476837158203125,0.0095367431640625,-0.0553131103515625,0.0736493475963891
1782814211.402048,-0.0219726525247097,0.0175781212747097,0.9907225966453552,0.9911221172540926,-0.194549560546875,0.12969970703125,-0.0553131103515625,0.24027293998646287
1782814211.411496,-0.0253906212747097,0.0063476525247097015,0.9951171278953552,0.9954612371016719,-0.0095367431640625,0.0095367431640625,-0.0553131103515625,0.05693363783492775
1782814211.419498,-0.029785148799419403,0.00341796875,0.9980468153953552,0.9984970121738922,0.2307891845703125,-0.4177093505859375,-0.1163482666015625,0.4912043041573879
1782814211.4275,-0.0078125,0.01220703125,0.9941405653953552,0.9942462021716678,0.110626220703125,-0.29754638671875,0.1277923583984375,0.34220300966162637
1782814211.435502,-0.009765617549419403,0.02294921875,0.9897460341453552,0.990060223437855,0.0476837158203125,0.1926422119140625,-0.1773834228515625,0.2661759517088482
1782814211.443504,-0.0200195275247097,0.0249023400247097,0.9892577528953552,0.9897736153710032,0.110626220703125,-0.17547607421875,-0.0553131103515625,0.21468477707337544
1782814211.454182,-0.0170898400247097,0.015136715024709702,0.9907225966453552,0.9909855933753652,0.110626220703125,-0.110626220703125,0.0057220458984375,0.1565537071530945
1782814211.46486,-0.00927734375,0.0166015625,0.9780272841453552,0.9782121699903537,-0.194549560546875,-0.17547607421875,0.0667572021484375,0.2703662482095237
1782814211.475538,-0.0048828087747097015,0.0214843712747097,0.9863280653953552,0.9865741090344627,-0.011444091796875,-0.17547607421875,0.0057220458984375,0.17594192698030617
1782814211.48617,-0.0195312462747097,0.015136715024709702,1.001953125,1.0022577784283084,0.110626220703125,0.072479248046875,0.2498626708984375,0.2827061308373022
1782814211.496804,-0.014648430049419403,0.01416015625,1.001953125,1.0021602422892273,-0.011444091796875,-0.17547607421875,0.3108978271484375,0.3571838165229484
1782814211.507438,-0.011718746274709702,0.011230465024709702,0.9912108778953552,0.9913437631906518,0.0476837158203125,-0.2956390380859375,-0.1163482666015625,0.3212679516167135
1782814211.518112,-0.0356445275247097,0.011230465024709702,0.9868163466453552,0.9875237504453332,-0.2574920654296875,0.0705718994140625,0.0057220458984375,0.2670492436900334
1782814211.528786,-0.01708984375,0.01416015625,0.9936522841453552,0.9939001129749939,-0.2574920654296875,-0.1125335693359375,0.0667572021484375,0.28882952069589435
1782814211.53946,-0.01416015625,0.00830078125,0.9887694716453552,0.9889056987661764,0.1697540283203125,0.1926422119140625,-0.0553131103515625,0.2626537494856682
1782814211.550139,-0.0244140587747097,0.0200195275247097,0.9912108778953552,0.9917135837560401,-0.072479248046875,0.072479248046875,-0.1163482666015625,0.15505934972154736
1782814211.560821,-0.024902336299419403,0.01318359375,0.9912108778953552,0.9916112836971024,0.110626220703125,-0.17547607421875,-0.0553131103515625,0.21468477707337544
1782814211.571501,-0.0170898400247097,0.0200195275247097,1.009765625,1.0101086384869815,-0.1354217529296875,0.0705718994140625,-0.1773834228515625,0.2340605110991474
1782814211.579507,-0.011718746274709702,0.010253902524709702,0.9970702528953552,0.9971918374816577,-0.1354217529296875,0.2536773681640625,0.1888275146484375,0.34401611673510374
1782814211.587514,-0.01318359375,0.0087890625,0.9946288466453552,0.9947550438891293,-0.011444091796875,0.31280517578125,-0.2384185791015625,0.3934735875422924
1782814211.595521,-0.008300777524709702,0.00048827752470970154,0.9921874403953552,0.9922222826568361,-0.0743865966796875,0.1926422119140625,-0.1163482666015625,0.23702596211790244
1782814211.603528,-0.0175781212747097,0.014648433774709702,0.9877929091453552,0.9880578921892403,0.1697540283203125,0.0705718994140625,0.2498626708984375,0.3102066688941147
1782814211.614245,-0.011230465024709702,0.0244140587747097,0.9853515028953552,0.9857178875665499,0.232696533203125,-0.232696533203125,0.0057220458984375,0.32913233651339996
1782814211.624962,0.0039062537252902985,0.0166015587747097,0.9887694716453552,0.9889165478591969,0.293731689453125,-0.17547607421875,0.1888275146484375,0.3908017250480315
1782814211.635679,-0.01318359375,0.02294921875,0.9936522841453552,0.9940046959510213,-0.1354217529296875,0.1926422119140625,-0.0553131103515625,0.24188760438363935
1782814211.646414,0.26806640625,-0.67529296875,1.7993162870407104,1.940468833198036,3.0384063720703125,-1.2722015380859375,-0.7266998291015625,3.3732036222205655
1782814211.657147,0.5068359375,0.205078125,1.34716796875,1.4538917569478893,214.6472930908203,-77.81028747558594,17.766952514648438,229.00560226751574
1782814211.667881,0.22314453125,0.37939453125,1.6850584745407104,1.7415957495327827,197.01004028320312,-154.77752685546875,-29.291152954101562,252.24395024116086
1782814211.676054,-0.90771484375,3.832031011581421,-0.0170898474752903,3.9381086798325593,233.81423950195312,-253.65447998046875,-100.33607482910156,359.27290702215464
1782814211.684229,0.013671878725290298,-0.0244140587747097,0.56494140625,0.565633944375213,54.24690246582031,-291.921630859375,-97.34535217285156,312.46933062364684
1782814211.692405,0.384765625,0.09765625,0.35546875,0.5328596077507336,-9.962081909179688,-268.606201171875,-112.84828186035156,291.51890007816706
1782814211.700579,0.32275390625,0.37255859375,0.4492187201976776,0.6669088755989462,-29.247283935546875,-256.2751770019531,-63.53187561035156,265.6476410276554
1782814211.708429,0.26953125,0.50439453125,1.185546875,1.316275932585465,-84.23995971679688,-219.41375732421875,-20.441055297851562,235.91652010384635
1782814211.716279,0.35888671875,-0.05908203125,1.10791015625,1.1660854503996125,-94.24972534179688,-182.67059326171875,-45.28236389160156,210.48051893038428
1782814211.724129,0.1875,0.2167968600988388,1.32275390625,1.3534530006795025,-73.92501831054688,-184.37576293945312,-34.78431701660156,201.66625647844893
1782814211.731979,0.22119140625,-0.28955078125,0.2089843600988388,0.42004732577086956,-50.61149597167969,-179.55589294433594,-45.83168029785156,192.09993527967066
1782814211.742453,0.08251953125,-0.1240234375,0.9687499403953552,0.9801365890033085,-19.054412841796875,-157.76824951171875,-48.51722717285156,166.155988562795
1782814211.752927,0.1669921875,-0.2451171875,0.3129882514476776,0.4311965582402299,-14.354705810546875,-120.29266357421875,-46.25892639160156,129.67756459615956
1782814211.763402,0.63330078125,0.4350585639476776,1.5234375,1.7062261426910343,-21.190643310546875,-68.89724731445312,-51.75209045410156,88.73642385059955
1782814211.774087,0.29052734375,0.16064453125,0.5849609375,0.6726009970910256,-21.619796752929688,-21.169662475585938,-45.46546936035156,54.61390963047131
1782814211.784773,0.17431640625,0.3852538764476776,0.7949218153953552,0.9003929427740561,-21.678924560546875,22.46856689453125,-44.97718811035156,54.751801054484574
1782814211.795459,0.23486328125,-0.11962890625,0.8984374403953552,0.9363021255952831,5.6629180908203125,37.72926330566406,-38.56849670410156,54.25029851443918
1782814211.803468,0.39501953125,0.0624999962747097,0.8095702528953552,0.9029677037282994,27.454376220703125,36.62872314453125,-31.061172485351562,55.31909768815277
1782814211.811478,0.4677734375,0.197265625,0.7602538466453552,0.9141726461540327,18.236160278320312,52.13356018066406,-22.943496704101562,59.80693671990422
1782814211.819488,0.41796875,0.2568359375,0.634765625,0.8022405957377793,-0.7457733154296875,68.85719299316406,-9.332656860351562,69.49077412728194
1782814211.827498,0.40673828125,0.1259765625,0.71826171875,0.8349886348659032,-14.596939086914062,92.78297424316406,4.2781829833984375,94.02156023888439
1782814211.835498,0.5322265625,0.041015625,0.8081054091453552,0.9684945779996339,-17.652511596679688,113.04664611816406,13.921737670898438,115.26044483695888
1782814211.843498,0.35791015625,0.1865234375,0.65771484375,0.7716731745841647,-15.027999877929688,139.90211486816406,11.480331420898438,141.17450383992747
1782814211.851498,0.33203125,-0.00048827752470970154,0.68115234375,0.7577687673608763,-11.669158935546875,178.96652221679688,5.3157806396484375,179.4253127862598
1782814211.859498,0.4775390625,0.033203125,0.71044921875,0.856670354422067,-2.4547576904296875,215.58570861816406,-7.5016021728515625,215.73015002746925
1782814211.870222,0.39599609375,0.0009765587747097015,0.6474609375,0.7589595018976165,13.721466064453125,245.80001831054688,-14.093399047851562,246.58578939011286
1782814211.880946,0.38232421875,-0.007812503725290298,0.732421875,0.8262412761631865,21.959304809570312,287.790283203125,-12.018203735351562,288.87695545833856
1782814211.89167,-0.2041015475988388,-0.5546875,1.03125,1.1886177799816438,-33.09440612792969,344.186767578125,-12.506484985351562,346.0002642477711
1782814211.902287,0.52001953125,0.4282226264476776,0.8476561903953552,1.0827354006398717,-72.94845581054688,314.0983581542969,-81.11000061035156,332.50276389735393
1782814211.912903,-2.13427734375,3.570312261581421,3.999877691268921,5.770727074672132,-83.02116394042969,279.062255859375,-106.01234436035156,309.84975950309325
1782814211.923519,-0.7158203125,-2.36279296875,-0.64453125,2.551589674142102,-165.29273986816406,-28.738021850585938,-106.25648498535156,198.59004092464343
1782814211.93152,-0.4970702826976776,0.0615234337747097,0.2241210788488388,0.5487205635193086,-137.0372772216797,-17.995834350585938,-61.88392639160156,151.43541774613487
1782814211.939522,-1.22216796875,-2.27392578125,3.999877691268921,4.76061493376462,-115.12565612792969,-61.26976013183594,-27.826309204101562,133.34992946912755
1782814211.947524,-1.62158203125,-1.7109375,0.2919921875,2.375309422062768,-95.10612487792969,8.737564086914062,-63.16566467285156,114.50511433570298
1782814211.955526,-0.0620117150247097,1.49560546875,1.51611328125,2.1305587653331353,33.61701965332031,-22.512435913085938,-29.657363891601562,50.164459671279204
1782814211.963944,0.0429687537252903,1.02392578125,-1.12451171875,1.5214456693918474,54.91828918457031,15.939712524414062,-30.145645141601562,64.64404723812102
1782814211.972362,-0.80078125,-1.087890625,3.999877691268921,4.221821664569128,21.471023559570312,-22.573471069335938,-26.300430297851562,40.77105692358144
1782814211.98078,-1.13330078125,1.12451171875,1.23193359375,2.016570763895413,37.83226013183594,-1.2722015380859375,-18.304824829101562,42.0471760699872
1782814211.989198,-0.4970702826976776,-0.0341796837747097,1.27001953125,1.3642568403642175,56.934356689453125,-7.617950439453125,-21.661758422851562,61.390438331305475
1782814211.999287,-0.27587890625,0.1782226413488388,1.21630859375,1.2598726427830536,96.17805480957031,-47.41477966308594,-66.40052795410156,126.12457995979658
1782814212.009376,0.4638671875,0.0087890625,0.7314453125,0.8661768066838385,90.50369262695312,-59.31854248046875,-53.76625061035156,120.83218762323355
1782814212.019465,0.78466796875,0.58544921875,0.30908203125,1.026638354513829,53.821563720703125,-2.368927001953125,-30.328750610351562,61.823989276551785
1782814212.027473,0.6630859375,0.40087890625,0.4506835639476776,0.8963830279512384,-30.712127685546875,77.76641845703125,-9.271621704101562,84.12379922252319
1782814212.035481,1.53076171875,2.43994140625,2.59423828125,3.8764181618378886,18.604278564453125,-8.35418701171875,0.7991790771484375,20.409564148405817
1782814212.043489,-3.005859375,0.51611328125,3.999877691268921,5.029968692394499,-83.38737487792969,48.65455627441406,-1.5811920166015625,96.55682422017549
1782814212.051497,-0.13330078125,-1.5634765625,0.64501953125,1.6965489251603227,-139.17160034179688,32.11212158203125,20.208358764648438,144.25082480927705
1782814212.062143,-0.12744140625,-0.02197265625,0.8203124403953552,0.8304436221183479,-99.25651550292969,32.41920471191406,45.90415954589844,114.06161741598973
1782814212.072789,-0.18408203125,-0.21240234375,1.02783203125,1.0655700982681149,-117.87033081054688,37.97149658203125,52.55699157714844,134.52689991859404
1782814212.083435,-0.4809570014476776,-0.13818359375,1.31396484375,1.4060291438779526,-108.04557800292969,65.07301330566406,66.96128845214844,142.80111392366
1782814212.091498,-0.33251953125,-0.291015625,1.09619140625,1.181903097463245,-86.00807189941406,99.13063049316406,74.10240173339844,150.71641011013028
1782814212.099562,-0.2343749850988388,-0.25048828125,0.9658202528953552,1.0249315945888817,-68.67599487304688,122.13897705078125,95.64781188964844,169.65502027965928
1782814212.107626,-0.16259765625,-0.4716796875,1.333984375,1.4242310339836832,-46.154022216796875,137.39776611328125,109.56382751464844,181.693621790552
1782814212.11569,-0.1127929612994194,-0.0205078125,1.01904296875,1.025471303670191,-22.287368774414062,162.42408752441406,120.42808532714844,203.42378118250627
1782814212.126441,-0.1782226413488388,-1.41845703125,1.53125,2.094877137660326,-22.777557373046875,201.42745971679688,124.88365173339844,238.0919257726163
1782814212.13719,-0.1245117112994194,-0.296875,1.04931640625,1.0975895645919402,12.256622314453125,229.31671142578125,123.05259704589844,260.53468208558036
1782814212.14794,-0.8618163466453552,-0.484375,0.28125,1.0278366205142464,-42.67692565917969,255.62477111816406,139.34898376464844,294.2507143052896
1782814212.158453,-0.1572265625,-0.69091796875,1.06396484375,1.278322737118117,-99.62081909179688,198.06671142578125,102.97203063964844,244.4544310614903
1782814212.168967,-0.41162109375,-0.65087890625,1.1494140625,1.383556273699735,-99.68376159667969,197.27516174316406,80.87730407714844,235.36244407645572
1782814212.179481,-0.603515625,-0.6943359375,1.30517578125,1.5968147430696813,-91.01676940917969,174.50904846191406,64.39781188964844,207.0858239593937
1782814212.187482,-0.72607421875,-0.6689453125,1.45361328125,1.7571747703844194,-73.92501831054688,139.47677612304688,42.42515563964844,163.45816969775976
1782814212.195483,-0.57958984375,-0.63720703125,1.57763671875,1.7974689994547484,-52.989959716796875,99.37286376953125,16.607284545898438,113.83630257757852
1782814212.203484,-0.4521484076976776,-0.79248046875,1.6655272245407104,1.8990640883393186,-29.001235961914062,70.62721252441406,-5.7926177978515625,76.56911425137001
1782814212.211485,-0.41650390625,-0.9375,1.7080076932907104,1.9924035821744956,-2.3288726806640625,33.45680236816406,-21.722793579101562,39.95824112176846
1782814212.219486,-0.326171875,-0.8847655653953552,1.66650390625,1.9147933223449698,23.670196533203125,-7.56072998046875,-40.58265686035156,47.58565833949405
1782814212.227485,-0.42431640625,-0.6552734375,1.4365234375,1.634939533130445,42.10090637207031,-38.86985778808594,-50.77552795410156,76.56047544806397
1782814212.235486,-0.61962890625,-0.705078125,1.51220703125,1.7798441642952973,50.82893371582031,-75.67405700683594,-66.82777404785156,113.03138851996738
1782814212.243485,-0.60009765625,-0.5478515625,1.42431640625,1.6397974742886237,49.42893981933594,-120.35179138183594,-79.82826232910156,152.64444060287406
1782814212.254157,-0.3798827826976776,-0.3486328125,1.31640625,1.4137825793172207,54.187774658203125,-141.04461669921875,-93.25599670410156,177.55725764809824
1782814212.264829,-0.3603515625,-0.36083984375,1.2763671875,1.374471476153789,47.107696533203125,-173.69842529296875,-105.52406311035156,208.62791260336874
1782814212.275501,-0.38427734375,-0.318359375,1.068359375,1.1791579719106076,44.85130310058594,-193.59397888183594,-111.56654357910156,227.89770006586056
1782814212.286156,-0.4140624701976776,-0.2841796875,0.9667968153953552,1.0894502770996026,39.17121887207031,-217.64183044433594,-112.29896545410156,248.01896780114663
1782814212.29681,-0.4208984076976776,-0.11083984375,0.80615234375,0.9161454807499642,27.025222778320312,-232.04612731933594,-106.80580139160156,256.87204417962954
1782814212.307464,-0.4667968451976776,-0.033203125,0.7060546875,0.8470625501915386,10.791778564453125,-230.82733154296875,-98.68812561035156,251.27090083874882
1782814212.31546,-0.2426757663488388,-0.1337890625,0.626953125,0.6854642673144171,-28.575897216796875,-216.23992919921875,-66.46156311035156,228.0206750557925
1782814212.323455,-0.0502929650247097,-0.14453125,0.625,0.643462247966063,-44.750213623046875,-193.65692138671875,-49.43275451660156,204.8149946644256
1782814212.33145,0.0605468787252903,-0.1328125,0.6259765625,0.6427688087321455,-54.088592529296875,-166.49627685546875,-30.633926391601562,177.72175864170168
1782814212.339445,0.072265625,-0.19970703125,0.64501953125,0.6790842470425145,-58.30192565917969,-136.28196716308594,-14.581680297851562,148.94466928936296
1782814212.350121,0.0771484375,-0.10791015625,0.66943359375,0.6824498660499765,-59.703826904296875,-105.70526123046875,-2.3746490478515625,121.42400156855459
1782814212.360795,0.0522460974752903,-0.10693359375,0.6884765625,0.6986876450070546,-59.215545654296875,-78.78875732421875,6.8416595458984375,98.79755783000273
1782814212.37147,0.04052734375,-0.1396484375,0.71044921875,0.7251773880300649,-55.126190185546875,-58.34197998046875,12.762069702148438,81.27455872225327
1782814212.38213,0.083984375,-0.12890625,0.68115234375,0.6983113287992121,-46.82731628417969,-42.71507263183594,15.386581420898438,65.223629676242
1782814212.392788,0.1376953125,-0.15576171875,0.69091796875,0.721518781220595,-38.036346435546875,-28.736114501953125,16.057968139648438,50.30294491983809
1782814212.403446,0.14794921875,-0.25439453125,0.7021484375,0.7613264589795458,-30.345916748046875,-13.29803466796875,13.860702514648438,35.9142236935378
1782814212.411448,0.037109375,-0.46484375,0.66650390625,0.8134397793773439,-18.018722534179688,7.6999664306640625,13.372421264648438,23.723100456650478
1782814212.41945,-0.024414055049419403,-0.5625,0.6103515625,0.8303802297322278,-17.589569091796875,16.54815673828125,15.752792358398438,28.83374584331067
1782814212.427452,0.037109375,-0.53759765625,0.5791015625,0.7910416963778365,-27.721405029296875,23.87237548828125,15.752792358398438,39.83110688066092
1782814212.435454,0.3857421875,-0.31591796875,0.6435546875,0.8141030856099453,-42.675018310546875,37.48321533203125,3.0574798583984375,56.88142757102221
1782814212.446135,0.54052734375,-0.33447265625,0.76123046875,0.9917225386536831,-55.492401123046875,59.76104736328125,-13.910293579101562,82.73019782288854
1782814212.456816,0.453125,-0.49951171875,0.9155272841453552,1.1371123211047136,-57.26432800292969,75.20484924316406,-35.21156311035156,100.87034642544073
1782814212.467498,0.330078125,-0.5908203125,1.017578125,1.2220824238751775,-49.205780029296875,87.10479736328125,-50.53138732910156,112.07977345352516
1782814212.478159,0.20556640625,-0.60986328125,1.0166015625,1.2031913838093249,-40.11344909667969,94.67506408691406,-63.65394592285156,120.93089510064212
1782814212.488824,0.134765625,-0.3701171875,1.03857421875,1.1107587109794475,-28.089523315429688,102.91481018066406,-77.38685607910156,131.79227962372363
1782814212.499489,0.0595703125,-0.27880859375,0.9638671278953552,1.0051480957139804,-19.483566284179688,102.67066955566406,-93.13392639160156,139.98144158164197
1782814212.510154,-0.09033203125,-0.28515625,1.00927734375,1.0526702804728882,-2.147674560546875,69.46563720703125,-124.68910217285156,142.74963908629934
1782814212.520818,-0.064453125,-0.2197265625,1.01025390625,1.0358797819649324,8.409500122070312,56.28395080566406,-131.39915466308594,143.1933680614123
1782814212.531481,-0.0908203125,-0.212890625,1.04345703125,1.0688186578838113,16.893386840820312,43.16139221191406,-138.42201232910156,145.97583976077075
1782814212.539476,-0.2045898288488388,-0.32861328125,1.1005859375,1.1666760872260316,24.766921997070312,40.53688049316406,-134.33265686035156,142.4847423568116
1782814212.547471,-0.32470703125,-0.41796875,1.1416015625,1.2583269287519012,29.344558715820312,45.35865783691406,-122.36976623535156,133.7642353377279
1782814212.555466,-0.2465820163488388,-0.3408203125,1.14794921875,1.2225991105133325,29.102325439453125,52.13165283203125,-108.45375061035156,123.80173906062711
1782814212.563461,-0.14208984375,-0.21630859375,1.11376953125,1.143442827677819,26.477813720703125,58.055877685546875,-100.33607482910156,118.90705389243526
1782814212.57148,-0.1220703050494194,-0.146484375,1.09228515625,1.108803722061793,24.524688720703125,55.24444580078125,-100.39710998535156,117.1878357257852
1782814212.579499,-0.2109375,-0.18701171875,1.06982421875,1.1063416610071803,21.348953247070312,43.34449768066406,-102.77748107910156,113.56819053282379
1782814212.587518,-0.2304687350988388,-0.17138671875,1.0439453125,1.0827331438136882,17.198562622070312,26.742935180664062,-106.13441467285156,110.79480635973549
1782814212.595537,-0.2353515475988388,-0.14697265625,1.01513671875,1.0523753467260937,9.752273559570312,10.873794555664062,-108.63685607910156,109.61438202339559
1782814212.606194,-0.31640625,-0.16650390625,0.9624022841453552,1.0266716234335924,-0.988006591796875,-4.63104248046875,-106.74476623535156,106.84974417433666
1782814212.616852,-0.32666015625,-0.185546875,0.9272460341453552,1.0004597484865791,-10.633468627929688,-19.521713256835938,-104.05921936035156,106.40718527162089
1782814212.627508,-0.3720703125,-0.1787109375,0.9335936903953552,1.0207698542629455,-17.772674560546875,-33.80584716796875,-98.13880920410156,105.30873247636313
1782814212.638427,-0.37255859375,-0.2041015625,0.9433593153953552,1.0345937132686978,-27.965545654296875,-58.21990966796875,-82.02552795410156,104.4021880117371
1782814212.649345,-0.34375,-0.22900390625,0.9970702528953552,1.0792385930768813,-28.942108154296875,-62.79754638671875,-72.99232482910156,100.54380607757092
1782814212.660264,-0.265625,-0.2294921875,1.0068359375,1.0662747815596312,-25.951385498046875,-64.44549560546875,-67.37709045410156,96.78000119427006
1782814212.670666,-0.2109375,-0.21533203125,0.9755858778953552,1.0210927077094185,-21.558761596679688,-66.94602966308594,-64.38636779785156,95.35279464930994
1782814212.681072,-0.1835937350988388,-0.2109375,0.9628905653953552,1.0026761837209357,-17.347335815429688,-69.08226013183594,-63.47084045410156,95.40354455032556
1782814212.691478,-0.15478515625,-0.16943359375,0.9179686903953552,0.9462202195221472,-12.586593627929688,-67.98362731933594,-66.33949279785156,95.81818317691689
1782814212.699734,-0.0986328050494194,-0.0517578125,0.8608397841453552,0.8680163796577365,-7.396697998046875,-68.04656982421875,-79.95033264160156,105.24781468334308
1782814212.707989,-0.13037109375,-0.04736328125,0.8593749403953552,0.8704970940077045,-3.368377685546875,-65.23895263671875,-86.78627014160156,108.62469145852413
1782814212.716244,-0.1455078125,-0.041015625,0.85546875,0.8687241145606804,3.711700439453125,-65.05584716796875,-93.68324279785156,114.11656300474331
1782814212.724499,-0.1210937425494194,-0.001953125,0.8535155653953552,0.8620651538915394,14.331817626953125,-64.56756591796875,-98.56605529785156,118.69978442289866
1782814212.73484,-0.1015624925494194,0.0185546875,0.8193358778953552,0.8258150501944281,25.806427001953125,-62.24822998046875,-102.59437561035156,122.74534499192367
1782814212.745181,-0.14794921875,-0.00830078125,0.78271484375,0.7966181023079268,36.243438720703125,-59.19647216796875,-102.53334045410156,123.81799171409283
1782814212.755522,-0.1435546875,-0.00146484375,0.76123046875,0.774649546971906,41.97883605957031,-50.46653747558594,-98.99330139160156,118.78033423971944
1782814212.766235,-0.0615234337747097,0.083984375,0.6962890625,0.7040290950697283,43.201446533203125,-36.18621826171875,-93.13392639160156,108.85649093996285
1782814212.776948,0.001953125,0.15478515625,0.654296875,0.6723590260622432,39.051055908203125,-18.73016357421875,-87.64076232910156,97.75841251109117
1782814212.787661,-0.0019531212747097015,0.1962890625,0.6015625,0.6327800977797047,34.65461730957031,-2.7370452880859375,-83.24623107910156,90.2129087584309
1782814212.798259,-0.130859375,0.24853515625,0.57080078125,0.6361661982479209,25.133132934570312,18.198013305664062,-72.99232482910156,79.31406901260952
1782814212.808856,-0.1259765475988388,0.25146484375,0.5908203125,0.6543495242221332,19.090652465820312,26.437759399414062,-66.70570373535156,74.24997673037032
1782814212.819453,-0.146484375,0.23046875,0.611328125,0.6695487982676982,13.050079345703125,33.336639404296875,-59.01527404785156,69.02491339106692
1782814212.827469,-0.14404296875,0.19482421875,0.6611328125,0.7041316984925629,7.7381134033203125,39.62135314941406,-50.10414123535156,64.34403619112875
1782814212.835485,-0.10498046875,0.2177734225988388,0.69921875,0.7398331046668192,2.7942657470703125,44.26002502441406,-41.43714904785156,60.6942753267627
1782814212.843501,-0.0624999962747097,0.2260742038488388,0.77099609375,0.8058850859508344,-0.560760498046875,49.32403564453125,-32.03773498535156,58.81829143719476
1782814212.851517,-0.1015624925494194,0.21875,0.8017578125,0.8372467332260162,-2.0885467529296875,55.42945861816406,-23.553848266601562,60.26251470365325
1782814212.862155,-0.15576171875,0.21337890625,0.8271483778953552,0.8683125645269206,-3.673553466796875,57.50274658203125,-14.947891235351562,59.527307279387514
1782814212.872793,-0.1962890625,0.25537109375,0.8212890625,0.8821901811754249,-8.434295654296875,55.79376220703125,-6.9522857666015625,56.85433599805146
1782814212.883431,-0.1953125,0.25732421875,0.8144530653953552,0.8761829272152241,-14.598846435546875,52.25372314453125,1.8367767333984375,54.28583285243356
1782814212.894112,-0.2260742038488388,0.21337890625,0.8232421278953552,0.8799816500473207,-29.735565185546875,38.27667236328125,19.475936889648438,52.236190537207584
1782814212.904795,-0.2236328125,0.1796875,0.8603515625,0.9069200866554349,-37.425994873046875,31.25762939453125,28.264999389648438,56.36181932922341
1782814212.915478,-0.2431640625,0.1552734375,0.8833007216453552,0.9292248202366183,-45.11833190917969,25.766372680664062,37.11509704589844,63.85217509303996
1782814212.923498,-0.25390625,0.08642578125,0.9150390028953552,0.9535377162301768,-49.75700378417969,20.822525024414062,45.47691345214844,70.55130495678603
1782814212.931521,-0.2197265625,0.04248046875,0.9453124403953552,0.971442207472739,-53.295135498046875,17.284393310546875,53.77769470214844,77.660557346354
1782814212.939544,-0.16796875,0.0380859375,0.9682616591453552,0.9834605636133726,-53.54118347167969,16.061782836914062,60.55259704589844,82.40907841039846
1782814212.947567,-0.12841796875,-0.014160159975290298,0.9819335341453552,0.9903964611748112,-51.46217346191406,16.733169555664062,64.45884704589844,84.16232662711543
1782814212.958212,-0.1196288987994194,-0.0419921875,0.9956054091453552,1.0036456286750255,-45.909881591796875,18.444061279296875,66.22886657714844,82.66899897991385
1782814212.968857,-0.138671875,-0.06201171875,0.9897460341453552,1.0013353855151645,-37.48893737792969,18.320083618164062,65.25230407714844,77.45262472556692
1782814212.979502,-0.1186523362994194,-0.0576171875,0.9960936903953552,1.0047889117870272,-27.112960815429688,18.381118774414062,60.00328063964844,68.36206447364322
1782814212.990311,-0.009765617549419403,-0.041015625,1.068359375,1.0691910039514234,-9.836196899414062,-6.2160491943359375,31.072616577148438,33.17977603873973
1782814213.00112,0.0278320349752903,-0.0532226525247097,1.07861328125,1.0802841678935795,4.6253204345703125,-18.911361694335938,13.921737670898438,23.934242625029164
1782814213.011929,-0.0239257775247097,-0.0434570275247097,1.03564453125,1.0368319782778102,20.132064819335938,-29.958724975585938,-0.0553131103515625,36.094712848184805
1782814213.022451,-0.03662109375,-0.0859375,0.9946288466453552,0.9990059564350784,31.118392944335938,-34.53636169433594,-12.262344360351562,48.07785090592067
1782814213.032976,-0.0317382775247097,-0.13623046875,0.9306640028953552,0.941117179293464,34.10530090332031,-34.17015075683594,-23.065567016601562,53.505057090412066
1782814213.043501,-0.0410156212747097,-0.1767578125,0.9213866591453552,0.9390841182340242,30.933380126953125,-33.74481201171875,-29.291152954101562,54.3466464941986
1782814213.05149,-0.0180664025247097,-0.15185546875,0.9121093153953552,0.9248404627396287,20.557403564453125,-13.29803466796875,-25.506973266601562,35.356049730780384
1782814213.059479,-0.0654296800494194,-0.09033203125,0.8920897841453552,0.8990356510604164,18.604278564453125,-0.54168701171875,-20.746231079101562,27.87146766336345
1782814213.067468,-0.13916015625,0.0444335900247097,0.8603515625,0.872665287556575,19.947052001953125,16.67022705078125,-7.7457427978515625,27.125225989541367
1782814213.075457,-0.1865234375,0.07666015625,0.8808593153953552,0.9036486628175049,24.829864501953125,29.91485595703125,7.6961517333984375,39.63144622164036
1782814213.086134,-0.20166015625,0.21728515625,0.8901366591453552,0.9382019663696168,36.304473876953125,41.027069091796875,24.785995483398438,60.12969976516176
1782814213.096811,-0.537109375,0.41650390625,0.8666991591453552,1.101421543777706,77.62527465820312,67.32940673828125,62.62779235839844,120.33774409210542
1782814213.107488,-0.376953125,0.16015625,0.77734375,0.87863928237098,76.34162902832031,94.49195861816406,68.79234313964844,139.6035853437785
1782814213.118131,-0.14794921875,-0.05908203125,0.9121093153953552,0.9259174158510817,65.35911560058594,66.35475158691406,79.77867126464844,122.6352455006499
1782814213.128773,-0.0463867150247097,-0.2211913913488388,1.00390625,1.0290311548863238,52.539825439453125,42.61016845703125,76.97105407714844,102.47244936514446
1782814213.139415,-0.0332031212747097,-0.1669921875,1.0498046875,1.0635218473756856,43.62678527832031,46.03004455566406,71.90513610839844,95.8770566626051
1782814213.147434,-0.1171874925494194,-0.22216796875,1.11669921875,1.1445997815417324,21.654129028320312,46.21315002441406,63.17710876464844,81.21516860177269
1782814213.155454,-0.31396484375,-0.39404296875,1.19580078125,1.2976067558279687,16.284942626953125,38.94805908203125,62.68882751464844,75.57803753592637
1782814213.163476,-0.30517578125,-0.38720703125,1.19189453125,1.2898349181715634,16.895294189453125,35.65216064453125,57.31773376464844,69.58340411539774
1782814213.171496,-0.1455077975988388,-0.298828125,1.158203125,1.2049503086073077,25.684356689453125,35.472869873046875,56.40220642089844,71.40881993652332
1782814213.182603,-0.0004882737994194031,-0.22314453125,1.13818359375,1.159851547966269,34.351348876953125,33.69903564453125,52.37388610839844,71.12428642266316
1782814213.19371,0.06005859375,-0.15771484375,1.14306640625,1.1554574054112097,46.131134033203125,26.19171142578125,53.35044860839844,75.2353483498157
1782814213.204817,0.1435546875,-0.04736328125,1.099609375,1.1099513531240366,74.87678527832031,34.00611877441406,60.79673767089844,102.2701931118705
1782814213.21504,-0.146484375,-0.1181640625,1.0595703125,1.076155037583801,91.84646606445312,42.36602783203125,60.24742126464844,117.73022301785213
1782814213.225266,-0.21630859375,0.0786132737994194,0.9990233778953552,1.0251912817269813,111.80305480957031,68.67408752441406,61.16294860839844,144.76518795807317
1782814213.23549,-0.27587890625,0.0434570275247097,0.8950194716453552,0.9375806838770253,132.19070434570312,95.34454345703125,66.16783142089844,175.90664057217182
1782814213.243542,-0.27490234375,0.4189453125,0.671875,0.8381542155772802,126.39045715332031,140.93971252441406,80.51109313964844,205.7196790402681
1782814213.251595,0.09912109375,0.27490234375,0.5322265625,0.6071749366171217,103.99436950683594,157.48023986816406,83.99009704589844,206.56522272599096
1782814213.259648,0.22119140625,0.1953125,0.63671875,0.7017715992092193,67.43240356445312,135.13946533203125,83.80699157714844,172.72352468010482
1782814213.267701,-0.0268554650247097,0.07666015625,0.7890624403953552,0.7932323306576966,37.952423095703125,115.66925048828125,74.52964782714844,142.739028764367
1782814213.278278,-0.4453124701976776,0.25244140625,0.9179686903953552,1.0510453730687361,20.677566528320312,97.17750549316406,60.00328063964844,116.06645949165268
1782814213.288855,-0.4580077826976776,0.2031249850988388,1.251953125,1.3484871211028722,17.198562622070312,69.95582580566406,52.61802673339844,89.20910748199603
1782814213.299433,-0.375,0.18603515625,1.52001953125,1.576608212189202,21.778106689453125,39.31427001953125,62.13951110839844,76.68909048187095
1782814213.310137,-0.31298828125,-0.10546875,1.7255859375,1.7569098295371182,30.809402465820312,18.747329711914062,78.25279235839844,86.16368819586782
1782814213.320844,-0.2128906100988388,-0.16650390625,2.27490234375,2.290900835100465,61.878204345703125,19.908905029296875,82.03697204589844,104.66776702965282
1782814213.331551,-0.15771484375,0.80615234375,1.541015625,1.7462773919875518,67.67463684082031,21.860122680664062,20.452499389648438,74.00017680001966
1782814213.339535,0.66552734375,-0.33544921875,1.32568359375,1.5208187973512266,111.49978637695312,76.73263549804688,-4.0836334228515625,135.41335153711591
1782814213.347518,0.3203125,0.138671875,0.8090819716453552,0.881160384614402,131.70242309570312,68.30596923828125,-31.366348266601562,151.64129215501416
1782814213.355501,0.22900390625,0.00341796875,0.51318359375,0.5619714160722944,128.7708282470703,67.39234924316406,-51.08070373535156,154.05483841167677
1782814213.363484,-0.00048827752470970154,-0.0830078125,0.291015625,0.302622916093803,93.98269653320312,64.09454345703125,-52.97279357910156,125.48694995174408
1782814213.374141,-0.1806640625,-0.05517578125,0.2363281100988388,0.3025472623218406,37.586212158203125,41.87774658203125,-47.41859436035156,73.58662986101382
1782814213.384799,-0.4150390326976776,0.0439453087747097,0.28173828125,0.5035524282015057,-14.659881591796875,27.04620361328125,-44.85511779785156,54.39109164960483
1782814213.395455,-0.4843749701976776,-0.22412109375,0.52587890625,0.7492649734615876,-46.82731628417969,26.010513305664062,-33.50257873535156,63.180433163449884
1782814213.403487,-0.60205078125,-0.4208984375,0.7358397841453552,1.0397503670712311,-48.473358154296875,16.97540283203125,-16.290664672851562,53.88150431778764
1782814213.411519,-0.681640625,-0.3076171875,0.9033202528953552,1.172710431004487,-38.341522216796875,-2.79998779296875,2.5081634521484375,38.52535712286903
1782814213.419551,-0.6181640625,-0.2529296875,0.9692382216453552,1.1770823952823364,-17.589569091796875,-25.623321533203125,23.443222045898438,38.929836977854215
1782814213.427583,-0.3984375,-0.35693359375,1.00537109375,1.138826179845551,4.505157470703125,-47.35565185546875,43.15757751464844,64.22951582742222
1782814213.438211,-0.1782226413488388,-0.38037109375,0.9052733778953552,0.9979806448904682,28.856277465820312,-57.85179138183594,60.24742126464844,88.37005309669044
1782814213.448839,-0.1240234375,-0.31787109375,0.7587890625,0.8319763738597188,37.952423095703125,-58.582305908203125,72.21031188964844,100.4320771843232
1782814213.459467,-0.0532226487994194,-0.2373046875,0.611328125,0.6579272311363276,27.452468872070312,-60.72044372558594,78.98521423339844,103.34057480438109
1782814213.467596,-0.21630859375,-0.0556640625,0.64599609375,0.6835194574585022,-11.058807373046875,-65.72723388671875,93.69468688964844,114.98287196910175
1782814213.475725,-0.3271484375,-0.052734375,0.7407225966453552,0.8114659448469601,-18.749237060546875,-63.77410888671875,96.07505798339844,116.82930976925702
1782814213.483854,-0.3291015625,-0.08544921875,0.8613280653953552,0.926010498678407,-20.643234252929688,-76.22337341308594,91.49742126464844,120.86324450788422
1782814213.491983,-0.263671875,-0.017578125,0.8686522841453552,0.9079585006460781,-12.462615966796875,-90.32440185546875,82.70835876464844,123.10356199893594
1782814213.501529,-0.16796875,0.0390624962747097,0.8081054091453552,0.8263012355562324,0.232696533203125,-84.89227294921875,66.47300720214844,107.82120774995103
1782814213.511075,-0.0434570237994194,0.20166015625,0.77685546875,0.8037784214962852,0.598907470703125,-82.26776123046875,46.33140563964844,94.41897254565698
1782814213.520621,-0.0800781175494194,-0.001953125,0.67333984375,0.6780876527328887,-26.071548461914062,-75.61302185058594,28.264999389648438,84.8290333734621
1782814213.530167,0.014160159975290298,0.2172851413488388,0.69091796875,0.7244176849878368,-49.99732971191406,-69.57054138183594,1.9588470458984375,85.69498403193046
1782814213.539713,0.09716796875,-0.00146484375,0.8681640028953552,0.873585997965569,-78.07731628417969,-70.42503356933594,-21.478652954101562,107.31768355729945
1782814213.549282,0.0458984412252903,-0.12646484375,1.0556640625,1.064202347519318,-88.20724487304688,-61.023712158203125,-33.19740295410156,112.27857790584041
1782814213.558851,-0.0468749962747097,-0.13623046875,1.1357421875,1.1448433614948745,-82.89527893066406,-59.25559997558594,-39.11781311035156,109.1469500260802
1782814213.56842,-0.1210937425494194,-0.26806640625,1.19091796875,1.2267065260020593,-71.36154174804688,-67.86346435546875,-36.24916076660156,104.93770100048476
1782814213.577989,-0.1547851413488388,-0.33447265625,1.18505859375,1.2410456350924564,-57.506561279296875,-86.54022216796875,-27.338027954101562,107.44106484706002
1782814213.587559,-0.171875,-0.34716796875,1.12890625,1.1935224905463924,-40.660858154296875,-97.21755981445312,-16.412734985351562,106.64866240051961
1782814213.597134,-0.14501953125,-0.310546875,1.0068359375,1.063573519347741,-24.061203002929688,-101.91917419433594,2.9964447021484375,104.76372577975937
1782814213.606711,-0.1982421875,-0.18798828125,0.9189452528953552,0.9586969993752055,-27.845382690429688,-103.20091247558594,10.992050170898438,107.45519456931609
1782814213.616288,-0.2226562350988388,-0.24755859375,0.9306640028953552,0.9884313545477362,-37.67204284667969,-93.37425231933594,17.034530639648438,102.11811319521236
1782814213.625865,-0.1503906100988388,-0.21044921875,1.01708984375,1.0494655590050517,-49.14665222167969,-92.76390075683594,18.926620483398438,106.67123169414253
1782814213.635442,-0.1118163987994194,-0.19921875,1.13720703125,1.1599270879311647,-59.27848815917969,-84.15794372558594,21.673202514648438,105.19613280818767
1782814213.645051,0.011718753725290298,-0.18115234375,1.23388671875,1.2471687678668968,-50.975799560546875,-70.79315185546875,20.513534545898438,89.61588916054049
1782814213.65466,0.0712890625,-0.1806640625,1.23779296875,1.2529377747510333,-45.17936706542969,-68.77708435058594,20.757675170898438,84.86662252441168
1782814213.664269,0.07861328125,-0.09814453125,1.234375,1.240763489803022,-42.12379455566406,-68.59397888183594,19.414901733398438,82.80390338581307
1782814213.673878,0.17041015625,-0.12841796875,1.2421875,1.2603811253772708,-37.79411315917969,-63.71116638183594,14.715194702148438,75.52512605977562
1782814213.683487,0.18017578125,-0.1298828125,1.26416015625,1.2835239607354365,-34.435272216796875,-54.74090576171875,10.625839233398438,65.53825749646008
1782814213.694121,0.14990234375,-0.0859375,1.255859375,1.2676903156305106,-30.345916748046875,-51.62811279296875,4.4002532958984375,60.04747224414164
1782814213.704757,0.2275390625,-0.12939453125,1.2373046875,1.2646896296681882,-26.256561279296875,-45.76873779296875,-2.8018951416015625,52.83971031108638
1782814213.715393,0.22265625,-0.1630859375,1.20068359375,1.2319959094797075,-22.413253784179688,-36.67259216308594,-8.539199829101562,43.819526410898206
1782814213.723438,0.14013671875,-0.10986328125,1.1279296875,1.1418991288432094,-29.432296752929688,-21.047592163085938,-17.938613891601562,40.386323135042545
1782814213.731485,0.11279296875,-0.13671875,1.15625,1.1697556723098208,-35.900115966796875,-12.44354248046875,-19.952774047851562,42.91588596425935
1782814213.739532,0.07470703125,-0.1171875,1.18603515625,1.1941496734226411,-39.684295654296875,-8.289337158203125,-20.990371704101562,45.65251511555919
1782814213.747579,0.0522460974752903,-0.11181640625,1.21435546875,1.220611227169034,-39.49928283691406,-5.1784515380859375,-23.065567016601562,46.03292394319718
1782814213.758194,0.0908203125,-0.14697265625,1.25927734375,1.271073844955451,-34.496307373046875,-2.79998779296875,-25.934219360351562,43.248339712032134
1782814213.76881,0.11279296875,-0.1171875,1.26123046875,1.2716750604061688,-27.296066284179688,-4.0187835693359375,-28.558731079101562,39.70928073909092
1782814213.779424,0.14697265625,-0.05029296875,1.2353515625,1.2450798477856995,-20.822525024414062,-5.0563812255859375,-29.962539672851562,36.83610081344131
1782814213.790101,0.21044921875,-0.072265625,1.240234375,1.2600367054815373,-15.941619873046875,-6.76727294921875,-32.77015686035156,37.06500246860909
1782814213.800777,0.2978515625,-0.1103515625,1.21826171875,1.2589895297426372,-12.523651123046875,-6.58416748046875,-37.28675842285156,39.881016192503765
1782814213.811453,0.31640625,-0.1059570237994194,1.16162109375,1.2085956194593952,-9.960174560546875,-1.70135498046875,-42.35267639160156,43.5413468277895
1782814213.822138,0.2529296875,-0.1396484375,1.0556640625,1.0944869692093382,-16.675949096679688,7.4558258056640625,-54.68177795410156,57.652176515211686
1782814213.832824,0.1611328125,-0.1474609375,1.03125,1.0541276364143666,-23.509979248046875,10.570526123046875,-59.62562561035156,64.95898995664436
1782814213.84351,0.103515625,-0.14453125,1.01416015625,1.029624003882353,-30.714035034179688,12.643814086914062,-64.08119201660156,72.17767766431547
1782814213.851601,0.0175781287252903,-0.14453125,1.041015625,1.0511478508422047,-36.20719909667969,14.413833618164062,-67.07191467285156,77.57165464189222
1782814213.859693,-0.0966796725988388,-0.12646484375,1.072265625,1.0840174751152174,-41.332244873046875,12.218475341796875,-70.42884826660156,82.57038375884899
1782814213.867785,-0.17578125,-0.158203125,1.12744140625,1.151977170406734,-44.750213623046875,8.922576904296875,-74.51820373535156,87.37938364319575
1782814213.875877,-0.1806640625,-0.19970703125,1.1875,1.2176529274837278,-45.36247253417969,6.7844390869140625,-77.63099670410156,90.16847662797947
1782814213.886418,-0.17138671875,-0.23828125,1.2001953125,1.2355647087920676,-43.346405029296875,5.68389892578125,-81.04896545410156,92.08774259988405
1782814213.896959,-0.1137695237994194,-0.27880859375,1.21044921875,1.2473431956229546,-42.186737060546875,6.17218017578125,-80.68275451660156,91.25526542794238
1782814213.9075,-0.0449218675494194,-0.31591796875,1.18896484375,1.2310400224349798,-43.89762878417969,10.690689086914062,-77.02064514160156,89.29430230454358
1782814213.915562,0.0341796875,-0.34716796875,1.13232421875,1.1848425996441032,-56.896209716796875,24.974822998046875,-71.34437561035156,94.6094096543913
1782814213.923626,-0.013671871274709702,-0.28857421875,1.11328125,1.1501552683846157,-69.28825378417969,30.771255493164062,-70.12367248535156,103.27178569153979
1782814213.93169,-0.0737304612994194,-0.287109375,1.10205078125,1.1412203549665818,-83.14132690429688,32.72247314453125,-71.95472717285156,114.72019547848248
1782814213.939754,-0.1108398288488388,-0.32861328125,1.12109375,1.1735089912574994,-93.76144409179688,33.02764892578125,-76.59339904785156,125.49335747141058
1782814213.950359,-0.2348632663488388,-0.333984375,1.21630859375,1.2830093186934726,-98.89030456542969,29.550552368164062,-81.65931701660156,131.60840223148705
1782814213.960964,-0.2802734375,-0.39453125,1.296875,1.3842300649168218,-98.58322143554688,13.55743408203125,-84.34486389160156,130.44735195622593
1782814213.971569,-0.1977538913488388,-0.50146484375,1.39501953125,1.4955444104505187,-90.34347534179688,-2.31170654296875,-79.40101623535156,120.29883167837178
1782814213.982215,-0.17236328125,-0.49658203125,1.400390625,1.4957930060912616,-75.02555847167969,-19.399642944335938,-73.35853576660156,106.70827212627384
1782814213.992862,-0.0161132775247097,-0.595703125,1.34912109375,1.4748727322886372,-61.534881591796875,-32.15789794921875,-68.65882873535156,97.64582334303483
1782814214.003509,0.1181640625,-0.69091796875,1.29541015625,1.4728943811841293,-48.71940612792969,-34.35325622558594,-64.02015686035156,87.47746699112253
1782814214.011497,0.14501953125,-0.615234375,1.04833984375,1.2241570277621188,-56.95915222167969,-33.55979919433594,-57.30628967285156,87.49066224372406
1782814214.019483,0.10986328125,-0.68505859375,0.9658202528953552,1.1891946763842294,-75.57296752929688,-29.102325439453125,-55.23109436035156,98.02393866505292
1782814214.02747,0.015625,-0.6689453125,0.9086913466453552,1.128473276249319,-94.49577331542969,-19.643783569335938,-57.48939514160156,112.34037547180972
1782814214.035457,-0.1064453050494194,-0.6884765625,0.9145507216453552,1.1496667354241925,-111.46163940429688,-7.86590576171875,-60.29701232910156,126.96967838016118
1782814214.046122,-0.19580078125,-0.6884765625,0.9975585341453552,1.2277870141421747,-124.46403503417969,0.3757476806640625,-59.86976623535156,138.11526386458766
1782814214.056787,-0.1972656100988388,-0.77392578125,1.13720703125,1.389645518733295,-129.71115112304688,-2.18963623046875,-54.25453186035156,140.61767833339303
1782814214.067452,-0.14794921875,-0.736328125,1.24169921875,1.4511667818824656,-118.47877502441406,-9.939193725585938,-40.76576232910156,125.68951858239113
1782814214.078126,-0.0268554650247097,-0.79150390625,1.3251953125,1.5438077166158597,-97.66578674316406,-14.028549194335938,-21.417617797851562,100.96593705202737
1782814214.088803,0.0273437537252903,-0.7744140625,1.306640625,1.5191361176556675,-74.96452331542969,-20.620346069335938,-2.4356842041015625,77.78695896788156
1782814214.09948,0.0576171912252903,-0.70751953125,1.24462890625,1.432831023567672,-56.407928466796875,-27.21405029296875,11.297225952148438,63.64028788022098
1782814214.107482,0.220703125,-0.69189453125,1.06005859375,1.2849716471353172,-29.855728149414062,-8.962631225585938,23.138046264648438,38.82090218893135
1782814214.115484,0.2255859375,-0.6240234375,0.9125975966453552,1.1283300222673989,-26.500701904296875,13.55743408203125,21.001815795898438,36.43031000463591
1782814214.123487,0.1845703125,-0.54931640625,0.77197265625,0.9652753474679872,-35.35270690917969,33.39576721191406,14.165878295898438,50.653363771549486
1782814214.131488,0.11376953125,-0.51318359375,0.75634765625,0.9210660585701104,-52.07633972167969,50.30250549316406,9.344100952148438,73.004105640036
1782814214.142234,0.02685546875,-0.50244140625,0.7944335341453552,0.9403686633926819,-68.25065612792969,66.53785705566406,6.7806243896484375,95.55843945233924
1782814214.152981,-0.0395507737994194,-0.5380859375,0.9140624403953552,1.0614192785063303,-78.68576049804688,76.85089111328125,5.2547454833984375,110.11412588835594
1782814214.163726,0.01123046875,-0.5830078125,1.03076171875,1.1842693754821298,-78.38058471679688,79.05197143554688,9.527206420898438,111.72957491452252
1782814214.174352,0.0561523474752903,-0.5947265625,1.1416015625,1.2884513563858333,-65.32096862792969,80.94215393066406,19.903182983398438,105.89899866522313
1782814214.18498,0.12158203125,-0.5771484375,1.1748046875,1.3145526094468567,-44.14176940917969,78.50074768066406,33.08677673339844,95.9458075561524
1782814214.195608,0.1015625,-0.529296875,1.17431640625,1.2920871275881247,-23.204803466796875,75.81329345703125,48.10142517089844,92.73545962686629
1782814214.204078,0.134765625,-0.4326171875,1.0732421875,1.1649756210461384,3.345489501953125,77.46124267578125,59.20982360839844,97.5563407914709
1782814214.21255,0.1396484375,-0.4140625,1.025390625,1.1146189366058392,9.996414184570312,84.97047424316406,55.48667907714844,101.9739248272231
1782814214.221022,0.13427734375,-0.41943359375,0.9946288466453552,1.0877690412903216,12.010574340820312,91.80641174316406,46.20933532714844,103.47933998885281
1782814214.229494,0.083984375,-0.43994140625,0.9379882216453552,1.03943432698886,9.754180908203125,96.01593017578125,37.48130798339844,103.53285150548507
1782814214.239511,0.107421875,-0.40087890625,0.8803710341453552,0.9732915875866154,1.8177032470703125,100.83961486816406,33.20884704589844,106.18267040328163
1782814214.249528,0.1123046875,-0.3388671875,0.8408203125,0.9134670828832478,-11.732101440429688,105.17311096191406,31.682968139648438,110.46644714008683
1782814214.259545,0.08447265625,-0.38134765625,0.8784179091453552,0.9613426484290585,-26.685714721679688,111.88697814941406,29.851913452148438,118.83585311836194
1782814214.270235,0.11328125,-0.36083984375,0.9443358778953552,1.0172552701851576,-36.266326904296875,124.03106689453125,28.203964233398438,132.2664568989577
1782814214.280926,0.17138671875,-0.39599609375,1.0517578125,1.1368292790845667,-32.91130065917969,137.52174377441406,28.692245483398438,144.28661986724242
1782814214.291617,0.2041015625,-0.39111328125,1.14404296875,1.2261571518086074,-18.507003784179688,144.29664611816406,30.218124389648438,148.58386962132388
1782814214.299881,0.2158203125,-0.36962890625,1.0966796875,1.177246903838896,17.810821533203125,141.12472534179688,39.86167907714844,147.7239551505943
1782814214.308143,0.21435546875,-0.3408203125,1.033203125,1.1088802685165768,31.541824340820312,129.64820861816406,41.38755798339844,139.70137664488252
1782814214.316406,0.20947265625,-0.3125,0.9765624403953552,1.04652245255769,43.201446533203125,116.89376831054688,39.80064392089844,130.82281646914336
1782814214.324669,0.142578125,-0.32763671875,1.01513671875,1.0761862752127527,53.75862121582031,103.03688049316406,33.75816345214844,121.02149270460428
1782814214.332477,0.10546875,-0.30322265625,0.9008788466453552,0.9563735320589616,65.66238403320312,83.14132690429688,25.213241577148438,108.90241717775898
1782814214.340286,0.00244140625,-0.2724609375,0.8730468153953552,0.9145773148290023,75.73318481445312,63.36212158203125,16.485214233398438,100.1101194776895
1782814214.348094,0.02978515625,-0.337890625,0.77734375,0.8481276647178714,85.55793762207031,38.70582580566406,8.489608764648438,94.2887856450452
1782814214.355901,0.1044921875,-0.37255859375,0.66162109375,0.7664600411766154,92.39387512207031,20.212173461914062,3.9119720458984375,94.65972555112928
1782814214.366434,0.310546875,-0.259765625,0.3564452826976776,0.5394170752407951,90.56472778320312,11.42120361328125,0.1277923583984375,91.28214579702089
1782814214.376967,1.5712890625,-0.08642578125,-0.49755859375,1.6504494199493904,109.24148559570312,-35.88104248046875,-4.2667388916015625,115.06240239717977
1782814214.3875,0.0263671912252903,-0.068359375,-0.10498046875,0.12802004429959934,87.26882934570312,-83.85467529296875,10.076522827148438,121.44542583458927
1782814214.395499,-0.55615234375,0.43115234375,-0.169921875,0.7239276321451281,16.042709350585938,-105.94749450683594,1.1043548583984375,107.1609057223607
1782814214.403498,-0.033203125,0.14990234375,-0.07421875,0.17053323143326432,-20.093917846679688,-123.15940856933594,-42.35267639160156,131.7791889909384
1782814214.411497,0.359375,-0.27490234375,0.2548828125,0.5193139102047559,-54.882049560546875,-134.02557373046875,-67.49916076660156,159.78432489434988
1782814214.419497,0.2138671875,-0.224609375,0.33056640625,0.4532799291476414,-78.99093627929688,-149.64675903320312,-83.00209045410156,188.4756417237314
1782814214.429108,0.0273437537252903,-0.2060546875,0.3666991889476776,0.4215145433830208,-104.32052612304688,-168.44940185546875,-100.21400451660156,222.03787932987458
1782814214.438721,0.3974609375,-0.119140625,1.11376953125,1.188550484457692,-120.43380737304688,-176.50222778320312,-109.85755920410156,240.26240173003467
1782814214.448334,0.34326171875,-0.4916991889476776,1.52392578125,1.6376649494720923,-216.62521362304688,-70.24383544921875,-77.99720764160156,240.71610663961548
1782814214.457947,-0.4291991889476776,-0.6943359375,1.61279296875,1.8075993742936476,-207.95822143554688,-0.84686279296875,-51.14173889160156,214.15605640766458
1782814214.467561,-0.65283203125,-0.919921875,1.6445311307907104,1.9942237981904862,-164.1368865966797,42.00172424316406,-38.26332092285156,173.69267143174238
1782814214.477133,-0.513671875,-0.6708984375,1.52880859375,1.746773947862118,-112.92648315429688,84.84649658203125,-30.145645141601562,144.43018555982576
1782814214.486706,-0.10009765625,-0.5341796875,1.1923828125,1.3103985084201488,-89.60914611816406,128.18336486816406,-31.793594360351562,159.59826671772453
1782814214.496279,-0.431640625,-0.1826171875,0.9086913466453552,1.0224395482320459,-106.76383972167969,153.51295471191406,-30.939102172851562,189.53092829340767
1782814214.505852,-0.3759765625,-0.4794921875,1.0498046875,1.2138208332862903,-148.3287811279297,32.96852111816406,-43.69544982910156,158.10642944353538
1782814214.515425,-0.4824218451976776,-0.62451171875,1.615234375,1.7977007008291597,-155.89523315429688,44.38018798828125,-16.901016235351562,162.9680004046665
1782814214.523454,-0.53466796875,-0.72998046875,1.431640625,1.6936163085876657,-144.72579956054688,93.14727783203125,-20.441055297851562,173.31996182681047
1782814214.531483,-0.4873046576976776,-0.87890625,1.38427734375,1.7106039255545011,-126.72042846679688,90.70587158203125,-19.098281860351562,157.00435185141194
1782814214.539512,-0.31103515625,-0.7626953125,1.3310546875,1.565296645766756,-120.92208862304688,52.43682861328125,-19.830703735351562,133.28551805285494
1782814214.547541,-0.1806640625,-0.91064453125,1.1943359375,1.5127297502787933,-117.80929565429688,23.68927001953125,-21.234512329101562,122.02916114795906
1782814214.55557,-0.06396484375,-1.00830078125,1.24169921875,1.6008057085573135,-97.36251831054688,17.772674560546875,-30.755996704101562,103.64004663289857
1782814214.563599,-0.0498046800494194,-0.85302734375,1.34619140625,1.5944803095684055,-64.22042846679688,11.29913330078125,-32.09877014160156,72.67919159161836
1782814214.573162,-0.4248046875,-0.724609375,1.1123046875,1.3938218992017366,-21.190643310546875,13.43536376953125,-30.389785766601562,39.409281171754415
1782814214.582725,-0.4926757514476776,-0.9487304091453552,1.37841796875,1.74437807882194,8.531570434570312,13.254165649414062,-34.47914123535156,37.91136744394038
1782814214.592288,-0.2626953125,-0.8486328125,1.3095703125,1.582454069173093,42.224884033203125,-9.265899658203125,-18.854141235351562,47.16223457191066
1782814214.601851,-0.3046875,-0.80029296875,1.35595703125,1.603721540381388,79.14924621582031,-12.197494506835938,-8.417129516601562,80.52471743555567
1782814214.611414,-0.6103515625,-0.69580078125,1.34423828125,1.6320674967084712,114.06135559082031,-3.1032562255859375,2.4471282958984375,114.12980099568115
1782814214.619433,-0.8525390028953552,-0.59130859375,1.5537109375,1.8682843150354653,138.5974884033203,-48.94065856933594,9.527206420898438,147.29297170977043
1782814214.627452,-0.76513671875,-0.7529296875,1.8818358182907104,2.166481793069176,202.25906372070312,-108.81805419921875,21.368026733398438,230.66575459603618
1782814214.635471,-0.29052734375,-0.990234375,1.7666014432907104,2.045935217531311,289.84259033203125,-110.83030700683594,21.917343139648438,311.0827125571466
1782814214.64349,-0.07763671875,-1.06689453125,1.587890625,1.9145986623499753,330.43096923828125,-76.10130310058594,36.44371032714844,341.0339833326971
1782814214.651514,-0.32421875,-1.1865234375,1.25439453125,1.756832748333855,360.94854736328125,-87.39280700683594,30.096054077148438,372.59512749257954
1782814214.659539,-0.28466796875,-1.1220703125,1.1279296875,1.6162620513301507,377.5520324707031,-122.11990356445312,14.532089233398438,397.0768057779724
1782814214.667562,-0.3212890625,-0.81005859375,1.4208984375,1.6668455107418618,402.7595520019531,-132.43484497070312,11.297225952148438,424.1248309229749
1782814214.675586,-0.3291015625,-0.71728515625,1.072265625,1.3313750051631468,433.94659423828125,-127.98118591308594,15.325546264648438,452.6849930879455
1782814214.686339,-0.1586913913488388,-0.6630859375,0.65576171875,0.9459859142590011,452.62335205078125,-126.45530700683594,31.011581420898438,470.97830276362373
1782814214.697092,-0.42236328125,-0.45458984375,0.3911132514476776,0.7334931784596843,438.3430480957031,-110.89324951171875,36.74888610839844,453.6434957445199
1782814214.707845,-0.1435546875,-0.49267578125,0.4794921576976776,0.7023176653246699,409.5954895019531,-106.98699951171875,30.767440795898438,424.4541418080335
1782814214.716377,-0.0483398362994194,-0.46533203125,0.408203125,0.6208868096041913,411.4265441894531,-108.63494873046875,-21.844863891601562,426.08749269110234
1782814214.724909,0.228515625,-0.4990234375,0.1669921875,0.5736986776431441,372.6081848144531,-70.79315185546875,-40.82679748535156,381.46475215052703
1782814214.733441,0.1728515625,-0.75,-0.326171875,0.8359220984635513,326.0993957519531,-25.44403076171875,-82.26966857910156,337.27809442551626
1782814214.741973,0.39208984375,-0.537109375,-0.74658203125,0.999802808392818,254.9304962158203,-0.8449554443359375,-131.15882873535156,286.69305922148965
1782814214.752283,0.38134765625,-0.07080078125,-0.712890625,0.8115736742686206,178.33328247070312,-8.17108154296875,-153.00941467285156,235.11998466503454
1782814214.762593,0.36962890625,0.27099609375,-0.830078125,0.9482057291362701,112.53929138183594,7.2727203369140625,-158.31947326660156,194.3786001113263
1782814214.772903,0.3330078125,0.44091796875,-0.9760741591453552,1.1216165220359289,31.238555908203125,47.85919189453125,-153.37562561035156,163.67783037233303
1782814214.780549,0.04150390625,0.6025390625,-0.75830078125,0.969430745807429,-125.07247924804688,56.03790283203125,-138.84925842285156,195.0960998678372
1782814214.788196,-0.27392578125,0.4887695014476776,-0.5283203125,0.7700995466684368,-184.52072143554688,52.86407470703125,-120.35560607910156,226.5567896762159
1782814214.795843,-0.3515624701976776,0.4238280951976776,-0.31005859375,0.6319515458392456,-214.4298553466797,50.79078674316406,-115.96107482910156,249.01172212871433
1782814214.80349,-0.2499999850988388,0.4726562201976776,-0.1025390625,0.5444429762420984,-226.3927459716797,53.72047424316406,-103.87611389160156,254.81328815179344
1782814214.814174,-0.1977538913488388,0.4589843451976776,0.103515625,0.5103809511524601,-222.6085662841797,58.11500549316406,-85.01625061035156,245.2747245731011
1782814214.824858,-0.09814453125,0.4531249701976776,0.2548828125,0.5290745086836434,-215.95382690429688,64.95285034179688,-56.02455139160156,232.365398630616
1782814214.835542,-0.3212890625,-0.008789066225290298,0.54345703125,0.6313869290556345,-194.53048706054688,67.14630126953125,-43.45130920410156,210.33010350813478
1782814214.84388,-0.010253898799419403,-0.1005859375,0.74462890625,0.7514618295604999,-174.87716674804688,61.40899658203125,-43.32923889160156,190.34314081143452
1782814214.852217,0.06494140625,-0.09033203125,0.8818358778953552,0.8888260671576584,-153.02658081054688,46.33331298828125,-43.39027404785156,165.67023332205616
1782814214.860554,0.0234375037252903,0.0273437462747097,0.9545897841453552,0.9552688904365537,-127.02560424804688,31.383514404296875,-53.09486389160156,141.20727205995388
1782814214.868891,-0.0415039025247097,0.0541992150247097,0.9594725966453552,0.961898015668738,-98.70719909667969,24.118423461914062,-59.56459045410156,117.7826385328696
1782814214.879094,-0.0961913913488388,0.083984375,0.9902343153953552,0.9984338527915978,-71.42448425292969,20.273208618164062,-62.86048889160156,97.28258324162535
1782814214.889297,-0.1279296875,0.0615234375,0.9477538466453552,0.9583258799264118,-46.03385925292969,11.545181274414062,-60.78529357910156,77.1184758918068
1782814214.8995,-0.01416015625,-0.0361328125,0.8735350966453552,0.8743967378915561,-25.829315185546875,5.01251220703125,-55.35316467285156,61.28826674723133
1782814214.907515,0.07373046875,-0.1455078125,0.8247069716453552,0.8406844203392154,-12.460708618164062,4.2819976806640625,-50.77552795410156,52.457211157492445
1782814214.91553,0.0791015625,-0.19287109375,0.7792968153953552,0.8066968714948665,-9.899139404296875,5.37872314453125,-48.76136779785156,50.04592504019258
1782814214.923545,-0.0068359337747097015,-0.248046875,0.7724609375,0.8113383277962509,-18.995285034179688,8.188247680664062,-52.78968811035156,56.697613921556034
1782814214.931561,-0.029296867549419403,-0.28076171875,0.787109375,0.8361977142856544,-27.599334716796875,9.34600830078125,-64.26429748535156,70.56182451760884
1782814214.940154,0.14794921875,-0.7744140625,0.8769530653953552,1.179259424568148,-45.36247253417969,5.3806304931640625,-72.44300842285156,85.6428313886896
1782814214.948748,0.416015625,-0.4755859375,0.7880859375,1.0101140673593,-87.65792846679688,-12.44354248046875,-60.17494201660156,107.05035179416585
1782814214.957342,0.232421875,-0.61328125,0.60791015625,0.8942530836692584,-106.82106018066406,-36.30638122558594,-47.47962951660156,122.40591258126535
1782814214.965936,0.12744140625,-0.8251953125,0.4750976264476776,0.9606801603318178,-147.77565002441406,-66.27464294433594,-56.32972717285156,171.47305677833242
1782814214.975887,-0.015624992549419403,-1.0537109375,0.4145507514476776,1.1324324287678857,-188.8561248779297,-71.82884216308594,-58.09974670410156,210.24176330472127
1782814214.985838,-0.7890625,-1.09619140625,0.7470703125,1.5434925590560682,-224.7447967529297,-45.88890075683594,-60.54115295410156,237.2366878903816
1782814214.995789,-0.833984375,-0.6708984375,0.751953125,1.3080780379554378,-220.22628784179688,-17.02117919921875,-51.44691467285156,226.79533378635804
1782814215.00636,-0.33349609375,-0.87353515625,1.17529296875,1.5018644666361907,-250.00953674316406,48.53248596191406,-2.7408599853515625,254.69134843891771
1782814215.016934,-0.3583984375,-0.9765624403953552,1.2412109375,1.6194839398286733,-264.2936706542969,67.02423095703125,18.377304077148438,273.2784608937327
1782814215.027508,-0.3359375,-1.0,1.19091796875,1.5909555657521917,-266.00457763671875,82.46803283691406,19.414901733398438,279.1708261495047
1782814215.038189,-0.2822265625,-1.05322265625,1.279296875,1.6809313759352693,-268.5661315917969,97.78594970703125,19.353866577148438,286.4689008422633
1782814215.048873,-0.3994140326976776,-1.03125,1.35546875,1.7493723629468896,-260.08416748046875,98.70338439941406,23.870468139648438,279.2058944848998
1782814215.059557,-0.3852538764476776,-1.0556640625,1.44189453125,1.828088346174939,-242.99240112304688,83.50372314453125,26.128768920898438,258.26515705349016
1782814215.06753,-0.015136715024709702,-1.251953125,1.595703125,2.0282712369093465,-183.54415893554688,53.478240966796875,16.180038452148438,191.85977739112772
1782814215.075504,-0.2324218600988388,-1.041015625,1.6396483182907104,1.9560623865867621,-145.39718627929688,33.57696533203125,10.198593139648438,149.57194148928156
1782814215.083478,-0.2460937350988388,-1.0859375,1.5107421875,1.8767430131622795,-99.74479675292969,16.550064086914062,1.7147064208984375,101.12304049361889
1782814215.091452,-0.9096679091453552,-0.4960937201976776,1.68701171875,1.9798013090581295,-49.14665222167969,21.371841430664062,-2.6798248291015625,53.65939332354449
1782814215.102176,-0.27099609375,-0.8935546875,1.404296875,1.6863951421644179,2.429962158203125,17.95196533203125,-3.5953521728515625,18.469010060628033
1782814215.1129,-0.3837890625,-1.052734375,1.38525390625,1.7817048278494823,34.23118591308594,22.348403930664062,2.7523040771484375,40.973167134082544
1782814215.123625,-0.4707030951976776,-1.10546875,1.404296875,1.8481537474436487,64.25666809082031,7.5778961181640625,7.1468353271484375,65.09547725383776
1782814215.131607,-0.4780273139476776,-0.87158203125,1.34033203125,1.6687286490237585,99.41673278808594,0.1926422119140625,9.527206420898438,99.87237621818107
1782814215.139591,-0.3935546875,-0.8115234375,1.21484375,1.513043594408007,129.07981872558594,3.6716461181640625,13.921737670898438,129.88031169975096
1782814215.147573,-0.25,-0.78857421875,1.12548828125,1.3968082079184143,150.31814575195312,-7.07244873046875,16.119003295898438,151.34525674960454
1782814215.155556,-0.2255859375,-0.7294921875,1.10205078125,1.3407325576993439,163.6829376220703,-10.915756225585938,18.011093139648438,165.03229162394877
1782814215.16623,-0.1347656100988388,-0.63818359375,0.9101561903953552,1.119742988329002,168.44558715820312,-8.41522216796875,13.921737670898438,169.22927222258386
1782814215.176904,0.08837890625,-0.68701171875,0.8579100966453552,1.1026357815234449,161.60964965820312,-17.444610595703125,5.9261322021484375,162.6564242332906
1782814215.187578,0.0439453125,-0.3095703125,0.3666991889476776,0.4819058663753274,155.1990509033203,-19.582748413085938,-4.9991607666015625,156.50949186893413
1782814215.195562,-0.6484375,-0.7353515625,0.54931640625,1.1238156548352831,95.93582153320312,61.89727783203125,-13.299942016601562,114.9427827830492
1782814215.203547,0.4150390625,-0.39990234375,0.30712890625,0.6530753961005906,49.66926574707031,-19.277572631835938,-36.12709045410156,64.3725673801165
1782814215.211532,-0.0546874962747097,-0.33544921875,0.1875,0.3881663955171567,12.928009033203125,-2.857208251953125,-28.009414672851562,30.981032372620557
1782814215.219517,-0.21923828125,-0.001953125,0.4794921576976776,0.5272399529211479,-26.012420654296875,16.67022705078125,-34.05189514160156,45.979061114330264
1782814215.230169,-0.1210937425494194,0.01806640625,0.4262695014476776,0.44350397673963055,-65.07492065429688,16.05987548828125,-33.74671936035156,75.04336057539307
1782814215.240821,-0.37646484375,-0.17431640625,0.3178710639476776,0.5226413697391888,-108.83712768554688,12.94708251953125,-33.62464904785156,114.64625738417618
1782814215.251473,-0.2138671725988388,-0.33251953125,0.3754882514476776,0.5452520822091151,-150.2208709716797,13.376235961914062,-28.131484985351562,153.41647307730648
1782814215.262145,-0.08642578125,-0.3935546875,0.68896484375,0.7981398772404229,-209.42306518554688,17.95196533203125,-13.910293579101562,210.65087125015424
1782814215.272816,-0.1972656100988388,-0.6259765625,0.8491210341453552,1.073204038547685,-219.1295623779297,19.357681274414062,-13.483047485351562,220.39572931832646
1782814215.283487,-0.23876953125,-0.7041015625,1.0791015625,1.3104312578530122,-210.03341674804688,22.71270751953125,-13.727188110351562,211.70342209596774
1782814215.294149,-0.2255859375,-0.69921875,1.1083984375,1.3297905744145422,-187.99972534179688,18.62335205078125,-6.0367584228515625,189.01631787349544
1782814215.30481,-0.1171874925494194,-0.76953125,1.04736328125,1.304944863221182,-165.29464721679688,20.57647705078125,-3.3512115478515625,166.60414888346904
1782814215.315469,0.0205078125,-0.67578125,0.9536132216453552,1.1689649458909925,-146.49581909179688,12.64190673828125,-0.0553131103515625,147.04028657784932
1782814215.323469,-0.2358398288488388,-0.6142578125,0.8432616591453552,1.0695902537295823,-106.09245300292969,7.0896148681640625,-5.1212310791015625,106.4523284429387
1782814215.331471,-0.16455078125,-0.728515625,0.7744140028953552,1.0758852277820032,-89.67208862304688,10.74981689453125,-11.285781860351562,91.01654197718656
1782814215.339473,-0.0712890625,-0.62841796875,0.6552734375,0.9107000339151587,-76.18141174316406,13.986587524414062,-13.238906860351562,78.57799170643555
1782814215.347476,-0.1064453050494194,-0.5537109375,0.52880859375,0.7730232429222587,-69.89860534667969,12.033462524414062,-12.140274047851562,71.95835951225051
1782814215.355523,-0.240234375,-0.5625,0.4428710639476776,0.7551513651009237,-70.75309753417969,6.7844390869140625,-10.614395141601562,71.86581112481265
1782814215.363571,-0.32958984375,-0.69970703125,0.4492187201976776,0.89443661220898,-73.01139831542969,5.4416656494140625,-11.346817016601562,74.0879630265442
1782814215.371619,-0.36279296875,-0.806640625,0.4394530951976776,0.9876268824579697,-74.84245300292969,6.4792633056640625,-10.553359985351562,75.86004898139919
1782814215.379668,-0.26416015625,-0.72900390625,0.3212890625,0.8393175472727304,-74.90158081054688,0.19073486328125,-8.661270141601562,75.4009336027927
1782814215.390253,-0.1928710788488388,-0.71142578125,0.4345702826976776,0.8556735510037852,-80.94406127929688,-8.41522216796875,-2.8018951416015625,81.42854313388746
1782814215.400839,-0.1650390625,-0.72314453125,0.53759765625,0.9160715830289434,-81.67648315429688,-0.84686279296875,-1.2760162353515625,81.69083972194885
1782814215.411425,-0.0175781212747097,-0.8115234375,0.4990234076976776,0.9528397773967916,-77.77214050292969,-2.3097991943359375,-2.0084381103515625,77.8323508212922
1782814215.419472,-0.2109375,-0.68408203125,0.69775390625,0.9996616267880396,-73.92501831054688,-3.16619873046875,-3.2901763916015625,74.06590583597398
1782814215.427519,-0.0014648400247097015,-0.73828125,0.78173828125,1.0752562904859309,-49.999237060546875,-14.15252685546875,-10.858535766601562,53.08602002435381
1782814215.435566,-0.1025390550494194,-0.68310546875,0.646484375,0.9460916374039703,-38.64860534667969,1.5964508056640625,-2.9239654541015625,38.791918287126286
1782814215.443614,-0.15087890625,-0.6220703125,0.51953125,0.8244080529516961,-30.897140502929688,-6.1550140380859375,-3.7174224853515625,31.722810704624056
1782814215.454325,-0.2480468600988388,-0.5693359375,0.4619140326976776,0.7739736611390132,-32.665252685546875,-7.19451904296875,-1.7642974853515625,33.49466499141445
1782814215.465037,-0.25732421875,-0.59326171875,0.4345702826976776,0.7791190865929556,-34.00993347167969,-5.8498382568359375,-0.5435943603515625,34.51364479749749
1782814215.475749,-0.2416992038488388,-0.6689453125,0.4531249701976776,0.8433436872791137,-32.23991394042969,-9.511947631835938,1.5316009521484375,33.64869982798331
1782814215.486359,-0.3046875,-0.7978515625,0.4682616889476776,0.9739972267804837,-28.089523315429688,-8.779525756835938,5.4378509521484375,29.927773314778957
1782814215.496969,-0.30224609375,-0.9199218153953552,0.4150390326976776,1.0535018966713081,-22.533416748046875,-8.84246826171875,10.320663452148438,26.314638690150684
1782814215.507577,-0.0346679650247097,-0.82666015625,0.3876952826976776,0.9137157730696461,-13.744354248046875,-9.88006591796875,14.165878295898438,22.072496101107784
1782814215.515562,-0.0649413987994194,-0.72412109375,0.3706054389476776,0.8160374593542397,-8.373260498046875,-10.97869873046875,12.090682983398438,18.352872586807464
1782814215.523547,-0.1347656100988388,-0.6884765625,0.4062499701976776,0.8106792121812071,-11.852264404296875,-12.866973876953125,12.884140014648438,21.72639528722199
1782814215.531532,-0.1108398362994194,-0.69384765625,0.3754882514476776,0.7966815338450707,-12.098312377929688,-13.174057006835938,13.982772827148438,22.703367070744605
1782814215.539517,-0.1376953125,-0.751953125,0.3232421576976776,0.8299873455630444,-15.636444091796875,-13.843536376953125,16.485214233398438,26.60646860402478
1782814215.550147,-0.1416015625,-0.77001953125,0.26953125,0.8280266757390571,-20.822525024414062,-17.629623413085938,16.241073608398438,31.751435275165026
1782814215.560777,-0.13720703125,-0.6455078125,0.279296875,0.7165981089897874,-27.601242065429688,-21.902084350585938,15.020370483398438,38.30328173816408
1782814215.571407,-0.162109375,-0.68896484375,0.3823241889476776,0.8044400480090806,-30.958175659179688,-24.221420288085938,14.104843139648438,41.761614443299656
1782814215.580019,-0.1879882663488388,-0.630859375,0.64208984375,0.9195664776171063,-22.838592529296875,-24.158477783203125,10.259628295898438,34.79214466356988
1782814215.588631,-0.2255859375,-0.71533203125,0.826171875,1.1158624006440134,0.110626220703125,-23.181915283203125,9.222030639648438,24.94913392238152
1782814215.597245,-0.2529296875,-0.86474609375,0.7846679091453552,1.1947648141443046,21.839141845703125,-25.93231201171875,8.062362670898438,34.84873906853691
1782814215.605857,-0.0683593675494194,-0.88671875,0.67919921875,1.119041877448708,40.51399230957031,-30.080795288085938,8.184432983398438,51.1196905436975
1782814215.614986,-0.0468749962747097,-0.9199218153953552,0.6162109375,1.1082280140885579,50.03547668457031,-33.55979919433594,11.419296264648438,61.32054611788894
1782814215.624115,-0.0791015625,-0.81884765625,0.5341796875,0.9808753640874345,51.807403564453125,-38.87176513671875,9.771347045898438,65.50191151428882
1782814215.633245,-0.080078125,-0.8134765625,0.638671875,1.0373323419986227,46.61750793457031,-36.79466247558594,8.245468139648438,59.958543824579124
1782814215.642373,-0.1171874925494194,-0.759765625,0.68017578125,1.026457893311123,44.54612731933594,-32.58323669433594,6.3533782958984375,55.555289472744185
1782814215.651502,-0.0483398362994194,-0.833984375,0.6845703125,1.0800477722184065,42.041778564453125,-31.12030029296875,3.3016204833984375,52.41073299433483
1782814215.661112,-0.1708984375,-0.78857421875,0.3466796576976776,0.8782040534400266,40.02571105957031,-20.132064819335938,-1.7642974853515625,44.83826853627346
1782814215.670721,-0.2177734225988388,-0.798828125,0.32666015625,0.8900890374354143,29.956817626953125,-18.36395263671875,-3.9615631103515625,35.36014226576977
1782814215.68033,-0.18359375,-0.8271484375,0.2260742038488388,0.8769211756729565,15.003204345703125,-15.25115966796875,-4.2667388916015625,21.815111107347292
1782814215.689939,-0.1889648288488388,-0.79736328125,0.1694335788488388,0.8367817197269328,-0.7457733154296875,-15.005111694335938,-4.7550201416015625,15.75816522773323
1782814215.699548,-0.14990234375,-0.88623046875,0.1396484225988388,0.9096025716415559,-17.162322998046875,-13.96942138671875,-5.8536529541015625,22.890070281151733
1782814215.707574,-0.12744140625,-0.88818359375,0.1367187350988388,0.9076361720208539,-36.327362060546875,-12.32147216796875,-5.3653717041015625,38.73348840715567
1782814215.715605,-0.0849609375,-0.845703125,0.25830078125,0.8883419556285771,-48.47526550292969,-12.075424194335938,-3.5953521728515625,50.08586419639285
1782814215.723634,-0.001953125,-0.86669921875,0.3461913764476776,0.9332844258884124,-55.79948425292969,-8.108139038085938,-2.9850006103515625,56.464454218540716
1782814215.731664,-0.029785148799419403,-0.8779296875,0.4550780951976776,0.9893147952050437,-58.910369873046875,-4.44793701171875,-2.9850006103515625,59.15341115170963
1782814215.739694,-0.0429687462747097,-0.83544921875,0.4985351264476776,0.9738372464475815,-58.177947998046875,-1.15203857421875,-5.4874420166015625,58.44752215471156
1782814215.747724,-0.0654296800494194,-0.8564453125,0.5751953125,1.0337452606210897,-57.81364440917969,0.9860992431640625,-5.7315826416015625,58.10542927443141
1782814215.757292,-0.14404296875,-0.86083984375,0.63720703125,1.080660175128276,-53.23600769042969,2.5119781494140625,-4.6939849853515625,53.50155179133899
1782814215.76686,-0.1259765625,-0.9267578125,0.65869140625,1.1439512690655596,-46.581268310546875,2.696990966796875,-3.1681060791015625,46.76671053027552
1782814215.776428,-0.11376953125,-0.9711913466453552,0.6396484375,1.1684632050842914,-36.937713623046875,3.54766845703125,-2.0084381103515625,37.16200294416798
1782814215.785996,-0.11376953125,-0.888671875,0.6328125,1.096874134900222,-25.279998779296875,6.84356689453125,-0.1163482666015625,26.1901944063101
1782814215.795564,-0.1455078125,-0.833984375,0.720703125,1.1118072924870754,-16.061782836914062,9.714126586914062,0.9212493896484375,18.793451617111355
1782814215.805153,0.0390625,-1.05908203125,1.5166015625,1.85020564457044,89.95246887207031,22.348403930664062,7.9402923583984375,93.02658790456489
1782814215.81474,-0.1689453125,-0.89208984375,0.4125976264476776,0.9972981546598185,121.08039855957031,23.141860961914062,-2.4967193603515625,123.29737325543198
1782814215.824327,-0.1406249850988388,-0.74072265625,0.33642578125,0.8256075013017852,114.91775512695312,16.307830810546875,-1.6422271728515625,116.08071631089737
1782814215.833914,-0.07666015625,-0.68896484375,0.3662109076976776,0.7840024007593939,95.14236450195312,9.95635986328125,-0.7877349853515625,95.66514073139084
1782814215.843501,-0.09912109375,-0.80908203125,0.546875,0.9815859565737594,85.80398559570312,17.46368408203125,6.4754486083984375,87.80225304913667
1782814215.853097,-0.08251953125,-0.7412109375,0.4580077826976776,0.8751995520559821,74.93782043457031,18.075942993164062,6.7195892333984375,77.37938695829546
1782814215.862693,-0.15234375,-0.7587890625,0.51904296875,0.9318664405066345,65.47927856445312,16.796112060546875,7.3299407958984375,67.99539200374592
1782814215.872289,-0.1123046800494194,-0.7734375,0.51904296875,0.9382022761516121,58.582305908203125,12.94708251953125,8.733749389648438,60.62830930919175
1782814215.881886,-0.06640625,-0.8461913466453552,0.63427734375,1.0596024414709027,59.13352966308594,12.643814086914062,5.5599212646484375,60.72522613830763
1782814215.891481,-0.1020507737994194,-0.7890625,0.650390625,1.0276390195137595,64.01443481445312,15.20538330078125,3.0574798583984375,65.86652965673885
1782814215.89949,-0.18701171875,-0.79052734375,0.67333984375,1.0551272005533427,68.89533996582031,13.803482055664062,3.3016204833984375,70.34205487248289
1782814215.907499,-0.1655273288488388,-0.74169921875,0.65087890625,1.0005800209335525,73.04763793945312,7.51495361328125,5.2547454833984375,73.62095005118107
1782814215.915509,-0.26708984375,-0.66748046875,0.7587890625,1.045288477965173,67.67463684082031,-1.3942718505859375,8.306503295898438,68.19676284498424
1782814215.923517,-0.123046875,-0.7470703125,0.646484375,0.9955885859054703,67.61550903320312,-8.41522216796875,14.348983764648438,69.63164769724749
1782814215.934179,-0.13134765625,-0.732421875,0.66162109375,0.9957090345456499,66.08772277832031,-9.634017944335938,17.766952514648438,69.10908771958776
1782814215.944841,-0.12841796875,-0.71728515625,0.61474609375,0.9533634825476308,65.66238403320312,-9.571075439453125,18.255233764648438,68.82156436607288
1782814215.955503,-0.15869140625,-0.7451171875,0.662109375,1.0093420678780822,64.56184387207031,-10.793685913085938,21.306991577148438,68.8383848577275
1782814215.963485,-0.17138671875,-0.7197265625,0.712890625,1.0274204472098307,61.695098876953125,-14.76287841796875,21.978378295898438,67.13625635331753
1782814215.971466,-0.1826171875,-0.5849609375,0.64453125,0.8893530613866754,53.699493408203125,-16.22772216796875,21.612167358398438,60.1170552920372
1782814215.979447,-0.2167968600988388,-0.40576171875,0.52197265625,0.6957721644506557,43.201446533203125,-17.81463623046875,20.086288452148438,50.86438076265207
1782814215.987428,-0.1787109225988388,-0.31298828125,0.3486328125,0.5014420165957549,20.738601684570312,-19.948959350585938,21.184921264648438,35.733058475198376
1782814215.998173,-0.2124023288488388,-0.4428710639476776,0.4843749701976776,0.689832327697506,-5.4416656494140625,-23.366928100585938,24.114608764648438,34.016751899174984
1782814216.008918,-0.18994140625,-0.51318359375,0.57470703125,0.7935510761574085,-25.279998779296875,-29.16717529296875,27.776718139648438,47.55363838300381
1782814216.019663,-0.1103515550494194,-0.67529296875,0.60546875,0.9136686853403568,-36.63444519042969,-38.56468200683594,28.814315795898438,60.49447964471415
1782814216.03035,-0.0722656175494194,-0.89013671875,0.9038085341453552,1.270604408909709,-38.219451904296875,-41.00799560546875,30.462265014648438,63.79915201055325
1782814216.041037,-0.154296875,-0.83203125,0.9438475966453552,1.2676481421532322,-22.533416748046875,-38.562774658203125,31.805038452148438,54.830675088158024
1782814216.051724,-0.00732421875,-0.9453125,1.01611328125,1.3878600675749662,-2.513885498046875,-33.679962158203125,23.015975952148438,40.87046146430402
1782814216.062747,0.0351562537252903,-0.77587890625,0.9912108778953552,1.2592549558360984,18.787384033203125,-20.68328857421875,24.053573608398438,36.86920976085744
1782814216.073771,0.0390624962747097,-0.81591796875,0.9643554091453552,1.2638154000850927,38.135528564453125,-6.946563720703125,24.297714233398438,45.74879455662086
1782814216.084795,-0.1166992112994194,-0.99755859375,0.83642578125,1.3070386151227733,60.901641845703125,8.85772705078125,23.748397827148438,65.96556455731239
1782814216.095035,-0.1894531100988388,-0.83544921875,0.59326171875,1.0420303954157537,66.39289855957031,21.677017211914062,26.556015014648438,74.7203585899134
1782814216.105274,-0.27099609375,-0.78466796875,0.4628905951976776,0.9504790408696396,65.29617309570312,25.88653564453125,31.377792358398438,76.930285336182
1782814216.115513,-0.27294921875,-0.7548828125,0.50732421875,0.9495931758150136,56.568145751953125,30.58624267578125,39.80064392089844,75.62780316361268
1782814216.123529,-0.181640625,-0.89697265625,0.61181640625,1.100850842606407,46.06819152832031,30.160903930664062,40.83824157714844,68.55450657482909
1782814216.131547,-0.08544921875,-0.765625,0.9042968153953552,1.1879545193079433,42.835235595703125,26.37481689453125,35.95542907714844,61.8326875922541
1782814216.139565,-0.13330078125,-0.68701171875,0.9750975966453552,1.2002372777768724,52.23655700683594,17.099380493164062,34.00230407714844,64.63128796282251
1782814216.147583,-0.1513671875,-0.58984375,0.8579100966453552,1.0520634053096636,65.59944152832031,12.521743774414062,30.401229858398438,73.37789566949144
1782814216.158208,-0.0375976525247097,0.16259765625,-0.11962890625,0.20533547307743313,58.58039855957031,3.0002593994140625,27.837753295898438,64.92769178420856
1782814216.168833,-0.11962890625,-0.79638671875,0.35888671875,0.88167032268706,16.836166381835938,17.587661743164062,44.92759704589844,51.10059999987712
1782814216.179458,-0.0898437425494194,-0.88720703125,0.642578125,1.0991427846750577,-0.194549560546875,22.22442626953125,33.20884704589844,39.959861044042896
1782814216.189062,-0.076171875,-0.775390625,0.736328125,1.0720130053058694,1.758575439453125,13.37432861328125,20.818710327148438,24.806933569427688
1782814216.198669,-0.0966796800494194,-0.73388671875,0.6318359375,0.9732180271699675,4.0149688720703125,16.244888305664062,14.043807983398438,21.84593586417758
1782814216.208277,-0.1064453050494194,-0.7421875,0.640625,0.9861912992661789,-0.0095367431640625,20.395278930664062,7.1468353271484375,21.611218123984507
1782814216.217883,-0.14013671875,-0.69970703125,0.5087890625,0.8764100294053772,-2.6988983154296875,18.381118774414062,3.9119720458984375,18.985602566261548
1782814216.22749,-0.1445312350988388,-0.69287109375,0.4389648139476776,0.8328563731866595,-9.410858154296875,14.35089111328125,0.7381439208984375,17.17722862959884
1782814216.237149,-0.26611328125,-0.498046875,0.55615234375,0.7925732758638316,-24.244308471679688,12.826919555664062,-4.4498443603515625,27.78700187837452
1782814216.246802,-0.3569335639476776,-0.38330078125,0.4663085639476776,0.7012593919443765,-21.924972534179688,8.615493774414062,-4.4498443603515625,23.97357437748601
1782814216.256456,-0.3310546875,-0.4658203125,0.09228515625,0.5788802291643819,-27.538299560546875,5.56182861328125,-3.4122467041015625,28.300800479484362
1782814216.26611,-0.4990234076976776,-0.59375,0.2358398288488388,0.8106687663908436,-59.46159362792969,3.4885406494140625,-3.1681060791015625,59.64803373761874
1782814216.275764,0.650390625,-0.64990234375,2.255859375,2.4360382881381453,-59.27848815917969,20.822525024414062,1.5316009521484375,62.84793161518506
1782814216.286319,-0.298828125,-0.95849609375,0.4536132514476776,1.1017159306799365,18.602371215820312,2.0236968994140625,-3.1070709228515625,18.968327646672172
1782814216.296874,-0.27490234375,-0.38916015625,0.802734375,0.9334877624363419,24.890899658203125,-5.42449951171875,-8.111953735351562,26.735479688082233
1782814216.307429,-0.2763671875,-0.44189453125,0.55859375,0.7639872882544446,17.444610595703125,-9.20867919921875,-0.1163482666015625,19.7263212066767
1782814216.315699,-0.31396484375,-0.46533203125,0.4999999701976776,0.7517365180805649,15.916824340820312,-15.005111694335938,0.6771087646484375,21.885089680766466
1782814216.323969,-0.298828125,-0.4716796875,0.71044921875,0.9036138933823442,7.190704345703125,-13.96942138671875,3.3626556396484375,16.067308916489047
1782814216.332239,-0.25537109375,-0.57177734375,0.6396484375,0.8951501828995335,-10.938644409179688,-2.6149749755859375,4.1561126708984375,11.99021718596545
1782814216.340509,-0.2138671875,-0.6455078125,0.9331054091453552,1.1546017557859576,-22.472381591796875,14.04571533203125,16.912460327148438,31.437578913032706
1782814216.349891,-0.2460937350988388,-1.68212890625,1.0283203125,1.9868473642423607,-38.524627685546875,11.90948486328125,9.099960327148438,41.33753797669142
1782814216.359273,-0.31494140625,-1.0302734375,1.38671875,1.7560297084589305,-18.507003784179688,20.761489868164062,12.701034545898438,30.57556097849434
1782814216.368655,-0.35986328125,-0.8095703125,0.9287108778953552,1.2835145370405923,0.904083251953125,23.44512939453125,14.776229858398438,27.72775554712283
1782814216.378037,-0.2939453125,-0.56689453125,0.6865234375,0.9375967611605195,6.336212158203125,20.33233642578125,15.020370483398438,26.060756291854986
1782814216.387419,-0.56396484375,-0.736328125,0.7568359375,1.1970948537787143,6.0329437255859375,30.832290649414062,36.44371032714844,48.11621950127772
1782814216.397078,-0.31884765625,-0.66650390625,0.75390625,1.055587949311515,9.204864501953125,10.74981689453125,23.931503295898438,27.802966456241034
1782814216.406737,-0.421875,-0.501953125,0.6083984375,0.8944742109612256,11.951446533203125,-2.00653076171875,17.461776733398438,21.255043792492916
1782814216.416396,-0.38330078125,-0.54638671875,0.5078125,0.8386485977389468,5.9680938720703125,-13.723373413085938,18.682479858398438,23.937087875518618
1782814216.426055,-0.333984375,-0.5986328125,0.5908203125,0.904972623126467,-1.354217529296875,-20.50018310546875,19.903182983398438,28.604686772363763
1782814216.435714,-0.3046875,-0.63427734375,0.75341796875,1.030912633100488,-4.2247772216796875,-21.291732788085938,18.316268920898438,28.401977657810157
1782814216.445477,-0.3115234375,-0.677734375,0.8569335341453552,1.136092345327309,-1.9664764404296875,-19.094467163085938,18.072128295898438,26.364133343926653
1782814216.455241,-0.32861328125,-0.67822265625,0.8627929091453552,1.1455934113533486,2.857208251953125,-19.397735595703125,17.217636108398438,26.093730633948507
1782814216.465005,-0.33544921875,-0.64599609375,0.7934569716453552,1.0767595355291089,7.1277618408203125,-24.343490600585938,15.447616577148438,29.69914782270463
1782814216.474769,-0.30859375,-0.60400390625,0.73974609375,1.003630960324912,8.531570434570312,-30.263900756835938,13.433456420898438,34.192822850882415
1782814216.484533,-0.275390625,-0.60498046875,0.7099609375,0.9725666541079533,9.019851684570312,-32.58323669433594,11.724472045898438,35.78391094676237
1782814216.493934,-0.263671875,-0.6015625,0.7158203125,0.9714931903311846,9.326934814453125,-28.37371826171875,8.001327514648438,30.92055696498884
1782814216.503338,-0.279296875,-0.5947265625,0.70849609375,0.9662676354855526,9.693145751953125,-28.06854248046875,6.4144134521484375,30.38000743057165
1782814216.512742,-0.29541015625,-0.61669921875,0.6875,0.9696604234589085,9.386062622070312,-30.385971069335938,5.0716400146484375,32.20445530994321
1782814216.522146,-0.29345703125,-0.59814453125,0.69580078125,0.9633445056896603,8.655548095703125,-32.520294189453125,4.8274993896484375,33.99695276583866
1782814216.53155,-0.296875,-0.60986328125,0.6875,0.9657764945586617,7.8601837158203125,-34.47532653808594,5.0106048583984375,35.71325788836837
1782814216.542191,-0.2978515625,-0.60107421875,0.69384765625,0.965106387821173,6.641387939453125,-35.633087158203125,5.5599212646484375,36.670664824291144
1782814216.552833,-0.28515625,-0.62060546875,0.71875,0.9914972502515929,5.359649658203125,-36.85760498046875,6.1092376708984375,37.74296854083521
1782814216.563475,-0.2587890625,-0.6201171875,0.72216796875,0.9864297644490662,4.8084259033203125,-37.77122497558594,6.1092376708984375,38.563054608570276
1782814216.574142,-0.2460937350988388,-0.60693359375,0.7275390625,0.9788991782306115,4.8084259033203125,-37.64915466308594,4.5833587646484375,38.23070734472705
1782814216.58481,-0.22021484375,-0.6123046875,0.72998046875,0.9778972811593144,4.077911376953125,-36.55242919921875,3.6678314208984375,36.96163455387644
1782814216.595478,-0.2338867038488388,-0.60009765625,0.7412109375,0.9819439093673561,4.0149688720703125,-34.17015075683594,2.6302337646484375,34.50561269482525
1782814216.603464,-0.25146484375,-0.623046875,0.7373046875,0.9975170065211671,3.6487579345703125,-32.52220153808594,2.5691986083984375,32.82693724425667
1782814216.611449,-0.26025390625,-0.64404296875,0.73876953125,1.0140531848074055,3.3435821533203125,-32.03392028808594,2.9964447021484375,32.347028789248625
1782814216.619434,-0.2705078125,-0.626953125,0.7421875,1.0085073042507182,3.040313720703125,-32.520294189453125,3.6067962646484375,32.86064547423797
1782814216.627419,-0.2421874850988388,-0.63330078125,0.728515625,0.9952184048436309,3.284454345703125,-33.80584716796875,4.4002532958984375,34.24887110783557
1782814216.638121,-0.2324218600988388,-0.6474609375,0.72265625,0.9977262361511026,2.735137939453125,-33.56170654296875,5.0716400146484375,34.052762855051434
1782814216.648823,-0.2275390475988388,-0.6279296875,0.708984375,0.974026978384159,1.453399658203125,-31.97479248046875,5.4988861083984375,32.47672202006605
1782814216.659525,-0.220703125,-0.646484375,0.71875,0.9915913871166421,0.8411407470703125,-29.775619506835938,6.1092376708984375,30.40752899680892
1782814216.670184,-0.21435546875,-0.650390625,0.72412109375,0.9966481778865696,0.1697540283203125,-26.174545288085938,6.3533782958984375,26.93512675372043
1782814216.680842,-0.2128906100988388,-0.64306640625,0.736328125,1.0005178271183186,0.2307891845703125,-26.296615600585938,7.0247650146484375,27.219709388671344
1782814216.6915,-0.2026367038488388,-0.6416015625,0.748046875,1.006125402694132,0.110626220703125,-26.17645263671875,7.3909759521484375,27.200099932322374
1782814216.699491,-0.189453125,-0.63623046875,0.7509765028953552,1.0023210083795748,0.2307891845703125,-25.686264038085938,8.306503295898438,26.99695206660843
1782814216.707485,-0.18701171875,-0.650390625,0.74853515625,1.0091016936760793,0.293731689453125,-24.22332763671875,8.184432983398438,25.57031136613224
1782814216.715479,-0.1972656100988388,-0.646484375,0.73486328125,0.9984386862378302,0.720977783203125,-22.81951904296875,8.916854858398438,24.510417354301207
1782814216.723473,-0.1796874850988388,-0.6328125,0.7177734375,0.9736210556669169,0.598907470703125,-20.740509033203125,9.160995483398438,22.681517660017615
1782814216.734138,-0.1840820163488388,-0.65673828125,0.724609375,0.9951131117316006,0.1697540283203125,-18.423080444335938,8.794784545898438,20.415360508631196
1782814216.744803,-0.16064453125,-0.642578125,0.7099609375,0.9709571797586786,-0.6237030029296875,-15.981674194335938,8.733749389648438,18.22309781269231
1782814216.755468,-0.1689452975988388,-0.65234375,0.7080078125,0.9774302759306456,-1.537322998046875,-12.866973876953125,8.672714233398438,15.592894244645855
1782814216.763455,-0.1938476413488388,-0.66162109375,0.71337890625,0.9920830830297938,-3.7364959716796875,-7.8029632568359375,8.428573608398438,12.078430808929648
1782814216.771442,-0.2001952975988388,-0.65283203125,0.72900390625,0.9988566030889756,-4.100799560546875,-6.27899169921875,8.367538452148438,11.23645822947881
1782814216.779429,-0.2031249850988388,-0.666015625,0.72900390625,1.008108757844759,-5.016326904296875,-5.42449951171875,8.184432983398438,11.02604524855353
1782814216.787416,-0.1982421725988388,-0.65185546875,0.73388671875,1.0014016312617189,-5.2013397216796875,-4.7512054443359375,8.367538452148438,10.938171137022543
1782814216.798158,-0.20068359375,-0.65771484375,0.7470703125,1.0153702636518116,-5.2585601806640625,-3.4084320068359375,8.123397827148438,10.25960311985845
1782814216.8089,-0.18505859375,-0.654296875,0.7407225966453552,1.0054954246223753,-4.8351287841796875,-2.4318695068359375,7.7571868896484375,9.458668410448428
1782814216.819642,-0.185546875,-0.64990234375,0.7353515625,0.9987705540839699,-4.5909881591796875,-1.1501312255859375,6.9026947021484375,8.369418633624681
1782814216.830349,-0.19140625,-0.6474609375,0.736328125,0.9990100729189156,-4.5299530029296875,0.4978179931640625,5.5599212646484375,7.1889513444006194
1782814216.841054,-0.18115234375,-0.66357421875,0.72802734375,1.00158410964006,-4.222869873046875,2.57110595703125,4.7664642333984375,6.867488412457284
1782814216.851759,-0.2041015625,-0.65087890625,0.7412109375,1.0073204317821447,-4.344940185546875,3.73077392578125,3.9119720458984375,6.935467150031075
1782814216.862316,-0.23828125,-0.67529296875,0.72705078125,1.020490757557846,-4.3468475341796875,3.7937164306640625,2.8133392333984375,6.418897528693959
1782814216.872874,-0.23974609375,-0.654296875,0.7504882216453552,1.0241167711406534,-4.344940185546875,3.24249267578125,2.5691986083984375,5.9994204268305475
1782814216.883432,-0.2294921725988388,-0.6630859375,0.74462890625,1.0231431111127418,-4.161834716796875,2.63214111328125,2.3250579833984375,5.445634001319405
1782814216.891455,-0.2358398288488388,-0.6591796875,0.75390625,1.0288405702892502,-4.3468475341796875,1.3523101806640625,2.6302337646484375,5.257561789159343
1782814216.899479,-0.2363281100988388,-0.6484375,0.7407225966453552,1.0124189509339385,-3.9768218994140625,0.3757476806640625,2.5081634521484375,4.716691917210288
1782814216.907503,-0.2280273288488388,-0.65478515625,0.74169921875,1.0153116736458976,-4.222869873046875,-1.02996826171875,2.8743743896484375,5.211093236231885
1782814216.915527,-0.2260742038488388,-0.65673828125,0.7412109375,1.0157796855493415,-4.161834716796875,-2.18963623046875,2.9964447021484375,5.576204433550707
1782814216.923517,-0.2426757663488388,-0.6376953125,0.74658203125,1.0114007952057606,-4.2819976806640625,-2.7370452880859375,2.8133392333984375,5.8087691199104095
1782814216.931507,-0.22509765625,-0.65185546875,0.74755859375,1.0170685119882548,-4.528045654296875,-3.16619873046875,2.7523040771484375,6.172778108866918
1782814216.939497,-0.2109375,-0.64013671875,0.7504882216453552,1.0087131497242783,-4.650115966796875,-3.528594970703125,2.8743743896484375,6.506657291097899
1782814216.955539,-0.2099609375,-0.634765625,0.73291015625,0.9920525646818917,-4.650115966796875,-2.368927001953125,2.1419525146484375,5.641219213986514
1782814216.963588,-0.2148437350988388,-0.62841796875,0.7392578125,0.9937651067034811,-4.650115966796875,-1.64031982421875,2.2640228271484375,5.425866473866959
1782814216.971638,-0.2167968600988388,-0.6416015625,0.72412109375,0.9914659862874032,-5.016326904296875,-1.51824951171875,2.3250579833984375,5.733629898831254
1782814216.979688,-0.2329101413488388,-0.6376953125,0.72998046875,0.9968821045058831,-5.3844451904296875,-1.8215179443359375,2.7523040771484375,6.315485362453715
1782814216.99028,-0.2329101413488388,-0.64599609375,0.7294921875,1.001856745601351,-5.443572998046875,-2.18963623046875,3.2405853271484375,6.7028640945029005
1782814217.000872,-0.2167968600988388,-0.6396484375,0.73779296875,1.000244703501021,-5.8727264404296875,-3.1032562255859375,4.0950775146484375,7.803125969554705
1782814217.011464,-0.2041015625,-0.6396484375,0.73828125,0.9979312478886987,-5.5675506591796875,-4.0187835693359375,4.4002532958984375,8.155395195069442
1782814217.022161,-0.1987304538488388,-0.63720703125,0.71875,0.9808813161954936,-5.992889404296875,-3.47137451171875,4.8274993896484375,8.442151074803174
1782814217.032861,-0.1845702975988388,-0.63916015625,0.72314453125,0.982613816903686,-6.1779022216796875,-2.8591156005859375,4.7664642333984375,8.310246636918501
1782814217.043561,-0.18212890625,-0.6376953125,0.7265625,0.9837272571615284,-6.1779022216796875,-1.5773773193359375,4.2781829833984375,7.67837513459913
1782814217.051798,-0.1865234375,-0.6533203125,0.7333984375,0.9997458134892866,-5.9299468994140625,1.0471343994140625,3.7899017333984375,7.115062601911749
1782814217.060036,-0.2041015475988388,-0.65234375,0.72021484375,0.9929346559840383,-5.7468414306640625,1.7185211181640625,3.1795501708984375,6.7888909662796255
1782814217.068274,-0.201171875,-0.642578125,0.7392578125,0.9999394398471422,-5.5065155029296875,1.7185211181640625,3.1185150146484375,6.557451007378446
1782814217.076512,-0.2089843600988388,-0.65869140625,0.74169921875,1.013738902542407,-5.138397216796875,1.232147216796875,2.9964447021484375,6.0745364905052295
1782814217.086816,-0.1972656100988388,-0.65966796875,0.7407225966453552,1.0113088129268208,-4.0988922119140625,1.3523101806640625,2.7523040771484375,5.119066118219742
1782814217.09712,-0.18896484375,-0.64990234375,0.7431640625,1.005173414081724,-3.856658935546875,1.89971923828125,2.6302337646484375,5.039928668753769
1782814217.107424,-0.189453125,-0.64111328125,0.7260741591453552,0.9869662661641693,-3.490447998046875,2.391815185546875,2.2029876708984375,4.770446707281467
1782814217.118123,-0.19873046875,-0.634765625,0.732421875,0.9893750557143388,-2.574920654296875,3.05938720703125,1.4095306396484375,4.2399107399306
1782814217.128825,-0.1982421875,-0.63037109375,0.7358397841453552,0.9890034725274929,-2.2716522216796875,3.9157867431640625,0.6771087646484375,4.577364516112455
1782814217.139527,-0.19677734375,-0.6533203125,0.7236328125,0.9945819227519991,-2.086639404296875,4.21905517578125,-0.1163482666015625,4.708293480550268
1782814217.147527,-0.2080077975988388,-0.662109375,0.7265625,1.0047632232178187,-1.842498779296875,3.91387939453125,-0.9098052978515625,4.420520257463543
1782814217.15553,-0.1972656100988388,-0.66259765625,0.74853515625,1.0189476213907525,-1.537322998046875,3.79180908203125,-1.3980865478515625,4.323866800698421
1782814217.163533,-0.1997070163488388,-0.6630859375,0.74462890625,1.016876620299769,-1.6574859619140625,4.1599273681640625,-1.8863677978515625,4.859077987757957
1782814217.171536,-0.1958007663488388,-0.65380859375,0.7333984375,1.0018367559096575,-1.6002655029296875,4.7702789306640625,-2.4356842041015625,5.59007766478375
1782814217.182181,-0.1992187350988388,-0.66796875,0.75244140625,1.0256892439869014,-1.6002655029296875,6.0520172119140625,-3.2901763916015625,7.071988595934184
1782814217.192826,-0.2031249850988388,-0.66162109375,0.7421875,1.0148125523576261,-1.2340545654296875,6.7844390869140625,-4.2057037353515625,8.0770940507125
1782814217.203471,-0.1977538913488388,-0.65625,0.7451171875,1.0124081623295609,-1.415252685546875,7.82012939453125,-4.5108795166015625,9.138128797760233
1782814217.214164,-0.224609375,-0.6708984375,0.74755859375,1.0292705843787189,-1.4171600341796875,8.188247680664062,-5.1822662353515625,9.793448114757204
1782814217.224855,-0.21875,-0.669921875,0.7333984375,1.0171136363410713,-1.4781951904296875,8.066177368164062,-4.9991607666015625,9.604159865705064
1782814217.235547,-0.22509765625,-0.67041015625,0.7431640625,1.0258711206793456,-0.621795654296875,7.33184814453125,-5.5484771728515625,9.215651142910287
1782814217.246189,-0.20654296875,-0.6552734375,0.74658203125,1.0146073157722182,-0.377655029296875,6.35528564453125,-6.0367584228515625,8.77352444577477
1782814217.256831,-0.2294921875,-0.65966796875,0.7392578125,1.0170204552812945,-0.499725341796875,5.992889404296875,-5.8536529541015625,8.392240567120899
1782814217.267473,-0.2182617038488388,-0.64794921875,0.7353515625,1.0041007329530862,-0.4405975341796875,5.7468414306640625,-6.5860748291015625,8.751953740214088
1782814217.275497,-0.2128906100988388,-0.66162109375,0.74853515625,1.0214547291512306,-1.110076904296875,5.68389892578125,-7.0133209228515625,9.095364099301252
1782814217.283523,-0.2060546875,-0.65087890625,0.72998046875,0.9994865529852759,-0.743865966796875,5.68389892578125,-7.5626373291015625,9.4896536789588
1782814217.291549,-0.21630859375,-0.6435546875,0.7353515625,1.0008466236164844,-0.377655029296875,5.92803955078125,-8.050918579101562,10.005077021397822
1782814217.299575,-0.22021484375,-0.6474609375,0.748046875,1.013545445549178,0.6580352783203125,5.9909820556640625,-7.8067779541015625,9.862588830700034
1782814217.309154,-0.2265624850988388,-0.65771484375,0.75,1.0229464186081538,1.3294219970703125,5.1364898681640625,-7.6236724853515625,9.28823304918395
1782814217.318733,-0.2182617038488388,-0.646484375,0.751953125,1.0153884580215615,2.552032470703125,4.40216064453125,-7.6847076416015625,9.216649044456034
1782814217.328312,-0.21630859375,-0.62841796875,0.72802734375,0.9857597904285096,3.2825469970703125,4.2819976806640625,-7.5016021728515625,9.240381706667698
1782814217.337891,-0.2133788913488388,-0.6328125,0.7314453125,0.9904516427406904,3.650665283203125,4.52423095703125,-7.3184967041015625,9.346465469389479
1782814217.34747,-0.2099609225988388,-0.63427734375,0.73876953125,0.9960781887565132,3.4084320068359375,4.6482086181640625,-6.8912506103515625,8.984018425953339
1782814217.357074,-0.2260742038488388,-0.62939453125,0.71533203125,0.9792583604675247,2.674102783203125,4.70733642578125,-6.1588287353515625,8.200061787085133
1782814217.366677,-0.2133788913488388,-0.6328125,0.71533203125,0.9786123473376782,2.3670196533203125,4.6482086181640625,-5.9146881103515625,7.8862006593741585
1782814217.37628,-0.2255859375,-0.6328125,0.7158203125,0.9817022945585905,1.758575439453125,3.60870361328125,-5.4264068603515625,6.749905240729488
1782814217.385883,-0.2197265625,-0.640625,0.7265625,0.9932639222781205,1.3904571533203125,2.8171539306640625,-4.6329498291015625,5.597673756414159
1782814217.395486,-0.21630859375,-0.64306640625,0.71484375,0.9855584191165205,1.270294189453125,1.28936767578125,-4.3888092041015625,4.747395344935421
1782814217.405282,-0.2124023288488388,-0.6279296875,0.728515625,0.9849596223264173,1.087188720703125,0.743865966796875,-4.3277740478515625,4.523819636130539
1782814217.415076,-0.2001953125,-0.64501953125,0.7309569716453552,0.9952017148487492,0.8411407470703125,1.2912750244140625,-4.2667388916015625,4.536515150879898
1782814217.42487,-0.201171875,-0.63330078125,0.73974609375,0.9943662735839646,0.782012939453125,2.696990966796875,-4.4498443603515625,5.261788606910075
1782814217.434664,-0.1889648288488388,-0.64306640625,0.72705078125,0.9888604289308963,0.8411407470703125,3.7937164306640625,-4.3277740478515625,5.816307275405072
1782814217.444458,-0.2094726413488388,-0.642578125,0.7265625,0.9923096797917598,0.598907470703125,3.91387939453125,-4.6939849853515625,6.14089872218279
1782814217.453856,-0.220703125,-0.6376953125,0.72216796875,0.9883783466151711,0.0476837158203125,3.6106109619140625,-4.5719146728515625,5.825906713197855
1782814217.463254,-0.2119140475988388,-0.64990234375,0.7255859375,0.9968728969528763,0.110626220703125,2.93731689453125,-4.3888092041015625,5.282207391764579
1782814217.472652,-0.2109375,-0.65966796875,0.724609375,1.0023548295084388,0.1697540283203125,1.8405914306640625,-4.3888092041015625,4.762167518554082
1782814217.48205,-0.20361328125,-0.65966796875,0.72900390625,1.0040253446123266,-0.255584716796875,1.47247314453125,-4.8160552978515625,5.042607395067555
1782814217.491448,-0.2026367038488388,-0.65185546875,0.72802734375,0.99799849655883,-0.926971435546875,1.59454345703125,-4.6329498291015625,4.986588914042665
1782814217.499497,-0.1987304538488388,-0.6533203125,0.70751953125,0.9833133331305351,-1.4171600341796875,1.6574859619140625,-5.2433013916015625,5.678715678706695
1782814217.50755,-0.1884765475988388,-0.65771484375,0.7177734375,0.9916203569231677,-1.415252685546875,1.28936767578125,-5.3653717041015625,5.6967203451170825
1782814217.515604,-0.201171875,-0.64111328125,0.71630859375,0.9821376503149952,-1.659393310546875,1.47247314453125,-5.4874420166015625,5.918934296477508
