timestamp,accel_x,accel_y,accel_z,accel_rms,gyro_x,gyro_y,gyro_z,gyro_rms
1781002468.756755,-0.0175781212747097,-0.0771484375,0.9931640028953552,0.9963109998405945,0.0553131103515625,-0.1125335693359375,-0.1544952392578125,0.1989776956283772
1781002468.76467,-0.0043945275247097015,-0.08251953125,0.9780272841453552,0.9815121769201972,-0.003814697265625,0.011444091796875,-0.0934600830078125,0.0942353769457674
1781002468.772585,-0.02783203125,-0.07568359375,0.9716796278953552,0.9750199626639816,0.118255615234375,-0.049591064453125,-0.1544952392578125,0.20077958850785424
1781002468.7805,-0.01806640625,-0.07421875,0.9785155653953552,0.9814925010448854,-0.0629425048828125,-0.1125335693359375,-0.1544952392578125,0.20123206032274743
1781002468.79107,-0.009765617549419403,-0.07080078125,0.9897460341453552,0.9923231983674424,-0.3108978271484375,0.2536773681640625,-0.0934600830078125,0.4120005499512012
1781002468.80164,-0.020019523799419403,-0.06982421875,0.9794921278953552,0.982181771092385,0.057220458984375,0.011444091796875,-0.0324249267578125,0.0667572021484375
1781002468.81221,-0.0224609337747097,-0.0693359375,0.9829100966453552,0.9856085550878794,0.057220458984375,0.194549560546875,0.1506805419921875,0.2526427085241609
1781002468.822891,-0.0004882737994194031,-0.076171875,0.9868163466453552,0.9897519360722689,-0.064849853515625,0.011444091796875,0.0896453857421875,0.11123293542345682
1781002468.833572,-0.015136715024709702,-0.078125,0.9868163466453552,0.9900197663548063,-0.0057220458984375,-0.1125335693359375,-0.1544952392578125,0.19122061863219356
1781002468.844253,-0.014648430049419403,-0.0712890625,0.9873046278953552,0.9899834014763215,-0.064849853515625,0.255584716796875,0.0896453857421875,0.2785055585549459
1781002468.854999,-0.0283203125,-0.06982421875,0.9843749403953552,0.9872545188058167,0.118255615234375,-0.171661376953125,-0.2765655517578125,0.3463243036389544
1781002468.865748,-0.01416015625,-0.0791015625,0.9833983778953552,0.9866762066971017,-0.1277923583984375,-0.1125335693359375,-0.0934600830078125,0.1942407738049562
1781002468.876497,-0.0224609337747097,-0.07275390625,0.9838866591453552,0.9868285476539854,-0.064849853515625,0.072479248046875,0.0286102294921875,0.10137697041258478
1781002468.887076,-0.0126953125,-0.07470703125,0.9819335341453552,0.9848531753296268,0.240325927734375,0.072479248046875,-0.0324249267578125,0.2531030794243286
1781002468.897655,-0.015624996274709702,-0.0869140625,0.9780272841453552,0.982005887610445,-0.0057220458984375,0.1316070556640625,0.0286102294921875,0.13480246341006943
1781002468.908234,-0.02880859375,-0.08056640625,0.9790038466453552,0.9827356779095255,-0.1888275146484375,-0.1735687255859375,0.0896453857421875,0.2716951011238479
1781002468.916231,-0.0205078087747097,-0.078125,0.9790038466453552,0.9823301978419182,-0.1888275146484375,0.0133514404296875,-0.1544952392578125,0.24434170786663112
1781002468.924229,-0.00390625,-0.07666015625,0.9858397841453552,0.988823603252419,-0.125885009765625,-0.049591064453125,0.1506805419921875,0.20251156779884175
1781002468.932227,-0.010742183774709702,-0.06982421875,0.9804686903953552,0.9830105131085224,-0.1888275146484375,0.0133514404296875,-0.0934600830078125,0.21111342535632494
1781002468.940225,-0.0185546875,-0.07470703125,0.9868163466453552,0.9898140830241289,-0.003814697265625,0.011444091796875,-0.0934600830078125,0.0942353769457674
1781002468.950879,-0.017578125,-0.07568359375,0.9868163466453552,0.9898704454866387,0.118255615234375,-0.171661376953125,0.0896453857421875,0.22691036568823605
1781002468.961533,-0.0224609337747097,-0.0673828125,0.9750975966453552,0.9776810624891892,-0.1277923583984375,-0.2346038818359375,-0.0324249267578125,0.26911195460769616
1781002468.972187,-0.013671875,-0.07568359375,0.9921874403953552,0.9951637269350292,0.0553131103515625,-0.1125335693359375,-0.2155303955078125,0.2493525532093154
1781002468.980205,-0.0224609375,-0.0751953125,0.9921874403953552,0.9952862631492702,-0.1277923583984375,-0.1125335693359375,-0.0934600830078125,0.1942407738049562
1781002468.988224,-0.02783203125,-0.07080078125,0.9877929091453552,0.9907180244383138,-0.1277923583984375,-0.1125335693359375,0.0896453857421875,0.19243436875305447
1781002468.996243,-0.013671875,-0.07568359375,0.9741210341453552,0.977152350298226,-0.064849853515625,0.011444091796875,-0.1544952392578125,0.16794418623870863
1781002469.004262,-0.0239257775247097,-0.078125,0.9848632216453552,0.9882466917753027,0.118255615234375,-0.171661376953125,-0.0934600830078125,0.22844431703969048
1781002469.014938,-0.01708984375,-0.0751953125,0.9838866591453552,0.9869039243135983,0.179290771484375,-0.171661376953125,0.0896453857421875,0.2639111673684364
1781002469.025614,-0.015136715024709702,-0.07373046875,0.9877929091453552,0.9906564154749506,-0.064849853515625,0.194549560546875,-0.0934600830078125,0.2253659737533761
1781002469.03629,-0.01904296875,-0.07470703125,0.9868163466453552,0.9898233565558492,0.118255615234375,0.011444091796875,0.0286102294921875,0.12220434936249806
1781002469.046929,-0.0161132775247097,-0.0771484375,0.9858397841453552,0.9889851359474723,-0.064849853515625,-0.232696533203125,0.0896453857421875,0.25766155175077377
1781002469.057567,-0.010253898799419403,-0.08154296875,0.9873046278953552,0.9907193479773866,0.118255615234375,-0.171661376953125,0.2117156982421875,0.2971120255965423
1781002469.068205,-0.01318359375,-0.0810546875,0.9780272841453552,0.9814688166430083,-0.1888275146484375,0.1316070556640625,0.0896453857421875,0.2470071710977945
1781002469.078865,-0.0126953125,-0.05517578125,0.9873046278953552,0.9889266737527137,-0.003814697265625,0.011444091796875,-0.0324249267578125,0.03459617070620929
1781002469.089524,-0.011230465024709702,-0.06787109375,0.9858397841453552,0.9882371621808467,-0.003814697265625,-0.171661376953125,0.0286102294921875,0.174071035741926
1781002469.100183,-0.0161132775247097,-0.08251953125,0.9980468153953552,1.001582026831112,-0.2498626708984375,-0.1125335693359375,0.0896453857421875,0.28832525682092564
1781002469.10818,-0.0078125,-0.07177734375,0.9799804091453552,0.9826365678829347,-0.1277923583984375,0.2536773681640625,0.3337860107421875,0.4382877992265627
1781002469.116175,-0.011230465024709702,-0.06689453125,0.9814452528953552,0.9837864534982458,-0.125885009765625,-0.049591064453125,-0.2765655517578125,0.30788766421600716
1781002469.12417,-0.01416015625,-0.07421875,0.9746093153953552,0.9775337592799493,-0.3108978271484375,0.0705718994140625,0.0896453857421875,0.3311708729604611
1781002469.132165,-0.0063476525247097015,-0.07666015625,0.9858397841453552,0.988836261598759,0.118255615234375,0.255584716796875,0.2117156982421875,0.3523229695560259
1781002469.14289,-0.030761711299419403,-0.06591796875,0.9882811903953552,0.9909546774577812,0.240325927734375,0.072479248046875,0.0286102294921875,0.2526427085241609
1781002469.153615,-0.0273437462747097,-0.06982421875,0.9750975966453552,0.977976699603795,-0.247955322265625,0.072479248046875,-0.0324249267578125,0.2603583282949479
1781002469.16434,-0.0058593712747097015,-0.06884765625,0.9907225966453552,0.9931291937641186,-0.1277923583984375,-0.2346038818359375,0.2117156982421875,0.3408715375617363
1781002469.172338,-0.0161132775247097,-0.07421875,0.9873046278953552,0.9902214342397041,0.3604888916015625,-0.1125335693359375,0.0896453857421875,0.3881395887827921
1781002469.180337,-0.0161132775247097,-0.076171875,0.9765624403953552,0.9796611619557731,-0.0057220458984375,-0.1125335693359375,-0.0934600830078125,0.14639444372167026
1781002469.188336,-0.0170898400247097,-0.07763671875,0.9873046278953552,0.9904998490630489,0.118255615234375,-0.171661376953125,0.0896453857421875,0.22691036568823605
1781002469.196335,-0.017578125,-0.076171875,0.9721679091453552,0.975305894882002,-0.064849853515625,-0.049591064453125,0.2117156982421875,0.22691036568823605
1781002469.207091,-0.00439453125,-0.07568359375,0.9838866591453552,0.9868030585238529,-0.0057220458984375,-0.0514984130859375,0.0896453857421875,0.10354285849105808
1781002469.217847,-0.0063476525247097015,-0.07568359375,0.9902343153953552,0.9931426375108449,0.240325927734375,0.072479248046875,0.0286102294921875,0.2526427085241609
1781002469.228603,-0.012207027524709702,-0.07373046875,0.9804686903953552,0.983312791734485,-0.1277923583984375,0.2536773681640625,0.0286102294921875,0.28548491941830423
1781002469.236512,-0.0161132775247097,-0.06298828125,0.9965819716453552,0.9987005494621303,0.057220458984375,-0.171661376953125,-0.0934600830078125,0.20365803784690803
1781002469.244424,-0.012207027524709702,-0.0771484375,0.9956054091453552,0.9986646202049868,0.057220458984375,0.194549560546875,-0.0934600830078125,0.223290168953297
1781002469.252336,-0.0166015587747097,-0.0771484375,0.9907225966453552,0.9938605317981778,-0.0057220458984375,-0.1125335693359375,0.0286102294921875,0.11625442472588178
1781002469.260248,-0.019531242549419403,-0.0693359375,0.9941405653953552,0.9967469114219139,0.118255615234375,0.438690185546875,0.1506805419921875,0.478683710987403
1781002469.270926,-0.0068359337747097015,-0.07763671875,0.9780272841453552,0.9811276974082315,-0.1888275146484375,-0.1125335693359375,0.0286102294921875,0.22167133271442152
1781002469.281604,-0.0224609337747097,-0.06787109375,0.9912108778953552,0.993785682816438,-0.1888275146484375,-0.0514984130859375,0.0286102294921875,0.1978041002362473
1781002469.292282,-0.009765621274709702,-0.0634765625,0.9902343153953552,0.992314789133068,0.1773834228515625,-0.1125335693359375,-0.0934600830078125,0.2299205733418601
1781002469.300325,-0.0166015587747097,-0.0654296875,0.9829100966453552,0.9852253112093088,-0.0057220458984375,-0.0514984130859375,-0.0324249267578125,0.061124497829292544
1781002469.308368,-0.010742180049419403,-0.076171875,0.9726561903953552,0.9756934014779618,0.1773834228515625,-0.0514984130859375,-0.0324249267578125,0.18753224023659396
1781002469.316411,-0.0273437462747097,-0.0791015625,0.9716796278953552,0.9752774153629997,-0.125885009765625,-0.171661376953125,-0.0934600830078125,0.23248537832939425
1781002469.324454,-0.009765617549419403,-0.07470703125,0.9912108778953552,0.9940701747172535,0.240325927734375,0.194549560546875,0.1506805419921875,0.3439632375493486
1781002469.332416,-0.0078125,-0.0703125,0.9868163466453552,0.9893489701915021,-0.1888275146484375,0.1316070556640625,0.1506805419921875,0.27510156874130853
1781002469.340378,-0.0258789025247097,-0.0732421875,0.9799804091453552,0.9830542904307811,-0.064849853515625,0.072479248046875,-0.0934600830078125,0.13488340155210224
1781002469.34834,-0.0253906212747097,-0.07861328125,0.9736327528953552,0.9771312445870284,-0.308990478515625,0.133514404296875,0.1506805419921875,0.3687896930543527
1781002469.356302,-0.0170898400247097,-0.08349609375,0.9765624403953552,0.9802743801071773,-0.1888275146484375,-0.0514984130859375,-0.0934600830078125,0.21689330085206168
1781002469.366954,-0.0224609337747097,-0.087890625,0.9902343153953552,0.9943808399679824,-0.0057220458984375,0.0705718994140625,0.0286102294921875,0.07636543739001313
1781002469.377606,0.0053710974752902985,-0.072265625,0.9824218153953552,0.985090753488954,0.057220458984375,-0.049591064453125,0.1506805419921875,0.16863594022341713
1781002469.388258,-0.0249023400247097,-0.07373046875,0.9858397841453552,0.988906663221844,-0.0629425048828125,-0.1125335693359375,0.1506805419921875,0.19831840278569335
1781002469.396297,-0.0073242150247097015,-0.06689453125,0.9877929091453552,0.9900824984791567,-0.0057220458984375,0.0705718994140625,0.0286102294921875,0.07636543739001313
1781002469.404336,-0.015624996274709702,-0.078125,0.9785155653953552,0.9817537205707837,-0.125885009765625,0.316619873046875,0.2117156982421875,0.40114675191765886
1781002469.412375,-0.02880859375,-0.07666015625,0.9912108778953552,0.9945882158402077,-0.064849853515625,0.255584716796875,-0.0934600830078125,0.27975674804544753
1781002469.420414,-0.015624996274709702,-0.0791015625,0.9746093153953552,0.9779389118722749,0.118255615234375,0.133514404296875,-0.0324249267578125,0.18127841174408893
1781002469.429983,-0.0268554650247097,-0.06982421875,0.9897460341453552,0.9925693172933565,-0.003814697265625,0.316619873046875,-0.1544952392578125,0.3523229695560259
1781002469.439553,-0.014648430049419403,-0.06494140625,0.9912108778953552,0.993443992989399,-0.003814697265625,0.011444091796875,0.1506805419921875,0.15116264382228517
1781002469.449123,-0.0249023400247097,-0.0791015625,0.9799804091453552,0.9834829871621296,-0.1888275146484375,0.1316070556640625,-0.2765655517578125,0.35981210625543547
1781002469.458693,-0.020019523799419403,-0.0849609375,0.9804686903953552,0.9843464812146266,0.1773834228515625,0.0705718994140625,-0.0934600830078125,0.21255601333594865
1781002469.468263,-0.0087890625,-0.07470703125,0.9794921278953552,0.9823763111693952,-0.125885009765625,-0.171661376953125,0.2117156982421875,0.30023024648311397
1781002469.476258,-0.01416015625,-0.0712890625,0.9838866591453552,0.9865675843556597,-0.1888275146484375,-0.4177093505859375,-0.3376007080078125,0.5693076232605776
1781002469.484253,-0.011718746274709702,-0.07373046875,0.9829100966453552,0.9857412282763298,0.057220458984375,0.255584716796875,-0.0934600830078125,0.27808724440784505
1781002469.492248,-0.014648433774709702,-0.08203125,0.9829100966453552,0.98643598914273,-0.0057220458984375,-0.2918243408203125,-0.1544952392578125,0.33024682687014945
1781002469.500243,-0.0185546837747097,-0.072265625,0.9746093153953552,0.9774609529295905,-0.003814697265625,0.011444091796875,0.1506805419921875,0.15116264382228517
1781002469.508238,-0.011230465024709702,-0.08984375,0.9838866591453552,0.9880440176444277,-0.125885009765625,-0.049591064453125,0.2117156982421875,0.25125653471992027
1781002469.516233,-0.0166015587747097,-0.072265625,0.9848632216453552,0.9876504936768162,-0.064849853515625,-0.049591064453125,-0.1544952392578125,0.17473853647069598
1781002469.525831,-0.011718746274709702,-0.07275390625,0.9702147841453552,0.9730093459279325,-0.064849853515625,0.072479248046875,-0.0324249267578125,0.10251888008405066
1781002469.535429,-0.0126953125,-0.0703125,0.9848632216453552,0.9874515603134114,0.1773834228515625,-0.0514984130859375,-0.0324249267578125,0.18753224023659396
1781002469.545027,-0.015136715024709702,-0.0888671875,0.9790038466453552,0.9831454769780013,-0.064849853515625,-0.232696533203125,0.2727508544921875,0.36434353115153495
1781002469.554625,-0.01171875,-0.08056640625,0.9809569716453552,0.9843296475963877,0.057220458984375,-0.171661376953125,0.0896453857421875,0.20193589192783687
1781002469.564223,-0.0126953125,-0.08056640625,0.9804686903953552,0.9838551568300568,0.118255615234375,0.377655029296875,-0.0324249267578125,0.39706307756190773
1781002469.573868,-0.008300777524709702,-0.08740234375,0.9902343153953552,0.9941187413921013,0.179290771484375,-0.293731689453125,0.0896453857421875,0.35561184079458746
1781002469.583513,-0.01318359375,-0.07470703125,0.9809569716453552,0.9838859323529225,0.301361083984375,-0.049591064453125,-0.2155303955078125,0.3738062706825363
1781002469.593158,-0.0278320275247097,-0.07373046875,0.9843749403953552,0.987524595671718,-0.064849853515625,-0.049591064453125,-0.0324249267578125,0.08784163619742931
1781002469.602803,-0.013671875,-0.0693359375,0.9755858778953552,0.9781422174427757,0.0553131103515625,-0.1125335693359375,-0.0324249267578125,0.12951725861637084
1781002469.612448,-0.0048828087747097015,-0.0732421875,0.9809569716453552,0.9836995679936744,-0.125885009765625,0.133514404296875,-0.0324249267578125,0.18634513064121208
1781002469.623057,-0.015624996274709702,-0.083984375,0.9838866591453552,0.9875882106409197,-0.003814697265625,0.011444091796875,-0.1544952392578125,0.1549654739147156
1781002469.633669,-0.0068359337747097015,-0.083984375,0.9838866591453552,0.9874882598182732,-0.247955322265625,0.011444091796875,-0.0934600830078125,0.2652312127045617
1781002469.644281,-0.010742180049419403,-0.08056640625,0.9780272841453552,0.9813988530566935,-0.0057220458984375,0.1316070556640625,-0.0324249267578125,0.13566331407229065
1781002469.654942,-0.00732421875,-0.08154296875,0.9824218153953552,0.985827329352137,-0.308990478515625,0.133514404296875,0.3948211669921875,0.5188303825655713
1781002469.665604,-0.010742183774709702,-0.0927734375,0.9873046278953552,0.9917120214464489,-0.0057220458984375,0.1964569091796875,0.1506805419921875,0.2476543654142991
1781002469.676266,-0.0209960900247097,-0.068359375,0.9824218153953552,0.9850210471413399,-0.0057220458984375,0.1964569091796875,-0.0934600830078125,0.21763006706226742
1781002469.684276,-0.02392578125,-0.0791015625,0.9936522841453552,0.9970829263334349,-0.247955322265625,0.133514404296875,0.0896453857421875,0.2955405778898474
1781002469.692287,-0.0014648400247097015,-0.078125,0.9843749403953552,0.9874713589059974,-0.1277923583984375,-0.1125335693359375,0.2727508544921875,0.3215396083202494
1781002469.700298,-0.01416015625,-0.07958984375,0.9843749403953552,0.9876887548876584,0.118255615234375,0.133514404296875,-0.0324249267578125,0.18127841174408893
1781002469.708309,-0.015624992549419403,-0.06591796875,0.9946288466453552,0.9969332282431782,-0.125885009765625,0.133514404296875,0.3337860107421875,0.3809018676846106
1781002469.718958,-0.01708984375,-0.060546875,0.9853515028953552,0.9873578738683357,0.118255615234375,0.255584716796875,0.0286102294921875,0.2830662170344511
1781002469.729607,-0.0200195275247097,-0.0830078125,0.9946288466453552,0.9982873439032558,0.240325927734375,0.011444091796875,0.2117156982421875,0.3204856559358318
1781002469.740256,-0.00830078125,-0.080078125,0.9907225966453552,0.9939882658143361,0.118255615234375,0.133514404296875,-0.0934600830078125,0.2013585702299188
1781002469.748328,-0.0224609375,-0.07568359375,0.9882811903953552,0.9914293779011969,0.0553131103515625,0.0705718994140625,-0.0324249267578125,0.09534835624656668
1781002469.756402,-0.01318359375,-0.06640625,0.9907225966453552,0.9930331619271044,0.057220458984375,0.194549560546875,0.0286102294921875,0.20479808999832091
1781002469.764476,0.0024414099752902985,-0.078125,0.9848632216453552,0.9879600404152667,-0.1888275146484375,-0.1125335693359375,-0.0324249267578125,0.2221958829299986
1781002469.77255,-0.0185546875,-0.080078125,0.9858397841453552,0.9892607656909774,0.179290771484375,0.011444091796875,0.1506805419921875,0.2344797938236407
1781002469.783106,-0.0205078087747097,-0.07421875,0.9853515028953552,0.9883554913746561,0.1201629638671875,0.0705718994140625,0.0286102294921875,0.14226059223780563
1781002469.793662,-0.0175781212747097,-0.07421875,0.9775390028953552,0.9805100281897968,0.0553131103515625,-0.1125335693359375,-0.0324249267578125,0.12951725861637084
1781002469.804218,-0.0175781212747097,-0.0927734375,0.9882811903953552,0.9927817546381356,0.179290771484375,-0.171661376953125,-0.1544952392578125,0.29237234484512037
1781002469.814885,-0.015624996274709702,-0.06396484375,0.9887694716453552,0.990959489486014,-0.064849853515625,-0.293731689453125,0.0896453857421875,0.31387912334981866
1781002469.82555,-0.010742183774709702,-0.06787109375,0.9975585341453552,0.999922451455762,-0.3108978271484375,0.0705718994140625,-0.3376007080078125,0.46434048925320365
1781002469.836215,-0.01806640625,-0.08154296875,0.9902343153953552,0.9937502956849177,0.057220458984375,0.194549560546875,0.0896453857421875,0.22172056201496135
1781002469.847059,-0.010742183774709702,-0.07421875,0.9775390028953552,0.9804113012126378,0.118255615234375,0.011444091796875,-0.0324249267578125,0.12315329328428595
1781002469.857904,-0.0126953125,-0.07568359375,0.9794921278953552,0.982493768902052,-0.064849853515625,-0.232696533203125,-0.2155303955078125,0.3237383688312295
1781002469.868749,-0.011718746274709702,-0.0566406287252903,0.9907225966453552,0.9924095693514661,-0.125885009765625,-0.171661376953125,-0.0934600830078125,0.23248537832939425
1781002469.876673,-0.0205078087747097,-0.07861328125,0.9838866591453552,0.9872353195939862,-0.125885009765625,0.194549560546875,0.0896453857421875,0.24846098763697144
1781002469.884599,-0.0175781212747097,-0.0693359375,0.9760741591453552,0.9786915891780539,-0.125885009765625,-0.171661376953125,0.0896453857421875,0.2309782656571825
1781002469.892525,-0.0209960900247097,-0.0703125,0.9863280653953552,0.9890539601250884,0.179290771484375,0.011444091796875,-0.2765655517578125,0.3297948641134682
1781002469.900451,-0.011718746274709702,-0.0673828125,0.9770507216453552,0.9794416190372811,-0.064849853515625,0.194549560546875,-0.3376007080078125,0.3950054088963295
1781002469.911108,-0.012207027524709702,-0.07177734375,0.9843749403953552,0.9870638388043368,0.1773834228515625,-0.0514984130859375,0.2117156982421875,0.28096352456339074
1781002469.921765,-0.0009765587747097015,-0.0732421875,0.9799804091453552,0.982714085584166,-0.125885009765625,-0.049591064453125,0.0286102294921875,0.1382926411233842
1781002469.932422,-0.02783203125,-0.0859375,0.9853515028953552,0.9894834309516689,0.1201629638671875,0.0705718994140625,0.0896453857421875,0.16569799653924955
1781002469.940382,-0.0175781212747097,-0.08203125,0.9780272841453552,0.9816188083247235,0.057220458984375,0.011444091796875,-0.0934600830078125,0.11018137446621841
1781002469.948343,-0.0214843712747097,-0.080078125,0.9916991591453552,0.9951589353275133,-0.308990478515625,-0.171661376953125,-0.1544952392578125,0.38576096627845397
1781002469.956304,-0.0200195275247097,-0.0771484375,0.9853515028953552,0.9885697988251205,-0.0057220458984375,-0.1125335693359375,-0.0324249267578125,0.1172515326637549
1781002469.964265,-0.008789058774709702,-0.08251953125,0.9892577528953552,0.9927324021383772,-0.0057220458984375,-0.1125335693359375,0.1506805419921875,0.18815199114495032
1781002469.974917,-0.010742180049419403,-0.07568359375,0.9951171278953552,0.9980488460119724,-0.2498626708984375,-0.1125335693359375,0.0896453857421875,0.28832525682092564
1781002469.985569,-0.00341796875,-0.08056640625,0.9887694716453552,0.9920522649458803,-0.064849853515625,-0.293731689453125,-0.0324249267578125,0.3025478222781228
1781002469.996221,-0.02392578125,-0.0654296875,0.9941405653953552,0.9965786224776082,-0.247955322265625,0.133514404296875,0.0896453857421875,0.2955405778898474
1781002470.006916,-0.0014648400247097015,-0.09423828125,0.9887694716453552,0.993251260994461,-0.1888275146484375,0.1964569091796875,-0.1544952392578125,0.31324100371131264
1781002470.01761,-0.014648430049419403,-0.0703125,0.9726561903953552,0.9753043057802874,0.240325927734375,0.011444091796875,-0.0934600830078125,0.25811297118562354
1781002470.028304,-0.01318359375,-0.080078125,0.9960936903953552,0.9993942932061992,-0.1888275146484375,-0.1125335693359375,-0.0324249267578125,0.2221958829299986
1781002470.038946,-0.0170898400247097,-0.0869140625,0.9697265028953552,0.9737636301022848,0.179290771484375,0.133514404296875,0.0286102294921875,0.2253659737533761
1781002470.049587,-0.00830078125,-0.07080078125,0.9721679091453552,0.9747779732672576,-0.064849853515625,-0.171661376953125,0.0896453857421875,0.20422885942810945
1781002470.060228,-0.010742180049419403,-0.076171875,0.9887694716453552,0.9917573377752568,-0.125885009765625,0.194549560546875,0.0896453857421875,0.24846098763697144
1781002470.068279,-0.008789058774709702,-0.07275390625,0.9916991591453552,0.9944031379065452,-0.064849853515625,0.011444091796875,0.0286102294921875,0.07179843988311276
1781002470.07633,-0.0126953125,-0.08642578125,0.9848632216453552,0.9887295646301943,0.1201629638671875,-0.1125335693359375,-0.2155303955078125,0.2712126352155949
1781002470.084381,-0.0190429650247097,-0.07763671875,0.9902343153953552,0.9934556326287082,-0.064849853515625,0.011444091796875,-0.1544952392578125,0.16794418623870863
1781002470.092432,-0.00927734375,-0.09130859375,0.9951171278953552,0.9993404958423124,0.057220458984375,0.133514404296875,0.0286102294921875,0.14805006691226982
1781002470.10313,-0.0200195275247097,-0.07275390625,0.9853515028953552,0.9882365590358827,0.1201629638671875,-0.1125335693359375,-0.0934600830078125,0.18930855561400406
1781002470.113828,-0.013183590024709702,-0.07373046875,0.9829100966453552,0.9857597309463477,0.1773834228515625,-0.1125335693359375,0.1506805419921875,0.25852138918294915
1781002470.124526,-0.01220703125,-0.0703125,0.9863280653953552,0.9889064221930873,0.0553131103515625,-0.1125335693359375,0.0286102294921875,0.12861527761446545
1781002470.132459,-0.014160152524709702,-0.072265625,0.9863280653953552,0.9890732445389006,-0.1888275146484375,0.0705718994140625,-0.0934600830078125,0.2221958829299986
1781002470.14039,-0.005859367549419403,-0.0859375,0.9833983778953552,0.9871635911750114,0.0553131103515625,-0.1125335693359375,-0.0324249267578125,0.12951725861637084
1781002470.148321,-0.0195312462747097,-0.0732421875,0.9838866591453552,0.9868023336286943,0.057220458984375,0.194549560546875,0.1506805419921875,0.2526427085241609
1781002470.156252,-0.015136715024709702,-0.0888671875,0.9946288466453552,0.9987056822382503,-0.370025634765625,0.194549560546875,0.1506805419921875,0.44437948605639443
1781002470.16722,-0.012207027524709702,-0.07470703125,0.9956054091453552,0.9984789846354643,0.057220458984375,0.133514404296875,-0.3986358642578125,0.42427683103571073
1781002470.178188,-0.017578125,-0.08056640625,0.9794921278953552,0.9829571531371684,0.1773834228515625,0.3795623779296875,0.0286102294921875,0.4199416896115112
1781002470.189156,-0.0126953125,-0.07666015625,0.9843749403953552,0.9874370733338435,-0.1277923583984375,0.0705718994140625,-0.0324249267578125,0.14954148497053504
1781002470.199515,-0.0234375,-0.06591796875,0.9838866591453552,0.9863708496577666,0.057220458984375,0.133514404296875,0.0896453857421875,0.1706943826433592
1781002470.209876,-0.02783203125,-0.08544921875,0.9902343153953552,0.9943038722317208,-0.064849853515625,0.072479248046875,-0.0324249267578125,0.10251888008405066
1781002470.220237,-0.0209960900247097,-0.0732421875,0.9755858778953552,0.9785566202192706,-0.0629425048828125,-0.1125335693359375,-0.0934600830078125,0.15924933363828037
1781002470.228289,-0.011718746274709702,-0.091796875,0.9902343153953552,0.9945491414005265,-0.0629425048828125,-0.1125335693359375,-0.0324249267578125,0.1329546502521015
1781002470.236342,-0.013671875,-0.06591796875,0.9868163466453552,0.9891100043860781,-0.125885009765625,-0.293731689453125,0.0896453857421875,0.33190606541240575
1781002470.244395,-0.010742183774709702,-0.06787109375,0.9985350966453552,1.0008967075136275,-0.0057220458984375,0.0705718994140625,0.3337860107421875,0.34121288921046944
1781002470.252448,-0.024414055049419403,-0.0751953125,0.9887694716453552,0.9919251227606667,0.1773834228515625,0.2536773681640625,0.3337860107421875,0.4552254241454065
1781002470.263025,-0.0029296875,-0.0712890625,0.9863280653953552,0.9889053372732501,-0.064849853515625,0.194549560546875,0.2117156982421875,0.2947517122802804
1781002470.273602,-0.0170898400247097,-0.07470703125,0.9926757216453552,0.9956295955295752,-0.064849853515625,0.072479248046875,0.0286102294921875,0.10137697041258478
1781002470.284179,-0.0058593712747097015,-0.07275390625,0.9663085341453552,0.9690612190509502,0.057220458984375,0.011444091796875,0.3948211669921875,0.3991101377671465
1781002470.294866,-0.0073242150247097015,-0.072265625,0.9863280653953552,0.9889989976076381,-0.2288818359375,0.019073486328125,-0.1583099365234375,0.2789493299954037
1781002470.305555,-0.0166015587747097,-0.07275390625,0.9775390028953552,0.9803832132436934,-0.0457763671875,0.202178955078125,-0.0972747802734375,0.22898512734807225
1781002470.316244,-0.015136715024709702,-0.06396484375,0.9931640028953552,0.9953368063247869,0.0743865966796875,0.0820159912109375,0.0247955322265625,0.1134672067088001
1781002470.324253,-0.01318359375,-0.0712890625,0.9833983778953552,0.9860670906299985,0.1964569091796875,0.1430511474609375,-0.2803802490234375,0.37104181974107947
1781002470.332263,-0.010253902524709702,-0.07275390625,0.9887694716453552,0.9914955075286297,0.1983642578125,-0.164031982421875,-0.1583099365234375,0.3021868727076163
1781002470.340273,-0.011718746274709702,-0.0732421875,0.9921874403953552,0.9949561115558428,0.0743865966796875,0.0820159912109375,-0.0972747802734375,0.14738511273919297
1781002470.348283,-0.0219726525247097,-0.07666015625,0.9833983778953552,0.9866265487318198,0.2574920654296875,-0.0400543212890625,-0.1583099365234375,0.3049074423742863
1781002470.359016,-0.00927734375,-0.07568359375,0.9936522841453552,0.9965735985150582,0.0762939453125,0.019073486328125,0.0247955322265625,0.08245836761938967
1781002470.369749,-0.01416015625,-0.07421875,0.9921874403953552,0.9950602241848849,-0.1087188720703125,-0.1010894775390625,-0.0362396240234375,0.1528142204204887
1781002470.380482,-0.00341796875,-0.07958984375,0.9726561903953552,0.975913054760992,0.1964569091796875,0.1430511474609375,0.0858306884765625,0.2577321381564348
1781002470.391086,-0.0195312462747097,-0.07373046875,0.9912108778953552,0.9941411650571658,0.2574920654296875,-0.0400543212890625,0.0247955322265625,0.26176579385315496
1781002470.401692,-0.015624992549419403,-0.06640625,0.9848632216453552,0.9872231236052466,0.1373291015625,-0.102996826171875,0.2689361572265625,0.3190521665828853
1781002470.412298,-0.015136715024709702,-0.08203125,0.9848632216453552,0.9883895039244245,-0.1087188720703125,-0.2841949462890625,0.2689361572265625,0.4060950840680966
1781002470.420307,-0.010742183774709702,-0.0751953125,0.9829100966453552,0.9858407516539393,-0.0457763671875,0.019073486328125,0.0858306884765625,0.09912709396504427
1781002470.428316,-0.013671875,-0.0751953125,0.9975585341453552,1.0004820259426044,0.0133514404296875,0.1430511474609375,0.1468658447265625,0.2054542968610906
1781002470.436325,-0.0166015587747097,-0.08544921875,0.9926757216453552,0.9964849567770013,-0.2288818359375,0.019073486328125,0.1468658447265625,0.2726174408398637
1781002470.444334,-0.012207027524709702,-0.07177734375,0.9799804091453552,0.9826813323277758,-0.1087188720703125,-0.0400543212890625,-0.0362396240234375,0.1213979083325925
1781002470.454978,-0.00439453125,-0.08544921875,0.9931640028953552,0.9968428248911749,-0.1087188720703125,0.2040863037109375,0.0858306884765625,0.24665344025777283
1781002470.465622,-0.015136715024709702,-0.07373046875,0.9775390028953552,0.9804324578192418,-0.0457763671875,0.019073486328125,0.0247955322265625,0.055444495596880465
1781002470.476266,-0.013671875,-0.07666015625,0.9868163466453552,0.9898839334633005,0.3204345703125,0.14495849609375,0.0247955322265625,0.3525706990938367
1781002470.486918,-0.019531242549419403,-0.08447265625,0.9926757216453552,0.9964548095290532,-0.0457763671875,0.019073486328125,0.1468658447265625,0.15501241892455186
1781002470.49757,-0.0166015587747097,-0.0791015625,0.9921874403953552,0.9954740508029218,0.3795623779296875,0.0820159912109375,-0.1583099365234375,0.4193521879709301
1781002470.508222,-0.00048827752470970154,-0.08203125,0.9819335341453552,0.9853541646893725,0.1373291015625,0.019073486328125,-0.1583099365234375,0.21044029086353075
1781002470.518894,-0.0234374962747097,-0.072265625,0.9809569716453552,0.9838944135464404,0.0133514404296875,0.3261566162109375,-0.0972747802734375,0.34061529932896706
1781002470.529566,-0.0234375,-0.0849609375,0.9794921278953552,0.9834492899565792,-0.1678466796875,0.019073486328125,-0.0972747802734375,0.19493252329991767
1781002470.540238,-0.0195312462747097,-0.07373046875,0.9794921278953552,0.9824573681397626,0.0743865966796875,-0.1010894775390625,-0.0362396240234375,0.13063597737249577
1781002470.548277,-0.01220703125,-0.07666015625,0.9897460341453552,0.9927854769660319,0.0743865966796875,0.0820159912109375,0.1468658447265625,0.18392815153517375
1781002470.556316,-0.0078125,-0.0712890625,0.9770507216453552,0.9796791710841302,0.0762939453125,0.019073486328125,-0.2193450927734375,0.23301680989972337
1781002470.564355,-0.009765621274709702,-0.07421875,0.9853515028953552,0.9881909605276598,0.0743865966796875,0.1430511474609375,-0.0362396240234375,0.16525830358816312
1781002470.572394,-0.0058593712747097015,-0.0703125,0.9877929091453552,0.9903095532437466,-0.1087188720703125,0.2651214599609375,0.0247955322265625,0.28761780211673
1781002470.580346,-0.0214843712747097,-0.07373046875,0.9936522841453552,0.9966155838729626,0.0743865966796875,0.2651214599609375,0.2079010009765625,0.3450298255288405
1781002470.588298,-0.010742183774709702,-0.06884765625,0.9970702528953552,0.9995021178027466,-0.1087188720703125,-0.1010894775390625,-0.1583099365234375,0.21702744438300056
1781002470.59625,-0.02783203125,-0.06494140625,0.9794921278953552,0.9820370852560505,0.1373291015625,0.202178955078125,-0.2803802490234375,0.3719525454340792
1781002470.604202,-0.011230465024709702,-0.07177734375,0.9882811903953552,0.9909479409685139,-0.0476837158203125,-0.2231597900390625,0.0858306884765625,0.24380511834059493
1781002470.6149,-0.0253906212747097,-0.07373046875,0.9912108778953552,0.9942735388860006,0.0743865966796875,0.1430511474609375,-0.2193450927734375,0.27223017150798196
1781002470.625598,-0.011230465024709702,-0.06689453125,0.9814452528953552,0.9837864534982458,0.0762939453125,0.202178955078125,-0.0362396240234375,0.2191127707761219
1781002470.636296,-0.0190429650247097,-0.08251953125,0.9790038466453552,0.9826599815302617,0.1964569091796875,0.0209808349609375,0.0858306884765625,0.21541220876369752
1781002470.646924,-0.00439453125,-0.07421875,0.9907225966453552,0.9935084288823044,-0.1087188720703125,-0.0400543212890625,0.2689361572265625,0.2928323726331479
1781002470.657554,-0.010253902524709702,-0.0771484375,0.9707030653953552,0.973817983554225,0.1373291015625,-0.102996826171875,-0.0972747802734375,0.19730689601402285
1781002470.668184,-0.010742183774709702,-0.0751953125,0.9985350966453552,1.0014200261462576,0.1373291015625,0.324249267578125,-0.0362396240234375,0.353991779580083
1781002470.676193,-0.010253898799419403,-0.08056640625,0.9941405653953552,0.9974525312119997,-0.1087188720703125,0.2040863037109375,0.2079010009765625,0.3109563292709937
1781002470.684202,-0.01904296875,-0.0732421875,0.9892577528953552,0.9921481514129663,-0.0457763671875,0.019073486328125,0.0858306884765625,0.09912709396504427
1781002470.692211,-0.0200195275247097,-0.0732421875,0.9873046278953552,0.9902199895859928,-0.0457763671875,0.019073486328125,-0.0972747802734375,0.10918633866395348
1781002470.70022,-0.029296867549419403,-0.07568359375,0.9750975966453552,0.9784690264871295,0.0133514404296875,0.1430511474609375,-0.2193450927734375,0.2622101475443433
1781002470.710897,-0.012207027524709702,-0.083984375,0.9970702528953552,1.0006755098302034,-0.0457763671875,-0.03814697265625,0.0247955322265625,0.06454057432437374
1781002470.721574,-0.0078124962747097015,-0.072265625,0.9809569716453552,0.9836462452906071,-0.0457763671875,-0.03814697265625,-0.0362396240234375,0.06974222297203911
1781002470.732251,-0.014160152524709702,-0.07763671875,0.9873046278953552,0.9904536325751829,-0.0457763671875,-0.03814697265625,-0.2193450927734375,0.2272948240490958
1781002470.740232,0.008300784975290298,-0.07568359375,0.9731444716453552,0.9761183699162918,-0.0457763671875,0.14495849609375,0.0858306884765625,0.1745719005653753
1781002470.748213,-0.0170898400247097,-0.07373046875,0.9804686903953552,0.9833855284168808,-0.0476837158203125,-0.2231597900390625,0.0247955322265625,0.22954051290155575
1781002470.756194,-0.0185546875,-0.095703125,0.9848632216453552,0.9896761742674501,0.0133514404296875,-0.0400543212890625,0.1468658447265625,0.1528142204204887
1781002470.764175,-0.0068359337747097015,-0.08251953125,0.9824218153953552,0.985905079808902,-0.0457763671875,-0.164031982421875,0.2079010009765625,0.2687467083653152
1781002470.774929,-0.0087890625,-0.08642578125,0.9858397841453552,0.989659912943867,-0.1678466796875,0.14495849609375,0.2689361572265625,0.3485859006553052
1781002470.785683,-0.0180664025247097,-0.0732421875,0.9697265028953552,0.9726563130662471,0.0743865966796875,0.0820159912109375,0.1468658447265625,0.18392815153517375
1781002470.796437,-0.011230465024709702,-0.08349609375,0.9780272841453552,0.9816491682617163,0.0133514404296875,-0.0400543212890625,-0.2193450927734375,0.22337161712998105
1781002470.807048,-0.012695308774709702,-0.07373046875,0.9838866591453552,0.9867270701319532,0.0743865966796875,-0.2231597900390625,0.1468658447265625,0.27731432347268276
1781002470.817657,-0.011718746274709702,-0.08251953125,0.9799804091453552,0.9835183802861381,-0.0457763671875,0.080108642578125,-0.1583099365234375,0.1832345666370006
1781002470.828266,-0.0161132775247097,-0.06689453125,0.9819335341453552,0.9843413947929514,0.0743865966796875,0.1430511474609375,-0.1583099365234375,0.22596245829237252
1781002470.836258,-0.014648430049419403,-0.08984375,0.9697265028953552,0.9739897157232362,-0.1087188720703125,-0.1010894775390625,0.0858306884765625,0.1714811438547175
1781002470.844251,-0.015624996274709702,-0.0830078125,0.9794921278953552,0.9831272888357798,-0.2918243408203125,-0.0400543212890625,0.2079010009765625,0.36053934702913354
1781002470.852244,-0.010742183774709702,-0.0771484375,0.9765624403953552,0.979663960708912,0.4425048828125,-0.03814697265625,0.0247955322265625,0.4448377021500533
1781002470.860237,-0.0209960900247097,-0.0590820275247097,0.9946288466453552,0.9966032632656918,0.0762939453125,0.202178955078125,0.1468658447265625,0.26127891670602893
1781002470.870895,0.0004882849752902985,-0.07763671875,0.9892577528953552,0.9922996524155652,0.1964569091796875,0.0209808349609375,-0.2803802490234375,0.34299941201485884
1781002470.881553,-0.010253902524709702,-0.07421875,0.9921874403953552,0.9950123025605438,0.1964569091796875,0.0209808349609375,0.2079010009765625,0.2868071456696132
1781002470.892211,-0.025878898799419403,-0.076171875,0.9833983778953552,0.986683455618519,-0.0476837158203125,0.2651214599609375,-0.0972747802734375,0.2864009569877462
1781002470.90029,-0.020019523799419403,-0.06201171875,0.9907225966453552,0.9928632826825654,-0.0457763671875,-0.164031982421875,-0.0362396240234375,0.17411282950861273
1781002470.90837,-0.0395507775247097,-0.07275390625,0.9843749403953552,0.9878519211682498,-0.1659393310546875,0.0820159912109375,-0.2193450927734375,0.287010024439875
1781002470.91645,-0.01416015625,-0.07470703125,0.9819335341453552,0.9848731471729749,0.0743865966796875,0.0820159912109375,0.2079010009765625,0.23554790338051348
1781002470.92453,-0.0166015587747097,-0.07421875,0.9882811903953552,0.9912031809344505,-0.1087188720703125,0.4482269287109375,0.2079010009765625,0.5059150116105842
1781002470.935099,-0.0161132775247097,-0.06982421875,0.9887694716453552,0.9913627627132618,-0.0457763671875,-0.03814697265625,0.0247955322265625,0.06454057432437374
1781002470.945668,-0.0253906212747097,-0.07373046875,0.9907225966453552,0.9937867624266916,0.1964569091796875,0.0820159912109375,-0.2803802490234375,0.3520440654537346
1781002470.956237,-0.020507805049419403,-0.0703125,0.9877929091453552,0.9905045426862206,0.1983642578125,-0.164031982421875,0.0858306884765625,0.27133333211958127
1781002470.964237,-0.010742183774709702,-0.0771484375,0.9892577528953552,0.9923195944777613,0.1964569091796875,0.0209808349609375,0.0247955322265625,0.1991239087063444
1781002470.972239,-0.0205078087747097,-0.06494140625,0.9902343153953552,0.99257340073819,-0.0457763671875,-0.102996826171875,0.0247955322265625,0.11540641408848454
1781002470.980241,-0.015624992549419403,-0.07568359375,0.9765624403953552,0.9796154075687132,0.0762939453125,0.019073486328125,-0.3414154052734375,0.3503555949747078
1781002470.988243,-0.015624992549419403,-0.06640625,0.9765624403953552,0.9789423529616867,-0.2918243408203125,-0.0400543212890625,-0.1583099365234375,0.3344066843697837
1781002470.998898,-0.0180664025247097,-0.08203125,0.9824218153953552,0.986006158318219,-0.0457763671875,0.080108642578125,0.2079010009765625,0.22745482324112462
1781002471.009553,-0.0161132775247097,-0.07666015625,0.9887694716453552,0.9918676753109246,-0.1659393310546875,-0.0400543212890625,-0.1583099365234375,0.2328137587146847
1781002471.020208,-0.015136715024709702,-0.0693359375,0.9877929091453552,0.9903390448369624,0.1964569091796875,0.1430511474609375,0.0247955322265625,0.24428214501417284
1781002471.030888,-0.015136715024709702,-0.07275390625,1.0009765625,1.0037312039040578,0.0762939453125,0.019073486328125,-0.0362396240234375,0.08659026689770635
1781002471.041567,-0.0170898400247097,-0.078125,0.9858397841453552,0.9890781861212139,0.0133514404296875,-0.2231597900390625,-0.0972747802734375,0.24380511834059493
1781002471.052246,-0.0185546875,-0.0849609375,0.9785155653953552,0.9823723067402161,-0.0457763671875,-0.164031982421875,0.0247955322265625,0.17209528020411727
1781002471.062998,-0.010253898799419403,-0.06982421875,0.9736327528953552,0.9761871242109396,-0.0457763671875,0.019073486328125,0.0247955322265625,0.055444495596880465
1781002471.073752,-0.0063476525247097015,-0.07568359375,0.9912108778953552,0.9941163430472161,0.0762939453125,0.019073486328125,-0.1583099365234375,0.17676707830959565
1781002471.084506,-0.01416015625,-0.0712890625,0.9858397841453552,0.9885154123537548,-0.0457763671875,-0.03814697265625,-0.0362396240234375,0.06974222297203911
1781002471.095097,-0.0219726525247097,-0.06396484375,0.9760741591453552,0.9784145659413732,0.0762939453125,0.019073486328125,0.0858306884765625,0.11641078582509712
1781002471.105688,-0.0053710900247097015,-0.064453125,0.9921874403953552,0.9942932016304877,-0.0457763671875,0.202178955078125,0.0858306884765625,0.22436290413909343
1781002471.116279,-0.010742183774709702,-0.07421875,0.9868163466453552,0.9896617196650066,0.1964569091796875,-0.1010894775390625,0.0247955322265625,0.22232682710810026
1781002471.124281,-0.017578125,-0.06591796875,0.9838866591453552,0.9862490188217427,0.0133514404296875,-0.0400543212890625,0.2079010009765625,0.21214484632564512
1781002471.132284,-0.0209960900247097,-0.0791015625,0.9848632216453552,0.9882577894132356,0.2593994140625,-0.164031982421875,-0.0362396240234375,0.3090434558805262
1781002471.140287,-0.013671875,-0.08544921875,0.9951171278953552,0.9988726582411303,-0.4119873046875,0.019073486328125,-0.2803802490234375,0.49870875383015384
1781002471.14829,-0.013671875,-0.07958984375,0.9838866591453552,0.987195229647294,-0.1678466796875,-0.164031982421875,0.1468658447265625,0.27685479133765284
1781002471.158924,-0.0166015587747097,-0.07421875,0.9755858778953552,0.9785457780575029,0.0133514404296875,0.0209808349609375,-0.0362396240234375,0.043951868521892215
1781002471.169558,-0.02734375,-0.0849609375,0.9877929091453552,0.9918169553515334,0.1373291015625,-0.03814697265625,-0.0972747802734375,0.17255971875280068
1781002471.180192,-0.0205078087747097,-0.07763671875,0.9755858778953552,0.9788849960377662,-0.1087188720703125,0.1430511474609375,0.0858306884765625,0.1991239087063444
1781002471.190867,-0.0219726525247097,-0.07177734375,0.9848632216453552,0.9877197729540729,-0.0457763671875,0.019073486328125,0.0858306884765625,0.09912709396504427
1781002471.201543,-0.005371086299419403,-0.076171875,0.9819335341453552,0.9848982021448911,0.1373291015625,0.202178955078125,-0.1583099365234375,0.29120035716753634
1781002471.212219,-0.01416015625,-0.0625,0.9902343153953552,0.9923057791888206,0.0133514404296875,-0.1621246337890625,-0.1583099365234375,0.22699051487857358
1781002471.220247,0.008789066225290298,-0.06982421875,0.9843749403953552,0.9868873757868826,0.0133514404296875,-0.1010894775390625,-0.2803802490234375,0.2983461537763022
1781002471.228278,-0.010253898799419403,-0.06982421875,0.9838866591453552,0.9864144777976674,-0.1087188720703125,-0.2841949462890625,0.0247955322265625,0.3052890090699018
1781002471.236309,-0.0073242150247097015,-0.07275390625,0.9824218153953552,0.9851392786632088,-0.1087188720703125,0.1430511474609375,-0.0362396240234375,0.1832941196096917
1781002471.24434,-0.009765621274709702,-0.078125,0.9750975966453552,0.9782710288909863,-0.1678466796875,0.019073486328125,0.0247955322265625,0.17073700296428393
1781002471.255014,-0.00341796875,-0.07666015625,0.9838866591453552,0.9868745716203549,-0.2918243408203125,0.2040863037109375,0.0247955322265625,0.35696986382046514
1781002471.265688,-0.010253902524709702,-0.07861328125,0.9912108778953552,0.9943762843933672,0.1373291015625,0.019073486328125,0.0247955322265625,0.14084707464151008
1781002471.276362,-0.02685546875,-0.07568359375,0.9863280653953552,0.9895919740737803,0.1373291015625,0.14495849609375,0.1468658447265625,0.2478746136113417
1781002471.284362,-0.00732421875,-0.06103515625,0.9887694716453552,0.9906785566149066,0.0743865966796875,-0.2231597900390625,-0.2193450927734375,0.3216301095663353
1781002471.292361,-0.015136715024709702,-0.06298828125,0.9750975966453552,0.9772471369618415,-0.2288818359375,0.019073486328125,0.1468658447265625,0.2726174408398637
1781002471.30036,-0.0161132775247097,-0.0830078125,0.9848632216453552,0.9884864693046089,-0.1087188720703125,0.2651214599609375,0.2689361572265625,0.392983254528549
1781002471.308359,-0.0175781212747097,-0.07763671875,0.9980468153953552,1.0012162085017529,0.0762939453125,0.202178955078125,-0.0362396240234375,0.2191127707761219
1781002471.318971,-0.012695308774709702,-0.08251953125,0.9785155653953552,0.9820709524385682,-0.1087188720703125,-0.2841949462890625,0.2689361572265625,0.4060950840680966
1781002471.329583,-0.0126953125,-0.07470703125,0.9794921278953552,0.9824190246970139,-0.1087188720703125,-0.3452301025390625,-0.1583099365234375,0.3950514559464721
1781002471.340195,-0.025390617549419403,-0.076171875,0.9863280653953552,0.989590769251159,0.0743865966796875,0.0820159912109375,0.0247955322265625,0.1134672067088001
1781002471.35101,-0.0356445275247097,-0.06689453125,0.9814452528953552,0.9843679165253431,-0.0457763671875,-0.102996826171875,-0.0972747802734375,0.14888319203862405
1781002471.361826,-0.01904296875,-0.0693359375,0.9853515028953552,0.9879715032054075,0.2593994140625,0.324249267578125,0.0247955322265625,0.41598132405111327
1781002471.372642,-0.012695308774709702,-0.07373046875,0.9829100966453552,0.9857533215639507,-0.0457763671875,0.080108642578125,0.0247955322265625,0.09553893879980617
1781002471.383168,-0.0024414025247097015,-0.08203125,0.9809569716453552,0.9843839020638627,0.0762939453125,0.019073486328125,0.0247955322265625,0.08245836761938967
1781002471.393697,0.0009765625,-0.0751953125,0.9897460341453552,0.9925988619793736,-0.1678466796875,0.019073486328125,-0.1583099365234375,0.23151315678570453
1781002471.404226,-0.01416015625,-0.07421875,0.9882811903953552,0.9911652960863023,-0.1087188720703125,0.1430511474609375,0.0858306884765625,0.1991239087063444
1781002471.412309,-0.011230461299419403,-0.0859375,0.9829100966453552,0.9867236873890427,-0.1087188720703125,0.1430511474609375,-0.0362396240234375,0.1832941196096917
1781002471.420392,-0.0205078087747097,-0.07177734375,0.9794921278953552,0.9823326248809598,0.0133514404296875,0.2040863037109375,0.0858306884765625,0.22180258656810392
1781002471.428475,-0.01904296875,-0.0732421875,0.9863280653953552,0.9892270241330565,0.1373291015625,0.324249267578125,-0.0362396240234375,0.353991779580083
1781002471.436558,-0.017578125,-0.08056640625,0.9951171278953552,0.9985279337731401,0.0743865966796875,-0.0400543212890625,0.1468658447265625,0.16943226011229592
1781002471.447114,-0.010253902524709702,-0.0673828125,0.9819335341453552,0.9842962213767682,0.0133514404296875,-0.1621246337890625,0.0858306884765625,0.18392815153517375
1781002471.45767,-0.00830078125,-0.076171875,0.9868163466453552,0.9897866232258657,0.0743865966796875,0.1430511474609375,0.0858306884765625,0.18265788688101617
1781002471.468226,-0.009277340024709702,-0.072265625,0.9829100966453552,0.9856067408870316,-0.0457763671875,-0.03814697265625,-0.0972747802734375,0.1140747570366339
1781002471.478876,-0.0166015587747097,-0.06982421875,0.9946288466453552,0.9972149095640656,0.0743865966796875,0.1430511474609375,0.0247955322265625,0.16313128140818328
1781002471.489526,-0.01416015625,-0.0703125,0.9960936903953552,0.9986726178917255,-0.0457763671875,-0.164031982421875,0.0858306884765625,0.19070625090566867
1781002471.500176,-0.0190429650247097,-0.08203125,0.9741210341453552,0.9777543401375988,0.1964569091796875,-0.2231597900390625,-0.0972747802734375,0.31282262055669824
1781002471.510858,-0.0048828087747097015,-0.0830078125,0.9960936903953552,0.9995582918484561,-0.0457763671875,0.14495849609375,0.0247955322265625,0.15402356897905287
1781002471.521542,-0.0063476525247097015,-0.07666015625,0.9848632216453552,0.9878626613039472,-0.1087188720703125,0.1430511474609375,0.1468658447265625,0.2320624921898811
1781002471.532226,-0.014648433774709702,-0.08349609375,0.9863280653953552,0.9899642553497096,-0.1087188720703125,-0.2231597900390625,0.0247955322265625,0.24946924350091323
1781002471.540211,-0.0195312462747097,-0.0771484375,0.9775390028953552,0.9807730895428259,0.1964569091796875,-0.1010894775390625,0.0247955322265625,0.22232682710810026
1781002471.548198,-0.011230465024709702,-0.07861328125,0.9833983778953552,0.9865994835700953,0.0133514404296875,-0.1621246337890625,0.3299713134765625,0.3678909152999473
1781002471.556185,-0.00927734375,-0.06982421875,0.9873046278953552,0.9898140829947255,0.0133514404296875,-0.1010894775390625,-0.0362396240234375,0.10821577417376925
1781002471.564172,-0.01416015625,-0.08349609375,0.9848632216453552,0.9884976848967332,-0.0457763671875,0.019073486328125,-0.0362396240234375,0.061421364548128576
1781002471.574963,-0.0166015587747097,-0.0791015625,0.9819335341453552,0.9852543501161916,-0.2918243408203125,0.2040863037109375,0.0247955322265625,0.35696986382046514
1781002471.585754,-0.0190429650247097,-0.07275390625,0.9736327528953552,0.9765328990372797,0.0743865966796875,-0.1010894775390625,-0.0972747802734375,0.15879178540451222
1781002471.596545,-0.014648430049419403,-0.07080078125,0.9877929091453552,0.9904353378622791,-0.1087188720703125,-0.1010894775390625,0.0858306884765625,0.1714811438547175
1781002471.607125,-0.0161132775247097,-0.07470703125,0.9897460341453552,0.9926922938842808,-0.0457763671875,-0.164031982421875,-0.2803802490234375,0.3280473305676789
1781002471.617704,-0.0019531212747097015,-0.072265625,0.9863280653953552,0.988973805429597,0.1373291015625,-0.102996826171875,-0.2193450927734375,0.27853168232937303
1781002471.628283,-0.0019531212747097015,-0.07470703125,0.9858397841453552,0.9886683140490863,-0.2307891845703125,-0.0400543212890625,0.1468658447265625,0.2764734575249566
1781002471.636354,-0.01806640625,-0.0859375,0.9799804091453552,0.9839071354806499,-0.0457763671875,-0.102996826171875,0.0247955322265625,0.11540641408848454
1781002471.644427,-0.015136715024709702,-0.08251953125,0.9833983778953552,0.986970598765067,-0.2918243408203125,-0.0400543212890625,0.1468658447265625,0.32914338956810923
1781002471.6525,-0.015624992549419403,-0.08056640625,0.9858397841453552,0.9892497997027697,-0.1087188720703125,0.2651214599609375,-0.2193450927734375,0.3608620947118828
1781002471.660573,-0.010742183774709702,-0.07177734375,0.9863280653953552,0.9889946583144923,-0.2288818359375,0.019073486328125,-0.2803802490234375,0.3624414114657356
1781002471.671131,-0.012695308774709702,-0.0791015625,0.9829100966453552,0.9861696031323457,0.0133514404296875,-0.0400543212890625,-0.0362396240234375,0.0556409917671769
1781002471.681689,-0.011718746274709702,-0.0693359375,0.9819335341453552,0.9844482041846805,-0.0457763671875,0.080108642578125,0.0247955322265625,0.09553893879980617
1781002471.692247,-0.009277340024709702,-0.07763671875,0.9853515028953552,0.9884488420724342,0.0133514404296875,0.0820159912109375,-0.0972747802734375,0.12793461866557315
1781002471.702933,-0.010742183774709702,-0.08154296875,0.9946288466453552,0.9980236434292941,-0.1678466796875,0.14495849609375,0.2079010009765625,0.30398733473442047
1781002471.713619,-0.0087890625,-0.07666015625,0.9731444716453552,0.9761988475048621,-0.0476837158203125,-0.2231597900390625,0.0247955322265625,0.22954051290155575
1781002471.724305,-0.0014648400247097015,-0.0791015625,0.9780272841453552,0.9812219786974703,0.0743865966796875,0.0820159912109375,-0.1583099365234375,0.1931890902249759
1781002471.732326,-0.0175781212747097,-0.0791015625,0.9843749403953552,0.9877044450724362,0.1964569091796875,-0.1010894775390625,0.2689361572265625,0.34805323773432556
1781002471.740349,-0.015136711299419403,-0.07177734375,0.9794921278953552,0.9822351733234452,0.1964569091796875,-0.1010894775390625,0.0247955322265625,0.22232682710810026
1781002471.748372,-0.0219726525247097,-0.07861328125,0.9785155653953552,0.9819142310654505,0.1373291015625,0.019073486328125,-0.0362396240234375,0.14330523495683165
1781002471.756395,-0.011230465024709702,-0.07470703125,0.9931640028953552,0.9960331322350602,0.1392364501953125,-0.2231597900390625,0.0858306884765625,0.27668391358666106
1781002471.764402,-0.0209960900247097,-0.0771484375,0.9833983778953552,0.9866433432868399,-0.1087188720703125,0.0820159912109375,-0.0972747802734375,0.16735829479233796
1781002471.772409,-0.01416015625,-0.0693359375,0.9887694716453552,0.9912986685716183,0.0743865966796875,0.0820159912109375,-0.0972747802734375,0.14738511273919297
1781002471.780416,-0.0161132775247097,-0.076171875,0.9755858778953552,0.9786876914534355,0.3204345703125,-0.164031982421875,0.0247955322265625,0.36083184938001983
1781002471.788423,-0.0170898400247097,-0.07177734375,0.9770507216453552,0.9798327216293531,-0.0457763671875,0.019073486328125,-0.0362396240234375,0.061421364548128576
1781002471.799023,-0.012207027524709702,-0.07275390625,0.9760741591453552,0.9788579603532552,-0.1068115234375,0.019073486328125,0.0858306884765625,0.13834524387961264
1781002471.809623,-0.0209960900247097,-0.06787109375,0.9838866591453552,0.9864483155276588,0.0762939453125,0.019073486328125,-0.0972747802734375,0.12508775659232785
1781002471.820223,-0.015136715024709702,-0.07763671875,0.9799804091453552,0.9831674234578278,-0.0457763671875,0.14495849609375,0.2079010009765625,0.25754857326279873
1781002471.830927,-0.0190429650247097,-0.08740234375,0.9755858778953552,0.9796783193266944,0.1373291015625,0.14495849609375,-0.0972747802734375,0.2221140036174458
1781002471.841629,-0.012207027524709702,-0.07861328125,0.9907225966453552,0.9939116273661335,-0.0457763671875,-0.03814697265625,0.0247955322265625,0.06454057432437374
1781002471.852331,-0.015624992549419403,-0.08154296875,0.9775390028953552,0.9810585600902619,0.2593994140625,-0.164031982421875,0.0247955322265625,0.3079112951673211
1781002471.862984,-0.013671875,-0.09130859375,0.9721679091453552,0.9765421767802299,-0.2918243408203125,0.0209808349609375,0.1468658447265625,0.32737015392077934
1781002471.873637,-0.02880859375,-0.06982421875,1.00439453125,1.007230723817938,0.0762939453125,-0.164031982421875,-0.0972747802734375,0.20540116899823768
1781002471.88429,-0.014648430049419403,-0.07568359375,0.9887694716453552,0.9917699586716986,-0.0457763671875,0.080108642578125,-0.0362396240234375,0.09912709396504427
1781002471.895027,-0.005371086299419403,-0.0615234375,1.00244140625,1.0043419511771525,0.0133514404296875,0.0209808349609375,-0.3414154052734375,0.3423199312853857
1781002471.905767,-0.013671875,-0.07373046875,0.9843749403953552,0.987226987813071,0.1373291015625,-0.164031982421875,0.0247955322265625,0.21536153744717798
1781002471.916507,-0.015624996274709702,-0.06396484375,0.9912108778953552,0.9933955134802187,-0.0457763671875,-0.164031982421875,0.2079010009765625,0.2687467083653152
1781002471.924454,-0.020996086299419403,-0.07568359375,0.9985350966453552,1.0016192795844918,-0.1659393310546875,0.0820159912109375,-0.0362396240234375,0.1886154679620679
1781002471.932402,-0.0175781212747097,-0.07373046875,0.9750975966453552,0.9780391072718877,0.0743865966796875,-0.0400543212890625,0.1468658447265625,0.16943226011229592
1781002471.94035,-0.0205078087747097,-0.07861328125,0.9858397841453552,0.9891818327352117,-0.1678466796875,0.14495849609375,0.1468658447265625,0.26599821393973067
1781002471.948298,-0.0185546837747097,-0.07275390625,1.0029296875,1.0057362304468607,0.0133514404296875,-0.0400543212890625,-0.0972747802734375,0.10604240893491851
1781002471.958932,-0.024902336299419403,-0.07470703125,0.9902343153953552,0.993360592261373,0.8106231689453125,0.0820159912109375,0.7572174072265625,1.1123015538297927
1781002471.969566,-1.3466796875,-0.2177734375,0.8422850966453552,1.6032515818911701,-17.377853393554688,3.0727386474609375,-14.379501342773438,22.76404116650432
1781002471.9802,2.1865234375,1.1904296875,0.0312499962747097,2.4897759228262557,-40.20881652832031,6.4907073974609375,-18.774032592773438,44.84799336561334
1781002471.98821,0.896484375,-0.9584960341453552,1.20166015625,1.7794341834443579,-10.118484497070312,48.42185974121094,2.4051666259765625,49.52620574820636
1781002471.996221,0.33447265625,-0.4453125,1.6899412870407104,1.7793472775374664,-2.1228790283203125,63.86375427246094,-11.571884155273438,64.93838793845458
1781002472.004232,-0.3896484076976776,-0.38134765625,0.9150390028953552,1.0651517701099829,23.267745971679688,82.90672302246094,32.55653381347656,92.05889755408607
1781002472.012243,-1.2197265625,-0.568359375,1.5849609375,2.079150412985875,-22.874832153320312,103.84178161621094,40.97938537597656,113.95474356543576
1781002472.022929,-0.1254882663488388,0.673828125,1.0693359375,1.2701460523346346,7.0343017578125,120.56350708007812,14.001846313476562,121.57751577020412
1781002472.033615,-0.4252929389476776,-0.4501953125,0.9345702528953552,1.1211473859009857,-4.0149688720703125,147.66502380371094,34.57069396972656,151.71094921442784
1781002472.044301,0.1279296875,-0.7216796875,1.1904296875,1.397966529347285,-19.7601318359375,160.72463989257812,14.429092407226562,162.5763555578388
1781002472.054956,0.041015625,-0.462890625,1.32275390625,1.4020085266169622,-39.23225402832031,203.69529724121094,28.100967407226562,209.3337245728694
1781002472.065612,-0.515625,-0.33251953125,1.47705078125,1.5994115760738243,-42.40608215332031,197.16453552246094,10.522842407226562,201.94766669538234
1781002472.076268,-0.8681640028953552,-0.31005859375,1.64111328125,1.8823118416927243,-36.2396240234375,167.98782348632812,-0.5245208740234375,171.85311842146226
1781002472.084278,-0.66455078125,-0.7802734375,1.7626951932907104,2.039006798070626,-20.616531372070312,122.09129333496094,-15.295028686523438,124.76082388530709
1781002472.092291,-0.4365234076976776,-0.83056640625,1.7607420682907104,1.9951455765702115,-4.8675537109375,65.87600708007812,-27.746200561523438,71.6463050934495
1781002472.100304,-0.40185546875,-0.76416015625,1.7602537870407104,1.9605922464794838,5.0830841064453125,12.716293334960938,-40.80772399902344,43.0443050611163
1781002472.108317,-0.4697265625,-0.54248046875,1.8408201932907104,1.9757396302448698,17.4102783203125,-31.108856201171875,-61.19346618652344,70.82032920890103
1781002472.118961,-0.52099609375,-0.46142578125,1.8842772245407104,2.0086939389134857,39.44587707519531,-65.10353088378906,-85.18028259277344,114.23715461421752
1781002472.129605,-0.45654296875,-0.54150390625,1.7070311307907104,1.8481377774093801,73.1964111328125,-92.99850463867188,-104.40635681152344,157.8199094233929
1781002472.140249,-0.328125,-0.525390625,1.4365234375,1.5643851542857683,107.4371337890625,-113.32321166992188,-112.70713806152344,192.5818968387583
1781002472.150989,-0.38671875,-0.38427734375,1.15380859375,1.2761248918238648,130.5675506591797,-125.65040588378906,-100.80528259277344,207.35866218344316
1781002472.16173,-0.66748046875,-0.32666015625,0.8745116591453552,1.147609548507312,119.4000244140625,-131.51168823242188,-85.30235290527344,197.0486776991824
1781002472.172471,-0.70263671875,-0.279296875,0.669921875,1.0101982090283312,100.1739501953125,-141.03317260742188,-68.09043884277344,185.90719172546625
1781002472.183073,-0.29345703125,-0.26953125,0.4692382514476776,0.6155880607502877,79.3609619140625,-141.03317260742188,-53.07579040527344,170.31018049072887
1781002472.193677,-0.1455078125,-0.24169921875,0.375,0.4692718144560735,60.5621337890625,-130.35202026367188,-42.45567321777344,149.87296428735704
1781002472.204281,-0.0522460900247097,-0.1806640625,0.2998046875,0.35390960434671254,45.78971862792969,-113.74855041503906,-37.32872009277344,128.1751317429098
1781002472.212256,0.0219726599752903,-0.06298828125,0.2460937350988388,0.25497538668686487,16.679763793945312,-51.49269104003906,-28.234481811523438,61.048322777386566
1781002472.220233,0.203125,0.0390624962747097,0.34912109375,0.4057969718238518,-1.8157958984375,-6.389617919921875,-31.835556030273438,32.52117709530282
1781002472.22821,0.4267578125,0.1787109225988388,0.53857421875,0.7100155022871586,-4.1980743408203125,39.69383239746094,-34.15489196777344,52.533615941595414
1781002472.236187,0.3056640625,0.126953125,0.763671875,0.8323114487481745,7.0362091064453125,77.71873474121094,-30.614852905273438,83.82707907815863
1781002472.246872,0.21044921875,0.12890625,0.8408203125,0.8762901875943525,22.2320556640625,99.08294677734375,-25.121688842773438,104.60780989699113
1781002472.257557,0.09423828125,0.1875,0.8227538466453552,0.8490942208157366,27.1148681640625,110.43167114257812,-16.942977905273438,114.96710210836662
1781002472.268242,-0.1303710788488388,0.2119140475988388,0.79150390625,0.8296882639756584,28.760910034179688,105.42869567871094,-10.778427124023438,109.81153996632733
1781002472.276222,-0.41259765625,0.12744140625,0.77294921875,0.8853974433756888,26.258468627929688,85.10398864746094,0.4520416259765625,89.06402416252448
1781002472.284203,-0.306640625,0.07421875,0.74267578125,0.8069102873351232,19.9127197265625,63.617706298828125,16.748428344726562,68.733098385356
1781002472.292184,-0.1713867038488388,0.109375,0.7255859375,0.7535325112952482,9.412765502929688,48.78807067871094,35.79139709472656,61.23642789187199
1781002472.300165,-0.1035156175494194,0.056640625,0.7470703125,0.7563317362744181,-9.5062255859375,40.790557861328125,50.80604553222656,65.84445457403204
1781002472.310852,-0.04736328125,0.02294921875,0.77783203125,0.7796105539886584,-27.8778076171875,35.17913818359375,59.04579162597656,74.1697339190289
1781002472.321539,0.013183597475290298,0.0463867150247097,0.8979491591453552,0.8992431411932061,-43.4417724609375,28.339385986328125,60.93788146972656,80.02333278893352
1781002472.332226,0.0415039099752903,0.0307617150247097,0.9418944716453552,0.9433101575677967,-47.3480224609375,24.127960205078125,56.90956115722656,77.8632894612563
1781002472.340297,0.0634765625,0.0009765587747097015,0.9477538466453552,0.9498776665891899,-43.2586669921875,24.921417236328125,47.32704162597656,68.79126526002442
1781002472.348368,0.005859375,-0.00390625,0.9570311903953552,0.9570570988472965,-40.0848388671875,21.625518798828125,35.73036193847656,57.88882564520884
1781002472.356439,-0.0249023400247097,0.0161132775247097,0.9531249403953552,0.9535863444150949,-36.48567199707031,11.434555053710938,22.363662719726562,44.29544807986296
1781002472.36451,-0.1005859375,0.0078124962747097015,0.9394530653953552,0.9448548184782284,-32.7606201171875,0.507354736328125,12.964248657226562,35.236165831962275
1781002472.372476,-0.076171875,0.0624999962747097,0.8867186903953552,0.892176238179323,-30.076980590820312,-11.087417602539062,7.2269439697265625,32.86007166296571
1781002472.380442,-0.0610351525247097,0.0673828125,0.8564452528953552,0.8612573392843242,-30.0140380859375,-22.075653076171875,7.4710845947265625,37.99992165761877
1781002472.388408,-0.0434570275247097,0.06884765625,0.7993163466453552,0.8034520116515231,-34.5916748046875,-29.582977294921875,10.583877563476562,46.73066419069793
1781002472.396374,-0.0820312425494194,0.05126953125,0.7587890625,0.7649304092258493,-45.69816589355469,-30.191421508789062,16.077041625976562,57.08165700292519
1781002472.407068,-0.0126953125,0.1611328125,0.7797850966453552,0.7963603149164572,-55.2825927734375,-30.620574951171875,21.081924438476562,66.62005863194429
1781002472.417762,-0.07080078125,0.15283203125,0.8115234375,0.82881884028624,-61.5692138671875,-32.939910888671875,22.119522094726562,73.2467001528138
1781002472.428456,-0.12451171875,0.1474609375,0.7934569716453552,0.8165916127704693,-61.20491027832031,-32.87696838378906,26.941299438476562,74.51690887120562
1781002472.439054,-0.1186523362994194,0.1215820237994194,0.7851561903953552,0.8033248463334247,-52.10685729980469,-43.80226135253906,30.664443969726562,74.6596999808521
1781002472.449653,-0.0981445237994194,0.1376953125,0.7255859375,0.7450283882739243,-48.3856201171875,-41.606903076171875,34.44862365722656,72.51903398137603
1781002472.460252,-0.0971679612994194,0.1416015625,0.7265625,0.746582668973622,-48.93684387207031,-41.91017150878906,38.17176818847656,74.88899151871583
1781002472.468267,-0.0917968600988388,0.25634765625,0.7177734375,0.7676845002795356,-51.6815185546875,-40.142059326171875,46.59461975097656,80.33319909478587
1781002472.476282,-0.1181640625,0.2861328125,0.73388671875,0.7965076572220167,-55.16242980957031,-37.14942932128906,51.29432678222656,83.98858089904287
1781002472.484297,-0.1586913913488388,0.26220703125,0.748046875,0.8083994137321194,-57.6019287109375,-36.052703857421875,55.44471740722656,87.70345680198757
1781002472.492312,-0.15625,0.2255859375,0.7758788466453552,0.822976951299051,-60.4705810546875,-36.72027587890625,59.53407287597656,92.46283397623395
1781002472.50299,-0.1552734375,0.18701171875,0.787109375,0.8237866177328849,-62.66975402832031,-38.18702697753906,64.53895568847656,97.72934001983543
1781002472.513668,-0.2138671725988388,0.1733398288488388,0.7944335341453552,0.8407797000138892,-62.9119873046875,-40.264129638671875,70.45936584472656,102.68223077741327
1781002472.524346,-0.8383788466453552,0.330078125,-0.171875,0.9172631436675692,-60.2874755859375,-43.743133544921875,74.67079162597656,105.46927783437171
1781002472.534966,-0.0278320275247097,-0.10888671875,0.4628905951976776,0.47633878951722797,-62.73078918457031,-12.247085571289062,71.00868225097656,95.53730146769708
1781002472.545584,0.1865234375,-0.26904296875,0.369140625,0.4933963039950953,-58.7615966796875,23.761749267578125,60.69374084472656,87.75691511401446
1781002472.556202,0.2412109375,-0.25146484375,0.5302734375,0.6345133588269889,-44.17610168457031,53.79295349121094,51.47743225097656,86.57445256256005
1781002472.564226,-0.3754882514476776,0.0458984337747097,0.63037109375,0.7351637974178116,-36.6058349609375,78.94134521484375,55.81092834472656,103.37592979130457
1781002472.57225,-0.1787109225988388,0.298828125,0.7392578125,0.8171523453367976,-37.82844543457031,91.26853942871094,52.02674865722656,111.65894567516143
1781002472.580274,-0.56787109375,0.13671875,0.9204100966453552,1.0901029041907446,-47.10578918457031,98.89793395996094,68.07899475097656,128.97482794155405
1781002472.588298,-0.4033203125,0.22314453125,1.02783203125,1.1264543669254343,-49.11994934082031,104.45213317871094,71.19178771972656,135.61448369388327
1781002472.598942,-1.71630859375,-0.96875,1.642578125,2.5655905067271783,-53.5736083984375,110.43167114257812,93.10340881347656,154.05690585254854
1781002472.609586,-0.68505859375,-0.248046875,1.6586912870407104,1.8116537513478566,-55.7708740234375,51.90277099609375,91.63856506347656,119.171786230232
1781002472.62023,-0.4736327826976776,-0.39501953125,2.21142578125,2.2958162881406885,-49.79133605957031,-0.8945465087890625,113.55018615722656,123.99041146957397
1781002472.630909,-0.3759765326976776,-0.59814453125,1.4716796875,1.632475523860541,-43.6248779296875,-110.82077026367188,104.88319396972656,158.69737702150266
1781002472.641588,-0.1499023288488388,-0.36865234375,1.16845703125,1.2343691071248653,-33.67805480957031,-92.08106994628906,103.05213928222656,142.24232221407672
1781002472.652267,0.0400390625,-0.84375,0.9501952528953552,1.2713725683884904,-11.3372802734375,-57.35015869140625,71.31385803222656,92.21301954370934
1781002472.660253,0.05517578125,-0.54345703125,0.79248046875,0.9625046519377614,-1.6307830810546875,-4.8007965087890625,35.12001037597656,35.48411235165616
1781002472.66824,-0.2626953125,-0.08740234375,0.8916015028953552,0.9335958637803201,-12.193679809570312,29.439926147460938,2.8934478759765625,31.99636103492505
1781002472.676227,-0.3447265625,-0.0966796875,0.9541015028953552,1.0190647882717465,-24.2767333984375,29.987335205078125,0.3299713134765625,38.58379113394958
1781002472.684214,-0.337890625,-0.25048828125,0.8632811903953552,0.9602962392912363,-29.7088623046875,30.841827392578125,18.396377563476562,46.607526471702485
1781002472.694874,-0.4453124701976776,-0.1826171875,0.70654296875,0.8549006959723633,-34.95979309082031,38.77830505371094,36.15760803222656,63.50839861312648
1781002472.705534,-0.29248046875,-0.3330078125,0.615234375,0.7582561334851803,-38.74397277832031,44.51560974121094,50.37879943847656,77.59354593096816
1781002472.716194,-0.17431640625,-0.43994140625,0.5380859375,0.7165689963683863,-42.89436340332031,46.46873474121094,58.98475646972656,86.47815455950756
1781002472.72421,-0.07080078125,-0.54541015625,0.77880859375,0.9534295017803426,-44.9066162109375,5.634307861328125,46.22840881347656,64.69478638977469
1781002472.732225,-0.1953125,-0.66943359375,0.7109375,0.9958516144504361,-46.67854309082031,-5.1670074462890625,38.90419006347656,60.984591131913675
1781002472.74024,-0.29736328125,-0.64111328125,0.71875,1.007994406200207,-50.09651184082031,-9.622573852539062,42.74940490722656,66.55648763334064
1781002472.759168,-0.3037109375,-0.70458984375,0.9853515028953552,1.2488413693223466,-47.2869873046875,-29.338836669921875,42.26112365722656,69.87724292120735
1781002472.770082,-0.07958984375,-0.7900390625,1.14599609375,1.394203468075692,-41.42951965332031,-49.60060119628906,40.61317443847656,76.32859670993757
1781002472.780996,-0.00048827752470970154,-0.73828125,1.197265625,1.4065931961029614,-36.3006591796875,-52.410125732421875,50.92811584472656,81.59799090456816
1781002472.788805,-0.0336913987994194,-0.6953125,1.21484375,1.4001571054433049,-32.51838684082031,-49.23439025878906,56.54335021972656,81.72283108749127
1781002472.796614,-0.012695308774709702,-0.66748046875,1.19775390625,1.3712424172861408,-33.9813232421875,-56.804656982421875,53.00331115722656,84.79888193726624
1781002472.804423,-0.009765617549419403,-0.4873046875,1.08203125,1.1867404314854013,-32.9437255859375,-56.133270263671875,48.36463928222656,81.08866393569372
1781002472.812232,0.04541015625,-0.61669921875,1.0419921875,1.2116632071283442,-34.34944152832031,-53.44581604003906,43.97010803222656,77.26389704033099
1781002472.822905,-0.26318359375,-0.55224609375,0.64453125,0.8886292164383643,-29.645919799804688,-53.14064025878906,40.91835021972656,73.32884556976661
1781002472.833578,-0.2368163913488388,-0.54931640625,0.4858398139476776,0.7706301591578255,-15.241622924804688,-38.24806213378906,45.86219787597656,61.632479427549804
1781002472.844251,0.0537109337747097,-0.64404296875,0.8979491591453552,1.1063403194375205,-1.2683868408203125,-51.06544494628906,44.03114318847656,67.43908394413859
1781002472.854925,-0.31787109375,-0.56591796875,0.9511718153953552,1.1515350632952706,4.4116973876953125,-53.93409729003906,55.50575256347656,77.5192781956197
1781002472.865598,0.20361328125,-0.11474609375,1.06689453125,1.0921945683546648,7.8868865966796875,-41.54396057128906,67.40760803222656,79.57316922659297
1781002472.876271,0.0424804724752903,-0.701171875,1.2158203125,1.4041601123519842,18.9361572265625,-51.555633544921875,73.26698303222656,91.56752810561146
1781002472.884272,0.03955078125,-0.7138671875,1.166015625,1.3677584082837093,58.66813659667969,-23.355484008789062,77.05116271972656,99.62083397298603
1781002472.892273,-0.1640624850988388,-0.16455078125,0.4790038764476776,0.532389117355618,55.1300048828125,19.550323486328125,91.51649475097656,108.6130811564819
1781002472.900274,-0.0317382775247097,-0.376953125,0.9003905653953552,0.9766289709815436,30.408859252929688,-4.4956207275390625,90.29579162597656,95.38469118339769
1781002472.908275,0.25048828125,-0.32666015625,0.9531249403953552,1.0382188539650505,22.3541259765625,2.277374267578125,97.98622131347656,100.52956256258287
1781002472.918951,0.01025390625,-0.14306640625,0.76904296875,0.7823044336922087,3.6773681640625,18.024444580078125,94.99549865722656,96.76026252635687
1781002472.929627,0.1337890625,-0.0791015625,0.59912109375,0.6189528701046362,-22.386550903320312,14.303207397460938,91.08924865722656,94.88409046905484
1781002472.940303,0.07666015625,-0.0493164025247097,0.56005859375,0.5674279826969068,-44.1131591796875,17.780303955078125,90.47889709472656,102.2181042723134
1781002472.948447,0.01708984375,-0.1640625,0.71533203125,0.7341038629498556,-59.12971496582031,12.289047241210938,90.60096740722656,108.88470585514385
1781002472.956591,0.07763671875,-0.20947265625,0.767578125,0.799426314173616,-77.92854309082031,-7.2422027587890625,87.97645568847656,117.75043135616842
1781002472.964735,0.19873046875,-0.2919921875,0.9272460341453552,0.9922391065710519,-92.6361083984375,-17.803192138671875,86.20643615722656,127.78870006562987
1781002472.972879,0.11328125,-0.4111328125,1.240234375,1.3115045314627636,-100.14533996582031,-19.876480102539062,78.14979553222656,128.5750913663497
1781002472.983572,0.0332031287252903,-0.4873046576976776,1.3037109375,1.392203464199155,-102.6458740234375,-15.850067138671875,67.52967834472656,123.88566317245123
1781002472.994265,-0.34228515625,-0.6259765625,1.28515625,1.4699089672161558,-99.6551513671875,-13.225555419921875,65.57655334472656,120.02645066299448
1781002473.004958,-0.2099609375,-0.72314453125,1.38232421875,1.5741162136562405,-92.87834167480469,-15.481948852539062,64.17274475097656,113.94831399107399
1781002473.015362,-0.4331054389476776,-0.75244140625,1.44580078125,1.6864424953578014,-80.0018310546875,-4.436492919921875,83.45985412597656,115.69581968360207
1781002473.025769,-0.39697265625,-0.7587890625,1.36669921875,1.6128282257300899,-73.4710693359375,-12.432098388671875,87.42713928222656,114.87410405650873
1781002473.036176,-0.3369140326976776,-0.64892578125,1.38037109375,1.5620627680922767,-71.5179443359375,-15.239715576171875,87.24403381347656,113.83578843636087
1781002473.046871,-0.07568359375,-0.6083984375,1.3134765625,1.4495162452874313,-69.26155090332031,-17.313003540039062,79.91981506347656,107.16379689471128
1781002473.057568,-0.1279296875,-0.63720703125,1.30126953125,1.4545450142838072,-63.03596496582031,-24.698257446289062,67.59071350097656,95.66630206936189
1781002473.068265,-0.1318359375,-0.8134765625,1.2978515625,1.537382031388754,-56.32209777832031,-35.74562072753906,50.74501037597656,83.81517868146385
1781002473.078916,-0.005371086299419403,-0.861328125,1.28515625,1.5471074863751755,-31.114578247070312,-48.99024963378906,26.147842407226562,63.65431015435786
1781002473.089568,-0.119140625,-0.791015625,1.2080078125,1.4488557839138325,-15.794754028320312,-52.83546447753906,16.748428344726562,57.63306701357193
1781002473.10022,-0.16796875,-0.76708984375,1.14990234375,1.3924495429001027,-3.3416748046875,-54.729461669921875,4.4193267822265625,55.00919208993926
1781002473.10822,-0.0727538987994194,-0.71337890625,1.1171875,1.3275204344299987,8.5601806640625,-51.433563232421875,-8.275985717773438,52.7937501924775
1781002473.116219,-0.07177734375,-0.642578125,1.0732421875,1.2529594673548328,21.623611450195312,-46.91505432128906,-17.858505249023438,54.658294007844034
1781002473.124218,-0.0693359300494194,-0.52197265625,1.01708984375,1.1453098599627518,34.8052978515625,-45.391082763671875,-22.253036499023438,61.37553899088268
1781002473.132217,-0.0566406212747097,-0.4658203125,0.9687499403953552,1.0764168200711037,46.4019775390625,-51.921844482421875,-22.619247436523438,73.21647224899009
1781002473.142892,-0.0371093712747097,-0.4130859375,0.9565429091453552,1.0425888135947543,59.7686767578125,-57.04498291015625,-21.154403686523438,85.28735892224762
1781002473.153567,-0.15234375,-0.3740234375,0.9169921278953552,1.0019863834331435,73.56071472167969,-60.34278869628906,-17.919540405273438,96.81704822161002
1781002473.164242,-0.275390625,-0.23681640625,0.8862304091453552,0.957771551415576,83.9996337890625,-58.69293212890625,-17.797470092773438,104.00744540795226
1781002473.172236,-0.2260742038488388,-0.1787109375,0.8808593153953552,0.926801099668526,99.01237487792969,-45.81642150878906,-20.971298217773438,111.09631050479354
1781002473.180228,-0.2309570163488388,-0.08544921875,0.8408203125,0.876140120242385,102.06413269042969,-37.57667541503906,-24.206161499023438,111.42276235856677
1781002473.18822,-0.1171874925494194,-0.0917968675494194,0.8222655653953552,0.8356316373479699,101.81999206542969,-23.965835571289062,-24.755477905273438,107.49188688060467
1781002473.196212,-0.068359375,0.0200195275247097,0.791015625,0.7942162832798405,99.8687744140625,-10.662078857421875,-25.182723999023438,103.54526361229556
1781002473.206887,-0.0991210862994194,0.0771484300494194,0.76123046875,0.7715236202227459,94.61784362792969,-3.5190582275390625,-24.267196655273438,97.74362862669811
1781002473.217562,-0.0185546837747097,0.0537109337747097,0.66259765625,0.665029920202786,86.68327331542969,-2.2373199462890625,-20.360946655273438,89.0705541799221
1781002473.228237,-0.0820312425494194,0.0615234375,0.6201171875,0.6285376554741396,76.79939270019531,-1.8711090087890625,-16.088485717773438,78.48877079386952
1781002473.23893,-0.2124023288488388,0.2221679538488388,0.6953125,0.760218930094509,67.8253173828125,-2.300262451171875,-11.754989624023438,68.8748478508985
1781002473.249626,-0.19140625,0.18115234375,0.67626953125,0.7258050723729309,62.26921081542969,-8.340835571289062,-9.374618530273438,63.52092274354847
1781002473.260322,-0.076171875,0.2133788913488388,0.5537109375,0.5982712663344314,58.12263488769531,-9.073257446289062,-4.4918060302734375,58.99780511500896
1781002473.268294,0.00537109375,0.2724609375,0.59619140625,0.6555211697556401,34.1949462890625,-3.704071044921875,-4.7359466552734375,34.719500064650894
1781002473.276267,0.02197265625,0.328125,0.58203125,0.6685126694567899,16.065597534179688,1.9130706787109375,-6.8111419677734375,17.554341869097474
1781002473.28424,-0.010253898799419403,0.24951171875,0.60791015625,0.6572031636458145,2.6378631591796875,7.5893402099609375,-8.520126342773438,11.71106142780872
1781002473.292213,-0.0273437462747097,0.1416015625,0.69384765625,0.7086771148036285,-5.8460235595703125,13.143539428710938,-9.740829467773438,17.372748167557532
1781002473.302899,0.095703125,-0.09033203125,0.8037108778953552,0.8144139851769733,-9.5062255859375,14.423370361328125,-13.830184936523438,22.128622931606277
1781002473.313585,0.017578125,-0.0810546875,0.8623046278953552,0.866284089738456,-8.1634521484375,19.489288330078125,-18.835067749023438,28.30607863521634
1781002473.324271,-0.00390625,-0.0126953125,0.75830078125,0.7584171046283803,-13.5955810546875,17.414093017578125,-20.788192749023438,30.335448201897258
1781002473.334911,-0.16015625,0.017578125,0.7597655653953552,0.7766612706019929,-24.400711059570312,18.453598022460938,-21.215438842773438,37.22935435215968
1781002473.345552,-0.17138671875,-0.01611328125,0.72265625,0.742876235224008,-32.94181823730469,15.645980834960938,-18.529891967773438,40.90619759162344
1781002473.356193,-0.1064453050494194,-0.01904296875,0.7695311903953552,0.7770916873942031,-40.9393310546875,11.615753173828125,-14.013290405273438,44.803201414442775
1781002473.364204,-0.1064453050494194,-0.14306640625,0.8618163466453552,0.8800715964678675,-48.63166809082031,7.2841644287109375,-7.8487396240234375,49.79659532945926
1781002473.372217,-0.19482421875,-0.0068359375,0.8920897841453552,0.913141494637911,-47.0428466796875,7.404327392578125,-8.764266967773438,48.42174989968323
1781002473.38023,-0.2275390475988388,-0.09619140625,0.9511718153953552,0.9827281553008619,-39.65568542480469,10.763168334960938,-9.130477905273438,42.09257423698934
1781002473.388243,-0.2255859375,-0.27392578125,0.9809569716453552,1.0431686963529931,-28.795242309570312,12.228012084960938,-13.219833374023438,33.96254191979397
1781002473.398895,-0.095703125,-0.33544921875,0.9619140028953552,1.023212497705592,-19.0277099609375,16.19720458984375,-17.675399780273438,30.607563448848815
1781002473.409547,-0.029785148799419403,-0.31591796875,0.9072265028953552,0.9611197873438385,-10.728836059570312,21.749496459960938,-22.619247436523438,33.162914136873766
1781002473.420199,0.0166015625,-0.23779296875,0.8330077528953552,0.8664427414712117,-9.3841552734375,25.409698486328125,-29.394149780273438,39.97162979748561
1781002473.430863,0.0341796837747097,-0.1123046875,0.74267578125,0.7518962093751436,-10.6658935546875,29.804229736328125,-34.15489196777344,46.56833732082373
1781002473.441529,0.009277351200580597,-0.06640625,0.6494140625,0.6528663598755226,-16.8914794921875,25.592803955078125,-36.59629821777344,47.74518548463563
1781002473.452195,-0.06591796875,-0.0195312462747097,0.541015625,0.545366440734402,-31.6619873046875,22.968292236328125,-39.58702087402344,55.652098882395535
1781002473.460208,-0.0341796800494194,-0.03271484375,0.623046875,0.624840715684512,-75.84953308105469,16.622543334960938,-42.15049743652344,88.3522781239003
1781002473.468221,-0.1049804612994194,-0.03662109375,0.61279296875,0.6227979000538808,-93.7957763671875,11.676788330078125,-39.34288024902344,102.38094195853981
1781002473.476234,-0.1611328125,-0.12890625,0.64111328125,0.6735034104949761,-108.2000732421875,4.474639892578125,-35.49766540527344,113.96210993574898
1781002473.484247,-0.1728515625,0.0869140550494194,0.71875,0.7443341172644344,-104.4158935546875,-2.910614013671875,-31.957626342773438,109.23571019691656
1781002473.493835,0.0546875,-0.32177734375,1.2294921875,1.2720779931791095,-87.8143310546875,-14.568328857421875,-26.342391967773438,92.83056909695243
1781002473.503425,-0.07177734375,-0.59716796875,1.3828125,1.507956226199241,-103.80744934082031,-3.8242340087890625,-7.9708099365234375,104.18322857084597
1781002473.513015,0.05908203125,-0.50146484375,1.57666015625,1.6555406742934806,-62.54768371582031,2.4013519287109375,-10.046005249023438,63.394806181289205
1781002473.522605,0.0288085974752903,-0.3330078125,1.3310546875,1.3723814045629776,-28.669357299804688,-6.7539215087890625,-14.440536499023438,32.80360648023897
1781002473.532195,-0.04296875,-0.27294921875,1.07470703125,1.109658863124603,-12.9852294921875,-1.140594482421875,-17.553329467773438,21.864046197863527
1781002473.541811,0.01171875,-0.2333984375,0.9619140028953552,0.9898942916772323,-20.1873779296875,6.732940673828125,-24.023056030273438,32.09314473259017
1781002473.551427,0.0634765625,-0.314453125,0.9545897841453552,1.0070509906671845,-34.22737121582031,8.260726928710938,-24.816513061523438,43.07681360394543
1781002473.561043,0.07470703125,-0.27587890625,0.8178710341453552,0.866373672225719,-45.82405090332031,12.228012084960938,-25.182723999023438,53.6985801371976
1781002473.570659,0.0253906287252903,-0.21630859375,0.7553710341453552,0.7861421569811604,-53.20930480957031,18.392562866210938,-28.905868530273438,63.285588585354375
1781002473.580275,0.1376953125,-0.095703125,0.4394530951976776,0.4703595540626951,-60.41145324707031,22.665023803710938,-35.55870056152344,73.67270982575457
1781002473.58989,0.20703125,-0.03466796875,0.326171875,0.3878812944379106,-117.7825927734375,17.719268798828125,-54.47959899902344,130.9760984084231
1781002473.599505,0.1865234375,-0.12646484375,0.2509765625,0.3373034010588164,-151.1077880859375,9.662628173828125,-65.28282165527344,164.89019621167444
1781002473.60912,0.11962890625,-0.4892578125,0.53125,0.7320593178171128,-163.1336212158203,13.814926147460938,-76.75743103027344,180.8179575534845
1781002473.618735,-0.0937499925494194,-0.70556640625,0.8769530653953552,1.1294510585403275,-148.1170654296875,7.221221923828125,-87.07237243652344,171.96630239468473
1781002473.62835,-0.0478515587747097,-0.9921874403953552,1.224609375,1.5768303047231642,-108.01887512207031,-1.3828277587890625,-78.89366149902344,133.76920206075235
1781002473.637943,-0.0405273400247097,-0.70361328125,1.05517578125,1.2689011167846838,-72.49641418457031,3.2558441162109375,-67.54112243652344,99.1369447305861
1781002473.647539,0.01611328125,-0.46923828125,0.8686522841453552,0.9874213858196705,-55.95588684082031,-1.3828277587890625,-63.20762634277344,84.42853494311524
1781002473.657135,-3.999877691268921,0.421875,3.999877691268921,5.672391171794007,-50.21858215332031,-5.2890777587890625,-60.27793884277344,78.63402729201546
1781002473.666731,-0.4096679389476776,-1.09912109375,1.42919921875,1.8489200647414277,-0.4119873046875,77.47268676757812,-48.74229431152344,91.53140544795359
1781002473.676327,0.0625,-0.65576171875,0.8779296278953552,1.0975837614115977,46.27799987792969,23.824691772460938,-17.980575561523438,55.06877798061331
1781002473.685961,-0.0703125,-0.4428710639476776,0.8857421278953552,0.9927828282494564,62.81852722167969,21.383285522460938,-16.759872436523438,68.44198701180831
1781002473.695596,-0.0429687462747097,-0.3623046875,0.8623046278953552,0.9363120585737642,56.71501159667969,14.486312866210938,-8.153915405273438,59.101033301505105
1781002473.705231,0.09912109375,-0.35595703125,0.9951171278953552,1.0615029427906502,55.6793212890625,13.935089111328125,-3.9424896240234375,57.53187596617059
1781002473.714866,0.17431640625,-0.35888671875,1.04833984375,1.1216961773924483,63.3697509765625,12.90130615234375,-4.4307708740234375,64.82129873587957
1781002473.724501,0.04931640625,-0.34521484375,0.9262694716453552,0.9897376068296675,72.89314270019531,3.6830902099609375,-3.7593841552734375,73.08288702174174
1781002473.732597,-0.00439453125,-0.4521484375,0.8134765028953552,0.9306994908140089,69.7174072265625,-1.01470947265625,7.5931549072265625,70.13702664893476
1781002473.740693,-0.0014648400247097015,-0.36962890625,0.8471679091453552,0.9242949423087752,70.0836181640625,-11.81793212890625,10.034561157226562,71.77791772117429
1781002473.748789,0.06396484375,-0.26708984375,0.80712890625,0.8525758366120181,74.6612548828125,-14.873504638671875,13.513565063476562,77.31843610444861
1781002473.756885,0.005859375,-0.24609375,0.8852538466453552,0.9188421186824487,82.1685791015625,-13.896942138671875,22.302627563476562,86.26823047107476
1781002473.764734,-0.02783203125,-0.025390625,0.7504882216453552,0.7514332150163442,88.5772705078125,-18.291473388671875,17.847061157226562,92.19017540547618
1781002473.772583,-0.013671871274709702,-0.0869140625,0.7998046278953552,0.8046293663092553,85.40153503417969,-18.228530883789062,22.058486938476562,90.06818733820734
1781002473.780432,-0.0551757737994194,-0.2373046875,0.8242186903953552,0.8594732865661805,75.26969909667969,-19.876480102539062,11.804580688476562,78.73976243678976
1781002473.788281,0.0615234412252903,-0.11572265625,0.9877929091453552,0.9964495463131093,70.6939697265625,-4.436492919921875,5.5179595947265625,71.0476438963157
1781002473.797886,-0.0322265587747097,-0.23876953125,1.03466796875,1.0623498697232732,76.4312744140625,0.324249267578125,-10.229110717773438,77.11342005268419
1781002473.807491,0.064453125,-0.14990234375,0.9541015028953552,0.9679538190488141,66.9708251953125,20.526885986328125,-12.975692749023438,71.23772229622362
1781002473.817096,-0.015624996274709702,-0.2158203125,1.03662109375,1.058964513004864,56.22673034667969,37.49656677246094,-18.651962280273438,70.10943889452115
1781002473.826701,-0.11962890625,-0.2841796875,1.001953125,1.0483221044580882,45.24040222167969,36.94725036621094,-24.328231811523438,63.274451130595004
1781002473.836306,-0.3374023139476776,-0.2158203125,0.9614257216453552,1.0415172331681013,42.12760925292969,12.411117553710938,-26.342391967773438,51.21223403527104
1781002473.844301,-0.162109375,-0.22802734375,1.07763671875,1.1133628413768972,32.78923034667969,-1.0166168212890625,-24.267196655273438,40.80519537993492
1781002473.852296,-0.14892578125,-0.2138671875,1.1572265625,1.1862088261202786,28.028488159179688,-7.9135894775390625,-21.215438842773438,36.03215081284703
1781002473.860291,-0.1826171875,-0.220703125,1.13671875,1.1722578313480094,28.6407470703125,-18.840789794921875,-20.971298217773438,40.187847687837596
1781002473.868286,-0.1611328125,-0.2626953125,1.17724609375,1.2169145309853386,29.005050659179688,-29.886245727539062,-20.788192749023438,46.54706870683671
1781002473.876281,-0.16943359375,-0.26611328125,1.15234375,1.1947468934099574,35.77995300292969,-38.55323791503906,-20.727157592773438,56.534699543741525
1781002473.884276,-0.0585937425494194,-0.26318359375,1.10205078125,1.1345548709246494,42.2515869140625,-37.944793701171875,-21.886825561523438,60.86080100476518
1781002473.893873,-0.0366210900247097,-0.2763671875,1.0263671875,1.0635551373285346,47.99079895019531,-29.520034790039062,-21.825790405273438,60.422796730192076
1781002473.90347,0.0185546912252903,-0.244140625,0.9335936903953552,0.9651663587630243,56.35261535644531,-21.219253540039062,-22.680282592773438,64.34492362879918
1781002473.913067,-0.0922851487994194,-0.212890625,0.701171875,0.7385668319067931,44.8150634765625,-22.075653076171875,-19.567489624023438,53.65268887329029
1781002473.922664,-0.095703125,-0.177734375,0.9165038466453552,0.9384710422315327,39.1998291015625,-6.694793701171875,-14.989852905273438,42.49873591549155
1781002473.932261,-0.0971679612994194,-0.03662109375,0.9008788466453552,0.9068436544099524,32.0587158203125,3.498077392578125,-10.229110717773438,33.83241805677638
1781002473.941851,-0.012207027524709702,-0.10595703125,0.72705078125,0.7348324588016902,18.201828002929688,3.3168792724609375,-5.6514739990234375,19.345474641836894
1781002473.951443,-0.052734375,-0.2685546875,0.9462890028953552,0.9850712722872131,0.5016326904296875,-0.7114410400390625,-6.8111419677734375,6.866544881869207
1781002473.961035,-0.00927734375,-0.17431640625,0.8330077528953552,0.8511017535986751,-1.6956329345703125,-2.8476715087890625,-11.022567749023438,11.510056639851088
1781002473.970627,-0.0214843712747097,-0.2568359375,0.9506835341453552,0.985000233043463,-7.0648193359375,2.76947021484375,-3.3321380615234375,8.287628224130003
1781002473.980219,0.10546875,-0.22705078125,0.7353515625,0.7767996105585978,-8.592605590820312,0.7534027099609375,-1.9893646240234375,8.852008703683525
1781002473.989824,-0.13232421875,0.0971679612994194,0.7529296875,0.770619507856978,-25.9857177734375,-10.173797607421875,7.6541900634765625,28.937005917775114
1781002473.999429,-0.0678710862994194,-0.07958984375,0.7626953125,0.7698345064317949,-33.18977355957031,-17.618179321289062,13.330459594726562,39.87057140974139
1781002474.009034,-0.15185546875,-0.13720703125,0.8154296278953552,0.8407207210859491,-31.114578247070312,-17.496109008789062,14.612197875976562,38.57132531696551
1781002474.018639,-0.25,-0.1240234375,1.03271484375,1.0697578050899668,-6.5765380859375,-16.704559326171875,24.133682250976562,30.078693031255256
1781002474.028244,-0.12451171875,-0.24462890625,1.171875,1.203593571561493,3.5552978515625,2.643585205078125,27.551651000976562,27.905593676348218
1781002474.036246,-0.0571289025247097,-0.3349609375,1.1669921875,1.2154560077767487,8.069992065429688,20.040512084960938,21.020889282226562,30.14340197753384
1781002474.044248,-0.0932617112994194,-0.4560546875,1.13623046875,1.2278857043312557,16.798019409179688,21.078109741210938,13.025283813476562,29.935233166877513
1781002474.05225,0.01025390625,-0.32763671875,1.13916015625,1.1853846732829705,25.953292846679688,25.350570678710938,8.935928344726562,37.364095850213225
1781002474.060252,-0.07421875,-0.41259765625,1.03173828125,1.1136557501271476,25.5889892578125,26.874542236328125,10.705947875976562,38.62194598375068
1781002474.070902,-0.0454101525247097,-0.40380859375,0.8593749403953552,0.9506044132646294,20.215988159179688,20.895004272460938,10.766983032226562,31.00347245736369
1781002474.081552,-0.0561523400247097,-0.63720703125,0.7988280653953552,1.0233827065316157,12.037277221679688,9.786605834960938,14.429092407226562,21.186609081604903
1781002474.092202,0.03955078125,-0.55322265625,0.8525390028953552,1.0170753773165475,11.671066284179688,0.6923675537109375,13.513565063476562,17.86923618300351
1781002474.102969,0.06689453125,-0.41650390625,1.00048828125,1.0857841328511137,16.7999267578125,-4.253387451171875,7.2879791259765625,18.800092649195133
1781002474.113738,-0.0019531212747097015,-0.3955078125,1.005859375,1.080825298883515,23.8800048828125,-1.01470947265625,0.1468658447265625,23.90200489694106
1781002474.124507,-0.0483398400247097,-0.36865234375,0.9970702528953552,1.0641383274249594,28.8848876953125,1.667022705078125,-5.3462982177734375,29.42275660952639
1781002474.132438,-0.0883788987994194,-0.359375,0.9687499403953552,1.03703310814747,32.11784362792969,3.9272308349609375,-12.731552124023438,34.77170460052163
1781002474.14037,-0.115234375,-0.29296875,0.9042968153953552,0.9575293102523725,29.985427856445312,3.5610198974609375,-13.341903686523438,33.01231801047401
1781002474.148302,-0.150390625,-0.27392578125,0.9179686903953552,0.969700567323479,26.380538940429688,3.1948089599609375,-11.144638061523438,28.815665819143078
1781002474.156234,-0.076171875,-0.34130859375,0.8686522841453552,0.9364029589122201,21.497726440429688,4.0493011474609375,-7.6656341552734375,23.179970424762686
1781002474.166934,-0.0825195237994194,-0.28271484375,0.8735350966453552,0.9218463645076005,17.6544189453125,4.23431396484375,-4.8580169677734375,18.793835476258014
1781002474.177634,-0.0673827975988388,-0.34326171875,0.9116210341453552,0.9764332843915641,16.553878784179688,5.2700042724609375,-2.3555755615234375,17.53147409829297
1781002474.188334,-0.0473632775247097,-0.375,0.9604491591453552,1.0321486653389145,17.408370971679688,6.6738128662109375,1.5506744384765625,18.708173328119646
1781002474.196459,-0.0600585900247097,-0.33984375,1.03662109375,1.0925585113197667,20.647048950195312,13.021469116210938,7.4710845947265625,25.527953175250012
1781002474.204584,-0.052734375,-0.33154296875,0.9565429091453552,1.013743553109199,23.5137939453125,16.437530517578125,9.851455688476562,30.333844042602713
1781002474.212709,0.02197265625,-0.2861328125,0.9809569716453552,1.0220720934608611,23.939132690429688,15.218734741210938,10.522842407226562,30.255944431147174
1781002474.220834,-0.0483398362994194,-0.35595703125,0.9702147841453552,1.0345814976327319,23.759841918945312,15.523910522460938,6.6165924072265625,29.14277236307508
1781002474.231306,-0.1552734375,-0.30712890625,0.9633788466453552,1.0230038160295996,21.9268798828125,19.001007080078125,4.9076080322265625,29.42636484600912
1781002474.241778,-0.2294921725988388,-0.3720703125,0.9155272841453552,1.0145408728792316,21.0723876953125,20.526885986328125,6.0672760009765625,30.03681756693438
1781002474.25225,-0.2368163913488388,-0.40576171875,0.9277343153953552,1.0399113113994525,19.1192626953125,19.855499267578125,9.912490844726562,29.292397169298923
1781002474.260252,-0.013671875,-0.33154296875,0.9799804091453552,1.0346348450551417,18.9361572265625,15.583038330078125,10.705947875976562,26.758670632692244
1781002474.268252,-0.0219726525247097,-0.34716796875,0.9414061903953552,1.003620451814165,18.690109252929688,10.824203491210938,7.7762603759765625,22.95547408660022
1781002474.276252,-0.0727538987994194,-0.322265625,0.8955077528953552,0.9545063636995017,16.431808471679688,9.054183959960938,2.9544830322265625,18.99240760984486
1781002474.284252,-0.01416015625,-0.41552734375,0.8310546875,0.9292552808807049,13.078689575195312,6.0024261474609375,-0.0972747802734375,14.390646373353858
1781002474.292265,0.1396484375,-0.3955078125,0.595703125,0.728553586896319,8.253097534179688,3.0727386474609375,-3.5762786865234375,9.505004521196437
1781002474.300278,0.119140625,-0.45068359375,0.8344725966453552,0.9558528677327109,-6.0291290283203125,3.2558441162109375,-14.318466186523438,15.873543765769982
1781002474.308291,0.0468750037252903,-0.37158203125,0.9121093153953552,0.9860090644375971,-9.447097778320312,2.5234222412109375,-22.924423217773438,24.92277063466605
1781002474.316304,-0.0400390587747097,-0.328125,1.099609375,1.1482203270454914,-12.8021240234375,-3.948211669921875,-33.23936462402344,35.837663365665506
1781002474.326974,-0.58349609375,-0.20458984375,1.3779296875,1.5103029230194205,-5.2947998046875,0.14495849609375,-38.61045837402344,38.97208505827607
1781002474.337644,-0.30859375,-0.17822265625,1.4169921875,1.4611161066718494,15.3350830078125,23.761749267578125,-35.31455993652344,45.2427192222357
1781002474.348314,-0.010253902524709702,-0.26416015625,1.25537109375,1.2829038598780822,25.9552001953125,42.438507080078125,-11.816024780273438,51.13039939187476
1781002474.356312,-0.080078125,0.1240234375,0.7607421278953552,0.7749341290119987,35.41374206542969,49.76463317871094,-13.280868530273438,62.50626617713498
1781002474.36431,-0.18701171875,-0.3173828125,0.7695311903953552,0.8531608790911195,32.85026550292969,60.07957458496094,-2.7828216552734375,68.5305721724831
1781002474.372308,-0.08642578125,-0.4453125,1.13525390625,1.222527737917143,31.5704345703125,49.640655517578125,-7.1773529052734375,59.265516229086195
1781002474.380306,-0.17626953125,-0.18212890625,1.14111328125,1.1689231825847486,36.2091064453125,39.142608642578125,-11.877059936523438,54.628817977783235
1781002474.391073,-0.16552734375,-0.31005859375,0.9418944716453552,1.0053361770090845,37.9791259765625,32.978057861328125,-8.947372436523438,51.08837229513747
1781002474.40184,-0.1601562350988388,-0.177734375,0.8979491591453552,0.9292751046420675,35.1715087890625,24.616241455078125,-10.778427124023438,44.26249953563052
1781002474.412607,-0.21630859375,-0.24072265625,1.07861328125,1.1261187394991035,24.488449096679688,12.228012084960938,-18.774032592773438,33.191455504468955
1781002474.420564,-0.21484375,-0.1943359375,1.2099609375,1.2441582551243011,24.3072509765625,-17.681121826171875,-21.764755249023438,37.110228914942354
1781002474.428523,-0.1875,-0.21044921875,1.130859375,1.1654561552018488,27.235031127929688,-30.008316040039062,-17.431259155273438,44.11456389715837
1781002474.436482,-0.1484375,0.22802734375,1.00390625,1.0401239924609917,17.8375244140625,-18.352508544921875,4.6024322509765625,26.003350356031728
1781002474.444441,-0.0927734300494194,-0.1796875,0.82080078125,0.8453451540524703,19.2413330078125,-17.314910888671875,-15.905380249023438,30.38118094916996
1781002474.455042,0.01513671875,-0.3466796875,1.0595703125,1.1149462646742048,24.793624877929688,-24.637222290039062,-40.92979431152344,53.82345788910174
1781002474.465643,0.0424804724752903,-0.27392578125,1.16015625,1.1928128304932042,29.371261596679688,-7.4253082275390625,-35.49766540527344,46.667873952852155
1781002474.476244,0.12939453125,-0.49951171875,1.0703125,1.188201897634504,33.7066650390625,22.357940673828125,-25.732040405273438,47.93907260939245
1781002474.48693,-0.012695308774709702,-0.1708984375,0.8447265028953552,0.8619340528710089,38.0401611328125,31.452178955078125,-34.15489196777344,60.02374584581399
1781002474.497617,-0.015136715024709702,-0.1728515625,0.6005859375,0.6251481833319078,31.5093994140625,30.292510986328125,-39.40391540527344,58.84850909375426
1781002474.508304,-0.0820312425494194,-0.060546875,0.8676757216453552,0.8736453552553549,25.224685668945312,36.45896911621094,-38.42735290527344,58.67028760301372
1781002474.518963,-0.2236327975988388,-0.1826171875,1.1669921875,1.2021777867762857,29.3121337890625,11.43646240234375,-42.02842712402344,52.50126232832379
1781002474.529622,-0.2021484225988388,-0.28857421875,1.13330078125,1.1868065239407104,38.22135925292969,-11.697769165039062,-43.18809509277344,58.84659433070442
1781002474.540281,-0.1259765625,-0.20458984375,0.9921874403953552,1.0208638573988464,42.67692565917969,-15.970230102539062,-41.60118103027344,61.701106119426875
1781002474.550931,-0.0625,-0.06494140625,0.796875,0.8019559849958896,40.17448425292969,-5.7773590087890625,-41.72325134277344,58.208219047807816
1781002474.561582,-0.146484375,-0.0947265625,0.8203124403953552,0.8386556466331042,34.0118408203125,4.962921142578125,-41.72325134277344,54.05798372919554
1781002474.572233,-0.201171875,-0.1025390625,0.8969725966453552,0.9249563350570154,29.066085815429688,3.6830902099609375,-41.41807556152344,50.733218716583494
1781002474.580307,-0.1894531100988388,-0.09814453125,0.9204100966453552,0.9448172182740517,25.3448486328125,-15.483856201171875,-37.20664978027344,47.607204737840554
1781002474.588381,-0.16162109375,-0.0810546875,0.8950194716453552,0.9130997179580113,23.5137939453125,-17.498016357421875,-34.15489196777344,45.00706308433703
1781002474.596455,-0.1435546875,-0.05517578125,0.8608397841453552,0.8744698102891788,21.6217041015625,-15.544891357421875,-30.920028686523438,40.806738531093195
1781002474.604529,-0.1552734375,-0.05078125,0.865234375,0.8805220607266291,20.032882690429688,-14.932632446289062,-27.563095092773438,37.20247453809697
1781002474.61512,-0.1708984375,-0.0478515625,0.9179686903953552,0.9349666114465245,18.9361572265625,-17.55523681640625,-24.572372436523438,35.64499792885977
1781002474.625711,-0.185546875,-0.0517578125,0.9306640028953552,0.9503904462178987,18.4478759765625,-20.488739013671875,-20.849227905273438,34.56592048048228
1781002474.636302,-0.15966796875,-0.0546875,0.9213866591453552,0.9367165838993351,18.4478759765625,-20.915985107421875,-17.553329467773438,32.95332967189702
1781002474.644266,-0.13671875,-0.02734375,0.9404296278953552,0.9507089892753835,18.445968627929688,-18.228530883789062,-13.769149780273438,29.361924025435084
1781002474.652231,-0.12646484375,-0.0205078125,0.9526366591453552,0.9612130520471883,17.351150512695312,-14.627456665039062,-10.168075561523438,24.867944692448
1781002474.660196,-0.13720703125,-0.01416015625,0.9653319716453552,0.9751369621392535,16.1895751953125,-12.432098388671875,-6.8111419677734375,21.518621476652733
1781002474.668161,-0.12646484375,-0.01708984375,0.9643554091453552,0.9727624451077543,16.065597534179688,-11.514663696289062,-3.3321380615234375,20.044801027446766
1781002474.678855,-0.1171874925494194,-0.0263671875,0.9477538466453552,0.9553352766530439,16.309738159179688,-10.354995727539062,-0.4024505615234375,19.323443321334445
1781002474.689549,-0.1030273362994194,-0.0185546875,0.9682616591453552,0.9739042812433326,16.4947509765625,-8.70513916015625,3.3817291259765625,18.955008558636255
1781002474.700243,-0.0976562425494194,-0.0390625,0.9746093153953552,0.9802682991255629,16.065597534179688,-7.3032379150390625,6.1283111572265625,18.681458878087977
1781002474.710886,-0.08447265625,-0.0532226525247097,0.9697265028953552,0.9748526918531599,15.760421752929688,-4.9839019775390625,11.072158813476562,19.895297774669867
1781002474.72153,-0.0844726487994194,-0.05615234375,0.9750975966453552,0.9803591367898583,15.272140502929688,-4.4956207275390625,14.123916625976562,21.28224382260107
1781002474.732174,-0.0810546875,-0.0302734337747097,0.9677733778953552,0.9716334978381614,14.600753784179688,-4.6176910400390625,16.992568969726562,22.874712715101115
1781002474.740197,-0.064453125,-0.0537109337747097,0.9716796278953552,0.9752950163904627,13.6260986328125,-5.901336669921875,18.823623657226562,23.97551138207064
1781002474.748219,-0.0727538987994194,-0.04736328125,0.9448241591453552,0.9488040376737497,12.464523315429688,-6.6928863525390625,21.509170532226562,25.744970114437837
1781002474.756241,-0.0615234337747097,-0.0673828125,0.9130858778953552,0.9176335852265722,10.5743408203125,-7.976531982421875,23.462295532226562,26.942922222585004
1781002474.764263,-0.0468749962747097,-0.07958984375,0.8891600966453552,0.8939449009700099,8.0718994140625,-8.342742919921875,24.438858032226562,27.055770207073646
1781002474.775284,-0.0385742112994194,-0.083984375,0.8769530653953552,0.8818095168049748,5.4454803466796875,-7.9135894775390625,24.621963500976562,26.429514586320227
1781002474.786305,-0.024902336299419403,-0.09033203125,0.8862304091453552,0.891170208387188,1.9683837890625,-6.877899169921875,24.194717407226562,25.230227548482556
1781002474.797326,-0.0297851525247097,-0.107421875,0.8876952528953552,0.8946672434779226,-1.4514923095703125,-4.4956207275390625,23.767471313476562,24.232418952460193
1781002474.807623,-0.0283203125,-0.1201171875,0.8823241591453552,0.8909130713176039,-7.8582763671875,-2.788543701171875,21.875381469726562,23.410698363835692
1781002474.81792,-0.0351562462747097,-0.13427734375,0.8979491591453552,0.9086138118620771,-9.992599487304688,-2.5424957275390625,20.959854125976562,23.358763109814976
1781002474.828217,-0.0336913987994194,-0.1181640625,0.9091796278953552,0.9174450674560859,-12.681961059570312,-2.5424957275390625,19.250869750976562,23.192507561927766
1781002474.836356,-0.0273437462747097,-0.14892578125,0.8930663466453552,0.9058112763107669,-14.329910278320312,-1.3828277587890625,18.701553344726562,23.60098808738399
1781002474.844498,-0.02392578125,-0.16015625,0.8901366591453552,0.9047462292692574,-15.855789184570312,0.6923675537109375,16.687393188476562,23.029427151403105
1781002474.85264,-0.0449218712747097,-0.11767578125,0.9262694716453552,0.9347944683799669,-16.4642333984375,4.474639892578125,14.795303344726562,22.583055254525537
1781002474.860782,-0.0498046837747097,-0.10888671875,0.9980468153953552,1.0052035961768395,-16.2811279296875,8.563995361328125,12.781143188476562,22.400329560433722
1781002474.871259,-0.0576171875,-0.109375,1.02001953125,1.0274835643706812,-14.265060424804688,12.044906616210938,11.011123657226562,21.67525244400409
1781002474.881736,-0.0771484300494194,-0.08544921875,1.04736328125,1.0536713397235602,-10.7269287109375,13.141632080078125,8.996963500976562,19.201949003566753
1781002474.892213,-0.08984375,-0.0693359375,1.03759765625,1.0437855468910076,-6.9446563720703125,12.716293334960938,8.203506469726562,16.650221821518006
1781002474.900227,-0.115234375,-0.07177734375,1.02099609375,1.0299825103904459,-1.9397735595703125,7.3451995849609375,7.0438385009765625,10.36003567721454
1781002474.908241,-0.0942382737994194,-0.0595703125,0.9843749403953552,0.9906682076550156,-0.5340576171875,5.634307861328125,6.7386627197265625,8.80001237868064
1781002474.916255,-0.1083984300494194,-0.01611328125,0.9926757216453552,0.9987066365124181,-0.2918243408203125,6.2465667724609375,5.2738189697265625,8.180337671157346
1781002474.924269,-0.10498046875,-0.0283203162252903,0.9887694716453552,0.9947301177645649,-0.7171630859375,8.014678955078125,3.2596588134765625,8.681864847201838
1781002474.934923,-0.0961913987994194,-0.021484375,1.00439453125,1.0092188751589204,-0.5340576171875,10.517120361328125,1.2454986572265625,10.604070215643226
1781002474.945577,-0.09033203125,-0.010742183774709702,0.9921874403953552,0.9963489284684794,-0.5950927734375,12.775421142578125,-1.3179779052734375,12.857005348759044
1781002474.956231,-0.1020507737994194,-0.01171875,0.9663085341453552,0.971752989548665,-0.6542205810546875,15.157699584960938,-3.3321380615234375,15.533415765299456
1781002474.964221,-0.1083984300494194,-0.0009765625,0.9682616591453552,0.9743109431195008,-0.3509521484375,16.742706298828125,-6.5670013427734375,17.98796509489887
1781002474.972211,-0.115234375,-0.0170898474752903,0.9653319716453552,0.9723357648205059,0.0133514404296875,19.369125366210938,-9.069442749023438,21.387332407076187
1781002474.980201,-0.1206054612994194,-0.01025390625,0.9482421278953552,0.9559361657580179,-0.2918243408203125,22.298812866210938,-11.449813842773438,25.068315733657812
1781002474.988191,-0.1235351487994194,-0.02294921875,0.9321288466453552,0.9405592944511952,-1.5716552734375,25.592803955078125,-14.074325561523438,29.24975819717726
1781002474.99886,-0.1337890625,-0.03515625,0.8896483778953552,0.9003386648647986,-1.8768310546875,28.217315673828125,-16.088485717773438,32.53580752548345
1781002475.009529,-0.13916015625,-0.05078125,0.8779296278953552,0.8903396632609174,-2.1820068359375,30.292510986328125,-17.492294311523438,35.04822015409403
1781002475.020198,-0.1708984375,-0.05615234375,0.9077147841453552,0.9253677598688039,-1.9989013671875,31.513214111328125,-18.529891967773438,36.611953876288936
1781002475.028204,-0.171875,-0.080078125,0.9160155653953552,0.9354346785185419,-1.4514923095703125,31.820297241210938,-18.835067749023438,37.005376954627295
1781002475.036209,-0.1982421725988388,-0.08544921875,0.8940429091453552,0.9197359682945878,-0.3509521484375,32.184600830078125,-19.506454467773438,37.6360659993214
1781002475.044214,-0.18408203125,-0.0703125,0.8906249403953552,0.912163815517589,0.0743865966796875,32.36961364746094,-18.896102905273438,37.48146376621834
1781002475.052219,-0.2021484225988388,-0.0791015625,0.8984374403953552,0.9242893898846278,-0.3509521484375,32.123565673828125,-18.835067749023438,37.23984984021209
1781002475.063061,-0.20166015625,-0.07275390625,0.9038085341453552,0.9288863309831746,-1.1425018310546875,31.881332397460938,-17.980575561523438,36.62001861543778
1781002475.073903,-0.19482421875,-0.0693359375,0.8945311903953552,0.9181230849023909,-2.3670196533203125,31.087875366210938,-17.126083374023438,35.571920225906716
1781002475.084745,-0.2216796725988388,-0.08251953125,0.8906249403953552,0.9215010226448358,-3.8928985595703125,30.599594116210938,-16.149520874023438,34.81805341676175
1781002475.092623,-0.2197265625,-0.08154296875,0.8974608778953552,0.9275586479427226,-5.6629180908203125,28.463363647460938,-12.670516967773438,31.66660246476681
1781002475.1005,-0.2216796725988388,-0.08251953125,0.9350585341453552,0.9645132516245221,-6.4544677734375,26.935577392578125,-10.778427124023438,29.721372360269523
1781002475.108377,-0.2299804538488388,-0.12646484375,0.8837890028953552,0.9219367480993454,-6.5174102783203125,25.472640991210938,-9.374618530273438,27.914432618113896
1781002475.116254,-0.2221679538488388,-0.10107421875,0.9282225966453552,0.9597769461371473,-5.7239532470703125,23.946762084960938,-8.520126342773438,26.05385975292704
1781002475.126984,-0.2177734225988388,-0.0712890625,1.05322265625,1.0778614742446484,-5.3577423095703125,23.153305053710938,-7.7266693115234375,24.989644979783012
1781002475.137714,-0.2211913913488388,-0.08837890625,1.12841796875,1.153283822341516,-3.8928985595703125,23.397445678710938,-7.4825286865234375,24.87133609253793
1781002475.148444,-0.2167968600988388,-0.10791015625,1.1474609375,1.1727370052398765,-0.6561279296875,24.250030517578125,-8.275985717773438,25.63174640098439
1781002475.159167,-0.2451171875,-0.09912109375,1.16064453125,1.1903794163016423,2.0904541015625,25.84075927734375,-8.825302124023438,27.38614240744138
1781002475.169889,-0.26318359375,-0.11474609375,1.13134765625,1.167210259273117,4.8351287841796875,26.937484741210938,-8.947372436523438,28.793437239420278
1781002475.180611,-0.2495117038488388,-0.11669921875,1.08447265625,1.1189082804986035,7.5244903564453125,26.449203491210938,-8.459091186523438,28.77037615578986
1781002475.19115,-0.2499999850988388,-0.12109375,1.013671875,1.0510444134309918,9.9029541015625,23.090362548828125,-8.947372436523438,26.66999842691854
1781002475.201688,-0.2456054538488388,-0.13134765625,0.9873046278953552,1.0258385223933872,10.328292846679688,21.566390991210938,-8.764266967773438,25.467532840755574
1781002475.212226,-0.2475585788488388,-0.13623046875,0.9594725966453552,1.0002158038597881,9.4757080078125,19.062042236328125,-8.764266967773438,23.02092248263053
1781002475.22023,-0.2646484375,-0.142578125,0.9296874403953552,0.9770803723484441,9.046554565429688,14.852523803710938,-8.825302124023438,19.50188632992689
1781002475.228233,-0.2548828125,-0.14404296875,0.9511718153953552,0.9952092480261221,8.9874267578125,11.310577392578125,-8.642196655273438,16.834208140241195
1781002475.236236,-0.25341796875,-0.1689453125,0.9501952528953552,0.9978147143262454,9.534835815429688,7.3451995849609375,-7.3604583740234375,14.108203232369556
1781002475.244239,-0.26123046875,-0.17333984375,0.9653319716453552,1.014964962309206,10.511398315429688,2.7675628662109375,-6.0787200927734375,12.453904477324985
1781002475.25226,-0.2509765625,-0.15234375,0.9257811903953552,0.9712201941775201,11.4898681640625,-1.811981201171875,-5.1631927490234375,12.72630762100718
1781002475.260281,-0.2353515625,-0.1259765625,0.8959960341453552,0.9349167585805233,11.365890502929688,-5.5942535400390625,-4.1866302490234375,13.341926863720431
1781002475.268302,-0.2377929538488388,-0.1279296875,0.8872069716453552,0.9273875696709147,10.2081298828125,-8.342742919921875,-2.9659271240234375,13.513104707553111
1781002475.276323,-0.1997070163488388,-0.140625,0.8984374403953552,0.9310467857783049,7.7056884765625,-10.662078857421875,-2.0503997802734375,13.313966340600986
1781002475.286971,-0.2128906100988388,-0.16357421875,0.9311522841453552,0.9690838525004124,5.8746337890625,-12.30621337890625,-1.0128021240234375,13.674062235677896
1781002475.297619,-0.208984375,-0.173828125,0.9628905653953552,1.0005243260223826,4.4116973876953125,-14.627456665039062,-0.0972747802734375,15.278580585613003
1781002475.308267,-0.2036132663488388,-0.1708984375,0.9736327528953552,1.009269723950824,3.6144256591796875,-17.251968383789062,0.8182525634765625,17.645510001658494
1781002475.316287,-0.1840820163488388,-0.171875,0.9731444716453552,1.0052051368063992,3.7975311279296875,-19.388198852539062,1.6117095947265625,19.822237644396395
1781002475.324307,-0.1611328125,-0.15869140625,0.9575194716453552,0.9838649725758931,3.0670166015625,-20.610809326171875,1.7337799072265625,20.90975955578581
1781002475.332327,-0.1572265625,-0.16845703125,0.9355468153953552,0.9635070353295406,2.2754669189453125,-21.036148071289062,1.4896392822265625,21.211230529310775
1781002475.340347,-0.15087890625,-0.15283203125,0.9130858778953552,0.9380020759780486,0.6256103515625,-20.427703857421875,1.4286041259765625,20.487151655300156
1781002475.350987,-0.16162109375,-0.16162109375,0.8876952528953552,0.9166491247488546,-1.4495849609375,-18.840789794921875,0.6961822509765625,18.909292064537564
1781002475.361627,-0.1928710788488388,-0.15380859375,0.8749999403953552,0.9091101320849652,-4.1351318359375,-17.681121826171875,0.0247955322265625,18.158248790864544
1781002475.372267,-0.2075195163488388,-0.15478515625,0.8740233778953552,0.9115589171132055,-7.4920654296875,-15.056610107421875,0.0858306884765625,16.817845261409722
1781002475.380275,-0.2495117038488388,-0.14208984375,0.9301757216453552,0.9734847133842973,-11.8255615234375,-14.507293701171875,5.0907135009765625,19.396413065968968
1781002475.388285,-0.27392578125,-0.1455078125,0.9663085341453552,1.014869469584194,-11.8255615234375,-17.55523681640625,8.447647094726562,22.790194963223833
1781002475.396295,-0.2470702975988388,-0.14306640625,0.9882811903953552,1.0286940457891887,-9.8724365234375,-19.87457275390625,11.743545532226562,25.107260040217326
1781002475.41496,-0.1904296725988388,-0.1513671875,0.9863280653953552,1.0158831321782567,-7.1258544921875,-19.145965576171875,13.879776000976562,24.698056237790702
1781002475.425613,-0.1733398288488388,-0.14208984375,0.9648436903953552,0.9905349902239559,-4.5642852783203125,-17.740249633789062,14.551162719726562,23.394133744744742
1781002475.436266,-0.15380859375,-0.125,0.9394530653953552,0.9601323583715331,-3.7689208984375,-16.826629638671875,14.917373657226562,22.800619872385635
1781002475.444285,-0.13037109375,-0.14892578125,0.9057616591453552,0.927135207822592,-5.5389404296875,-16.216278076171875,13.147354125976562,21.598621628270454
1781002475.452303,-0.10888671875,-0.1513671875,0.8925780653953552,0.9118464485848025,-8.165359497070312,-14.871597290039062,11.377334594726562,20.42746298867912
1781002475.460321,-0.0888671875,-0.17138671875,0.9033202528953552,0.9237197971619858,-10.5438232421875,-14.507293701171875,10.034561157226562,20.55057655426423
1781002475.468339,-0.09326171875,-0.1708984375,0.9287108778953552,0.9488982658037198,-12.437820434570312,-15.726089477539062,7.8372955322265625,21.527481707752955
1781002475.478971,-0.09375,-0.1708984375,0.9770507216453552,0.9963048986668944,-12.742996215820312,-17.618179321289062,6.0672760009765625,22.574233834740316
1781002475.489603,-0.0869140475988388,-0.1669921875,1.015625,1.032925255273124,-11.5203857421875,-19.451141357421875,4.1141510009765625,22.978085782197812
1781002475.500235,-0.0810546875,-0.171875,1.0048828125,1.0226926932606064,-10.4217529296875,-20.305633544921875,1.7337799072265625,22.889685025242464
1781002475.508278,-0.0732421875,-0.142578125,0.9423827528953552,0.9559174612449178,-9.8724365234375,-19.817352294921875,-0.4024505615234375,22.143947736228483
1781002475.516322,-0.0810546875,-0.138671875,0.9433593153953552,0.9569360214899069,-10.6658935546875,-18.53179931640625,-1.6841888427734375,21.44820186592811
1781002475.524366,-0.1020507737994194,-0.13623046875,0.9174804091453552,0.9331363256322376,-12.4969482421875,-17.131805419921875,-3.8204193115234375,21.546880888653906
1781002475.53241,-0.1181640550494194,-0.11328125,0.9604491591453552,0.9742987082051914,-14.818191528320312,-15.970230102539062,-4.6749114990234375,22.28187261479004
1781002475.543102,-0.1240234375,-0.0966796875,1.0078125,1.0200072598666463,-16.283035278320312,-15.298843383789062,-4.7359466552734375,22.839024442351427
1781002475.553794,-0.1337890625,-0.10498046875,1.03759765625,1.051441538231723,-16.7083740234375,-15.056610107421875,-4.3697357177734375,22.912133481567896
1781002475.564486,-0.13427734375,-0.11181640625,1.041015625,1.0555789147407981,-15.9149169921875,-16.887664794921875,-4.4307708740234375,23.624342014793903
1781002475.572475,-0.13671875,-0.12744140625,1.02099609375,1.0379625966677695,-13.105392456054688,-19.205093383789062,-3.1490325927734375,23.462807367781522
1781002475.580463,-0.15234375,-0.11767578125,0.9912108778953552,1.0097302670094332,-13.9617919921875,-20.610809326171875,-1.9893646240234375,24.973879721025334
1781002475.588451,-0.13232421875,-0.1357421875,0.9575194716453552,0.9761040820092308,-15.367507934570312,-22.256851196289062,-1.2569427490234375,27.07596037755924
1781002475.596439,-0.109375,-0.138671875,0.9736327528953552,0.9895218628467001,-17.992019653320312,-23.843765258789062,-0.1583099365234375,29.870771248123184
1781002475.607095,-0.1074218675494194,-0.14306640625,0.9731444716453552,0.9894531908680736,-18.907546997070312,-25.125503540039062,0.4520416259765625,31.448220986544747
1781002475.617751,-0.0820312350988388,-0.13671875,1.0595703125,1.071499130781146,-17.1356201171875,-25.371551513671875,0.8792877197265625,30.6287160995287
1781002475.628407,-0.0791015625,-0.16552734375,1.076171875,1.0916969649403114,-14.1448974609375,-25.371551513671875,1.2454986572265625,29.07481757976299
1781002475.639026,-0.0502929650247097,-0.1552734375,1.0361328125,1.048909160920622,-11.335372924804688,-24.637222290039062,0.5741119384765625,27.125873369001305
1781002475.649646,-0.0541992150247097,-0.14599609375,1.033203125,1.0448737300790556,-9.813308715820312,-22.989273071289062,0.6351470947265625,25.004221966104662
1781002475.660266,-0.0439453087747097,-0.171875,1.015625,1.0310025928256943,-8.470535278320312,-20.547866821289062,0.2689361572265625,22.226945931984552
1781002475.670913,-0.0512695275247097,-0.1611328125,1.02197265625,1.0358670077956185,-6.8225860595703125,-14.627456665039062,-0.2193450927734375,16.14181778169865
1781002475.681559,-0.0454101525247097,-0.1494140625,0.9892577528953552,1.0015076363606215,-6.9427490234375,-12.126922607421875,0.0858306884765625,13.973953729561526
1781002475.692205,-0.0434570237994194,-0.123046875,0.9863280653953552,0.9949231623353197,-7.7362060546875,-9.502410888671875,-0.2803802490234375,12.256561911962743
1781002475.700196,-0.0546874962747097,-0.1337890625,0.9497069716453552,0.9606422682170594,-8.836746215820312,-7.3032379150390625,-0.6465911865234375,11.48231021567387
1781002475.708186,-0.07666015625,-0.1328125,0.9663085341453552,0.9784007986886916,-10.5438232421875,-4.558563232421875,-0.4634857177734375,11.496413628478312
