timestamp,accel_x,accel_y,accel_z,accel_rms,gyro_x,gyro_y,gyro_z,gyro_rms
1785250390.928335,-0.1210937425494194,0.03271484375,0.9877929091453552,0.9957252567069171,-1.4190673828125,-1.41143798828125,-5.3539276123046875,5.715807056708992
1785250390.93635,-0.10888671875,0.0395507775247097,0.9946288466453552,1.0013526472237542,-1.1119842529296875,-1.4133453369140625,-5.6591033935546875,5.937971475098419
1785250390.944365,-0.1088867112994194,0.033203125,0.9721679091453552,0.9788100975058545,-0.7457733154296875,-0.6198883056640625,-5.4149627685546875,5.50111453564998
1785250390.95238,-0.1093749925494194,0.0224609375,0.9877929091453552,0.9940836051693078,-0.804901123046875,-0.255584716796875,-5.4798126220703125,5.544505003906424
1785250390.963036,-0.1181640625,0.0244140587747097,0.9829100966453552,0.9902883671031082,-0.6237030029296875,0.1125335693359375,-5.7849884033203125,5.819601366643724
1785250390.973692,-0.1298827975988388,0.0356445275247097,0.9882811903953552,0.9974165552785963,-0.9307861328125,0.232696533203125,-5.9032440185546875,5.980702337033879
1785250390.984348,-0.1196288987994194,0.02783203125,0.9946288466453552,1.0021837346367841,-0.5645751953125,0.720977783203125,-5.6591033935546875,5.732713609973624
1785250390.99499,-0.1181640550494194,0.0263671875,0.9750975966453552,0.9825850067378039,-1.0528564453125,0.598907470703125,-4.7435760498046875,4.8957849823272195
1785250391.005635,-0.1191406175494194,0.02294921875,0.9790038466453552,0.986493631574829,-1.2950897216796875,0.4177093505859375,-4.5032501220703125,4.704359696142886
1785250391.01628,-0.134765625,0.0185546875,0.9941405653953552,1.0034049600607224,-0.8068084716796875,0.6008148193359375,-3.5839080810546875,3.7224072171857934
1785250391.026976,-0.13916015625,0.0268554650247097,0.9809569716453552,0.9911424445097909,-0.9899139404296875,0.3566741943359375,-3.4008026123046875,3.559860179588604
1785250391.037672,-0.12744140625,0.017578125,0.9785155653953552,0.9869361753560789,-0.9307861328125,0.415802001953125,-2.6073455810546875,2.799554448284527
1785250391.048368,-0.1230468675494194,0.0185546875,0.9775390028953552,0.9854274758822145,-0.8678436279296875,1.1501312255859375,-2.3021697998046875,2.7158682195089523
1785250391.05904,-0.1171874925494194,0.0302734375,0.9829100966453552,0.9903341090336474,-0.4425048828125,0.965118408203125,-1.7528533935546875,2.049331386687283
1785250391.069712,-0.1123046800494194,0.0185546875,0.9829100966453552,0.9894790930972754,-0.6237030029296875,0.7839202880859375,-1.5697479248046875,1.8621613789800475
1785250391.080384,-0.1201171800494194,0.0283203125,0.9916991591453552,0.9993484874120373,-0.5016326904296875,0.8449554443359375,-1.3904571533203125,1.7026321253401437
1785250391.088371,-0.1123046800494194,0.02783203125,0.9902343153953552,0.9969708935124492,-0.6847381591796875,0.4787445068359375,-1.3256072998046875,1.5669388509951008
1785250391.096358,-0.1118163987994194,0.02880859375,0.9780272841453552,0.9848198874144768,-0.7476806640625,0.476837158203125,-1.2645721435546875,1.5445202352545175
1785250391.104345,-0.1123046800494194,0.02783203125,0.9843749403953552,0.9911513438435436,-0.3185272216796875,0.1735687255859375,-1.2645721435546875,1.3155715106777754
1785250391.112332,-0.1074218675494194,0.02392578125,0.9809569716453552,0.9871111795820439,-0.5016326904296875,-0.1316070556640625,-1.6956329345703125,1.7731685825120578
1785250391.123051,-0.0961913987994194,0.0322265625,0.9956054091453552,1.0007604444886127,-0.0133514404296875,0.0514984130859375,-1.6956329345703125,1.6964673283949347
1785250391.13377,-0.0966796725988388,0.0200195275247097,0.9956054091453552,1.0004888161771832,-0.0743865966796875,0.3566741943359375,-2.1839141845703125,2.2140982390666837
1785250391.144489,-0.0996093675494194,0.0283203125,0.9863280653953552,0.9917495242198189,0.1068115234375,0.232696533203125,-2.3021697998046875,2.316363996706163
1785250391.152447,-0.1093749925494194,0.0185546875,0.9965819716453552,1.0027376484564403,0.1087188720703125,0.7839202880859375,-2.9735565185546875,3.0770747765135726
1785250391.160406,-0.1142578125,0.0205078087747097,0.9790038466453552,0.9858620337980499,0.4119873046875,0.598907470703125,-2.8553009033203125,2.946382009548232
1785250391.168365,-0.1118163913488388,0.0200195275247097,0.9731444716453552,0.9797519326597457,0.4730224609375,0.232696533203125,-2.9125213623046875,2.9598443558736793
1785250391.176324,-0.12890625,0.0263671837747097,0.9931640028953552,1.001841697233848,0.1068115234375,-0.255584716796875,-3.0384063720703125,3.051007297735726
1785250391.187002,-0.12451171875,0.0200195275247097,0.9897460341453552,0.9977480451972083,0.2918243408203125,-0.1316070556640625,-2.7904510498046875,2.808753980745173
1785250391.19768,-0.1040038987994194,0.02294921875,0.9848632216453552,0.9906053921498627,0.1087188720703125,0.4787445068359375,-2.7904510498046875,2.833307811962179
1785250391.208358,-0.1025390550494194,0.03564453125,0.9897460341453552,0.995681677307019,0.0457763671875,0.54168701171875,-2.7904510498046875,2.8429100154267557
1785250391.219095,-0.109375,0.0317382775247097,0.9916991591453552,0.9982171262480123,0.1697540283203125,0.7839202880859375,-3.1604766845703125,3.260668692448877
1785250391.229833,-0.1108398362994194,0.02880859375,0.9770507216453552,0.9837395575315877,0.4119873046875,1.087188720703125,-3.4618377685546875,3.6518534457778378
1785250391.240571,-0.1210937350988388,0.0253906212747097,0.9785155653953552,0.9863067920530078,0.2288818359375,0.965118408203125,-3.5266876220703125,3.6635182571318805
1785250391.251172,-0.12646484375,0.02197265625,0.9838866591453552,0.9922243256298452,-0.0762939453125,1.270294189453125,-3.5839080810546875,3.8031388651085054
1785250391.261774,-0.1215820237994194,0.02685546875,0.9765624403953552,0.9844681836930417,-0.1964569091796875,1.4553070068359375,-3.4618377685546875,3.7604301000154106
1785250391.272376,-0.1303710788488388,0.0195312462747097,0.9790038466453552,0.987839369294247,0.1087188720703125,1.0280609130859375,-3.0384063720703125,3.2094613747476086
1785250391.2804,-0.13134765625,0.01806640625,0.9848632216453552,0.9937475369462941,-0.3185272216796875,1.0280609130859375,-2.9735565185546875,3.162342043645049
1785250391.288425,-0.1328125,0.03564453125,0.9868163466453552,0.9963514413954386,-0.4425048828125,0.293731689453125,-2.8553009033203125,2.9042782451417573
1785250391.29645,-0.1220703050494194,0.02001953125,0.9750975966453552,0.9829126431122329,-0.6237030029296875,0.6008148193359375,-2.5463104248046875,2.689550271414575
1785250391.304475,-0.1376953125,0.0244140587747097,0.9736327528953552,0.9836243098159558,-0.5016326904296875,0.1735687255859375,-2.3021697998046875,2.3625721673087594
1785250391.315327,-0.13623046875,0.03125,0.9873046278953552,0.997148801021909,-0.7457733154296875,-0.0095367431640625,-2.1839141845703125,2.3077586427190733
1785250391.326179,-0.13427734375,0.02392578125,0.9692382216453552,0.9787878106879087,-0.4425048828125,0.415802001953125,-1.6956329345703125,1.80107549118316
1785250391.337031,-0.12744140625,0.025390625,0.9995116591453552,1.007923386291026,-0.4425048828125,0.415802001953125,-1.4476776123046875,1.5698637983307124
1785250391.344889,-0.1376953125,0.0224609375,0.9985350966453552,1.0082345124178207,0.1697540283203125,0.4177093505859375,-1.0814666748046875,1.1716943715880037
1785250391.35275,-0.1171874925494194,0.02001953125,0.9838866591453552,0.9910432120173662,0.0457763671875,0.415802001953125,-0.7762908935546875,0.8818244337945318
1785250391.360611,-0.13037109375,0.02685546875,0.9794921278953552,0.9884951526923763,0.4138946533203125,-0.0095367431640625,-0.8373260498046875,0.9340849250463477
1785250391.368472,-0.12939453125,0.0361328087747097,0.9707030653953552,0.979955593767032,0.2918243408203125,0.3566741943359375,-0.6542205810546875,0.8002390239646733
1785250391.379112,-0.1069335862994194,0.02685546875,0.9873046278953552,0.9934417126053362,0.2899169921875,0.415802001953125,-0.7762908935546875,0.9271303676415786
1785250391.389752,-0.1240234300494194,0.01904296875,0.9804686903953552,0.9884651226551292,-0.0133514404296875,0.1735687255859375,-1.2645721435546875,1.2764979709022537
1785250391.400392,-0.1225585862994194,0.021484375,0.9833983778953552,0.991238899101558,-0.1354217529296875,0.4787445068359375,-1.3256072998046875,1.4158990314593796
1785250391.411046,-0.1201171875,0.0249023400247097,0.9819335341453552,0.9895664357438584,-0.2574920654296875,-0.1316070556640625,-1.5697479248046875,1.596161372884469
1785250391.421701,-0.1074218675494194,0.03271484375,0.9809569716453552,0.9873633064120917,-0.7476806640625,-0.255584716796875,-1.9969940185546875,2.1476347531683033
1785250391.432356,-0.1147460862994194,0.033203125,0.9829100966453552,0.9901420958216961,-0.5016326904296875,-0.1316070556640625,-2.1190643310546875,2.1816024872456805
1785250391.443071,-0.10888671875,0.015624996274709702,0.9741210341453552,0.9803123212492755,-0.9899139404296875,-0.5588531494140625,-2.7294158935546875,2.956680160594984
1785250391.453786,-0.1220703050494194,0.03515625,0.9882811903953552,0.996411979342973,-1.4781951904296875,-0.4978179931640625,-3.4008026123046875,3.7414358451249354
1785250391.464501,-0.1059570237994194,0.02783203125,0.9624022841453552,0.9686174009298659,-1.2359619140625,-0.865936279296875,-3.6487579345703125,3.9485290878889785
1785250391.472468,-0.0961913987994194,0.03173828125,0.9775390028953552,0.982772916741878,-1.7223358154296875,-0.4367828369140625,-3.7059783935546875,4.109926490976296
1785250391.480436,-0.1118163987994194,0.02294921875,0.9965819716453552,1.0030978017572612,-1.7223358154296875,-0.9860992431640625,-4.2552947998046875,4.69535581311208
1785250391.488404,-0.1069335862994194,0.02587890625,0.9814452528953552,0.9875926762073418,-1.8444061279296875,-0.9250640869140625,-4.8084259033203125,5.232450400850876
1785250391.496372,-0.1157226487994194,0.03125,0.9755858778953552,0.9829222243361906,-1.7223358154296875,-0.8029937744140625,-5.4149627685546875,5.738733435845669
1785250391.50444,-0.1069335862994194,0.024414055049419403,0.9907225966453552,0.9967758531718787,-2.0294189453125,-0.865936279296875,-5.4798126220703125,5.9073457041548645
1785250391.512508,-0.10498046875,0.0219726525247097,0.9804686903953552,0.986317671505243,-2.1495819091796875,-1.1081695556640625,-6.2732696533203125,6.723291923726266
1785250391.520576,-0.10986328125,0.0175781212747097,0.9912108778953552,0.9974356798173233,-2.2106170654296875,-0.9250640869140625,-6.6967010498046875,7.112550620229167
1785250391.528644,-0.1132812425494194,0.02880859375,0.9877929091453552,0.9946845763081062,-2.0275115966796875,-1.1081695556640625,-7.5511932373046875,7.89679443482527
1785250391.539219,-0.1162109300494194,0.01220703125,0.9833983778953552,0.9903162936769774,-1.5392303466796875,-0.9860992431640625,-7.4901580810546875,7.709999342198237
1785250391.549794,-0.1240234375,0.0205078087747097,0.9829100966453552,0.9909160617113025,-0.9307861328125,-1.232147216796875,-7.8563690185546875,8.006689936834215
1785250391.560369,-0.1132812425494194,0.0166015625,0.9858397841453552,0.9924657836896658,-1.1119842529296875,-0.9250640869140625,-7.7953338623046875,7.928397225698007
1785250391.568356,-0.12548828125,0.02392578125,0.9931640028953552,1.0013463378804695,-0.5626678466796875,-1.1081695556640625,-7.6160430908203125,7.7167834770077395
1785250391.576343,-0.1166992112994194,0.013671875,0.9853515028953552,0.992332207651277,-0.7476806640625,-1.049041748046875,-7.2460174560546875,7.359638845623298
1785250391.58433,-0.1337890625,0.0166015587747097,0.9902343153953552,0.9993693633411457,-0.7476806640625,-1.232147216796875,-7.0629119873046875,7.208463003975638
1785250391.592317,-0.1176757737994194,0.01806640625,0.9960936903953552,1.0031832448857585,-0.8678436279296875,-1.3523101806640625,-7.0018768310546875,7.183882971243773
1785250391.603,-0.1259765625,0.01416015625,1.00537109375,1.0133319497935571,-0.5626678466796875,-0.9860992431640625,-6.5135955810546875,6.611801132565244
1785250391.613683,-0.1249999925494194,0.02294921875,0.9804686903953552,0.988671086673507,-0.3795623779296875,-1.1081695556640625,-5.9032440185546875,6.018338417324339
1785250391.624366,-0.13916015625,0.0224609375,0.9960936903953552,1.0060182318657755,-0.2574920654296875,-0.9860992431640625,-5.2967071533203125,5.393866938399811
1785250391.632389,-0.1401367038488388,0.0205078087747097,0.9721679091453552,0.98243030773608,0.2288818359375,-0.255584716796875,-4.6825408935546875,4.695093147328835
1785250391.640413,-0.1406249850988388,0.0244140587747097,0.9765624403953552,0.9869375019173379,0.0457763671875,-0.255584716796875,-4.0721893310546875,4.080458916740695
1785250391.648437,-0.11962890625,0.009765621274709702,0.9785155653953552,0.9858494582290158,0.1697540283203125,-0.1316070556640625,-3.7670135498046875,3.773132376639289
1785250391.656461,-0.1210937350988388,0.0244140587747097,0.9809569716453552,0.9887043638852157,0.1087188720703125,0.0514984130859375,-3.3435821533203125,3.3457455814357298
1785250391.667179,-0.1318359375,0.02001953125,0.9931640028953552,1.0020759615393928,0.2288818359375,-0.255584716796875,-2.7294158935546875,2.7508946839657806
1785250391.677897,-0.1181640550494194,0.0185546875,0.9794921278953552,0.9867683866758783,0.2288818359375,0.110626220703125,-2.4242401123046875,2.437532600322757
1785250391.688615,-0.1206054538488388,0.0249023400247097,0.9897460341453552,0.9973780698126711,0.2918243408203125,0.0514984130859375,-2.1839141845703125,2.203927108144231
1785250391.69919,-0.1210937425494194,0.01123046875,0.9897460341453552,0.9971895657393475,0.0457763671875,0.171661376953125,-1.9969940185546875,2.0048810972906916
1785250391.709766,-0.1118163987994194,0.025390625,0.9873046278953552,0.9939406517201855,0.4749298095703125,-0.3147125244140625,-1.8138885498046875,1.9012611520130835
1785250391.720342,-0.1196288987994194,0.0185546875,0.9794921278953552,0.9869448710364501,0.4119873046875,-0.072479248046875,-1.6956329345703125,1.746470105504426
1785250391.728329,-0.1108398288488388,0.009765621274709702,0.9804686903953552,0.9867622245828546,0.1087188720703125,0.2956390380859375,-1.8787384033203125,1.904962000170916
1785250391.736319,-0.10546875,0.0170898400247097,0.9824218153953552,0.9882147252613361,0.2288818359375,-0.011444091796875,-2.1839141845703125,2.1959050588826896
1785250391.744309,-0.1059570237994194,0.017578125,0.9726561903953552,0.9785683144703551,0.2918243408203125,0.0514984130859375,-2.3670196533203125,2.3854969234208188
1785250391.752299,-0.1083984375,0.015624996274709702,0.9824218153953552,0.9885074532474358,-0.0743865966796875,0.1735687255859375,-2.6073455810546875,2.61417490755927
1785250391.762992,-0.107421875,0.014648433774709702,0.9960936903953552,1.0019763848943775,0.2307891845703125,-0.1316070556640625,-2.8553009033203125,2.867634445552115
1785250391.773685,-0.10791015625,0.015624996274709702,0.9790038466453552,0.9850569902685257,0.2288818359375,-0.377655029296875,-3.0384063720703125,3.0703295422173857
1785250391.784378,-0.1157226413488388,0.0302734337747097,0.9804686903953552,0.9877383577440164,0.354766845703125,-0.255584716796875,-2.9735565185546875,3.005531805073664
1785250391.792369,-0.1132812425494194,0.01416015625,0.9843749403953552,0.9909728418160226,0.354766845703125,-0.072479248046875,-3.0956268310546875,3.1167319797110036
1785250391.80036,-0.1108398362994194,0.017578125,0.9956054091453552,1.0019104703060489,0.4119873046875,-0.194549560546875,-3.4008026123046875,3.431186599208944
1785250391.808351,-0.1210937425494194,0.02099609375,0.9755858778953552,0.9832966671286112,0.1087188720703125,-0.4367828369140625,-3.4618377685546875,3.4909769084825863
1785250391.816342,-0.1210937425494194,0.017578125,0.9907225966453552,0.9982504437599093,0.1087188720703125,-0.3147125244140625,-3.1604766845703125,3.177967375521635
1785250391.827081,-0.1093749925494194,0.00732421875,0.9750975966453552,0.9812399585009934,0.1087188720703125,-0.3147125244140625,-3.3435821533203125,3.3601198463997397
1785250391.83782,-0.1220703050494194,0.02001953125,1.0009765625,1.0085911062867075,0.1087188720703125,-0.1926422119140625,-3.2787322998046875,3.286185677763495
1785250391.848559,-0.126953125,0.01220703125,0.9975585341453552,1.0056784459286348,0.1087188720703125,-0.4367828369140625,-3.2787322998046875,3.3094840282964766
1785250391.859149,-0.12646484375,0.02197265625,0.9809569716453552,0.9893193289060003,-0.0762939453125,-0.560760498046875,-2.8553009033203125,2.9108446112362163
1785250391.86974,-0.126953125,0.025390625,0.9736327528953552,0.9822028900872488,0.4749298095703125,-0.4978179931640625,-2.6073455810546875,2.6965963838479414
1785250391.880331,-0.1157226487994194,0.00146484375,0.9877929091453552,0.9945495003116787,0.4749298095703125,-0.3757476806640625,-2.1839141845703125,2.266324294780058
1785250391.888342,-0.1210937425494194,0.02294921875,0.9892577528953552,0.9969058444955713,0.0457763671875,-0.12969970703125,-1.3904571533203125,1.3972432089713316
1785250391.896353,-0.12548828125,0.00341796875,0.9755858778953552,0.9836293999216911,0.1087188720703125,-0.1926422119140625,-1.2645721435546875,1.2837731580033447
1785250391.904364,-0.126953125,0.01416015625,0.9794921278953552,0.9877866341377883,0.0457763671875,-0.43487548828125,-1.0204315185546875,1.1101768553525901
1785250391.912375,-0.1162109225988388,0.010742183774709702,0.9873046278953552,0.9941784554631572,-0.133514404296875,-0.072479248046875,-0.8373260498046875,0.850996034793178
1785250391.923048,-0.1103515625,0.0180664025247097,0.9833983778953552,0.9897354353025823,0.2288818359375,0.05340576171875,-0.3490447998046875,0.42079845826425616
1785250391.933721,-0.12744140625,0.0166015625,0.9814452528953552,0.9898240794884952,0.171661376953125,-0.255584716796875,-0.5931854248046875,0.6683263603946048
1785250391.944394,-0.1142578050494194,0.02294921875,0.9873046278953552,0.9941589113011724,0.1068115234375,-0.377655029296875,-0.5931854248046875,0.7112671585930147
1785250391.95248,-0.1137695237994194,0.00341796875,0.9975585341453552,1.004030983636537,0.4138946533203125,-0.0095367431640625,-0.5931854248046875,0.7233731275891001
1785250391.960565,-0.11279296875,0.010253902524709702,0.9907225966453552,0.9971753405595928,0.4119873046875,0.232696533203125,-1.1425018310546875,1.236604888293645
1785250391.96865,-0.1220703050494194,0.014648430049419403,0.9765624403953552,0.9842712714839862,0.7801055908203125,0.5397796630859375,-1.3904571533203125,1.683240301540426
1785250391.976735,-0.12548828125,0.02685546875,0.9916991591453552,0.9999678730751633,0.2288818359375,0.415802001953125,-1.6307830810546875,1.6984497805659626
1785250391.987362,-0.1210937425494194,0.00927734375,0.9946288466453552,1.0020161207140084,-0.2574920654296875,0.3566741943359375,-1.8138885498046875,1.8664700147007423
1785250391.997989,-0.1162109300494194,0.01904296875,0.9760741591453552,0.9831522664740577,-0.3795623779296875,0.0514984130859375,-1.7528533935546875,1.7942170171376128
1785250392.008616,-0.1132812425494194,0.0263671875,0.9760741591453552,0.982979467049802,-0.5016326904296875,-0.1926422119140625,-1.9969940185546875,2.068025988246296
1785250392.016618,-0.119140625,0.0258789025247097,0.9731444716453552,0.9807519405105409,-0.1983642578125,-0.743865966796875,-2.0580291748046875,2.197309500203241
1785250392.024622,-0.12890625,0.01416015625,0.9785155653953552,0.987071447786369,0.2288818359375,-0.743865966796875,-1.9359588623046875,2.0865426398511078
1785250392.032626,-0.115234375,0.0078124962747097015,0.9882811903953552,0.995007390710714,0.3528594970703125,-1.0471343994140625,-2.4242401123046875,2.664196013287312
1785250392.04063,-0.1206054538488388,0.011230465024709702,0.9736327528953552,0.9811383879725344,0.5970001220703125,-0.6198883056640625,-1.8138885498046875,2.007700756677544
1785250392.05023,-0.11962890625,0.0024414025247097015,0.9785155653953552,0.9858041120718916,0.6580352783203125,-0.7419586181640625,-1.9969940185546875,2.229685656931312
1785250392.05983,-0.1103515625,0.0253906212747097,0.9819335341453552,0.9884410030315894,0.4749298095703125,-0.8640289306640625,-1.6956329345703125,1.9614472630796134
1785250392.06943,-0.1206054538488388,0.0161132775247097,0.9892577528953552,0.9967127042805466,0.8411407470703125,-0.6809234619140625,-1.3256072998046875,1.711259545090256
1785250392.07903,-0.1215820163488388,0.009765621274709702,0.9980468153953552,1.0054725256212327,0.9002685546875,-0.865936279296875,-0.9021759033203125,1.5408603021992155
1785250392.08863,-0.12890625,0.0302734337747097,0.9833983778953552,0.9922729824643973,0.8411407470703125,-0.3757476806640625,-0.9593963623046875,1.3300922734569556
1785250392.098204,-0.10986328125,0.0166015587747097,0.9970702528953552,1.003242065271176,1.0833740234375,-0.377655029296875,-0.4138946533203125,1.2196849510670869
1785250392.107774,-0.11865234375,0.014648433774709702,0.9785155653953552,0.9857918984300956,0.8411407470703125,-0.1316070556640625,-0.2307891845703125,0.8821007999073557
1785250392.117344,-0.10546875,0.0214843712747097,0.9663085341453552,0.9722846386721211,0.9002685546875,-0.377655029296875,-0.2880096435546875,1.017868531045558
1785250392.126914,-0.1103515625,0.0288085974752903,0.9809569716453552,0.9875646727451883,0.5340576171875,-0.377655029296875,-0.1659393310546875,0.6748160647317838
1785250392.136484,-0.11376953125,0.0209960900247097,0.9804686903953552,0.9872705783536514,0.1068115234375,-0.255584716796875,-0.2307891845703125,0.3605494372673575
1785250392.146141,-0.1142578050494194,0.01806640625,0.9741210341453552,0.980965356276111,0.0457763671875,0.476837158203125,-0.2307891845703125,0.5317262443689861
1785250392.155802,-0.1103515625,0.015624996274709702,0.9707030653953552,0.9770803697868028,-0.3185272216796875,0.4787445068359375,-0.2307891845703125,0.6196124123120804
1785250392.165463,-0.1113281175494194,0.00830078125,0.9887694716453552,0.995051717643004,-0.3795623779296875,0.8449554443359375,-0.2307891845703125,0.9546103652104403
1785250392.175124,-0.1171874925494194,0.005859375,0.9863280653953552,0.9932825848025097,-1.1119842529296875,0.5397796630859375,-0.4711151123046875,1.3228078138893125
1785250392.184785,-0.1215820237994194,0.01904296875,0.9931640028953552,1.0007594914948852,-0.4425048828125,0.35858154296875,-0.2880096435546875,0.638232597922773
1785250392.192695,-0.1103515550494194,0.0185546875,0.9824218153953552,0.9887741731531792,-0.8068084716796875,-0.3147125244140625,-0.2307891845703125,0.8962407771976316
1785250392.200605,-0.1069335862994194,0.01025390625,0.9838866591453552,0.9897337482962009,-0.6237030029296875,0.0514984130859375,-0.2880096435546875,0.6889173224664755
1785250392.208515,-0.09423828125,0.0258789025247097,0.9965819716453552,1.0013621709738096,-0.2574920654296875,0.8449554443359375,-0.5931854248046875,1.0640116610605852
1785250392.216425,-0.1123046800494194,0.02294921875,0.9931640028953552,0.999756842661936,0.1087188720703125,0.7839202880859375,-0.8373260498046875,1.1521569879571543
1785250392.227067,-0.1113281175494194,0.02294921875,0.9970702528953552,1.0035286271986168,0.354766845703125,0.720977783203125,-0.7190704345703125,1.0782999436871799
1785250392.237709,-0.1113281175494194,0.01806640625,0.9819335341453552,0.988389503318947,0.1697540283203125,0.3566741943359375,-1.2645721435546875,1.3248304107660953
1785250392.248351,-0.1235351487994194,0.0126953125,0.9863280653953552,0.9941152632038759,0.4749298095703125,0.5397796630859375,-1.4476776123046875,1.616382033390579
1785250392.25915,-0.1127929612994194,-0.00146484375,0.9931640028953552,0.9995494657759711,0.7781982421875,0.904083251953125,-1.2073516845703125,1.697249869889706
1785250392.269948,-0.12841796875,0.0209960900247097,0.9877929091453552,0.9963266742650453,0.7801055908203125,0.4787445068359375,-1.2073516845703125,1.5150772673000759
1785250392.280746,-0.12451171875,0.0019531212747097015,0.9824218153953552,0.9902825890388552,0.9632110595703125,0.0514984130859375,-1.2073516845703125,1.5453561796762925
1785250392.288695,-0.1069335862994194,-0.00390625,0.9824218153953552,0.9882320952249138,0.7801055908203125,-0.1316070556640625,-1.0204315185546875,1.2911876834873768
1785250392.296643,-0.1127929612994194,0.01611328125,0.9873046278953552,0.9938572926808555,0.8411407470703125,-0.1926422119140625,-0.7762908935546875,1.160713715611684
1785250392.304591,-0.1147460862994194,0.01318359375,0.9833983778953552,0.9901579879556669,0.843048095703125,-0.255584716796875,-0.9593963623046875,1.3024956887192647
1785250392.312539,-0.1181640625,0.010253902524709702,1.00341796875,1.0104036362730817,1.4514923095703125,-0.3147125244140625,-0.9593963623046875,1.7681389305618207
1785250392.323262,-0.1147460862994194,0.01318359375,0.9814452528953552,0.9882182228111495,1.5716552734375,0.232696533203125,-0.9021759033203125,1.82706577211125
1785250392.333985,-0.1162109300494194,0.01708984375,0.9907225966453552,0.9976614187819761,1.4495849609375,0.232696533203125,-1.0814666748046875,1.8234622025844227
1785250392.344708,-0.109375,0.0366210900247097,0.9843749403953552,0.991109488471358,1.8768310546875,-0.072479248046875,-0.8373260498046875,2.0564199383682205
1785250392.355255,-0.1059570237994194,0.0322265625,0.9780272841453552,0.9842778117766022,1.4514923095703125,0.0514984130859375,-0.9021759033203125,1.7097962954176593
1785250392.3658,-0.12548828125,0.01806640625,0.9765624403953552,0.9847577893862027,1.3885498046875,0.110626220703125,-1.0204315185546875,1.726727889641149
1785250392.376345,-0.1215820163488388,0.0244140587747097,0.9824218153953552,0.9902175802973858,1.5125274658203125,-0.1316070556640625,-0.5359649658203125,1.6100677614771837
1785250392.387009,-0.12890625,0.0166015587747097,0.9736327528953552,0.9822693981558218,1.5735626220703125,-0.3147125244140625,-0.9021759033203125,1.8409412427157177
1785250392.397674,-0.1181640550494194,0.02392578125,0.9677733778953552,0.9752540683725093,1.7547607421875,-0.072479248046875,-1.2645721435546875,2.1641583144433687
1785250392.408339,-0.10986328125,0.0249023400247097,0.9746093153953552,0.9810980505337505,1.5125274658203125,-0.0095367431640625,-0.8373260498046875,1.7288566158049417
1785250392.416343,-0.1113281175494194,0.01416015625,0.9570311903953552,0.9635886877561776,1.1463165283203125,-0.1316070556640625,-1.2073516845703125,1.6700479305803377
1785250392.424349,-0.1108398362994194,0.0166015625,0.9804686903953552,0.9868535524756986,1.0242462158203125,-0.1316070556640625,-1.5697479248046875,1.878964947824045
1785250392.432355,-0.1264648288488388,0.010253902524709702,0.9765624403953552,0.9847703770136894,0.7801055908203125,-0.3147125244140625,-1.2073516845703125,1.4714981468173693
1785250392.440361,-0.123046875,0.014648433774709702,0.9824218153953552,0.9902059045592604,0.4138946533203125,-0.4978179931640625,-1.0814666748046875,1.2604371095291285
1785250392.451043,-0.119140625,0.0214843712747097,0.9892577528953552,0.9966378321125623,0.5340576171875,-0.61798095703125,-1.0814666748046875,1.3552446902468784
1785250392.461725,-0.1201171875,0.011718746274709702,0.9667968153953552,0.9743005439830985,0.1087188720703125,-0.6198883056640625,-1.0814666748046875,1.25125995434858
1785250392.472407,-0.1181640625,0.0244140587747097,0.9916991591453552,0.9990125195321445,0.171661376953125,-0.255584716796875,-1.0814666748046875,1.1244382350803843
1785250392.480673,-0.1210937425494194,0.01806640625,0.9794921278953552,0.9871144402390161,0.1068115234375,-0.072479248046875,-0.6542205810546875,0.6668331962432682
1785250392.488939,-0.11279296875,0.0302734337747097,0.9809569716453552,0.9878842618503326,0.0457763671875,-0.072479248046875,-0.6542205810546875,0.6598130688807688
1785250392.497205,-0.1196288987994194,0.0126953125,0.9785155653953552,0.9858828308214045,0.1068115234375,0.110626220703125,-0.8373260498046875,0.8513294168109182
1785250392.505471,-0.1064453050494194,0.0166015625,0.9760741591453552,0.982001516799143,-0.0743865966796875,0.0514984130859375,-0.6542205810546875,0.6604468343413339
1785250392.51325,-0.11376953125,0.0209960900247097,0.9848632216453552,0.9916349668032277,-0.1964569091796875,0.1125335693359375,-0.9593963623046875,0.9857487009351772
1785250392.521029,-0.1074218675494194,0.02392578125,0.9814452528953552,0.9875964181116978,-0.5645751953125,0.110626220703125,-0.9593963623046875,1.1186709488820523
1785250392.528808,-0.1201171875,0.009765621274709702,0.9868163466453552,0.9941478803972159,-0.3185272216796875,-0.1926422119140625,-0.7190704345703125,0.8097116169570876
1785250392.536587,-0.125,0.014648433774709702,0.9804686903953552,0.9885132419232607,0.1068115234375,0.110626220703125,-0.4711151123046875,0.4955767461130056
1785250392.547474,-0.130859375,0.0234375,0.9941405653953552,1.0029900080241265,-0.0152587890625,-0.255584716796875,-0.5931854248046875,0.646084612341534
1785250392.558361,-0.1210937350988388,0.014648433774709702,0.9916991591453552,0.9991724033127839,-0.0762939453125,-0.255584716796875,-0.3490447998046875,0.4392910035752837
1785250392.569248,-0.10986328125,0.0302734337747097,0.9843749403953552,0.9909492644115981,0.1068115234375,-0.560760498046875,-0.2880096435546875,0.6393829779477376
1785250392.579635,-0.1069335862994194,0.021484375,1.001953125,1.0078722314585622,0.1697540283203125,-0.4367828369140625,-0.2307891845703125,0.5223593824832667
1785250392.590023,-0.1108398362994194,0.02294921875,0.9941405653953552,1.0005636410127614,0.2288818359375,-0.43487548828125,-0.2880096435546875,0.5696078825915899
1785250392.600411,-0.11962890625,0.0205078087747097,0.9916991591453552,0.9990990279651542,0.2307891845703125,-0.1316070556640625,-0.3490447998046875,0.43865286626886163
1785250392.611066,-0.1064453050494194,0.021484375,0.9814452528953552,0.9874345374590825,0.2918243408203125,-0.3147125244140625,-0.2880096435546875,0.5168703645004035
1785250392.62172,-0.1171874925494194,0.01123046875,0.9848632216453552,0.9918742849716555,0.3528594970703125,-0.3757476806640625,-0.2307891845703125,0.5647652538106128
1785250392.632374,-0.1103515625,0.012207027524709702,0.9843749403953552,0.99061622344152,0.9632110595703125,-0.8029937744140625,-0.1659393310546875,1.264954706152431
1785250392.643038,-0.0986328125,0.0200195275247097,0.9882811903953552,0.9933926335911863,0.7171630859375,-0.988006591796875,0.0171661376953125,1.2209728062282343
1785250392.653701,-0.1118163987994194,0.0302734375,0.9843749403953552,0.9911677009148837,0.5340576171875,-0.43487548828125,-0.1049041748046875,0.6966628414629981
1785250392.664364,-0.115234375,0.0322265587747097,0.9814452528953552,0.9887124438899959,0.7190704345703125,-0.8029937744140625,-0.4711151123046875,1.1763548532066073
1785250392.675027,-0.10546875,0.0239257849752903,0.9804686903953552,0.9864152032784315,0.9002685546875,-0.682830810546875,-0.5359649658203125,1.250599788492702
1785250392.685688,-0.095703125,0.0346679650247097,0.9936522841453552,0.9988522501956942,0.7801055908203125,-0.4978179931640625,-0.5359649658203125,1.0694138262308805
1785250392.696349,-0.1074218675494194,0.03173828125,0.9848632216453552,0.991212561196728,0.2899169921875,-0.255584716796875,-0.9021759033203125,0.9814768312858982
1785250392.704349,-0.1137695237994194,0.01904296875,0.9780272841453552,0.9848063300655107,0.6580352783203125,0.0514984130859375,-1.3904571533203125,1.5391665307185212
1785250392.71235,-0.12255859375,0.0249023400247097,0.9853515028953552,0.9932564219267948,0.7190704345703125,-0.1316070556640625,-1.3904571533203125,1.570908591291463
1785250392.720351,-0.1015624925494194,0.02783203125,0.9848632216453552,0.9904772219521355,0.5970001220703125,0.2956390380859375,-1.1425018310546875,1.3225437688619837
1785250392.728352,-0.10546875,0.0473632775247097,1.00732421875,1.013937384143983,0.6580352783203125,0.1735687255859375,-1.3904571533203125,1.5480657690276742
1785250392.739024,-0.1025390550494194,0.03662109375,1.06787109375,1.0734076742713812,1.5716552734375,0.232696533203125,-1.0814666748046875,1.9219308374137098
1785250392.749696,-0.1108398362994194,0.001953125,0.9497069716453552,0.9561551213061295,3.7078857421875,0.110626220703125,-1.2073516845703125,3.901070741227231
1785250392.760368,-0.1220703050494194,0.033203125,0.8999022841453552,0.908750641207285,3.2825469970703125,0.4177093505859375,-1.8138885498046875,3.7735643045607166
1785250392.771031,-0.1201171875,0.0312499962747097,0.9443358778953552,0.9524573225507118,-0.0762939453125,0.110626220703125,-1.6307830810546875,1.63631060139957
1785250392.781693,-0.1103515625,0.0170898400247097,0.9775390028953552,0.9838963523460725,-0.8678436279296875,-0.6809234619140625,-1.7528533935546875,2.071063577686445
1785250392.792355,-0.119140625,0.0195312462747097,0.9916991591453552,0.9990211110662469,-1.1119842529296875,-0.9250640869140625,-1.8138885498046875,2.3200095290266147
1785250392.800366,-0.10498046875,0.0253906212747097,0.9848632216453552,0.990767958614606,-0.8068084716796875,-0.0095367431640625,-1.7528533935546875,1.929643977199026
1785250392.808376,-0.1005859375,0.0200195275247097,0.9833983778953552,0.9887318554351743,-0.8068084716796875,0.6008148193359375,-1.4476776123046875,1.762863813876724
1785250392.816386,-0.1186523362994194,0.00244140625,0.9960936903953552,1.0031385634194439,-0.9307861328125,0.904083251953125,-2.0580291748046875,2.4329433688118285
1785250392.824396,-0.1064453050494194,0.0185546875,0.9863280653953552,0.9922287699829262,-0.5035400390625,0.232696533203125,-2.1190643310546875,2.190464308463406
1785250392.835085,-0.11474609375,0.014648433774709702,0.9853515028953552,0.9921183532729707,-0.7476806640625,0.05340576171875,-1.9359588623046875,2.0760094574287855
1785250392.845774,-0.1127929612994194,0.0185546875,0.9897460341453552,0.9963251179476375,-0.3814697265625,-0.255584716796875,-1.6956329345703125,1.7567053675967796
1785250392.856463,-0.12353515625,0.010742183774709702,0.9995116591453552,1.0071742084214936,-0.1964569091796875,-0.6809234619140625,-1.8138885498046875,1.9474197670923492
1785250392.864431,-0.1020507737994194,0.0336913987994194,0.9892577528953552,0.9950780735448297,0.0457763671875,-1.049041748046875,-2.0580291748046875,2.310425967064383
1785250392.872399,-0.1127929612994194,0.0126953125,0.9897460341453552,0.9962332232889162,0.3528594970703125,-1.3523101806640625,-1.7528533935546875,2.2418179383474848
1785250392.880367,-0.1176757737994194,0.013671875,0.9936522841453552,1.0006894471775893,0.1068115234375,-1.049041748046875,-2.2411346435546875,2.476808789798938
1785250392.888335,-0.1113281175494194,0.00830078125,0.9956054091453552,1.0018447900977216,0.4138946533203125,-0.6198883056640625,-2.6721954345703125,2.7742023603343404
1785250392.899022,-0.1069335862994194,0.02734375,0.9931640028953552,0.9992783442014758,0.1068115234375,-0.377655029296875,-2.8553009033203125,2.8821476837931215
1785250392.909709,-0.10546875,0.012695308774709702,0.9916991591453552,0.9973725734854816,-0.0152587890625,-0.255584716796875,-3.4008026123046875,3.410427361191289
1785250392.920396,-0.0966796725988388,0.0292968712747097,0.9843749403953552,0.9895449909118154,-0.1354217529296875,-0.1316070556640625,-3.3435821533203125,3.3489104324047263
1785250392.93106,-0.1220703050494194,0.0078125,0.9941405653953552,1.001637488463618,-0.0133514404296875,-0.1926422119140625,-3.4618377685546875,3.467219349646686
1785250392.941725,-0.1215820237994194,0.01318359375,0.9882811903953552,0.9958191135666095,-0.5645751953125,-0.255584716796875,-3.6487579345703125,3.701013802150986
1785250392.95239,-0.11962890625,0.012207027524709702,0.9731444716453552,0.9805458935845267,-0.8068084716796875,-0.8029937744140625,-3.7059783935546875,3.8768562992734252
1785250392.963449,-0.1176757737994194,0.00927734375,0.9672850966453552,0.9744609356144359,-0.3795623779296875,-1.7795562744140625,-3.4618377685546875,3.9109089567948008
1785250392.97451,-0.1279296875,0.0087890625,0.9794921278953552,0.9878502321569032,-0.6847381591796875,-2.0847320556640625,-3.3435821533203125,3.9993144045638864
1785250392.985571,-0.13427734375,0.0166015587747097,0.9902343153953552,0.999434848394238,-0.6866455078125,-2.208709716796875,-2.6073455810546875,3.485416997364508
1785250392.993498,-0.1123046800494194,0.0205078125,0.9785155653953552,0.9851525888183664,-0.8697509765625,-2.025604248046875,-2.7904510498046875,3.556143471837582
1785250393.001426,-0.1396484225988388,0.0249023400247097,0.9716796278953552,0.9819791788729056,-1.0509490966796875,-1.5964508056640625,-2.6721954345703125,3.285388503549574
1785250393.009354,-0.1108398362994194,0.00732421875,0.9965819716453552,1.0027535787518904,-0.6847381591796875,-1.5964508056640625,-2.4852752685546875,3.03217985647814
1785250393.017282,-0.1123046800494194,0.021484375,1.001953125,1.0084562381320314,-0.9307861328125,-1.41143798828125,-1.9969940185546875,2.616582719873895
1785250393.027642,-0.1093749925494194,0.0224609375,0.9941405653953552,1.0003913466604761,-0.4425048828125,-1.354217529296875,-2.3021697998046875,2.7073421422311204
1785250393.038002,-0.1225585862994194,0.013671875,0.9858397841453552,0.9935228267359982,-0.3185272216796875,-1.0471343994140625,-2.3021697998046875,2.549104907319427
1785250393.048362,-0.09130859375,0.0161132775247097,0.9746093153953552,0.9790098133627639,-0.3795623779296875,-1.1081695556640625,-2.5463104248046875,2.8028207474452147
1785250393.059038,-0.09814453125,0.0205078087747097,0.9750975966453552,0.9802388699794403,-0.5645751953125,-1.537322998046875,-3.4008026123046875,3.7745947543205705
1785250393.069717,-0.09033203125,0.014160159975290298,0.9931640028953552,0.9973640873058354,-1.0509490966796875,-1.1692047119140625,-4.5032501220703125,4.769779378975529
1785250393.080396,-0.07666015625,0.0014648400247097015,0.9794921278953552,0.9824885515473162,-0.9899139404296875,-1.5964508056640625,-6.1511993408203125,6.431627952149495
1785250393.091052,-0.0473632775247097,0.0019531212747097015,0.9926757216453552,0.9938069143876607,-0.8697509765625,-1.232147216796875,-8.039474487304688,8.179719039008289
1785250393.10171,-0.029785148799419403,-0.0009765625,0.9750975966453552,0.9755528851614698,-1.2340545654296875,-1.4743804931640625,-11.152267456054688,11.316790972729727
1785250393.112368,-0.019531242549419403,-0.00732421875,0.9863280653953552,0.9865486131977309,-1.7833709716796875,-0.8640289306640625,-14.635086059570312,14.768639137939674
1785250393.120358,-0.0063476525247097015,-0.0268554724752903,0.9829100966453552,0.9832973950854477,-3.6144256591796875,-0.9860992431640625,-23.359298706054688,23.65783803735653
1785250393.128348,-0.0014648400247097015,-0.012695316225290298,0.9731444716453552,0.9732283799315943,-4.5318603515625,-2.635955810546875,-28.303146362304688,28.78461594823285
1785250393.136338,0.00537109375,-0.02685546875,0.9858397841453552,0.9862201300184529,-5.5675506591796875,-4.5261383056640625,-33.31184387207031,34.07583440594992
1785250393.144328,0.0234375037252903,-0.012207034975290298,1.01708984375,1.0174330830787646,-5.1403045654296875,-6.0520172119140625,-39.53742980957031,40.32688928376922
1785250393.155003,0.048828125,-0.021484375,1.03173828125,1.0331164722125286,-3.7994384765625,-6.969451904296875,-46.00334167480469,46.6831493992459
1785250393.165678,0.052734375,-0.021484375,1.0576171875,1.059149001779821,-1.4190673828125,-8.251190185546875,-52.96516418457031,53.62279840528203
1785250393.176353,0.0512695349752903,-0.0239257849752903,1.06884765625,1.070344019777933,1.5125274658203125,-10.202407836914062,-60.22453308105469,61.10131954251591
1785250393.18435,0.03466796875,-0.0234375,1.0966796875,1.0974777999752883,4.8084259033203125,-11.789321899414062,-66.88117980957031,68.08231255793095
1785250393.192348,0.03125,-0.04052734375,1.08447265625,1.085679497018048,8.1024169921875,-13.500213623046875,-73.47297668457031,75.14108883876119
1785250393.200346,0.01611328125,-0.0146484375,1.07177734375,1.0719985490333643,11.2152099609375,-15.453338623046875,-79.45060729980469,81.71282402031056
1785250393.208344,0.014160163700580597,-0.02685546875,1.06884765625,1.069278746964012,14.329910278320312,-18.320083618164062,-86.34757995605469,89.42525569786474
1785250393.219024,0.0375976599752903,-0.0195312462747097,1.05517578125,1.0560260332743738,17.503738403320312,-20.944595336914062,-91.47834777832031,95.463841553597
1785250393.229704,0.0166015625,-0.0146484375,1.06298828125,1.063218827275675,19.456863403320312,-23.202896118164062,-96.60148620605469,101.2363129464144
1785250393.240384,0.0068359375,-0.0224609375,1.0341796875,1.0344461560624991,21.8353271484375,-25.402069091796875,-101.61018371582031,106.98913991890237
1785250393.248429,0.013183597475290298,-0.0200195275247097,0.9829100966453552,0.9832023427616945,23.6663818359375,-29.552459716796875,-109.72404479980469,116.07244079344089
1785250393.256473,0.008300784975290298,-0.009277347475290298,0.9394530653953552,0.9395355417907898,23.1781005859375,-29.674530029296875,-113.32511901855469,119.41685257869203
1785250393.264517,-0.0087890625,-0.01708984375,0.9809569716453552,0.9811451934340067,22.8118896484375,-29.979705810546875,-116.01066589355469,121.97393029203167
1785250393.272561,-0.0180664025247097,-0.0185546912252903,0.9624022841453552,0.9627506572289877,22.569656372070312,-31.320571899414062,-117.90275573730469,124.06219175603111
1785250393.283164,-0.0454101525247097,0.0063476525247097015,0.9682616591453552,0.9693466950559061,23.241043090820312,-32.72438049316406,-119.31037902832031,125.88088697849328
1785250393.293767,-0.0522460900247097,0.0014648400247097015,0.9633788466453552,0.9647956269816437,22.9949951171875,-32.72247314453125,-119.00520324707031,125.54588184807402
1785250393.30437,-0.0810546875,-0.0039062537252902985,0.9516600966453552,0.9551136376007495,22.6898193359375,-31.810760498046875,-117.90275573730469,124.20874444020484
1785250393.315032,-0.1689452975988388,0.0205078087747097,0.9262694716453552,0.9417739738937713,21.287918090820312,-30.649185180664062,-115.27824401855469,121.16774138722548
1785250393.325696,-0.1630859375,0.0390624962747097,0.9199218153953552,0.9350823750161007,19.7601318359375,-29.735565185546875,-110.64338684082031,116.2610239877705
1785250393.33636,-0.2006835788488388,0.0449218712747097,0.9184569716453552,0.9411987473973584,17.8070068359375,-28.575897216796875,-104.23469543457031,109.53786161203668
1785250393.34455,-0.2124023288488388,0.0590820275247097,0.8999022841453552,0.9265147361412384,11.339187622070312,-25.583267211914062,-89.70451354980469,93.96797586609921
1785250393.352742,-0.2290038913488388,0.0561523400247097,0.8916015028953552,0.922252193008191,7.3108673095703125,-23.874282836914062,-81.40373229980469,85.1469188763362
1785250393.360934,-0.2373046725988388,0.07470703125,0.8872069716453552,0.9214287051593046,2.7942657470703125,-22.165298461914062,-72.85881042480469,76.20705107461256
1785250393.369126,-0.2290038913488388,0.09375,0.8686522841453552,0.9032101834588966,-1.6613006591796875,-20.029067993164062,-64.37492370605469,67.43926368752362
1785250393.379848,-0.20947265625,0.1162109300494194,0.8681640028953552,0.9006067454236993,-6.4849853515625,-17.223358154296875,-55.89103698730469,58.84307195105831
1785250393.39057,-0.2031249850988388,0.107421875,0.8823241591453552,0.9117538815993477,-10.450363159179688,-14.291763305664062,-48.13957214355469,51.292133848265394
1785250393.401292,-0.2070312350988388,0.099609375,0.8925780653953552,0.9216721557687182,-13.9923095703125,-11.852264404296875,-39.96086120605469,43.96738935791376
1785250393.411781,-0.1728515625,0.0966796800494194,0.9658202528953552,0.9859175341254447,-15.943527221679688,-9.042739868164062,-32.57560729980469,37.37830113237911
1785250393.42227,-0.1748046725988388,0.10791015625,0.9848632216453552,1.0060600582141976,-16.3116455078125,-5.931854248046875,-25.621414184570312,30.946947164622106
1785250393.432759,-0.1376953125,0.0834960862994194,0.9980468153953552,1.0109545198635808,-15.943527221679688,-3.0612945556640625,-19.330978393554688,25.243896495530514
1785250393.440678,-0.1181640550494194,0.0825195237994194,0.9858397841453552,0.9963193743562181,-13.807296752929688,-0.9860992431640625,-8.283615112304688,16.13171146126889
1785250393.448596,-0.1206054612994194,0.06103515625,0.9819335341453552,0.9911934387761528,-13.319015502929688,-0.1316070556640625,-3.9501190185546875,13.893053467295422
1785250393.456514,-0.107421875,0.0498046837747097,0.9926757216453552,0.9997124857170392,-12.525558471679688,1.0280609130859375,0.2574920654296875,12.57031528770226
1785250393.464432,-0.0908203125,0.0429687462747097,1.01025390625,1.015237704881178,-11.1846923828125,2.063751220703125,3.4351348876953125,11.880932812526089
1785250393.475072,-0.0922851487994194,0.03564453125,1.00244140625,1.007311200305765,-10.0250244140625,3.528594970703125,6.2427520751953125,12.325747459776057
1785250393.485712,-0.06640625,0.0292968712747097,1.01904296875,1.0216245244043247,-8.741378784179688,4.3239593505859375,8.802413940429688,13.137382490157513
1785250393.496352,-0.0698242112994194,0.01806640625,1.03271484375,1.0352302951614016,-7.8868865966796875,5.4225921630859375,10.820388793945312,14.446047888892796
1785250393.50443,-0.0458984337747097,0.009765621274709702,1.00927734375,1.0103676510008166,-6.9713592529296875,6.2160491943359375,12.403488159179688,15.526932599026877
1785250393.512509,-0.04296875,0.013671875,0.9965819716453552,0.9976015536531214,-6.0558319091796875,7.1315765380859375,13.017654418945312,16.030964119537636
1785250393.520588,-0.0458984337747097,-0.0058593712747097015,0.9912108778953552,0.992290281577315,-5.382537841796875,8.106231689453125,13.685226440429688,16.791906638238114
1785250393.528667,-0.0351562462747097,0.0073242150247097015,0.9643554091453552,0.9650238136573427,-5.6915283203125,8.90350341796875,14.421463012695312,17.878603501427044
1785250393.539293,-0.0400390550494194,0.00390625,0.9755858778953552,0.9764149680679644,-6.6070556640625,9.449005126953125,14.238357543945312,18.321236529951552
1785250393.549919,-0.0439453050494194,0.013671875,0.9663085341453552,0.9674038935026297,-8.253097534179688,9.634017944335938,14.421463012695312,19.206939269102943
1785250393.560545,-0.0327148400247097,0.009765621274709702,0.9628905653953552,0.9634956507655393,-9.534835815429688,9.634017944335938,14.173507690429688,19.611621963255793
1785250393.571157,-0.0219726525247097,-0.0053710900247097015,0.9614257216453552,0.961691771987427,-12.4053955078125,10.242462158203125,13.933181762695312,21.282279548952992
1785250393.58177,-0.0361328087747097,0.0009765587747097015,0.9707030653953552,0.9713758153798814,-13.1988525390625,10.242462158203125,13.685226440429688,21.596369188731135
1785250393.592383,-0.0263671837747097,0.010253902524709702,0.9721679091453552,0.9725794643468714,-13.868331909179688,10.183334350585938,13.868331909179688,22.09890400861922
1785250393.603036,-0.01806640625,-0.0068359375,0.9936522841453552,0.9938400207596672,-13.9923095703125,10.242462158203125,13.196945190429688,21.791101865965544
1785250393.613687,-0.012695308774709702,0.0063476525247097015,0.9702147841453552,0.9703186027958435,-13.8702392578125,9.88006591796875,12.773513793945312,21.287599541904246
1785250393.624338,-0.0185546875,-0.0029296875,0.9687499403953552,0.9689320443215172,-13.8702392578125,9.937286376953125,11.915206909179688,20.811183370849065
1785250393.635023,-0.0224609375,-0.00244140625,0.9809569716453552,0.9812171188872943,-14.539718627929688,9.206771850585938,9.778976440429688,19.793848688685735
1785250393.645711,-0.0175781212747097,0.0048828087747097015,0.9790038466453552,0.979173817008748,-14.049530029296875,7.801055908203125,8.619308471679688,18.235631216302735
1785250393.656399,-0.0170898400247097,-0.010253902524709702,0.9956054091453552,0.9958048683695749,-13.563156127929688,6.8874359130859375,6.5479278564453125,16.561139357564596
1785250393.667074,-0.01318359375,-0.03564453125,1.0078125,1.0085288170937146,-12.3443603515625,5.847930908203125,4.7779083251953125,14.471003294876148
1785250393.67775,-0.011718746274709702,-0.0468750037252903,1.01708984375,1.0182368807148445,-10.938644409179688,4.8122406005859375,2.4585723876953125,12.200663067798551
1785250393.688426,-0.0180664025247097,-0.0292968712747097,1.01318359375,1.0137680682536991,-9.473800659179688,3.4694671630859375,0.5054473876953125,10.101761152756142
1785250393.696413,-0.0224609337747097,-0.0297851525247097,1.0244140625,1.0250930788492847,-6.6051483154296875,1.6384124755859375,-2.7904510498046875,7.355202021041663
1785250393.704403,-0.0175781212747097,-0.0375976599752903,1.00732421875,1.0081788809846512,-5.6915283203125,1.33514404296875,-3.4618377685546875,6.7941463755343
1785250393.712393,-0.0273437462747097,-0.0541992150247097,1.00537109375,1.0072021999170284,-4.6520233154296875,1.1501312255859375,-4.3201446533203125,6.451958817985536
1785250393.720383,-0.0449218675494194,-0.03173828125,1.005859375,1.0073620873133067,-4.1637420654296875,0.8449554443359375,-4.6825408935546875,6.322727806109761
1785250393.731114,-0.0317382775247097,-0.0327148474752903,0.9965819716453552,0.9976237796454687,-3.734588623046875,0.415802001953125,-4.9915313720703125,6.247833938780825
1785250393.741845,-0.029785148799419403,-0.03173828125,0.9833983778953552,0.9843611345603419,-3.3092498779296875,-0.3147125244140625,-5.5980682373046875,6.510648717072695
1785250393.752576,-0.04296875,-0.04931640625,0.9804686903953552,0.9826480927817244,-3.9825439453125,-0.743865966796875,-5.7201385498046875,7.009563316060821
1785250393.76054,-0.0419921875,-0.041015625,0.9902343153953552,0.9919725927119577,-4.8961639404296875,-1.5354156494140625,-6.0253143310546875,7.914185702650815
1785250393.768506,-0.0380859375,-0.04052734375,1.00634765625,1.007883232059425,-5.3844451904296875,-2.0847320556640625,-6.3915252685546875,8.61335898539169
1785250393.776472,-0.0458984337747097,-0.0454101525247097,1.025390625,1.0274213751003916,-5.0792694091796875,-3.0002593994140625,-6.5746307373046875,8.833249884765662
1785250393.784438,-0.0532226487994194,-0.0537109375,1.015625,1.018435886925316,-4.8370361328125,-3.368377685546875,-6.7615509033203125,8.970031070225764
1785250393.795072,-0.0644531175494194,-0.04638671875,1.02001953125,1.023105945721019,-4.4689178466796875,-3.7326812744140625,-6.7615509033203125,8.923155654527458
1785250393.805706,-0.0625,-0.0498046875,1.009765625,1.0129231828369876,-3.7364959716796875,-3.9768218994140625,-6.4563751220703125,8.453478235787104
1785250393.81634,-0.0537109300494194,-0.05029296875,1.01806640625,1.020722025944014,-3.3721923828125,-3.795623779296875,-5.6591033935546875,7.602887120009393
1785250393.827039,-0.0590820237994194,-0.06494140625,1.02685546875,1.0306018753542732,-2.1495819091796875,-4.1599273681640625,-4.3773651123046875,6.409916022780267
1785250393.837738,-0.0644531175494194,-0.05224609375,1.0107421875,1.0141418186162416,-1.9664764404296875,-4.7092437744140625,-3.5266876220703125,6.203348458799213
1785250393.848437,-0.0590820237994194,-0.0576171875,0.9863280653953552,0.9897744583581602,-2.086639404296875,-4.833221435546875,-3.0956268310546875,6.107126896155008
1785250393.859087,-0.0541992112994194,-0.04052734375,0.9750975966453552,0.9774432684716068,-2.5157928466796875,-5.0754547119140625,-2.1190643310546875,6.048130936020119
1785250393.869738,-0.0449218712747097,-0.0395507775247097,0.9663085341453552,0.9681603285013158,-3.4923553466796875,-4.9533843994140625,-1.8138885498046875,6.326353969464036
1785250393.880389,-0.0405273400247097,-0.0405273400247097,0.9575194716453552,0.9592332715033174,-4.4689178466796875,-4.4651031494140625,-1.3256072998046875,6.454890205772292
1785250393.888401,-0.0439453087747097,-0.0537109337747097,0.9736327528953552,0.976102859375406,-6.8492889404296875,-4.4040679931640625,-1.0204315185546875,8.206695703019845
1785250393.896413,-0.0302734337747097,-0.0336914025247097,0.9819335341453552,0.9829776482076188,-6.9103240966796875,-4.4040679931640625,-0.4711151123046875,8.2079439239438
1785250393.904425,-0.0493164025247097,-0.0244140587747097,0.9902343153953552,0.9917621454816381,-7.518768310546875,-3.856658935546875,0.1392364501953125,8.451336098030918
1785250393.912437,-0.0253906212747097,-0.0444335900247097,0.9921874403953552,0.9935063887310872,-7.1563720703125,-3.54766845703125,0.1392364501953125,7.988679457759355
1785250393.923078,-0.024902336299419403,-0.0546875,0.9892577528953552,0.9910811019654179,-7.0934295654296875,-3.0002593994140625,0.4405975341796875,7.714429703523758
1785250393.933719,-0.0361328087747097,-0.0546874962747097,0.9873046278953552,0.9894780090443304,-6.9122314453125,-2.696990966796875,0.5054473876953125,7.4369470140830565
1785250393.94436,-0.0283203125,-0.04931640625,0.9990233778953552,1.0006407235401518,-6.2999725341796875,-2.1457672119140625,1.1157989501953125,6.748257416281691
1785250393.955085,-0.0297851525247097,-0.0576171912252903,1.0009765625,1.0030757572137452,-5.9337615966796875,-2.0847320556640625,1.1157989501953125,6.387538002031842
1785250393.965809,-0.030761711299419403,-0.06640625,0.9907225966453552,0.9934220333900625,-5.8727264404296875,-1.3523101806640625,1.5430450439453125,6.220823633289551
1785250393.976533,-0.03271484375,-0.07080078125,0.9838866591453552,0.9869731352328723,-5.6915283203125,-1.476287841796875,1.7223358154296875,6.126937332294851
1785250393.984501,-0.0317382775247097,-0.0585937462747097,0.9843749403953552,0.9866278774903432,-5.5084228515625,-0.988006591796875,1.6651153564453125,5.838791697544965
1785250393.99247,-0.0234375,-0.0595703125,1.001953125,1.0039960175393443,-4.9571990966796875,-0.8029937744140625,1.4820098876953125,5.235931167719484
1785250394.000439,-0.0234374962747097,-0.0434570275247097,0.9970702528953552,0.9982920007100718,-4.9571990966796875,-0.8029937744140625,1.1157989501953125,5.144281211513093
1785250394.008408,-0.033203125,-0.04736328125,0.9902343153953552,0.9919222385384048,-4.3487548828125,-0.682830810546875,1.4171600341796875,4.6245291121468615
1785250394.01667,-0.0263671837747097,-0.0478515662252903,1.00048828125,1.001978942737322,-4.2247772216796875,-0.4367828369140625,1.3599395751953125,4.459703742136763
1785250394.024932,-0.024902336299419403,-0.04052734375,0.9907225966453552,0.9918638290855833,-4.0435791015625,-0.43487548828125,0.9288787841796875,4.171626114190962
1785250394.033194,-0.0219726525247097,-0.0419921912252903,0.9970702528953552,0.9981959881664926,-3.5552978515625,0.05340576171875,0.6275177001953125,3.6106472346060206
1785250394.041456,-0.0249023400247097,-0.0439453087747097,0.9863280653953552,0.9876205593691106,-3.9806365966796875,0.0514984130859375,0.5054473876953125,4.01292871393251
1785250394.051764,-0.0234375,-0.046875,0.9946288466453552,0.9960085966548279,-3.6144256591796875,0.5397796630859375,0.6275177001953125,3.7079931761636375
1785250394.062072,-0.020019523799419403,-0.0517578125,0.9863280653953552,0.9878880022930153,-3.7975311279296875,1.0280609130859375,0.5664825439453125,3.974802432977615
1785250394.07238,-0.0312499962747097,-0.0620117224752903,0.9931640028953552,0.995588646298584,-3.3721923828125,0.782012939453125,-0.1659393310546875,3.465654565267814
1785250394.083032,-0.0385742112994194,-0.05126953125,0.9926757216453552,0.9947470145499778,-3.4923553466796875,1.2722015380859375,-0.0476837158203125,3.7171650969179266
1785250394.093683,-0.0268554650247097,-0.0400390587747097,1.00830078125,1.0094527268270754,-3.2482147216796875,0.7839202880859375,-0.2880096435546875,3.3538603803661666
1785250394.104334,-0.046875,-0.04052734375,0.9887694716453552,0.9907092405313809,-3.1871795654296875,0.8449554443359375,-0.5359649658203125,3.34055709871756
1785250394.11501,-0.0346679612994194,-0.0546875,0.9833983778953552,0.9855277570135322,-3.1890869140625,0.293731689453125,-0.1049041748046875,3.204303128095892
1785250394.125684,-0.0283203125,-0.05126953125,0.9965819716453552,0.9983016734150234,-3.1890869140625,0.720977783203125,-0.3490447998046875,3.288147895333765
1785250394.136358,-0.0488281175494194,-0.0419921875,0.9814452528953552,0.9835559533169848,-3.0040740966796875,0.9670257568359375,-0.5359649658203125,3.201071451453836
1785250394.147202,-0.0493163987994194,-0.0576171875,0.9824218153953552,0.9853448486954498,-3.246307373046875,0.720977783203125,-0.4138946533203125,3.351063906913465
1785250394.158046,-0.05712890625,-0.05078125,0.9775390028953552,0.9805227939535771,-3.5552978515625,0.476837158203125,-0.2880096435546875,3.5986755957641776
1785250394.16889,-0.0356445275247097,-0.0493164025247097,0.9848632216453552,0.9867412047999754,-4.2858123779296875,-0.0705718994140625,-0.1659393310546875,4.289604176773553
1785250394.176799,-0.033203125,-0.0556640625,0.9819335341453552,0.9840703231187073,-4.2858123779296875,-0.6198883056640625,0.5664825439453125,4.367304858022753
1785250394.184708,-0.0605468675494194,-0.041015625,0.9677733778953552,0.970532593799494,-4.4689178466796875,-0.9860992431640625,0.3833770751953125,4.592449936529114
1785250394.192617,-0.0356445275247097,-0.0537109337747097,0.9819335341453552,0.9840471849604563,-4.7130584716796875,-1.4133453369140625,0.8106231689453125,4.986739929140013
1785250394.200526,-0.0375976525247097,-0.0527343787252903,0.9858397841453552,0.9879648668746636,-4.8961639404296875,-1.4133453369140625,1.0547637939453125,5.2040842646865935
1785250394.211149,-0.04150390625,-0.05615234375,0.9838866591453552,0.9863613019511843,-4.8961639404296875,-1.5354156494140625,1.1157989501953125,5.25118366135546
1785250394.221772,-0.0410156212747097,-0.0507812462747097,0.9936522841453552,0.9957940941525235,-4.4078826904296875,-1.5964508056640625,1.2340545654296875,4.847780487806038
1785250394.232395,-0.0297851525247097,-0.0527343787252903,1.009765625,1.0115802921380503,-3.6754608154296875,-1.6574859619140625,1.2340545654296875,4.216534428907122
1785250394.240494,-0.02392578125,-0.076171875,0.9999999403953552,1.0031821760478763,-3.5552978515625,-1.41143798828125,1.0547637939453125,3.9679751346381016
1785250394.248594,-0.0283203125,-0.06201171875,0.9975585341453552,0.9998852546210774,-2.7599334716796875,-1.7795562744140625,1.4820098876953125,3.6028331364540076
1785250394.256694,-0.03173828125,-0.0859375,0.9843749403953552,0.9886286439716954,-2.7008056640625,-1.720428466796875,1.4171600341796875,3.5017949550014063
1785250394.264794,-0.0190429650247097,-0.07763671875,1.001953125,1.005136885858073,-2.8209686279296875,-1.5964508056640625,1.3599395751953125,3.5151038139507835
1785250394.275384,-0.01708984375,-0.076171875,0.9829100966453552,0.9860053120484679,-2.3326873779296875,-1.5964508056640625,0.8716583251953125,2.958018562135845
1785250394.285974,-0.0166015587747097,-0.0654296875,0.9936522841453552,0.9959425272310544,-2.6378631591796875,-1.4743804931640625,0.6275177001953125,3.086405409086525
1785250394.296564,-0.02734375,-0.05517578125,0.9877929091453552,0.989710502550344,-2.5787353515625,-1.537322998046875,0.5664825439453125,3.055182561863817
1785250394.30724,-0.0263671837747097,-0.0585937462747097,0.9941405653953552,0.996214795738003,-2.9430389404296875,-1.4743804931640625,-0.0476837158203125,3.29204340497853
1785250394.317917,-0.0234375,-0.06640625,0.9916991591453552,0.9941963230141807,-3.0670166015625,-1.537322998046875,0.0743865966796875,3.4315428309070257
1785250394.328594,-0.0268554650247097,-0.06396484375,0.9902343153953552,0.9926614310147056,-2.7599334716796875,-1.4743804931640625,-0.2307891845703125,3.1375618327668424
1785250394.336551,-0.0273437462747097,-0.068359375,0.9897460341453552,0.9924806782588692,-2.5157928466796875,-1.1692047119140625,-0.0476837158203125,2.7746219638936696
1785250394.34451,-0.02734375,-0.076171875,0.9858397841453552,0.9891561632062142,-2.2106170654296875,-1.4743804931640625,-0.2880096435546875,2.672746752569754
1785250394.352469,-0.0498046800494194,-0.07568359375,0.9926757216453552,0.9968016858241496,-1.7242431640625,-1.41143798828125,-0.2880096435546875,2.246802447559683
1785250394.360428,-0.0302734337747097,-0.07275390625,0.9951171278953552,0.998232292554116,-1.3580322265625,-1.049041748046875,-0.2880096435546875,1.7400257677138125
1785250394.371081,-0.030761711299419403,-0.06591796875,0.9833983778953552,0.9860851033929123,-0.8678436279296875,-1.3523101806640625,-0.1659393310546875,1.6153734084900335
1785250394.381734,-0.03173828125,-0.07568359375,0.9882811903953552,0.9916829312582119,-0.7476806640625,-1.354217529296875,0.0171661376953125,1.5470055489077108
1785250394.392387,-0.0224609337747097,-0.07275390625,0.9868163466453552,0.9897495271164072,-0.5016326904296875,-1.3523101806640625,0.2002716064453125,1.4561891694363003
1785250394.400401,-0.014648433774709702,-0.068359375,0.9858397841453552,0.9883155674005156,-0.2593994140625,-1.659393310546875,0.5664825439453125,1.7725057652088014
1785250394.408416,-0.0234375,-0.06689453125,0.9921874403953552,0.9947160959769847,-0.6847381591796875,-1.5354156494140625,1.0547637939453125,1.984664763661688
1785250394.416431,-0.010742183774709702,-0.07958984375,0.9887694716453552,0.9920257082345366,-0.5016326904296875,-1.0471343994140625,1.4820098876953125,1.8826787069945443
1785250394.424446,-0.024414055049419403,-0.0556640625,0.9912108778953552,0.9930727759817206,-0.5016326904296875,-0.7419586181640625,1.7223358154296875,1.9412827223996763
1785250394.43642,-0.0185546875,-0.08056640625,0.9868163466453552,0.9902735603108611,-0.3185272216796875,-0.4367828369140625,1.3599395751953125,1.463446099368229
1785250394.448398,-0.0234374962747097,-0.0732421875,0.9829100966453552,0.9859137854542829,-0.1354217529296875,-0.1316070556640625,1.2340545654296875,1.2484190557360808
1785250394.460376,-0.01318359375,-0.06103515625,0.9848632216453552,0.986840748445409,-0.133514404296875,-0.072479248046875,1.2989044189453125,1.3077583978349554
1785250394.472354,-0.02880859375,-0.06494140625,0.9902343153953552,0.9927795932159806,0.2918243408203125,0.6008148193359375,1.3599395751953125,1.5151156857518477
1785250394.480362,-0.015624992549419403,-0.06103515625,0.9960936903953552,0.998084200223643,0.5340576171875,0.720977783203125,1.4171600341796875,1.6773100681819852
1785250394.488368,-0.014648430049419403,-0.0703125,0.9809569716453552,0.9835827389593561,0.6580352783203125,0.4787445068359375,1.1157989501953125,1.3810191988515719
1785250394.496374,-0.024414055049419403,-0.0693359375,0.9838866591453552,0.9866288442758849,0.2899169921875,0.720977783203125,0.8716583251953125,1.1677538533928442
1785250394.50438,-0.013671875,-0.06640625,0.9804686903953552,0.9828100340608357,0.1697540283203125,1.1501312255859375,0.5664825439453125,1.2932597336937144
1785250394.515049,-0.012695308774709702,-0.0634765625,0.9843749403953552,0.9865011242416608,-0.1964569091796875,0.9670257568359375,0.6885528564453125,1.203261886568154
1785250394.525718,-0.017578125,-0.06689453125,0.9956054091453552,0.9980050097615558,-0.1964569091796875,1.1501312255859375,0.2002716064453125,1.1838521316365624
1785250394.536387,-0.0322265587747097,-0.0693359375,0.9780272841453552,0.9810114127023207,-0.3185272216796875,1.0890960693359375,0.2002716064453125,1.1522580247245648
1785250394.547082,-0.02294921875,-0.0625,0.9882811903953552,0.9905213919600605,-0.5016326904296875,1.0280609130859375,-0.4138946533203125,1.2164922445991835
1785250394.557778,-0.0258789025247097,-0.0581054650247097,0.9790038466453552,0.9810680376039286,-0.1983642578125,0.904083251953125,0.0743865966796875,0.9285732448252147
1785250394.568474,-0.0234375,-0.0654296875,0.9926757216453552,0.9951057475247163,-0.4425048828125,0.720977783203125,-0.2307891845703125,0.876859842221108
1785250394.579092,-0.0332031212747097,-0.0581054650247097,0.9941405653953552,0.9963905640323564,-0.3795623779296875,0.2956390380859375,-0.1659393310546875,0.5089262237013283
1785250394.589713,-0.033203125,-0.05126953125,0.9785155653953552,0.9804201773042781,-0.6847381591796875,0.3566741943359375,0.1392364501953125,0.784518716542167
1785250394.600334,-0.04736328125,-0.0615234375,0.9936522841453552,0.9966811303319958,-0.3795623779296875,-0.1316070556640625,-0.1049041748046875,0.41520224196366645
1785250394.608348,-0.0327148400247097,-0.083984375,0.9858397841453552,0.989951370525716,-0.4425048828125,-0.194549560546875,0.3223419189453125,0.5810029393481869
1785250394.616362,-0.0249023400247097,-0.072265625,0.9907225966453552,0.9936668005921613,-0.2593994140625,-0.377655029296875,0.3223419189453125,0.5601925471465488
1785250394.624376,-0.0297851525247097,-0.07373046875,0.9853515028953552,0.9885549663985054,-0.3795623779296875,-0.4367828369140625,0.1392364501953125,0.5951752972237063
1785250394.63239,-0.024414055049419403,-0.07568359375,0.9760741591453552,0.9793083358157344,-0.1983642578125,-0.743865966796875,0.1392364501953125,0.7823501418157635
1785250394.643042,-0.020507805049419403,-0.07568359375,0.9799804091453552,0.9831124954650703,-0.3185272216796875,-0.3757476806640625,0.4405975341796875,0.6608873562118011
1785250394.653694,-0.013671871274709702,-0.07763671875,0.9897460341453552,0.9928804521536707,-0.1964569091796875,-0.8640289306640625,-0.0476837158203125,0.8873641005491216
1785250394.664346,-0.0273437462747097,-0.0693359375,0.9921874403953552,0.9949829493853782,-0.0133514404296875,-0.3757476806640625,-0.4138946533203125,0.5591720348274862
1785250394.672372,-0.0175781212747097,-0.0673828125,0.9687499403953552,0.9712496490521697,0.1068115234375,-0.560760498046875,-0.5931854248046875,0.8232435762941224
1785250394.680398,-0.015624996274709702,-0.07421875,0.9780272841453552,0.9809637770544265,-0.0133514404296875,-0.5588531494140625,-0.5931854248046875,0.8150853033715437
1785250394.688424,-0.0205078087747097,-0.06689453125,0.9892577528953552,0.9917289701301788,-0.0743865966796875,-0.4367828369140625,-0.8373260498046875,0.9473265150252077
1785250394.69645,-0.0214843712747097,-0.07666015625,0.9726561903953552,0.9759090236695988,-0.0743865966796875,-0.3147125244140625,-1.0814666748046875,1.1287814259199016
1785250394.707131,-0.0224609375,-0.06201171875,0.9775390028953552,0.9797614246118048,-0.1354217529296875,-0.0095367431640625,-1.0814666748046875,1.0899542051617739
1785250394.717812,-0.019531242549419403,-0.0751953125,0.9863280653953552,0.9893830689091263,0.0457763671875,-0.194549560546875,-0.9593963623046875,0.9799930547230088
1785250394.728493,-0.0224609337747097,-0.07861328125,0.9829100966453552,0.9863046180680212,-0.0133514404296875,-0.1316070556640625,-1.0814666748046875,1.0895268912584117
1785250394.737014,-0.01806640625,-0.07568359375,0.9882811903953552,0.9913395546869728,0.354766845703125,-0.072479248046875,-0.7762908935546875,0.8565864274102879
1785250394.745534,-0.0322265625,-0.07080078125,0.9804686903953552,0.9835497724069483,0.171661376953125,0.232696533203125,-0.8373260498046875,0.8858499977895343
1785250394.754054,-0.0302734337747097,-0.06298828125,0.9970702528953552,0.999516429868038,0.1697540283203125,0.1735687255859375,-0.5931854248046875,0.6409457705868863
1785250394.762574,-0.0224609375,-0.0751953125,0.9799804091453552,0.9831177096584363,0.0457763671875,0.35858154296875,0.0171661376953125,0.3618989845718122
1785250394.772498,-0.0366210900247097,-0.06787109375,0.9887694716453552,0.9917724828100718,0.1068115234375,0.110626220703125,-0.2880096435546875,0.3264910672998486
1785250394.782422,-0.0239257775247097,-0.0732421875,0.9921874403953552,0.9951747473374882,0.2288818359375,0.110626220703125,0.0743865966796875,0.26487435001291404
1785250394.792346,-0.0161132775247097,-0.0751953125,0.9833983778953552,0.986400700720441,0.5340576171875,0.232696533203125,0.5664825439453125,0.8125685741126691
1785250394.80301,-0.0366210900247097,-0.06982421875,0.9921874403953552,0.9953152478671933,0.843048095703125,-0.255584716796875,0.6885528564453125,1.1181049482261507
1785250394.813675,-0.0322265625,-0.06591796875,0.9892577528953552,0.991975116420901,0.9613037109375,-0.255584716796875,0.8106231689453125,1.2831750832031021
1785250394.82434,-0.015136711299419403,-0.07177734375,0.9829100966453552,0.9856436299150668,0.5950927734375,0.232696533203125,0.4405975341796875,0.7761502900131583
1785250394.835041,-0.0161132775247097,-0.064453125,0.9916991591453552,0.9939220619769231,0.5340576171875,0.904083251953125,0.2002716064453125,1.0689680917998976
1785250394.845744,-0.02294921875,-0.06005859375,0.9877929091453552,0.9898830904113409,0.5340576171875,1.087188720703125,0.2574920654296875,1.2383452736047948
1785250394.856447,-0.02685546875,-0.07568359375,0.9858397841453552,0.9891053040846853,0.354766845703125,0.904083251953125,-0.0476837158203125,0.9723681288620658
1785250394.864425,-0.0302734337747097,-0.07861328125,0.9931640028953552,0.9967302872033781,-0.4425048828125,0.598907470703125,-0.5359649658203125,0.917474345343611
1785250394.872402,-0.0317382775247097,-0.06982421875,0.9829100966453552,0.9858980666740679,-0.3814697265625,0.598907470703125,-0.7762908935546875,1.0520631455210367
1785250394.880379,-0.0336913987994194,-0.06640625,0.9921874403953552,0.994977797375605,-0.2593994140625,0.415802001953125,-0.8373260498046875,0.9702032130052533
1785250394.888356,-0.0336913987994194,-0.06982421875,0.9746093153953552,0.9776880123702614,-0.4425048828125,0.293731689453125,-0.5359649658203125,0.7545510726840564
1785250394.899005,-0.0307617150247097,-0.07470703125,0.9887694716453552,0.992064761841325,-0.5016326904296875,-0.1316070556640625,-0.7190704345703125,0.8865765974135729
1785250394.909654,-0.0458984337747097,-0.07666015625,0.9755858778953552,0.9796689496600863,-0.3795623779296875,-0.3757476806640625,-0.3490447998046875,0.6380330638256575
1785250394.920303,-0.04296875,-0.076171875,0.9907225966453552,0.9945751512687683,-0.7476806640625,-0.194549560546875,-0.5931854248046875,0.9740353459308552
1785250394.928315,-0.0317382775247097,-0.07177734375,0.9907225966453552,0.9938262266813833,-0.5645751953125,-0.377655029296875,-0.4138946533203125,0.795410118343055
1785250394.936327,-0.030273430049419403,-0.0810546875,0.9721679091453552,0.9760106487660528,-0.3795623779296875,-0.1926422119140625,-0.1659393310546875,0.4568528013941237
1785250394.944339,-0.0366210900247097,-0.0693359375,0.9946288466453552,0.9977149487918237,-0.5645751953125,-0.560760498046875,0.2002716064453125,0.8205523771704722
1785250394.952351,-0.0297851525247097,-0.08251953125,0.9843749403953552,0.9882766068399065,-0.3185272216796875,-0.6198883056640625,0.2002716064453125,0.7251412405857421
1785250394.963036,-0.02783203125,-0.06689453125,0.9755858778953552,0.9782726130396932,-0.0133514404296875,-0.7419586181640625,0.4405975341796875,0.8630220386262992
1785250394.97372,-0.0297851525247097,-0.06298828125,0.9799804091453552,0.9824542132814369,-0.0133514404296875,-0.6198883056640625,0.6885528564453125,0.926576930740027
1785250394.984404,-0.0234375,-0.06982421875,0.9912108778953552,0.9939435307845103,0.2288818359375,-1.171112060546875,1.1157989501953125,1.6336761155251764
1785250394.995113,-0.02734375,-0.0849609375,1.00390625,1.0078659634862186,-0.0133514404296875,-0.8640289306640625,0.9288787841796875,1.2686764952836342
1785250395.005822,-0.020507805049419403,-0.07666015625,0.9951171278953552,0.998276238250175,0.2288818359375,-0.682830810546875,0.7457733154296875,1.036736537728468
1785250395.016531,-0.0190429650247097,-0.06298828125,0.9912108778953552,0.9933927534212449,0.3528594970703125,-0.4978179931640625,0.5664825439453125,0.8326073814141701
1785250395.027183,-0.013671875,-0.0693359375,0.9902343153953552,0.9927529359218875,0.2918243408203125,-0.3757476806640625,0.5664825439453125,0.7397636365856226
1785250395.037835,-0.01806640625,-0.06689453125,0.9819335341453552,0.9843753038476406,0.4138946533203125,-0.4367828369140625,0.2574920654296875,0.6545152362085123
1785250395.048487,-0.012207027524709702,-0.068359375,0.9814452528953552,0.9838987753332186,0.4119873046875,-0.560760498046875,-0.0476837158203125,0.6974665670466812
1785250395.056493,-0.0166015625,-0.07568359375,0.9780272841453552,0.9810917320888479,0.4749298095703125,0.1125335693359375,-0.1659393310546875,0.5155172061501505
1785250395.064499,-0.0253906212747097,-0.0620117224752903,0.9853515028953552,0.9876273192005187,0.4119873046875,-0.377655029296875,0.1392364501953125,0.5759719172319829
1785250395.072505,-0.02880859375,-0.07666015625,0.9731444716453552,0.97658429094679,0.4749298095703125,-0.4978179931640625,-0.1049041748046875,0.695978422242989
1785250395.080511,-0.0063476525247097015,-0.08154296875,0.9794921278953552,0.9829010006374542,0.1068115234375,-0.072479248046875,0.2002716064453125,0.23826594235153747
1785250395.08847,-0.0278320275247097,-0.07421875,0.9799804091453552,0.983180882094641,0.2307891845703125,-0.3147125244140625,0.0171661376953125,0.3906434397517461
1785250395.096429,-0.0234375,-0.064453125,0.9995116591453552,1.0018618060870552,0.0457763671875,0.171661376953125,0.2002716064453125,0.2677159324330807
1785250395.104388,-0.0209960900247097,-0.078125,0.9897460341453552,0.9930466069262733,0.3528594970703125,0.5397796630859375,-0.1659393310546875,0.6658887076267018
1785250395.112347,-0.029296867549419403,-0.06982421875,0.9853515028953552,0.9882567036101456,0.1697540283203125,0.5397796630859375,-0.1049041748046875,0.5754853609811409
1785250395.123054,-0.015136711299419403,-0.0654296875,0.9819335341453552,0.9842274277393904,0.5970001220703125,0.2956390380859375,-0.3490447998046875,0.7520929855164459
1785250395.133761,-0.030273430049419403,-0.06689453125,0.9887694716453552,0.9914920206113357,0.4138946533203125,0.3566741943359375,-0.3490447998046875,0.648349857116531
1785250395.144468,-0.0185546875,-0.064453125,0.9848632216453552,0.9871443901983926,0.3528594970703125,0.1125335693359375,-0.2307891845703125,0.43639119676596355
1785250395.153379,-0.0224609375,-0.0712890625,0.9936522841453552,0.9964594753088505,0.0457763671875,0.232696533203125,-0.2880096435546875,0.3730853885347643
1785250395.162291,-0.0341796837747097,-0.07763671875,0.9873046278953552,0.9909420463098695,0.4138946533203125,0.0514984130859375,-0.1659393310546875,0.44888387383418965
1785250395.171203,-0.0312499962747097,-0.06787109375,0.9960936903953552,0.9988922302628189,0.1087188720703125,-0.1926422119140625,-0.0476837158203125,0.22628422770890563
1785250395.180115,-0.015624996274709702,-0.07666015625,0.9887694716453552,0.9918598631473571,0.1697540283203125,-0.0095367431640625,-0.4138946533203125,0.4474552085385669
1785250395.187236,-0.030273430049419403,-0.07666015625,0.9868163466453552,0.990252372948289,0.1697540283203125,0.1125335693359375,-0.2880096435546875,0.35274606892063
1785250395.194357,-0.0385742112994194,-0.0703125,0.9946288466453552,0.9978568835322487,0.1068115234375,0.110626220703125,-0.2880096435546875,0.3264910672998486
1785250395.201478,-0.0454101525247097,-0.06494140625,0.9863280653953552,0.9895062004780916,0.2288818359375,-0.072479248046875,-0.5359649658203125,0.5872806661267931
1785250395.208599,-0.02392578125,-0.06884765625,0.9809569716453552,0.9836610305380443,0.2288818359375,-0.255584716796875,0.2574920654296875,0.428966905531774
1785250395.218148,-0.02783203125,-0.0625,0.9907225966453552,0.9930821393355216,0.171661376953125,0.232696533203125,0.3223419189453125,0.4330353537663436
1785250395.227697,-0.0283203125,-0.06591796875,0.9824218153953552,0.985037990165318,-0.0762939453125,-0.072479248046875,0.1392364501953125,0.1745302167298801
1785250395.237246,-0.020507805049419403,-0.08154296875,0.9804686903953552,0.9840674157119985,0.2288818359375,-0.194549560546875,0.1392364501953125,0.33109396761960885
1785250395.246795,-0.03271484375,-0.06494140625,0.9824218153953552,0.9851092683616473,-0.1354217529296875,0.1125335693359375,0.2002716064453125,0.2666675303486004
1785250395.256344,-0.0185546875,-0.06982421875,0.9848632216453552,0.9875096269413978,-0.3814697265625,0.110626220703125,-0.0476837158203125,0.4000388102986476
1785250395.267022,-0.0263671837747097,-0.07763671875,0.9819335341453552,0.9853507771132387,-0.621795654296875,0.415802001953125,-0.2880096435546875,0.801542697122994
1785250395.2777,-0.0410156212747097,-0.06884765625,0.9965819716453552,0.9997989333702113,-0.5016326904296875,0.2956390380859375,-0.2880096435546875,0.6496055354818054
1785250395.288378,-0.0307617150247097,-0.0620117224752903,0.9848632216453552,0.9872929161020462,-0.5645751953125,-0.072479248046875,-0.6542205810546875,0.8671810429403545
1785250395.299014,-0.0361328087747097,-0.076171875,0.9824218153953552,0.9860326352487887,-0.4425048828125,-0.12969970703125,-0.5359649658203125,0.7070297234937617
1785250395.309651,-0.029296867549419403,-0.080078125,0.9965819716453552,1.0002231944722475,-0.1964569091796875,-0.6198883056640625,-0.5931854248046875,0.8801850810279709
1785250395.320288,-0.029296867549419403,-0.07958984375,0.9975585341453552,1.0011572697246858,-0.6237030029296875,-0.1316070556640625,-0.4138946533203125,0.7600227871657632
1785250395.328306,-0.0307617150247097,-0.07470703125,0.9951171278953552,0.9983914672412574,-0.6847381591796875,-0.8640289306640625,-0.4711151123046875,1.1989002413475145
1785250395.336326,-0.0415039025247097,-0.0566406287252903,0.9755858778953552,0.9781096768236309,-0.4425048828125,-0.499725341796875,-0.5359649658203125,0.8560341308228759
1785250395.344346,-0.0209960900247097,-0.0849609375,0.9873046278953552,0.9911758799329161,-0.133514404296875,-0.255584716796875,-0.4711151123046875,0.5523577578496988
1785250395.352366,-0.0214843712747097,-0.0673828125,0.9873046278953552,0.9898345568291024,-0.133514404296875,-0.560760498046875,-0.7762908935546875,0.966905364418082
1785250395.361956,-0.0234375,-0.07958984375,0.9970702528953552,1.0005163411175286,0.2918243408203125,-0.8029937744140625,-0.7190704345703125,1.1167017227156455
1785250395.371546,-0.025390617549419403,-0.0654296875,0.9853515028953552,0.9878478180995409,0.1068115234375,-0.743865966796875,-0.4138946533203125,0.8579359312587571
1785250395.381136,-0.0209960900247097,-0.072265625,0.9902343153953552,0.9930897017588463,0.5970001220703125,-0.8029937744140625,-0.5359649658203125,1.135106423242543
1785250395.390726,-0.0258789025247097,-0.0751953125,0.9858397841453552,0.9890420277327029,0.6580352783203125,-1.2302398681640625,-0.2880096435546875,1.4245877001837828
1785250395.400316,-0.0263671837747097,-0.0771484375,0.9877929091453552,0.9911518254771792,0.7801055908203125,-0.9250640869140625,-0.4711151123046875,1.2985598741564115
1785250395.409959,-0.0312499962747097,-0.076171875,0.9746093153953552,0.9780807913784975,0.7190704345703125,-1.1081695556640625,-0.3490447998046875,1.366358051992419
1785250395.419602,-0.0317382775247097,-0.06689453125,0.9838866591453552,0.9866687157377603,0.6580352783203125,-0.9860992431640625,-0.0476837158203125,1.1864551747273304
1785250395.429245,-0.0166015587747097,-0.07421875,0.9868163466453552,0.9897426618125534,0.354766845703125,-0.560760498046875,-0.3490447998046875,0.7497627112964599
1785250395.438888,-0.014648430049419403,-0.0712890625,0.9794921278953552,0.9821922090629779,0.4749298095703125,-0.6198883056640625,-0.0476837158203125,0.7823640918856053
1785250395.448531,-0.01806640625,-0.0712890625,0.9848632216453552,0.9876052302497121,0.3528594970703125,-0.3757476806640625,-0.2880096435546875,0.5904622756600411
1785250395.456473,-0.0185546875,-0.06103515625,0.9731444716453552,0.975233166694305,0.7781982421875,-0.255584716796875,-0.3490447998046875,0.8903641523975165
1785250395.464415,-0.015136711299419403,-0.0615234375,0.9829100966453552,0.9849500045576729,0.2899169921875,-0.255584716796875,-0.4138946533203125,0.566289849693889
1785250395.472357,-0.01806640625,-0.0693359375,0.9912108778953552,0.9937971984876365,0.2899169921875,-0.255584716796875,-0.2880096435546875,0.48200100062104007
1785250395.480299,-0.01904296875,-0.07373046875,0.9853515028953552,0.9882896341351777,-0.0762939453125,0.232696533203125,-0.4711151123046875,0.5309594068268855
1785250395.490985,-0.01416015625,-0.060546875,0.9892577528953552,0.9912100361481706,0.0457763671875,-0.011444091796875,-0.5931854248046875,0.5950591493546316
1785250395.501671,-0.0219726525247097,-0.07861328125,0.9692382216453552,0.9726693044124061,0.171661376953125,0.232696533203125,-0.8373260498046875,0.8858499977895343
1785250395.512357,-0.0249023400247097,-0.0732421875,0.9970702528953552,1.0000668146565503,-0.3814697265625,0.415802001953125,-0.5931854248046875,0.8187059333561792
1785250395.520447,-0.00927734375,-0.07080078125,0.9936522841453552,0.9962146764226814,-0.5626678466796875,0.5397796630859375,-0.7762908935546875,1.1002657596164027
1785250395.528535,-0.013671871274709702,-0.06787109375,0.9819335341453552,0.9843713074395053,-0.1983642578125,0.415802001953125,-0.8373260498046875,0.9556958707074403
1785250395.536623,-0.0268554650247097,-0.06884765625,0.9843749403953552,0.9871449939351213,-0.3795623779296875,0.3566741943359375,-0.5931854248046875,0.7894004230082137
1785250395.544711,-0.029296867549419403,-0.0654296875,0.9838866591453552,0.9864949612130638,-0.2574920654296875,0.6618499755859375,-0.2880096435546875,0.7663531227331501
1785250395.555244,-0.0351562462747097,-0.0634765625,0.9838866591453552,0.9865587634211926,-0.0762939453125,0.110626220703125,-0.5931854248046875,0.6082169637548108
1785250395.565777,-0.03173828125,-0.07568359375,0.9863280653953552,0.9897365192040573,-0.5016326904296875,0.1125335693359375,-0.4138946533203125,0.6600060184440402
1785250395.57631,-0.0361328087747097,-0.0791015625,0.9765624403953552,0.9804268647129284,-0.6847381591796875,0.1125335693359375,-0.3490447998046875,0.7767640717328317
1785250395.584342,-0.0371093712747097,-0.07470703125,0.9873046278953552,0.9908222212981391,-0.1354217529296875,0.3566741943359375,-0.4138946533203125,0.5629070226235244
1785250395.592375,-0.033203125,-0.07568359375,0.9931640028953552,0.996596804389722,-0.4425048828125,0.171661376953125,-0.4711151123046875,0.6687508121058288
1785250395.600408,-0.015136711299419403,-0.07470703125,0.9882811903953552,0.9912164101932588,-0.3185272216796875,0.1735687255859375,-0.5931854248046875,0.6953090260116179
1785250395.608441,-0.030273430049419403,-0.0703125,0.9873046278953552,0.9902680225508612,-0.0743865966796875,-0.0095367431640625,-0.6542205810546875,0.6585050371191528
1785250395.619129,-0.0185546837747097,-0.07763671875,0.9877929091453552,0.991012899888841,0.171661376953125,0.232696533203125,-0.2880096435546875,0.40812358383545305
1785250395.629817,-0.0268554650247097,-0.07177734375,0.9819335341453552,0.9849196254297539,0.0457763671875,0.110626220703125,-0.1659393310546875,0.2046203755514551
1785250395.640505,-0.0185546837747097,-0.0634765625,0.9921874403953552,0.9943889918714318,-0.5645751953125,-0.072479248046875,-0.5931854248046875,0.8221115135797001
1785250395.648537,-0.019531242549419403,-0.0595703125,0.9897460341453552,0.9917294508450026,-0.5645751953125,0.232696533203125,-0.6542205810546875,0.8949287102347502
1785250395.656569,-0.0234375,-0.076171875,0.9907225966453552,0.993922901663394,-0.7476806640625,0.05340576171875,-1.1425018310546875,1.366451237608212
1785250395.664601,-0.0234375,-0.06689453125,0.9853515028953552,0.9878976561241263,-0.6866455078125,-0.255584716796875,-0.8373260498046875,1.1126187642408099
1785250395.672633,-0.0375976525247097,-0.07861328125,0.9960936903953552,0.9998981305661583,-0.8068084716796875,-0.1926422119140625,-1.2645721435546875,1.5123470626941928
1785250395.683232,-0.0253906212747097,-0.06494140625,0.9892577528953552,0.9917121414795782,-0.8068084716796875,-0.5588531494140625,-1.2645721435546875,1.6007496552673772
1785250395.693831,-0.024414055049419403,-0.0751953125,0.9853515028953552,0.9885180652694537,-0.8068084716796875,-0.6198883056640625,-1.6307830810546875,1.9221485059504104
1785250395.70443,-0.0439453050494194,-0.06884765625,0.9780272841453552,0.9814318917478401,-0.6237030029296875,-0.8029937744140625,-1.3256072998046875,1.6706403415776618
1785250395.712405,-0.0283203125,-0.080078125,0.9790038466453552,0.9826815750536974,0.1068115234375,-0.743865966796875,-1.4476776123046875,1.6311087478356219
1785250395.720381,-0.020507805049419403,-0.0654296875,0.9863280653953552,0.9887085853075398,0.1087188720703125,-0.9860992431640625,-1.0204315185546875,1.4231978058487875
1785250395.728357,-0.02392578125,-0.0859375,0.9804686903953552,0.9845184354598221,-0.0743865966796875,-0.9860992431640625,-0.9593963623046875,1.3778122016943348
1785250395.736333,-0.03271484375,-0.0751953125,0.9921874403953552,0.9955704459764996,-0.0133514404296875,-1.0471343994140625,-1.0814666748046875,1.5054032284112135
1785250395.747028,-0.0224609337747097,-0.0522460974752903,0.9853515028953552,0.9869912524969837,0.1068115234375,-1.049041748046875,-0.9593963623046875,1.425601161155444
1785250395.757723,-0.0278320275247097,-0.0673828125,0.9960936903953552,0.998758081430125,0.7171630859375,-1.049041748046875,-0.2307891845703125,1.2915398285346338
1785250395.768418,-0.02392578125,-0.0751953125,0.9843749403953552,0.9875326836660925,0.5340576171875,-0.865936279296875,-0.3490447998046875,1.0755907449161135
1785250395.779086,-0.0288085900247097,-0.07275390625,0.9829100966453552,0.9860199408841726,0.7190704345703125,-1.1081695556640625,-0.1659393310546875,1.3314044898394706
1785250395.789754,-0.014648430049419403,-0.07666015625,0.9848632216453552,0.9879508699367875,0.5970001220703125,-0.8029937744140625,0.0171661376953125,1.000751129793559
1785250395.800422,-0.02392578125,-0.08056640625,0.9868163466453552,0.9903887574235426,0.7781982421875,-1.232147216796875,0.0171661376953125,1.457420304609269
1785250395.808408,-0.013671875,-0.08154296875,0.9858397841453552,0.9893008925106354,0.5970001220703125,0.1735687255859375,-0.4711151123046875,0.7800542912485982
1785250395.816394,-0.012207027524709702,-0.06982421875,0.9892577528953552,0.9917939981208822,0.5970001220703125,0.5397796630859375,-0.7762908935546875,1.1182123151929027
1785250395.82438,-0.0063476525247097015,-0.076171875,0.9897460341453552,0.9926931345285152,0.0457763671875,0.415802001953125,-1.2645721435546875,1.3319645216279632
1785250395.832366,-0.0175781212747097,-0.08251953125,0.9858397841453552,0.9894435524015651,-0.1964569091796875,0.2956390380859375,-1.5087127685546875,1.5499070862489674
1785250395.843026,-0.0166015587747097,-0.072265625,0.9799804091453552,0.9827815294454249,-0.2593994140625,0.110626220703125,-1.4476776123046875,1.4748887028827722
1785250395.853686,-0.0200195275247097,-0.083984375,0.9780272841453552,0.9818307009149758,-0.1354217529296875,-0.0095367431640625,-1.3256072998046875,1.3325406987901725
1785250395.864346,-0.024902336299419403,-0.0615234375,0.9887694716453552,0.990994615410609,-0.5645751953125,-0.377655029296875,-1.3256072998046875,1.4894976286019543
1785250395.875018,-0.0244140587747097,-0.07275390625,0.9931640028953552,0.9961244469380389,-0.2593994140625,-0.255584716796875,-1.0204315185546875,1.083463006999285
1785250395.88569,-0.0224609375,-0.080078125,0.9794921278953552,0.9830166979384762,-0.5016326904296875,-0.5588531494140625,-1.1425018310546875,1.367209798341519
1785250395.896362,-0.0336913987994194,-0.07666015625,0.9916991591453552,0.9952281709030047,-0.3185272216796875,-0.4978179931640625,-0.5359649658203125,0.7978350643182112
1785250395.907068,-0.03271484375,-0.07470703125,0.9858397841453552,0.9892075017525574,-0.5016326904296875,-0.3757476806640625,-0.1659393310546875,0.648349857116531
1785250395.917774,-0.015624996274709702,-0.0620117224752903,0.9921874403953552,0.9942462024625609,-0.2593994140625,0.05340576171875,0.2002716064453125,0.3320375697852795
1785250395.92848,-0.017578125,-0.0712890625,0.9843749403953552,0.9871094894635568,-0.3795623779296875,-0.1316070556640625,0.1392364501953125,0.4251762045354776
1785250395.939114,-0.020996086299419403,-0.0859375,0.9926757216453552,0.9966098423607251,0.1087188720703125,-0.0095367431640625,0.6275177001953125,0.6369373647956543
1785250395.94975,-0.0175781212747097,-0.06884765625,0.9985350966453552,1.0010601027666697,0.2307891845703125,0.1735687255859375,0.3833770751953125,0.4799663863245723
1785250395.960386,-0.0258789025247097,-0.072265625,0.9848632216453552,0.9878499903842648,0.2288818359375,-0.377655029296875,0.5664825439453125,0.7182706234909633
1785250395.968382,-0.0161132775247097,-0.06640625,0.9868163466453552,0.9891794224295897,0.5970001220703125,-0.1926422119140625,0.6885528564453125,0.9314640109430475
1785250395.97638,-0.024902336299419403,-0.06005859375,0.9916991591453552,0.9938281457505626,0.6580352783203125,0.1735687255859375,0.7457733154296875,1.0096109983665025
1785250395.984378,-0.012207027524709702,-0.0791015625,0.9829100966453552,0.9861634381776238,0.4749298095703125,0.1125335693359375,0.5664825439453125,0.7477463479287161
1785250395.992376,-0.017578125,-0.07177734375,0.9892577528953552,0.9920140519256212,0.7801055908203125,-0.1926422119140625,0.0743865966796875,0.8069752910751592
1785250396.00316,-0.010742183774709702,-0.0791015625,0.9916991591453552,0.994906866973887,0.843048095703125,0.232696533203125,0.2574920654296875,0.9116906997401394
1785250396.013944,-0.0327148400247097,-0.0732421875,0.9926757216453552,0.9959115257550514,0.5340576171875,0.476837158203125,0.3223419189453125,0.7851722910473654
1785250396.024728,-0.0302734337747097,-0.064453125,0.9902343153953552,0.9927913605089869,0.5340576171875,0.720977783203125,0.0171661376953125,0.8973968902508282
1785250396.03399,-0.0312499962747097,-0.06689453125,1.00341796875,1.0061307373242816,0.2288818359375,0.110626220703125,0.0743865966796875,0.26487435001291404
1785250396.04325,-0.0371093712747097,-0.0581054650247097,0.9809569716453552,0.9833767999712868,0.4749298095703125,0.2956390380859375,0.3223419189453125,0.6456508944996654
1785250396.05251,-0.029785148799419403,-0.07958984375,0.9814452528953552,0.9851174969251032,0.1068115234375,-0.072479248046875,0.7457733154296875,0.7568617977831014
1785250396.06177,-0.020507805049419403,-0.0751953125,0.9921874403953552,0.9952441016997811,0.0457763671875,0.171661376953125,0.5054473876953125,0.5357612955956629
1785250396.070327,-0.0263671837747097,-0.0791015625,0.9907225966453552,0.9942250998007774,0.1087188720703125,0.9670257568359375,0.4405975341796875,1.0682157060507862
1785250396.078886,-0.01416015625,-0.07470703125,0.9902343153953552,0.9931493593260385,-0.2574920654296875,0.6618499755859375,0.3223419189453125,0.7799050369446904
1785250396.087445,-0.02685546875,-0.0712890625,0.9843749403953552,0.9873182718415933,0.0457763671875,1.02996826171875,-0.1659393310546875,1.0442537802333807
1785250396.096004,-0.020996086299419403,-0.06591796875,0.9848632216453552,0.9872900179753094,-0.1354217529296875,0.6008148193359375,0.0171661376953125,0.6161267520434403
1785250396.104563,-0.0234375,-0.0859375,0.9912108778953552,0.9952052927766114,0.1697540283203125,0.6008148193359375,-0.4711151123046875,0.7821408609109404
1785250396.114129,-0.03759765625,-0.06640625,1.00390625,1.0068024297664453,0.2918243408203125,0.1735687255859375,0.0171661376953125,0.3399738588187492
1785250396.123695,-0.024902336299419403,-0.08056640625,0.9819335341453552,0.9855478363064863,0.1087188720703125,0.0514984130859375,-0.1049041748046875,0.15961442787562555
1785250396.133261,-0.0322265587747097,-0.0791015625,0.9907225966453552,0.9943977432517214,0.3528594970703125,-0.3147125244140625,-0.4711151123046875,0.6674602960009263
1785250396.142827,-0.0288085900247097,-0.07763671875,0.9995116591453552,1.0029361653290698,0.0457763671875,-0.682830810546875,0.0171661376953125,0.6845787521595755
1785250396.152393,-0.0224609375,-0.07568359375,0.9770507216453552,0.980234978331218,0.1697540283203125,-0.4978179931640625,-0.1659393310546875,0.5515206669198763
1785250396.160462,-0.0405273400247097,-0.080078125,0.9848632216453552,0.9889441524892405,-0.0762939453125,-0.560760498046875,-0.0476837158203125,0.5679320725364596
1785250396.168531,-0.0273437462747097,-0.07373046875,0.9785155653953552,0.9816702981161354,0.2307891845703125,-0.3147125244140625,0.3223419189453125,0.5061738174254453
1785250396.1766,-0.0336913987994194,-0.0791015625,0.9863280653953552,0.9900682906393614,0.1068115234375,-0.255584716796875,0.2574920654296875,0.37819890634218506
1785250396.184669,-0.029785148799419403,-0.06640625,0.9794921278953552,0.9821923303187807,0.4119873046875,-0.255584716796875,0.3833770751953125,0.6180898546887192
1785250396.195211,-0.0312499962747097,-0.07763671875,0.9907225966453552,0.9942511181131009,0.2307891845703125,-0.1316070556640625,0.2002716064453125,0.33270524667245566
1785250396.205753,-0.0229492150247097,-0.07421875,0.9863280653953552,0.9893827075042079,0.171661376953125,-0.255584716796875,0.0171661376953125,0.30835993916356275
1785250396.216295,-0.01416015625,-0.06396484375,0.9912108778953552,0.9933735529593423,0.5340576171875,0.232696533203125,-0.1049041748046875,0.5919206880420685
1785250396.224321,-0.0219726525247097,-0.07666015625,0.9916991591453552,0.9949003966552886,0.4138946533203125,0.1735687255859375,0.0171661376953125,0.4491431429199856
1785250396.232347,-0.0253906212747097,-0.0693359375,0.9794921278953552,0.9822713395425373,0.4749298095703125,0.1125335693359375,-0.4138946533203125,0.6399460229528122
1785250396.240373,-0.014160152524709702,-0.072265625,0.9985350966453552,1.0012468075897734,0.2307891845703125,-0.3147125244140625,-0.4711151123046875,0.6117655349719858
1785250396.248399,-0.0268554650247097,-0.068359375,0.9887694716453552,0.9914934635235468,0.1068115234375,0.232696533203125,-0.5931854248046875,0.646084612341534
1785250396.259068,-0.0312499962747097,-0.072265625,1.00439453125,1.007475685676194,0.1697540283203125,0.4177093505859375,-0.7190704345703125,0.8487401378343298
1785250396.269737,-0.0190429650247097,-0.06787109375,0.9824218153953552,0.9849475840106716,0.1087188720703125,0.3566741943359375,-0.8373260498046875,0.9165976149494134
1785250396.280406,-0.02294921875,-0.07666015625,1.00244140625,1.0056302596690234,-0.1964569091796875,0.3566741943359375,-0.5931854248046875,0.7195003448715946
1785250396.291035,-0.0224609337747097,-0.06396484375,0.9960936903953552,0.9983980342666103,-0.3795623779296875,0.2956390380859375,-1.0204315185546875,1.128162454454075
1785250396.301667,-0.021484375,-0.06591796875,0.9907225966453552,0.9931455182786568,-0.1354217529296875,0.1125335693359375,-0.7190704345703125,0.7403142206301143
1785250396.312299,-0.0209960900247097,-0.06640625,0.9848632216453552,0.9873227391208289,-0.1354217529296875,0.0514984130859375,-0.7190704345703125,0.7335212523097454
1785250396.320631,-0.0209960900247097,-0.0869140625,0.9804686903953552,0.984537324280884,0.1697540283203125,0.0514984130859375,-0.3490447998046875,0.39153644651812136
1785250396.328964,-0.0219726525247097,-0.07177734375,0.9829100966453552,0.9857723076969442,0.0457763671875,-0.194549560546875,-0.1049041748046875,0.2257208302158209
1785250396.337297,-0.0312499962747097,-0.076171875,0.9858397841453552,0.9892718518243333,-0.0133514404296875,-0.3757476806640625,-0.2880096435546875,0.4736181323244159
1785250396.34563,-0.0224609375,-0.06591796875,0.9838866591453552,0.9863481283815129,0.2918243408203125,-0.1316070556640625,-0.1049041748046875,0.3368779436045435
1785250396.355858,-0.01416015625,-0.06884765625,0.9907225966453552,0.9932128539743421,0.1087188720703125,-0.1316070556640625,0.2574920654296875,0.30893749206603444
1785250396.366086,-0.01904296875,-0.080078125,0.9892577528953552,0.9926762022058838,0.2288818359375,-0.011444091796875,-0.2307891845703125,0.3252406951379328
1785250396.376314,-0.024902336299419403,-0.07177734375,0.9882811903953552,0.9911971674284765,0.1087188720703125,-0.1316070556640625,-0.0476837158203125,0.17723980083276145
1785250396.384359,-0.0278320275247097,-0.0791015625,0.9887694716453552,0.9923188736509613,0.171661376953125,-0.255584716796875,-0.1049041748046875,0.32526306536253713
1785250396.392404,-0.01904296875,-0.06884765625,0.9824218153953552,0.9850153591668696,0.0457763671875,-0.011444091796875,0.0171661376953125,0.05021074898181222
1785250396.400449,-0.01220703125,-0.08056640625,0.9907225966453552,0.9940680162502432,0.171661376953125,0.232696533203125,-0.0476837158203125,0.29306832250625153
1785250396.408494,-0.01904296875,-0.0576171875,0.9907225966453552,0.9925792857288221,0.1697540283203125,0.1735687255859375,0.3223419189453125,0.40354286679589113
1785250396.41912,-0.020019523799419403,-0.0615234375,0.9741210341453552,0.9762672297375284,-0.2593994140625,0.415802001953125,-0.2880096435546875,0.5684442942142115
1785250396.429746,-0.0346679612994194,-0.06494140625,0.9892577528953552,0.9919930218756345,-0.1354217529296875,0.0514984130859375,-0.1659393310546875,0.2202884456974454
1785250396.440372,-0.0234375,-0.05712890625,0.9951171278953552,0.9970311562665793,-0.1964569091796875,0.4787445068359375,-0.2307891845703125,0.5666173909302915
1785250396.448357,-0.0249023400247097,-0.07861328125,0.9848632216453552,0.9883095364698582,-0.6847381591796875,0.4787445068359375,-0.1659393310546875,0.8518207035833593
1785250396.456343,-0.0175781212747097,-0.07763671875,0.9819335341453552,0.9851547674984893,-0.5016326904296875,0.6008148193359375,-0.4138946533203125,0.8853940293951296
1785250396.464329,-0.014648433774709702,-0.08203125,0.9946288466453552,0.9981133428462341,-0.4425048828125,0.476837158203125,-0.1659393310546875,0.6713569157661322
1785250396.472315,-0.0263671837747097,-0.07861328125,0.9765624403953552,0.9800762604818222,-0.6237030029296875,0.4787445068359375,-0.4711151123046875,0.9165976149494134
1785250396.480494,-0.02783203125,-0.0615234375,0.9863280653953552,0.9886368432907311,-0.6847381591796875,0.2956390380859375,-0.3490447998046875,0.8234689185074685
1785250396.488673,-0.0307617150247097,-0.06884765625,0.9833983778953552,0.986285279485401,-0.9307861328125,0.110626220703125,-0.4138946533203125,1.0246510478159123
1785250396.496852,-0.015624992549419403,-0.05615234375,0.9902343153953552,0.9919481969776927,-0.7457733154296875,0.3566741943359375,-0.1659393310546875,0.8431667572331439
1785250396.505031,-0.02685546875,-0.0712890625,0.9838866591453552,0.9868314469442689,-0.4425048828125,-0.011444091796875,-0.4711151123046875,0.6464448836457892
1785250396.515493,-0.03271484375,-0.0751953125,0.9863280653953552,0.9897310991426428,-0.1354217529296875,0.2956390380859375,-0.3490447998046875,0.47704692041519575
1785250396.525955,-0.0283203125,-0.0703125,0.9843749403953552,0.987289172955273,-0.3795623779296875,0.3566741943359375,-0.4711151123046875,0.7023058654793418
1785250396.536417,-0.02294921875,-0.06005859375,0.9897460341453552,0.9918320994154814,-0.1964569091796875,0.2956390380859375,-0.5359649658203125,0.6428500622941427
1785250396.544448,-0.0292968712747097,-0.08349609375,0.9833983778953552,0.9873713961753255,-0.1964569091796875,-0.3147125244140625,-0.1049041748046875,0.38554400018540075
1785250396.55248,-0.029785148799419403,-0.08935546875,0.9833983778953552,0.9878987420438148,-0.3185272216796875,-0.0095367431640625,-0.1659393310546875,0.3592859613344714
1785250396.560512,-0.0214843712747097,-0.078125,0.9897460341453552,0.9930570506977574,-0.0133514404296875,-0.1926422119140625,0.0171661376953125,0.19386582745823072
1785250396.568544,-0.03271484375,-0.07958984375,0.9877929091453552,0.991533981055405,-0.133514404296875,-0.072479248046875,-0.1659393310546875,0.2249782192637034
1785250396.579235,-0.0219726525247097,-0.07763671875,0.9882811903953552,0.9915694473139531,-0.0743865966796875,0.0514984130859375,-0.1659393310546875,0.18900083043953414
1785250396.589926,-0.01904296875,-0.07568359375,0.9960936903953552,0.9991462761113441,0.0457763671875,0.110626220703125,-0.2880096435546875,0.31190253490544045
1785250396.600617,-0.0341796800494194,-0.06640625,1.005859375,1.0086283373189224,-0.2593994140625,0.415802001953125,-0.5359649658203125,0.72624913454748
1785250396.611206,-0.0400390587747097,-0.07958984375,0.9750975966453552,0.9791593294450408,0.2307891845703125,0.3566741943359375,-0.4711151123046875,0.6343733740169729
1785250396.621795,-0.0234375,-0.0751953125,0.9799804091453552,0.9831405055926241,0.2288818359375,0.293731689453125,-0.2880096435546875,0.4707597635648207
1785250396.632384,-0.0219726525247097,-0.0771484375,0.9892577528953552,0.9925047005083808,0.0457763671875,0.05340576171875,-0.5931854248046875,0.5973412754685233
1785250396.643039,-0.0180664025247097,-0.068359375,0.9887694716453552,0.9912943392900064,-0.2593994140625,-0.072479248046875,-0.5931854248046875,0.6514677625286813
1785250396.653693,-0.0268554650247097,-0.0595703087747097,0.9956054091453552,0.997747447207307,-0.2593994140625,-0.194549560546875,-0.4138946533203125,0.5257816767177154
1785250396.664347,-0.0224609375,-0.06591796875,0.9907225966453552,0.9931671238121106,-0.5016326904296875,-0.1926422119140625,-0.3490447998046875,0.6407641143116268
1785250396.672359,-0.0234375,-0.076171875,0.9877929091453552,0.9910026752260105,0.2288818359375,0.05340576171875,-0.1049041748046875,0.25737901254440504
1785250396.680374,-0.0385742112994194,-0.0703125,0.9897460341453552,0.9929899443297907,0.0457763671875,-0.194549560546875,-0.1049041748046875,0.2257208302158209
1785250396.688389,-0.03271484375,-0.06689453125,0.9853515028953552,0.9881612841894178,-0.0762939453125,0.110626220703125,0.1392364501953125,0.19350895550696098
1785250396.696404,-0.029785148799419403,-0.07080078125,0.9799804091453552,0.982986016189097,-0.1964569091796875,0.1125335693359375,0.3833770751953125,0.4452382543955927
1785250396.707062,-0.0371093712747097,-0.0791015625,0.9838866591453552,0.9877586348245982,-0.1354217529296875,0.1125335693359375,0.3223419189453125,0.3672971114824918
1785250396.71772,-0.020019523799419403,-0.080078125,0.9912108778953552,0.9946417907441613,-0.2593994140625,-0.255584716796875,0.5664825439453125,0.6734345373314766
1785250396.728378,-0.02783203125,-0.08154296875,0.9843749403953552,0.988138604141354,-0.0762939453125,-0.255584716796875,0.7457733154296875,0.7920367109916521
1785250396.73638,-0.01806640625,-0.08154296875,0.9873046278953552,0.990831004284252,0.354766845703125,-0.255584716796875,0.6885528564453125,0.8156519468433107
1785250396.744382,-0.02685546875,-0.07080078125,0.9926757216453552,0.9955596693174746,0.2918243408203125,-0.4978179931640625,0.5054473876953125,0.7671122877005165
1785250396.752384,-0.0166015587747097,-0.07275390625,0.9829100966453552,0.9857388095818108,0.7171630859375,-0.743865966796875,0.7457733154296875,1.274298750841825
1785250396.760386,-0.015624992549419403,-0.06640625,0.9765624403953552,0.9789423529616867,0.5340576171875,-0.316619873046875,0.7457733154296875,0.9703831823002693
1785250396.771029,-0.0219726525247097,-0.08154296875,0.9702147841453552,0.9738833506050678,0.3528594970703125,-0.1926422119140625,0.5054473876953125,0.645831176246449
1785250396.781672,-0.00927734375,-0.06396484375,0.9848632216453552,0.9869818314906742,0.1697540283203125,0.1735687255859375,0.0743865966796875,0.25392104756811007
1785250396.792315,-0.0234374962747097,-0.0673828125,0.9877929091453552,0.9903658874425558,-0.2593994140625,0.415802001953125,0.0171661376953125,0.4903815220087002
1785250396.800333,-0.0214843712747097,-0.083984375,0.9902343153953552,0.9940216058213815,-0.2593994140625,0.415802001953125,0.0743865966796875,0.4956941865805785
1785250396.808353,-0.0078125,-0.07080078125,0.9843749403953552,0.9869487367944799,-0.804901123046875,0.232696533203125,-0.4711151123046875,0.961229911877867
1785250396.816373,-0.0166015587747097,-0.06787109375,0.9794921278953552,0.9819811228987767,-0.9899139404296875,0.2956390380859375,-0.4138946533203125,1.11294242184605
1785250396.832398,-0.0234375,-0.08056640625,0.9760741591453552,0.9796739388049487,-0.9899139404296875,0.1735687255859375,0.0171661376953125,1.0051618716614412
1785250396.840405,-0.01806640625,-0.08447265625,0.9799804091453552,0.9837802737387137,-0.8068084716796875,0.0514984130859375,-0.2307891845703125,0.8407470750702096
1785250396.848412,-0.020019523799419403,-0.07470703125,0.9887694716453552,0.9917897911902395,-0.6847381591796875,-0.0705718994140625,-0.2307891845703125,0.7260236823536305
1785250396.856419,-0.02783203125,-0.08935546875,0.9931640028953552,0.9975639119405625,-0.4425048828125,0.110626220703125,-0.1049041748046875,0.468031641998074
1785250396.867079,-0.0322265587747097,-0.0830078125,0.9785155653953552,0.9825586800529965,-0.3814697265625,0.110626220703125,0.2002716064453125,0.444821345417361
1785250396.877739,-0.0317382775247097,-0.07421875,0.9916991591453552,0.99497887583677,-0.0743865966796875,-0.0095367431640625,0.5054473876953125,0.5109807990167334
1785250396.888399,-0.029785148799419403,-0.06982421875,0.9858397841453552,0.9887581385843618,-0.0152587890625,0.232696533203125,0.2574920654296875,0.34739411475678944
1785250396.899146,-0.02392578125,-0.083984375,0.9838866591453552,0.987754410922458,-0.0133514404296875,0.4177093505859375,0.1392364501953125,0.4405066986907973
1785250396.909891,-0.0249023400247097,-0.064453125,0.9653319716453552,0.9678017086891719,0.1087188720703125,0.1735687255859375,0.5664825439453125,0.6023689635435414
1785250396.920636,-0.0224609337747097,-0.07470703125,0.9755858778953552,0.9786998718775186,0.2918243408203125,0.1735687255859375,0.3833770751953125,0.5121186680663464
1785250396.928577,-0.0190429650247097,-0.08251953125,0.9912108778953552,0.9948221509459532,0.2918243408203125,0.0514984130859375,0.7457733154296875,0.8024907292003864
1785250396.936519,-0.0278320275247097,-0.072265625,0.9829100966453552,0.9859559829932361,0.2899169921875,-0.072479248046875,0.5664825439453125,0.6404744931308665
1785250396.944461,-0.0224609337747097,-0.083984375,0.9912108778953552,0.995016016578755,0.3528594970703125,0.0514984130859375,0.6885528564453125,0.775414048971311
1785250396.952403,-0.0268554650247097,-0.07470703125,0.9999999403953552,1.0031461694641495,0.4749298095703125,0.1735687255859375,0.6885528564453125,0.8542771579756882
1785250396.960511,-0.0214843712747097,-0.0771484375,0.9697265028953552,0.9730277231587064,-0.0133514404296875,0.2956390380859375,0.5664825439453125,0.6391268844264641
1785250396.968619,-0.025878898799419403,-0.0810546875,0.9731444716453552,0.9768570737127877,0.0457763671875,0.415802001953125,0.5054473876953125,0.6560974335791346
1785250396.976727,-0.024414055049419403,-0.07421875,0.9814452528953552,0.9845502797553543,-0.0762939453125,0.110626220703125,0.5054473876953125,0.5230066811489302
1785250396.984835,-0.0268554650247097,-0.06884765625,0.9799804091453552,0.9827628493596557,-0.5016326904296875,0.2956390380859375,0.6885528564453125,0.9017443279927544
1785250396.995352,-0.0312499962747097,-0.064453125,0.9838866591453552,0.986490611021536,-0.3814697265625,0.110626220703125,0.5664825439453125,0.69185243049763
1785250397.005869,-0.0307617150247097,-0.07763671875,0.9848632216453552,0.9883973434602079,-0.3185272216796875,-0.3147125244140625,0.3833770751953125,0.5894756532371502
1785250397.016386,-0.03759765625,-0.060546875,0.9877929091453552,0.990360711652882,-0.3185272216796875,-0.0705718994140625,0.4405975341796875,0.5482391549890524
1785250397.027062,-0.02880859375,-0.07421875,0.9897460341453552,0.992942883569782,-0.5016326904296875,0.2956390380859375,0.4405975341796875,0.7301807886224657
1785250397.03774,-0.0205078087747097,-0.0771484375,0.9912108778953552,0.9944201607406762,-0.2574920654296875,0.6618499755859375,0.2002716064453125,0.7378728008881603
1785250397.048418,-0.0200195275247097,-0.06787109375,0.9829100966453552,0.9854539689587309,-0.0152587890625,0.720977783203125,0.1392364501953125,0.7344580202973741
1785250397.059077,-0.01904296875,-0.07177734375,0.9775390028953552,0.9803556109475094,-0.4425048828125,0.476837158203125,0.0171661376953125,0.6507525820459807
1785250397.069736,-0.03759765625,-0.06005859375,0.9760741591453552,0.9786426225083562,-0.5016326904296875,0.6618499755859375,-0.5359649658203125,0.9884023426103368
1785250397.080395,-0.0263671837747097,-0.072265625,0.9843749403953552,0.9873761047418603,-0.3795623779296875,0.2956390380859375,-0.4711151123046875,0.673364306020059
1785250397.091033,-0.0307617150247097,-0.0693359375,0.9868163466453552,0.9897273651600986,-0.6847381591796875,-0.0705718994140625,-0.2880096435546875,0.7461878412331534
1785250397.101672,-0.0185546875,-0.0751953125,0.9897460341453552,0.9927717882558176,-0.9307861328125,-0.011444091796875,-0.2307891845703125,0.9590398531801136
1785250397.112311,-0.0336913987994194,-0.07568359375,0.9980468153953552,1.001479187220976,-0.4425048828125,-0.011444091796875,-0.2307891845703125,0.499204553529502
1785250397.120323,-0.0224609337747097,-0.07421875,0.9897460341453552,0.9927789927793864,-0.0152587890625,-0.255584716796875,-0.1049041748046875,0.2766970617755908
1785250397.128335,-0.0307617150247097,-0.07666015625,0.9868163466453552,0.9902674207879515,-0.1354217529296875,-0.1926422119140625,0.4405975341796875,0.49957608039508133
1785250397.136347,-0.0283203087747097,-0.07373046875,0.9985350966453552,1.0016539128579984,-0.1354217529296875,0.1735687255859375,0.2002716064453125,0.29761362538745084
1785250397.144359,-0.02880859375,-0.07470703125,0.9746093153953552,0.9778928332120264,-0.0152587890625,0.232696533203125,0.4405975341796875,0.4985044576868173
1785250397.155043,-0.0224609337747097,-0.08203125,0.9887694716453552,0.9924206202918344,-0.1354217529296875,0.5397796630859375,0.2002716064453125,0.5914472522515458
1785250397.165727,-0.0312499962747097,-0.0771484375,0.9941405653953552,0.9976191194240702,-0.1354217529296875,0.6008148193359375,0.3223419189453125,0.6951415762343459
1785250397.176411,-0.02392578125,-0.07568359375,0.9863280653953552,0.989516802261529,-0.3795623779296875,0.5397796630859375,0.2574920654296875,0.708330323493251
1785250397.184402,-0.0312499962747097,-0.08349609375,0.9897460341453552,0.9937531746088345,-0.5645751953125,0.293731689453125,-0.1659393310546875,0.6576924191003054
1785250397.192393,-0.0249023400247097,-0.078125,0.9858397841453552,0.9892440154822605,-0.3795623779296875,0.2956390380859375,-0.4138946533203125,0.6346485827819668
1785250397.200384,-0.01318359375,-0.0751953125,0.9995116591453552,1.0024229142101844,-0.1964569091796875,-0.0095367431640625,-0.5359649658203125,0.570915677855655
1785250397.208375,-0.014160152524709702,-0.07763671875,0.9824218153953552,0.9855864210623516,-0.6237030029296875,-0.1316070556640625,-0.7762908935546875,1.004466726367782
1785250397.21904,-0.02880859375,-0.07568359375,0.9960936903953552,0.9993800986022312,0.0457763671875,-0.011444091796875,-1.0204315185546875,1.021521868140749
1785250397.229705,-0.0336914025247097,-0.07275390625,0.9946288466453552,0.9978550917131132,-0.3185272216796875,-0.1926422119140625,-0.9021759033203125,0.9759569525824103
1785250397.24037,-0.0278320275247097,-0.0927734375,0.9785155653953552,0.9832976376370963,-0.0743865966796875,-0.1316070556640625,-0.9593963623046875,0.9712338353195987
1785250397.25102,-0.0234375,-0.07958984375,0.9824218153953552,0.9859191057075143,-0.1354217529296875,-0.3757476806640625,-0.5359649658203125,0.6684188920712373
1785250397.261669,-0.02294921875,-0.0849609375,0.9926757216453552,0.9965691726549849,-0.1354217529296875,-0.3147125244140625,-0.5359649658203125,0.6361143519654229
1785250397.272318,-0.0288085900247097,-0.07763671875,0.9892577528953552,0.992717631867716,0.1697540283203125,-0.4367828369140625,-0.4711151123046875,0.6644886197637461
1785250397.280333,-0.0175781212747097,-0.08740234375,0.9829100966453552,0.9869449924529345,0.2288818359375,-0.560760498046875,-0.1659393310546875,0.6279929080672625
1785250397.288348,-0.0375976525247097,-0.078125,0.9887694716453552,0.9925634323095949,0.4119873046875,-0.560760498046875,0.1392364501953125,0.7096285397702392
1785250397.296363,-0.015136715024709702,-0.0673828125,0.9887694716453552,0.9911784055456335,0.5950927734375,-0.377655029296875,0.2002716064453125,0.7327123900269091
1785250397.304378,-0.0273437462747097,-0.083984375,0.9897460341453552,0.9936791573797525,0.7171630859375,-0.682830810546875,-0.0476837158203125,0.9913902079493889
1785250397.3151,-0.02392578125,-0.080078125,0.9765624403953552,0.9801322100119301,0.5340576171875,-0.43487548828125,0.0743865966796875,0.69272476103387
1785250397.325822,-0.010253902524709702,-0.06396484375,0.9838866591453552,0.9860170393036606,0.4119873046875,-0.377655029296875,0.2002716064453125,0.5936881140170154
1785250397.336544,-0.0224609337747097,-0.0634765625,0.9785155653953552,0.9808294853101838,0.7171630859375,-0.43487548828125,0.1392364501953125,0.8501919613841602
1785250397.347149,-0.0263671837747097,-0.07568359375,0.9819335341453552,0.9851988125359834,0.9021759033203125,-0.4978179931640625,0.0743865966796875,1.0330912256985358
1785250397.357756,-0.024902336299419403,-0.080078125,0.9960936903953552,0.9996175631220786,0.6580352783203125,-0.3147125244140625,-0.4138946533203125,0.8386675053823802
1785250397.368363,-0.0283203087747097,-0.072265625,0.9829100966453552,0.9859698872344516,0.5950927734375,-0.743865966796875,-0.3490447998046875,1.014546331040076
1785250397.379044,-0.0234374962747097,-0.07861328125,0.9877929091453552,0.991193318973833,0.4749298095703125,-0.6809234619140625,-0.2307891845703125,0.8616720563637623
1785250397.389724,-0.012207027524709702,-0.064453125,0.9799804091453552,0.9821735178429281,0.3528594970703125,-0.3147125244140625,-0.1049041748046875,0.4843125887143944
1785250397.400404,-0.0185546875,-0.07080078125,0.9838866591453552,0.9866052833317088,0.4119873046875,-0.560760498046875,-0.2880096435546875,0.753083946299447
1785250397.408412,-0.0322265587747097,-0.0771484375,0.9916991591453552,0.9952173906985126,0.1087188720703125,-0.4978179931640625,-0.2307891845703125,0.5593801884020968
1785250397.416421,-0.019531242549419403,-0.0712890625,0.9799804091453552,0.9827640623142214,0.1087188720703125,-0.6198883056640625,-0.2307891845703125,0.6703319717557361
1785250397.42443,-0.01318359375,-0.07421875,0.9853515028953552,0.9882306483072981,-0.1354217529296875,-0.1926422119140625,-0.1659393310546875,0.28807279387087054
1785250397.432439,-0.024902336299419403,-0.07666015625,0.9819335341453552,0.9852362008110701,0.1697540283203125,0.1735687255859375,-0.1049041748046875,0.26447574278930075
1785250397.44043,-0.0239257775247097,-0.0771484375,0.9848632216453552,0.9881699699892329,0.0457763671875,0.415802001953125,0.0171661376953125,0.418666283457942
1785250397.448421,-0.0078124962747097015,-0.0869140625,0.9848632216453552,0.9887217276402721,0.2899169921875,0.415802001953125,0.3833770751953125,0.63554791241305
1785250397.456412,-0.020507805049419403,-0.076171875,0.9868163466453552,0.9899642552210896,0.5340576171875,0.171661376953125,0.0171661376953125,0.56123065053221
1785250397.464403,-0.019531242549419403,-0.07177734375,0.9863280653953552,0.9891291670443623,0.6580352783203125,0.4177093505859375,0.0171661376953125,0.7796064426134454
1785250397.475054,-0.0209960900247097,-0.064453125,0.9794921278953552,0.9818349503493763,0.7801055908203125,0.4787445068359375,0.3223419189453125,0.9703944292729839
1785250397.485705,-0.010742180049419403,-0.07080078125,0.9809569716453552,0.9835673465896734,0.4119873046875,0.782012939453125,0.2574920654296875,0.9206410486476444
1785250397.496356,-0.0273437462747097,-0.072265625,0.9843749403953552,0.9874026657323421,0.3528594970703125,0.7839202880859375,0.2002716064453125,0.882694487970577
1785250397.504368,-0.0346679612994194,-0.076171875,0.9873046278953552,0.9908453210997463,0.4138946533203125,0.8449554443359375,0.3833770751953125,1.0159903881166374
1785250397.51238,-0.0410156212747097,-0.0673828125,0.9916991591453552,0.9948316173396206,0.2288818359375,1.21307373046875,0.3223419189453125,1.2758679724347801
1785250397.520392,-0.025878898799419403,-0.07080078125,0.9824218153953552,0.985309642393388,0.2288818359375,1.087188720703125,0.4405975341796875,1.1951955473358487
1785250397.528404,-0.0385742150247097,-0.08251953125,0.9790038466453552,0.9832324114109006,0.2288818359375,0.904083251953125,0.6885528564453125,1.159249092043318
1785250397.539049,-0.0317382775247097,-0.072265625,0.9936522841453552,0.9967820727742639,0.0457763671875,0.782012939453125,0.8716583251953125,1.17193342351317
1785250397.549694,-0.0385742150247097,-0.078125,0.9760741591453552,0.9799552284880594,0.1068115234375,0.720977783203125,0.6885528564453125,1.0026578187649717
1785250397.560339,-0.02880859375,-0.06103515625,0.9897460341453552,0.992044574340676,0.1697540283203125,0.3566741943359375,0.6885528564453125,0.7938122871026643
1785250397.570994,-0.0322265625,-0.0615234375,1.0009765625,1.003383158801611,0.1697540283203125,0.4787445068359375,0.8716583251953125,1.0088612237760235
1785250397.581652,-0.0297851525247097,-0.08349609375,0.9936522841453552,0.9975989248038065,0.4138946533203125,0.4787445068359375,0.7457733154296875,0.9781016945490458
1785250397.59231,-0.0244140587747097,-0.07275390625,0.9916991591453552,0.9946639630498801,0.2918243408203125,0.3566741943359375,0.5664825439453125,0.7302605010509283
1785250397.600325,-0.029785148799419403,-0.08154296875,0.9887694716453552,0.9925731604770511,0.7190704345703125,0.6618499755859375,0.2574920654296875,1.0106482295118766
1785250397.608343,-0.02197265625,-0.0654296875,0.9794921278953552,0.9819209083413996,0.5950927734375,0.598907470703125,0.0743865966796875,0.847560577910002
1785250397.616361,-0.0322265625,-0.07177734375,0.9843749403953552,0.987514334926198,0.4119873046875,0.232696533203125,-0.0476837158203125,0.4755575175968269
1785250397.624379,-0.0283203125,-0.06689453125,0.9902343153953552,0.9928952199490955,0.5950927734375,-0.377655029296875,0.0743865966796875,0.708725684532701
1785250397.635053,-0.02392578125,-0.0791015625,0.9829100966453552,0.9863781010777489,0.6580352783203125,-0.3147125244140625,0.1392364501953125,0.7425908628579769
1785250397.645727,-0.02685546875,-0.07568359375,0.9902343153953552,0.9934853909098035,0.9632110595703125,-0.4978179931640625,0.0743865966796875,1.0867988154953268
1785250397.656401,-0.02734375,-0.08642578125,0.9912108778953552,0.9953472262415846,1.2054443359375,-0.43487548828125,-0.0476837158203125,1.282375324975527
1785250397.667071,-0.0234375,-0.05908203125,0.9848632216453552,0.9869121380206771,1.0833740234375,-0.377655029296875,0.0743865966796875,1.1497199491954406
1785250397.67774,-0.0400390550494194,-0.0703125,0.9853515028953552,0.9886680726328911,1.1463165283203125,-0.4367828369140625,0.1392364501953125,1.2345880360614314
1785250397.688409,-0.011718746274709702,-0.07861328125,0.9897460341453552,0.9929323184938645,0.9002685546875,-0.072479248046875,0.2574920654296875,0.9391692476416629
1785250397.699059,-0.0278320275247097,-0.072265625,0.9814452528953552,0.9844956712670729,0.4749298095703125,0.4787445068359375,-0.2307891845703125,0.7127540070450029
1785250397.709709,-0.015624996274709702,-0.080078125,0.9794921278953552,0.9828842633906961,-0.1354217529296875,0.4787445068359375,-0.2307891845703125,0.5484514579311136
1785250397.720359,-0.0283203125,-0.064453125,1.0029296875,1.0053975350532798,-0.3185272216796875,0.6008148193359375,-0.5931854248046875,0.9023895978375269
1785250397.728352,-0.024902336299419403,-0.06591796875,0.9750975966453552,0.9776403366989534,-0.1964569091796875,0.3566741943359375,-0.6542205810546875,0.7705948135986636
1785250397.736347,-0.0263671837747097,-0.07373046875,0.9877929091453552,0.990891639767007,-0.1964569091796875,0.1125335693359375,-0.7190704345703125,0.7538709513338874
1785250397.744342,-0.0375976525247097,-0.08740234375,0.9833983778953552,0.9879904467228303,-0.3185272216796875,-0.1926422119140625,-0.7190704345703125,0.8097116169570876
1785250397.752337,-0.0205078087747097,-0.06298828125,0.9829100966453552,0.9851397626138896,0.1087188720703125,-0.1926422119140625,-0.7762908935546875,0.8071916540520713
1785250397.763132,-0.0239257775247097,-0.06787109375,0.9824218153953552,0.9850540856022519,0.0457763671875,-0.255584716796875,-0.5931854248046875,0.647524494867755
1785250397.773927,-0.02392578125,-0.080078125,0.9794921278953552,0.9830512589488452,0.0457763671875,-0.43487548828125,-0.5359649658203125,0.6917157007669474
1785250397.784722,-0.0366210900247097,-0.0751953125,0.9877929091453552,0.9913275294343512,-0.0743865966796875,-0.6809234619140625,-0.4711151123046875,0.8313480473258337
