timestamp,accel_x,accel_y,accel_z,accel_rms,gyro_x,gyro_y,gyro_z,gyro_rms
1786719004.633356,-0.0302734337747097,0.08544921875,1.00244140625,1.0065320773537099,-0.568389892578125,-0.270843505859375,0.2574920654296875,0.680239250859884
1786719004.641382,-0.0361328087747097,0.08837890625,0.9824218153953552,0.9870506746386436,-0.019073486328125,-0.087738037109375,0.3795623779296875,0.3900376389223919
1786719004.649408,-0.0371093712747097,0.08154296875,0.9990233778953552,1.00303243754647,0.408172607421875,-0.087738037109375,-0.0476837158203125,0.42021015856331995
1786719004.657434,-0.0292968712747097,0.0732421875,1.00341796875,1.0065139565384318,1.0166168212890625,-0.1506805419921875,0.3185272216796875,1.075952590969471
1786719004.668864,-0.0317382775247097,0.07470703125,0.9916991591453552,0.9950154174825778,0.774383544921875,-0.148773193359375,0.1354217529296875,0.8000889880973646
1786719004.680294,-0.03759765625,0.07666015625,0.9965819716453552,1.000232967623199,1.0166168212890625,0.0324249267578125,-0.2307891845703125,1.0429883915546505
1786719004.691724,-0.0341796837747097,0.07421875,0.9916991591453552,0.9950597448817363,0.957489013671875,0.217437744140625,-0.2307891845703125,1.0086268049154423
1786719004.701657,-0.0283203087747097,0.0703125,0.9946288466453552,0.9975131227830611,0.774383544921875,0.400543212890625,-0.0476837158203125,0.873142873070007
1786719004.711591,-0.015136715024709702,0.07763671875,0.9804686903953552,0.9836541226902822,1.323699951171875,0.583648681640625,-0.4138946533203125,1.5047046648297484
1786719004.721525,-0.0307617150247097,0.0654296875,0.9721679091453552,0.9748526917897189,0.835418701171875,0.705718994140625,-0.2307891845703125,1.1176883969484463
1786719004.729494,-0.0405273400247097,0.068359375,0.9750975966453552,0.9783306150905311,0.896453857421875,0.644683837890625,0.0133514404296875,1.1042757944850066
1786719004.737464,-0.0439453087747097,0.07470703125,0.9887694716453552,0.9925610302340748,0.957489013671875,0.766754150390625,-0.0476837158203125,1.2275874205929374
1786719004.745434,-0.0390624925494194,0.0810546875,0.9790038466453552,0.983129834984321,0.774383544921875,0.766754150390625,0.1354217529296875,1.098144276929752
1786719004.753404,-0.0458984337747097,0.0712890625,0.9702147841453552,0.9739124827361638,0.774383544921875,0.644683837890625,-0.2918243408203125,1.0490226743871485
1786719004.764037,-0.0463867150247097,0.068359375,0.9770507216453552,0.980537018245045,0.102996826171875,0.278472900390625,-0.1087188720703125,0.3161887025143172
1786719004.77467,-0.0356445275247097,0.0600585900247097,0.9804686903953552,0.9829529080397488,0.164031982421875,-0.087738037109375,-0.1087188720703125,0.21546286816362895
1786719004.785303,-0.0541992112994194,0.07177734375,0.9770507216453552,0.98118176412375,0.102996826171875,-0.087738037109375,0.0743865966796875,0.15440102047224946
1786719004.793332,-0.0312499962747097,0.0541992150247097,0.9814452528953552,0.9834372891075932,0.164031982421875,0.034332275390625,0.2574920654296875,0.3072252596223079
1786719004.801361,-0.0424804650247097,0.064453125,0.9956054091453552,0.9985934738172844,0.5283355712890625,-0.0896453857421875,0.1354217529296875,0.5527330478999378
1786719004.80939,-0.0410156212747097,0.06396484375,0.9843749403953552,0.9873032997528528,0.408172607421875,-0.087738037109375,0.2574920654296875,0.49051503989645884
1786719004.817419,-0.0424804650247097,0.06884765625,0.9946288466453552,0.9979133891570466,0.591278076171875,-0.392913818359375,0.1964569091796875,0.7366046084458701
1786719004.82806,-0.0371093712747097,0.080078125,0.9931640028953552,0.9970779047732654,0.957489013671875,-0.270843505859375,-0.1087188720703125,1.0009801242346315
1786719004.838701,-0.04296875,0.0771484300494194,0.9868163466453552,0.990759655891447,0.957489013671875,-0.331878662109375,0.0133514404296875,1.0134628353459223
1786719004.849342,-0.0410156212747097,0.0673828125,0.9921874403953552,0.9953183618758609,0.652313232421875,-0.698089599609375,0.1354217529296875,0.9649770429611276
1786719004.86001,-0.0522460900247097,0.0732421875,0.9863280653953552,0.9904226999312967,0.774383544921875,-0.453948974609375,0.2574920654296875,0.9338317353538158
1786719004.870676,-0.0493164025247097,0.0791015625,0.9780272841453552,0.982459430857407,1.140594482421875,-0.576019287109375,0.4405975341796875,1.3516213151539296
1786719004.881342,-0.0307617150247097,0.07763671875,0.9853515028953552,0.9888838796682163,0.469207763671875,-0.209808349609375,0.5016326904296875,0.7181997111970309
1786719004.88936,-0.0297851525247097,0.0849609375,0.9858397841453552,0.989942218624683,0.225067138671875,0.278472900390625,0.4405975341796875,0.5677398702637793
1786719004.897378,-0.0209960900247097,0.08447265625,0.9829100966453552,0.9867566688589634,0.164031982421875,0.095367431640625,0.3795623779296875,0.42434542181413776
1786719004.905396,-0.0351562462747097,0.08349609375,0.9824218153953552,0.9865901797039854,0.2231597900390625,0.2155303955078125,0.5016326904296875,0.5898211588149066
1786719004.913414,-0.0322265587747097,0.07958984375,0.9775390028953552,0.9813030095236916,0.0400543212890625,-0.0247955322265625,0.5016326904296875,0.5038397792751707
1786719004.924054,-0.019531242549419403,0.0673828050494194,0.9897460341453552,0.9922293706388211,-0.2040863037109375,0.1544952392578125,0.1964569091796875,0.3226690494611433
1786719004.934694,-0.0317382775247097,0.0600585900247097,0.9912108778953552,0.993535785442111,0.164031982421875,0.095367431640625,0.1354217529296875,0.23311046617758052
1786719004.945334,-0.0302734337747097,0.0849609375,0.9843749403953552,0.9884982877940405,-0.0820159912109375,-0.1506805419921875,0.0743865966796875,0.186988273201713
1786719004.953378,-0.0307617150247097,0.0771484375,0.9741210341453552,0.9776553348109799,-0.019073486328125,-0.026702880859375,0.3795623779296875,0.38097826770898374
1786719004.961422,-0.0307617150247097,0.0581054650247097,0.9794921278953552,0.9816961631716659,0.0400543212890625,0.2155303955078125,0.3795623779296875,0.43832099970377925
1786719004.969466,-0.0273437462747097,0.0600585900247097,0.9892577528953552,0.9914563108678363,0.1010894775390625,0.1544952392578125,0.4405975341796875,0.4777175405484608
1786719004.97751,-0.0302734337747097,0.0732421875,0.9892577528953552,0.9924272267959322,-0.202178955078125,0.583648681640625,-0.0476837158203125,0.6195125908419896
1786719004.988111,-0.0390624925494194,0.0771484300494194,0.9951171278953552,0.9988672868874846,-0.019073486328125,0.461578369140625,0.0133514404296875,0.4621651757767733
1786719004.998712,-0.0483398400247097,0.06982421875,0.9799804091453552,0.9836532742620034,0.102996826171875,0.583648681640625,0.1354217529296875,0.607941757859146
1786719005.009313,-0.0400390587747097,0.07421875,0.9897460341453552,0.9933321504842103,0.2231597900390625,0.8258819580078125,0.1354217529296875,0.8661526145083475
1786719005.019975,-0.0336913987994194,0.0776367112994194,0.9853515028953552,0.9889793494065415,0.164031982421875,0.095367431640625,0.1354217529296875,0.23311046617758052
1786719005.030636,-0.0375976525247097,0.07275390625,0.9912108778953552,0.9945882156993835,0.0400543212890625,0.0324249267578125,0.1354217529296875,0.14489574077841721
1786719005.041297,-0.0424804650247097,0.0673828125,0.9868163466453552,0.9900260276051391,0.713348388671875,-0.392913818359375,-0.0476837158203125,0.8157946610716061
1786719005.049305,-0.0419921837747097,0.06884765625,0.9853515028953552,0.988646007187316,0.3452301025390625,-0.6389617919921875,0.0743865966796875,0.7300612036607517
1786719005.057313,-0.0351562462747097,0.072265625,0.9985350966453552,1.0017637553042722,0.469207763671875,-0.637054443359375,-0.0476837158203125,0.7926336013873734
1786719005.065321,-0.0424804650247097,0.0830078125,0.9936522841453552,0.9980179099755838,0.5893707275390625,-0.3337860107421875,0.0133514404296875,0.6774579074810885
1786719005.073329,-0.0366210900247097,0.076171875,0.9790038466453552,0.9826453024983205,0.469207763671875,-0.270843505859375,0.1964569091796875,0.5762876428664728
1786719005.084001,-0.0478515587747097,0.0859375,0.9755858778953552,0.9805319121437458,0.591278076171875,-0.392913818359375,0.2574920654296875,0.7551775922115963
1786719005.094673,-0.0385742150247097,0.08935546875,0.9853515028953552,0.9901464306447001,0.1659393310546875,-0.3337860107421875,0.5626678466796875,0.6749400478896013
1786719005.105345,-0.0302734337747097,0.08740234375,0.9912108778953552,0.9955172800828651,0.3452301025390625,0.0934600830078125,0.1964569091796875,0.4080611816620086
1786719005.116068,-0.0327148400247097,0.0810546875,0.9672850966453552,0.9712263285742305,-0.080108642578125,-0.026702880859375,0.9899139404296875,0.9935089571407651
1786719005.126791,-0.0375976525247097,0.0810546875,0.9819335341453552,0.9859903200946137,0.1010894775390625,-0.1506805419921875,0.4405975341796875,0.47649752919548377
1786719005.137514,-0.0424804650247097,0.0791015625,0.9804686903953552,0.9845712264454207,-0.324249267578125,-0.026702880859375,0.4405975341796875,0.5477013953755836
1786719005.145523,-0.0415039025247097,0.0791015625,0.9750975966453552,0.9791807566012876,0.0400543212890625,-0.1506805419921875,0.5016326904296875,0.5253040362463566
1786719005.153533,-0.0390624962747097,0.07568359375,0.9951171278953552,0.9987552168618833,-0.019073486328125,-0.209808349609375,0.5626678466796875,0.6008148193359375
1786719005.161543,-0.0190429650247097,0.06884765625,0.9946288466453552,0.9971906421879018,-0.4482269287109375,-0.0247955322265625,0.4405975341796875,0.6290058705332242
1786719005.169553,-0.0371093712747097,0.08154296875,0.9794921278953552,0.9835807998318891,-0.1430511474609375,-0.4558563232421875,0.8068084716796875,0.9376612011829698
1786719005.180161,-0.033203125,0.06201171875,0.9838866591453552,0.9863979211334051,-0.2651214599609375,-0.3337860107421875,0.8678436279296875,0.9668790265783846
1786719005.190769,-0.0263671837747097,0.08447265625,0.9829100966453552,0.9868855638429015,-0.1430511474609375,-0.4558563232421875,0.8678436279296875,0.9906670382968934
1786719005.201377,-0.0312499962747097,0.07080078125,0.9838866591453552,0.9869256663685407,-0.324249267578125,-0.576019287109375,0.6847381591796875,0.9517363885466028
1786719005.20939,-0.0283203087747097,0.07421875,0.9902343153953552,0.9934155535963615,-0.385284423828125,-0.453948974609375,0.8678436279296875,1.0524572776752674
1786719005.217406,-0.0327148400247097,0.06298828125,0.9907225966453552,0.9932618223995054,-0.080108642578125,-0.698089599609375,0.5016326904296875,0.8633549906071164
1786719005.225422,-0.0322265587747097,0.07568359375,0.9643554091453552,0.9678573823664726,-0.568389892578125,-0.453948974609375,0.6237030029296875,0.958197358270928
1786719005.233438,-0.0366210900247097,0.076171875,0.9848632216453552,0.9884830924832663,-0.690460205078125,-0.576019287109375,0.8068084716796875,1.208086678964979
1786719005.244191,-0.0263671837747097,0.06689453125,0.9951171278953552,0.9977114838078528,-0.324249267578125,-0.881195068359375,0.7457733154296875,1.1990913951958884
1786719005.254944,-0.0371093712747097,0.0830078125,0.9843749403953552,0.988565337067206,-0.4482269287109375,-0.6389617919921875,0.3795623779296875,0.867898121894008
1786719005.265697,-0.0307617150247097,0.06396484375,0.9882811903953552,0.9908266728527668,-0.5702972412109375,-0.6389617919921875,0.3795623779296875,0.9367917130815754
1786719005.276243,-0.0400390587747097,0.0751953125,1.00732421875,1.010920146663343,-0.385284423828125,-0.209808349609375,0.6237030029296875,0.7625411901490239
1786719005.286789,-0.019531242549419403,0.07666015625,0.9907225966453552,0.993876004587853,0.0400543212890625,-0.2727508544921875,0.5016326904296875,0.5723921150643784
1786719005.297335,-0.033203125,0.0869140550494194,0.9887694716453552,0.9931372354980624,0.164031982421875,-0.026702880859375,0.5016326904296875,0.5284457315667968
1786719005.305341,-0.0341796800494194,0.0722656175494194,0.9970702528953552,1.0002697932142544,0.469207763671875,-0.026702880859375,-0.0476837158203125,0.47237983243422277
1786719005.313349,-0.0283203125,0.0825195237994194,0.9907225966453552,0.9945565722531302,0.7114410400390625,0.2155303955078125,0.1354217529296875,0.7556062175539362
1786719005.321357,-0.0263671837747097,0.07080078125,0.9912108778953552,0.9940860040579489,0.8945465087890625,0.1544952392578125,0.1354217529296875,0.9178351085606707
1786719005.329365,-0.0175781212747097,0.07763671875,1.00927734375,1.012411579869013,1.0166168212890625,0.1544952392578125,-0.2307891845703125,1.0538701001526878
1786719005.340013,-0.0219726525247097,0.07470703125,1.00146484375,1.004487815378749,1.689910888671875,-0.209808349609375,-0.1697540283203125,1.7113254469412151
1786719005.350661,-0.033203125,0.0673828050494194,0.9892577528953552,0.992105736093518,1.873016357421875,0.095367431640625,0.1354217529296875,1.880325576423984
1786719005.361309,-0.0410156212747097,0.0703125,0.9794921278953552,0.9828687386694986,1.445770263671875,0.095367431640625,0.0743865966796875,1.4508204465409076
1786719005.37199,-0.0512695275247097,0.0849609375,0.9848632216453552,0.9898497313749971,1.934051513671875,0.217437744140625,0.1354217529296875,1.9509416908969843
1786719005.382673,-0.0346679650247097,0.06787109375,0.9682616591453552,0.9712563995859651,2.117156982421875,0.278472900390625,-0.1087188720703125,2.1381582349334924
1786719005.393356,-0.0244140587747097,0.0888671875,0.9887694716453552,0.993055130059681,1.689910888671875,0.278472900390625,0.1354217529296875,1.7180468617212636
1786719005.404057,-0.0332031212747097,0.068359375,0.9794921278953552,0.9824358910492554,0.957489013671875,0.034332275390625,0.3185272216796875,1.0096650471254407
1786719005.414757,-0.0312499962747097,0.076171875,0.9892577528953552,0.9926780034189095,0.957489013671875,-0.209808349609375,-0.2918243408203125,1.0227248900673922
1786719005.425457,-0.0439453087747097,0.0751953125,0.9775390028953552,0.9814112427351352,0.3452301025390625,0.0934600830078125,0.1964569091796875,0.4080611816620086
1786719005.433453,-0.0400390587747097,0.08203125,0.9873046278953552,0.9915153455533167,0.469207763671875,0.095367431640625,-0.0476837158203125,0.48117004194164426
1786719005.44145,-0.0312499962747097,0.0791015625,0.9824218153953552,0.98609646730014,0.4711151123046875,0.1544952392578125,-0.0476837158203125,0.4980883101916962
1786719005.449447,-0.0302734337747097,0.06787109375,0.9824218153953552,0.9852286990968333,0.286102294921875,0.095367431640625,0.2574920654296875,0.39654966137488923
1786719005.457444,-0.0434570237994194,0.06640625,0.9887694716453552,0.99194927844845,0.102996826171875,0.400543212890625,0.3185272216796875,0.5220180097900883
1786719005.46807,-0.0317382775247097,0.0830078125,0.9804686903953552,0.9844879217348751,0.2231597900390625,0.2155303955078125,-0.0476837158203125,0.3138907135174038
1786719005.478696,-0.0297851525247097,0.08251953125,0.9794921278953552,0.9834131669637187,-0.1430511474609375,-0.0247955322265625,0.2574920654296875,0.29560211935562275
1786719005.489322,-0.0483398400247097,0.0849609375,0.9848632216453552,0.9897023120030394,0.2231597900390625,-0.1506805419921875,-0.2918243408203125,0.39707223967503413
1786719005.500038,-0.0346679612994194,0.0771484300494194,0.9926757216453552,0.9962724708350998,-0.0171661376953125,-0.3337860107421875,0.1964569091796875,0.3876894303627507
1786719005.510755,-0.0312499962747097,0.087890625,1.00048828125,1.0048274106276356,-0.263214111328125,0.095367431640625,0.3795623779296875,0.47163992002334026
1786719005.521472,-0.0444335900247097,0.08544921875,0.9863280653953552,0.991019154958174,-0.202178955078125,0.095367431640625,0.4405975341796875,0.49406220662931977
1786719005.529574,-0.0371093712747097,0.08349609375,0.9809569716453552,0.9852031685533392,-0.324249267578125,0.034332275390625,0.4405975341796875,0.5481263356049124
1786719005.537678,-0.0449218712747097,0.08349609375,0.9882811903953552,0.9928188573348065,-0.385284423828125,0.095367431640625,0.6237030029296875,0.7392864601261201
1786719005.545782,-0.029296867549419403,0.0771484300494194,0.9741210341453552,0.9776103394869117,-0.385284423828125,0.034332275390625,0.4405975341796875,0.5863010996947634
1786719005.553886,-0.0346679650247097,0.07373046875,0.9794921278953552,0.9828748030293686,-0.690460205078125,0.217437744140625,0.5016326904296875,0.8807098406860326
1786719005.564373,-0.0424804650247097,0.07373046875,0.9833983778953552,0.9870730173487806,-0.690460205078125,-0.026702880859375,0.5626678466796875,0.8910911537715279
1786719005.57486,-0.0229492150247097,0.078125,0.9951171278953552,0.9984429279262541,-0.690460205078125,-0.209808349609375,0.5626678466796875,0.9150682728897842
1786719005.585347,-0.0454101525247097,0.078125,0.9931640028953552,0.9972664309122425,-0.812530517578125,-0.026702880859375,0.5016326904296875,0.9552770498393083
1786719005.596052,-0.0214843712747097,0.0908203125,0.9887694716453552,0.9931641231083119,-0.9365081787109375,-0.3337860107421875,0.6847381591796875,1.20719800215062
1786719005.606756,-0.0444335862994194,0.0722656175494194,1.0029296875,1.0065111132720168,-0.690460205078125,-0.331878662109375,0.4405975341796875,0.8837448321123332
1786719005.61746,-0.0351562462747097,0.07763671875,0.9946288466453552,0.9982734917493623,-0.6313323974609375,-0.2727508544921875,0.3795623779296875,0.7855197155066399
1786719005.628108,-0.0209960900247097,0.08251953125,0.9999999403953552,1.003618547868043,-0.3223419189453125,-0.3337860107421875,0.5016326904296875,0.6833394250182385
1786719005.638757,-0.0375976525247097,0.08251953125,0.9863280653953552,0.9904878137057682,-0.4482269287109375,-0.4558563232421875,0.3795623779296875,0.7434917388923461
1786719005.649406,-0.029296867549419403,0.0712890625,0.9868163466453552,0.9898216702451118,-0.324249267578125,-0.576019287109375,0.6237030029296875,0.9088130954769814
1786719005.657383,-0.0317382775247097,0.0615234337747097,0.9897460341453552,0.9921641312152567,0.164031982421875,-0.270843505859375,0.4405975341796875,0.5425761541467414
1786719005.665358,-0.0400390587747097,0.076171875,0.9785155653953552,0.9822922133914999,0.469207763671875,-0.453948974609375,0.5016326904296875,0.8233231158825749
1786719005.673333,-0.0292968712747097,0.07861328125,0.9853515028953552,0.9889165480026683,0.1010894775390625,-0.6389617919921875,0.6237030029296875,0.8986081960223253
1786719005.681308,-0.0317382775247097,0.083984375,0.9921874403953552,0.9962412410569353,-0.1430511474609375,0.1544952392578125,0.7457733154296875,0.7749259627539962
1786719005.691974,-0.0375976525247097,0.0703125,0.9897460341453552,0.9929524879056789,0.3452301025390625,-0.2727508544921875,0.5626678466796875,0.7142632273976495
1786719005.70264,-0.024414055049419403,0.0825195237994194,0.9882811903953552,0.9920207806196901,-0.202178955078125,0.034332275390625,0.6847381591796875,0.7147876479394193
1786719005.713306,-0.0273437462747097,0.07470703125,0.9873046278953552,0.9905045427670234,-0.1430511474609375,0.2155303955078125,0.5626678466796875,0.6192835278487563
1786719005.723991,-0.0224609375,0.06689453125,0.9721679091453552,0.9747255078208366,-0.202178955078125,0.095367431640625,0.6237030029296875,0.6625531773055817
1786719005.734676,-0.0273437462747097,0.0615234337747097,0.9877929091453552,0.9900846654309977,-0.690460205078125,0.339508056640625,0.5626678466796875,0.9532030848709925
1786719005.745361,-0.0302734337747097,0.0732421875,0.9833983778953552,0.9865866755990134,-0.507354736328125,0.583648681640625,0.2574920654296875,0.8150808400488061
1786719005.753381,-0.0366210900247097,0.06689453125,0.9853515028953552,0.988298318729669,-0.3223419189453125,0.3376007080078125,-0.1087188720703125,0.4792685509200073
1786719005.7614,-0.0273437462747097,0.06640625,0.9892577528953552,0.9918610649496057,-0.263214111328125,0.095367431640625,0.1964569091796875,0.3420115971490146
1786719005.769419,-0.0234374962747097,0.0654296875,0.9833983778953552,0.9858512716861456,-0.1430511474609375,0.0934600830078125,-0.2307891845703125,0.2871620894553246
1786719005.777438,-0.0400390587747097,0.0654296875,0.9916991591453552,0.9946614461632244,-0.202178955078125,-0.087738037109375,-0.1697540283203125,0.27819188191473526
1786719005.788075,-0.0424804650247097,0.06884765625,0.9868163466453552,0.9901268058619157,0.1659393310546875,0.3376007080078125,-0.0476837158203125,0.3791883916903124
1786719005.798712,-0.0346679650247097,0.08935546875,0.9912108778953552,0.9958339580736175,-0.080108642578125,-0.026702880859375,-0.0476837158203125,0.09697512679203919
1786719005.809349,-0.0327148400247097,0.0810546875,0.9956054091453552,0.9994349672905463,-0.019073486328125,0.766754150390625,0.1354217529296875,0.7788547850456513
1786719005.819998,-0.0322265587747097,0.0751953125,0.9960936903953552,0.9994476105118618,0.3452301025390625,0.3986358642578125,0.3185272216796875,0.6160795134742637
1786719005.830647,-0.0366210900247097,0.08984375,0.9912108778953552,0.9959477938660948,0.225067138671875,0.766754150390625,0.4405975341796875,0.9125203182266218
1786719005.841296,-0.0375976525247097,0.076171875,0.9775390028953552,0.9812228290240855,0.6542205810546875,0.1544952392578125,0.1964569091796875,0.7003346805587295
1786719005.849373,-0.0419921837747097,0.0830078125,0.9746093153953552,0.9790387929441852,-0.446319580078125,0.583648681640625,0.3795623779296875,0.8269912634856503
1786719005.857449,-0.0424804650247097,0.08544921875,0.9770507216453552,0.9816996850164568,-0.324249267578125,-0.270843505859375,0.1964569091796875,0.46592822339453077
1786719005.865525,-0.0390624962747097,0.0849609375,0.9985350966453552,1.0029040725556155,-0.4482269287109375,0.0324249267578125,0.1354217529296875,0.469358931590141
1786719005.873601,-0.0356445275247097,0.07275390625,0.9941405653953552,0.9974362771534281,-0.3223419189453125,-0.3337860107421875,0.2574920654296875,0.5306784124455945
1786719005.884186,-0.03759765625,0.0722656175494194,0.9960936903953552,0.999419102919656,-0.4482269287109375,-0.2727508544921875,0.1354217529296875,0.5418850979814887
1786719005.894771,-0.0336913987994194,0.0678710862994194,0.9902343153953552,0.993129193053468,-0.2651214599609375,-0.1506805419921875,0.2574920654296875,0.3991192528883126
1786719005.905356,-0.0322265587747097,0.0566406212747097,0.9985350966453552,1.0006593078073045,0.102996826171875,0.034332275390625,0.3185272216796875,0.33652138458938674
1786719005.914979,-0.0385742112994194,0.0732421800494194,1.0068359375,1.0102331373288385,0.713348388671875,0.095367431640625,0.3795623779296875,0.8136513192874013
1786719005.924602,-0.0322265587747097,0.06884765625,0.9873046278953552,0.9902267311707778,0.957489013671875,-0.514984130859375,0.3185272216796875,1.1328960487574784
1786719005.934225,-0.0341796800494194,0.0678710862994194,0.9868163466453552,0.9897379637511283,1.323699951171875,-0.087738037109375,0.4405975341796875,1.3978575431757885
1786719005.943848,-0.0288085900247097,0.07861328125,0.9873046278953552,0.9908483290149351,1.567840576171875,-0.087738037109375,0.4405975341796875,1.6309347695637566
1786719005.953471,-0.0390624962747097,0.0634765625,0.9960936903953552,0.9988782671814749,1.8138885498046875,-0.1506805419921875,0.5626678466796875,1.9051224114305012
1786719005.961482,-0.0312499962747097,0.0927734375,0.9882811903953552,0.9931179105534227,2.4814605712890625,-0.2727508544921875,0.2574920654296875,2.5096497283979105
1786719005.969494,-0.0415039025247097,0.09130859375,1.00341796875,1.0084182927871543,2.7256011962890625,-0.3337860107421875,0.1964569091796875,2.7529820739234734
1786719005.977506,-0.0283203087747097,0.06494140625,0.9804686903953552,0.9830250652859291,1.934051513671875,-0.209808349609375,0.3795623779296875,1.9820803212387532
1786719005.985518,-0.0170898400247097,0.072265625,0.9711913466453552,0.9740261880398953,1.934051513671875,0.095367431640625,0.1964569091796875,1.9463415737528282
1786719005.99353,-0.0317382775247097,0.08544921875,0.9667968153953552,0.9710844296475056,1.6880035400390625,0.0324249267578125,0.4405975341796875,1.7448591674358356
1786719006.001542,-0.0258789025247097,0.06640625,0.9853515028953552,0.9879256509945883,1.384735107421875,-0.270843505859375,0.1964569091796875,1.4245851464750379
1786719006.011144,-0.029296867549419403,0.07666015625,0.9677733778953552,0.9712468259754925,1.0166168212890625,-0.2727508544921875,0.3185272216796875,1.0997101349469671
1786719006.020746,-0.0380859337747097,0.08056640625,0.9833983778953552,0.987427898033445,0.5283355712890625,-0.4558563232421875,0.3185272216796875,0.7670743472964056
1786719006.030348,-0.0244140587747097,0.0830078125,0.9931640028953552,0.996925814616622,0.652313232421875,-0.514984130859375,0.8068084716796875,1.1583009618418583
1786719006.03995,-0.0444335900247097,0.076171875,0.9960936903953552,0.9999895692000679,0.774383544921875,-0.087738037109375,0.4405975341796875,0.8952619867540431
1786719006.049552,-0.0458984337747097,0.07568359375,0.9794921278953552,0.9834833507461411,0.774383544921875,-0.698089599609375,0.7457733154296875,1.2818645801080297
1786719006.057555,-0.0351562462747097,0.0810546875,0.9858397841453552,0.9897908385217613,0.6542205810546875,-0.3337860107421875,0.4405975341796875,0.8564717489607802
1786719006.065558,-0.02392578125,0.0825195237994194,0.9873046278953552,0.9910359948458439,0.7114410400390625,-0.3337860107421875,0.6237030029296875,1.0032780722623995
1786719006.073561,-0.0273437462747097,0.06982421875,0.9916991591453552,0.9945302027761591,0.469207763671875,-0.026702880859375,0.3795623779296875,0.6040997997647334
1786719006.081564,-0.0434570275247097,0.06884765625,0.9785155653953552,0.9818967485094312,0.957489013671875,-0.270843505859375,0.5626678466796875,1.1431257680831508
1786719006.092159,-0.033203125,0.0722656175494194,0.9892577528953552,0.9924493280027612,0.530242919921875,-0.392913818359375,0.1354217529296875,0.6737045895283549
1786719006.102754,-0.0356445275247097,0.0654296875,0.9902343153953552,0.9930335219595133,0.469207763671875,-0.453948974609375,0.1964569091796875,0.681777760126642
1786719006.113349,-0.0214843712747097,0.09326171875,0.9858397841453552,0.9904743340425507,0.652313232421875,0.278472900390625,0.1354217529296875,0.7220794697339008
1786719006.124006,-0.0341796837747097,0.083984375,0.9936522841453552,0.9977807814416759,0.469207763671875,0.278472900390625,-0.1697540283203125,0.5714188585205274
1786719006.134663,-0.029296867549419403,0.0712890625,0.9741210341453552,0.9771654036266089,0.408172607421875,0.095367431640625,-0.0476837158203125,0.42186912807378274
1786719006.14532,-0.0175781212747097,0.09765625,0.9848632216453552,0.9898491293430929,0.286102294921875,0.034332275390625,-0.3528594970703125,0.45556893327549797
1786719006.153312,-0.0205078087747097,0.06982421875,0.9750975966453552,0.9778094470439196,-0.2651214599609375,0.2155303955078125,-0.5359649658203125,0.6356108750692847
1786719006.161307,-0.02392578125,0.0683593675494194,0.9838866591453552,0.9865487338111523,0.102996826171875,-0.026702880859375,-0.5359649658203125,0.5464245919012414
1786719006.169302,-0.0205078087747097,0.08984375,0.9765624403953552,0.9809009479176449,0.225067138671875,-0.026702880859375,-0.4749298095703125,0.5262381445454408
1786719006.177297,-0.0200195275247097,0.08837890625,0.9863280653953552,0.9904820367572564,0.041961669921875,0.095367431640625,-0.7801055908203125,0.7870326941045528
1786719006.187972,-0.0312499962747097,0.078125,0.9931640028953552,0.9967220347415294,-0.019073486328125,0.339508056640625,-0.9632110595703125,1.0214720082719677
1786719006.198647,-0.024414055049419403,0.0727538987994194,0.9907225966453552,0.993690313617974,-0.0820159912109375,0.3376007080078125,-1.1463165283203125,1.197807348433805
1786719006.209322,-0.0302734337747097,0.0830078125,0.9843749403953552,0.9883323332801098,-0.202178955078125,-0.026702880859375,-0.9632110595703125,0.9845633138611435
1786719006.217347,-0.0180664025247097,0.09326171875,1.0009765625,1.00547412784154,-0.019073486328125,0.705718994140625,-1.5125274658203125,1.6691741764814063
1786719006.225372,-0.02392578125,0.08154296875,0.9750975966453552,0.9787936563671294,-0.324249267578125,1.071929931640625,-1.2073516845703125,1.6467754722811476
1786719006.233397,-0.01904296875,0.07666015625,0.9887694716453552,0.9919195946612421,-0.263214111328125,1.132965087890625,-1.1463165283203125,1.633074750855453
1786719006.241422,-0.033203125,0.0727538987994194,0.9946288466453552,0.9978387243835305,-0.1888275146484375,1.0433197021484375,-1.2874603271484375,1.66785069030791
1786719006.25211,-0.0214843712747097,0.0908203125,0.9785155653953552,0.9829560616287276,-0.4940032958984375,0.7953643798828125,-1.5926361083984375,1.8474667864184757
1786719006.262798,-0.0395507775247097,0.07275390625,0.9956054091453552,0.9990433051659637,-0.675201416015625,0.675201416015625,-1.4095306396484375,1.7025188775713307
1786719006.273486,-0.0444335900247097,0.06787109375,0.9912108778953552,0.9945249286706623,-0.6771087646484375,0.6122589111328125,-1.3484954833984375,1.6284278682739546
1786719006.28411,-0.0356445275247097,0.09521484375,0.9941405653953552,0.9993257039511159,-0.2498626708984375,0.9174346923828125,-1.3484954833984375,1.650017526525713
1786719006.294735,-0.0375976525247097,0.08544921875,0.9907225966453552,0.9951112580832705,-0.1888275146484375,1.1615753173828125,-1.2264251708984375,1.699715196159212
1786719006.30536,-0.0312499962747097,0.09228515625,0.9809569716453552,0.9857837960480393,-0.0057220458984375,1.0433197021484375,-1.2874603271484375,1.657136939628566
1786719006.313348,-0.0405273400247097,0.07275390625,0.9716796278953552,0.9752419676321196,0.05340576171875,1.102447509765625,-1.1653900146484375,1.605109520691804
1786719006.321338,-0.0312499962747097,0.08154296875,0.9873046278953552,0.991159041871343,-0.25177001953125,0.980377197265625,-1.1043548583984375,1.4980411359243113
1786719006.329328,-0.0244140587747097,0.07568359375,0.9829100966453552,0.9861218538883273,-0.1888275146484375,0.7343292236328125,-1.1653900146484375,1.3903341775313447
1786719006.337318,-0.0468749962747097,0.072265625,0.9804686903953552,0.9842451110764928,-0.4940032958984375,0.7953643798828125,-1.3484954833984375,1.6416710455785215
1786719006.348012,-0.0283203125,0.076171875,0.9863280653953552,0.9896702719732756,-0.003814697265625,0.858306884765625,-0.9822845458984375,1.304449381717129
1786719006.358706,-0.033203125,0.0810546875,0.9814452528953552,0.9853461799318634,0.2384185791015625,0.4291534423828125,-1.2264251708984375,1.3210355013333621
1786719006.3694,-0.0371093712747097,0.07177734375,0.9780272841453552,0.9813594963340139,0.35858154296875,0.370025634765625,-1.1043548583984375,1.2186465224214058
1786719006.37746,-0.0468749962747097,0.0751953125,0.9702147841453552,0.9742527021630194,-0.12969970703125,0.186920166015625,-1.2874603271484375,1.307407838606019
1786719006.38552,-0.0385742112994194,0.0722656175494194,0.9853515028953552,0.9887506629657987,-0.2498626708984375,0.2460479736328125,-0.9822845458984375,1.0430023435967024
1786719006.39358,-0.0463867150247097,0.06982421875,0.9780272841453552,0.9816132218891364,-0.308990478515625,0.186920166015625,-0.9822845458984375,1.0465644716822387
1786719006.40164,-0.0458984337747097,0.07666015625,0.9853515028953552,0.9893942743099846,-0.61798095703125,-0.118255615234375,-0.9212493896484375,1.1156098295171744
1786719006.410083,-0.0537109300494194,0.0727538987994194,0.9848632216453552,0.9890063493966851,-0.92315673828125,-0.362396240234375,-0.3719329833984375,1.059190040790485
1786719006.418526,-0.0419921837747097,0.09375,0.9970702528953552,1.0023479910724502,-0.92315673828125,-0.118255615234375,-0.3719329833984375,1.0022658819436083
1786719006.426969,-0.0458984337747097,0.0732421875,0.9951171278953552,0.9988639459323063,-0.3719329833984375,-0.4215240478515625,-0.0667572021484375,0.566103516236665
1786719006.435412,-0.0400390587747097,0.08740234375,0.9868163466453552,0.9914881733672085,-0.25177001953125,-0.911712646484375,-0.1888275146484375,0.9645019039808137
1786719006.444609,-0.0327148400247097,0.0849609375,0.9760741591453552,0.9803108618239591,-0.3719329833984375,-0.9098052978515625,-0.5550384521484375,1.1287814259199016
1786719006.453806,-0.0473632775247097,0.0908203125,0.9931640028953552,0.9984319435332613,-0.0057220458984375,-0.8525848388671875,0.2994537353515625,0.9036626521503782
1786719006.463003,-0.0336914025247097,0.0849609375,0.9873046278953552,0.99152604593553,0.179290771484375,-0.606536865234375,-0.0667572021484375,0.6359942402777655
1786719006.4722,-0.0258789025247097,0.08984375,0.9887694716453552,0.9931800869267269,-0.0667572021484375,-0.8525848388671875,0.1773834228515625,0.8733969946178036
1786719006.481397,-0.0307617150247097,0.095703125,0.9999999403953552,1.005039925593377,0.179290771484375,-0.484466552734375,-0.0667572021484375,0.5208738287690011
1786719006.492129,-0.0200195275247097,0.0859375,0.9819335341453552,0.9858902073089834,0.2994537353515625,-0.5474090576171875,0.2994537353515625,0.6920995272309789
1786719006.502861,-0.0273437462747097,0.08984375,0.9887694716453552,0.9932193352589513,0.1773834228515625,-0.5474090576171875,-0.1888275146484375,0.6056214868646748
1786719006.513593,-0.0161132775247097,0.08203125,0.9863280653953552,0.9898645444078169,0.179290771484375,-0.484466552734375,-0.0667572021484375,0.5208738287690011
1786719006.521531,-0.0346679650247097,0.09326171875,0.9916991591453552,0.996677900945317,0.2994537353515625,0.1239776611328125,-0.1888275146484375,0.375098427568381
1786719006.529469,-0.0375976525247097,0.0732421875,0.9916991591453552,0.9951106590499161,-0.0667572021484375,0.3070831298828125,-0.4940032958984375,0.5854876848028752
1786719006.537407,-0.0356445275247097,0.080078125,0.9887694716453552,0.9926470200951647,0.23651123046875,0.125885009765625,-0.2498626708984375,0.3663549537402689
1786719006.545345,-0.0190429650247097,0.07861328125,0.9838866591453552,0.9872059767596792,0.179290771484375,-0.118255615234375,-0.1277923583984375,0.24992090376548662
1786719006.556002,-0.0307617150247097,0.078125,0.9794921278953552,0.9830842422423586,0.23651123046875,-0.423431396484375,-0.1888275146484375,0.5204685772982419
1786719006.566659,-0.0400390587747097,0.0810546875,0.9916991591453552,0.9958113329556417,-0.1888275146484375,-0.2422332763671875,-0.2498626708984375,0.3959345208192751
1786719006.577316,-0.0444335900247097,0.07861328125,0.9941405653953552,0.9982333673425128,0.05340576171875,-0.179290771484375,-0.3108978271484375,0.36284268636675315
1786719006.587986,-0.0249023400247097,0.087890625,0.9726561903953552,0.9769365144245569,-0.0057220458984375,-0.1163482666015625,-0.0667572021484375,0.13426162887861684
1786719006.598655,-0.020019523799419403,0.0771484300494194,0.9877929091453552,0.9910032759532582,-0.1277923583984375,0.2460479736328125,-0.1888275146484375,0.33544943356958257
1786719006.609324,-0.0332031212747097,0.0751953125,0.9873046278953552,0.9907205511888514,0.0553131103515625,0.4291534423828125,-0.1277923583984375,0.4511796805606573
1786719006.617348,-0.0307617150247097,0.083984375,0.9873046278953552,0.9913476113952098,0.05340576171875,0.797271728515625,-0.2498626708984375,0.8372130784833413
1786719006.625372,-0.0229492150247097,0.076171875,0.9946288466453552,0.9978052733827054,0.2994537353515625,0.6732940673828125,-0.5550384521484375,0.9225319095577281
1786719006.633396,-0.0371093712747097,0.0673828125,0.9721679091453552,0.9752066408863642,0.4825592041015625,0.7343292236328125,-0.3719329833984375,0.9541681918215283
1786719006.64142,-0.0361328087747097,0.0849609375,0.9711913466453552,0.9755698706754157,-0.186920166015625,0.186920166015625,-0.6771087646484375,0.7268800286776015
1786719006.652062,-0.0297851525247097,0.0585937462747097,0.9707030653953552,0.9729259085775055,-0.0057220458984375,0.3070831298828125,-0.6160736083984375,0.68838904801933
1786719006.662704,-0.0400390587747097,0.07373046875,0.9804686903953552,0.9840519097564123,-0.61798095703125,0.186920166015625,-0.4940032958984375,0.812944566422021
1786719006.673346,-0.0341796837747097,0.0751953125,0.9829100966453552,0.9863745961308479,-0.8602142333984375,-0.3643035888671875,-0.4940032958984375,1.0567520468687503
1786719006.68401,-0.0356445275247097,0.0712890625,0.9868163466453552,0.9900298807516239,-0.43487548828125,-0.179290771484375,-0.2498626708984375,0.5326285998290168
1786719006.694676,-0.0390624925494194,0.0624999925494194,0.9921874403953552,0.994921124648149,-0.61798095703125,-0.179290771484375,-0.2498626708984375,0.6902731331155971
1786719006.705342,-0.0385742112994194,0.0932617112994194,1.00439453125,1.0094523718218584,-0.55694580078125,0.186920166015625,-0.0667572021484375,0.5912565411983736
1786719006.713323,-0.0385742112994194,0.056640625,0.9926757216453552,0.9950383000276369,-0.06866455078125,-0.179290771484375,-0.0667572021484375,0.2032646681352679
1786719006.721304,-0.0380859337747097,0.1044921875,0.9819335341453552,0.9882118300643917,-0.12969970703125,-0.057220458984375,-0.1277923583984375,0.19085880067581196
1786719006.729285,-0.0312499962747097,0.0751953125,0.9916991591453552,0.9950367428083983,-0.2498626708984375,0.1239776611328125,-0.0667572021484375,0.2868071456696132
1786719006.737266,-0.0400390587747097,0.07275390625,0.9863280653953552,0.9898178164130723,0.41961669921875,0.064849853515625,-0.2498626708984375,0.49266117370129525
1786719006.748101,-0.0366210900247097,0.0791015625,0.9809569716453552,0.9848221878309635,-0.06866455078125,-0.179290771484375,-0.0057220458984375,0.19207483719299898
1786719006.758936,-0.0395507775247097,0.07373046875,0.9877929091453552,0.991330054715758,-0.43487548828125,0.186920166015625,0.2384185791015625,0.5299992996523415
1786719006.769771,-0.0346679650247097,0.080078125,0.9760741591453552,0.9799669066115357,-0.2498626708984375,0.1239776611328125,-0.2498626708984375,0.3744771943349344
1786719006.777734,-0.02783203125,0.0771484300494194,0.9770507216453552,0.9804869274448795,-0.1888275146484375,0.0019073486328125,-0.3719329833984375,0.41712541568067435
1786719006.785698,-0.0356445275247097,0.0830078125,0.9868163466453552,0.9909426478283094,-0.43487548828125,-0.179290771484375,-0.1888275146484375,0.5068704975983745
1786719006.793662,-0.03759765625,0.07666015625,0.9887694716453552,0.9924492084583485,-0.2498626708984375,0.1239776611328125,-0.4940032958984375,0.5673103834119225
1786719006.801626,-0.0351562462747097,0.08837890625,0.9775390028953552,0.9821554331691699,-0.3108978271484375,-0.3643035888671875,-0.3108978271484375,0.5709921389237791
1786719006.811197,-0.0395507775247097,0.0712890625,0.9775390028953552,0.9809326667088742,-0.25177001953125,-0.179290771484375,0.0553131103515625,0.31399500577396533
1786719006.820768,-0.0380859337747097,0.07568359375,0.9853515028953552,0.9889874260942562,-0.4940032958984375,-0.4215240478515625,-0.0057220458984375,0.6494263015038345
1786719006.830339,-0.0385742150247097,0.0791015625,0.9824218153953552,0.9863557424273554,-0.06866455078125,0.370025634765625,-0.2498626708984375,0.45173570284647135
1786719006.83991,-0.0468749962747097,0.0810546875,0.9985350966453552,1.0029154834152405,-0.43487548828125,0.308990478515625,-0.1888275146484375,0.5659042643499662
1786719006.849481,-0.0224609337747097,0.0859375,0.9902343153953552,0.9942101120179726,-0.2498626708984375,-0.0591278076171875,-0.3108978271484375,0.40321819262991565
1786719006.857493,-0.0415039025247097,0.0810546875,0.9956054091453552,0.9997612550054105,-0.308990478515625,-0.118255615234375,-0.1277923583984375,0.3546694139798499
1786719006.865505,-0.0410156212747097,0.080078125,0.9868163466453552,0.9909093244583744,-0.12969970703125,-0.118255615234375,-0.2498626708984375,0.30534858579491325
1786719006.873517,-0.0336913987994194,0.07666015625,0.9819335341453552,0.9854975166830829,-0.0667572021484375,0.2460479736328125,0.0553131103515625,0.2608748158490288
1786719006.881529,-0.0415039025247097,0.08544921875,0.9936522841453552,0.9981828513338865,-0.308990478515625,-0.301361083984375,-0.6771087646484375,0.8029756521322957
1786719006.892126,-0.0283203087747097,0.07080078125,0.9853515028953552,0.988297715656998,-0.3719329833984375,0.0019073486328125,-0.2498626708984375,0.44807269100779884
1786719006.902723,-0.0209960900247097,0.08251953125,0.9824218153953552,0.986104929608787,-0.25177001953125,-0.118255615234375,-0.3108978271484375,0.4171690211351345
1786719006.91332,-0.0332031212747097,0.07421875,0.9931640028953552,0.996486631501432,-0.1888275146484375,-0.2422332763671875,0.1773834228515625,0.3546796712111146
1786719006.923985,-0.0214843712747097,0.07763671875,0.9833983778953552,0.986692154602717,-0.06866455078125,0.003814697265625,-0.5550384521484375,0.5592826260599846
1786719006.934648,-0.0317382775247097,0.0654296875,0.9790038466453552,0.981701020684498,-0.0057220458984375,-0.1163482666015625,-0.4940032958984375,0.5075518863219516
1786719006.945311,-0.0351562462747097,0.08203125,0.9877929091453552,0.9918164744480374,-0.12969970703125,0.370025634765625,-0.3108978271484375,0.5003982846826271
1786719006.956026,-0.0366210900247097,0.07421875,0.9882811903953552,0.9917405095968506,-0.3719329833984375,-0.0591278076171875,-0.3719329833984375,0.5293055695087101
1786719006.96674,-0.0390624962747097,0.0703125,0.9707030653953552,0.9740298596241292,-0.43487548828125,0.308990478515625,-0.3719329833984375,0.6503275715059549
1786719006.977454,-0.0478515587747097,0.08935546875,0.9799804091453552,0.9852084925442937,-0.0057220458984375,0.0667572021484375,-0.3108978271484375,0.31803572876890873
1786719006.985437,-0.0322265587747097,0.0869140625,0.9833983778953552,0.9877575486919498,-0.74005126953125,0.186920166015625,-0.1277923583984375,0.7739159624036439
1786719006.993419,-0.0224609337747097,0.07666015625,0.9843749403953552,0.9876109033322108,-0.7381439208984375,0.2460479736328125,0.1163482666015625,0.7867229324414792
1786719007.001401,-0.0390624962747097,0.08349609375,0.9838866591453552,0.988195544581602,-0.3719329833984375,-0.1163482666015625,-0.3719329833984375,0.5387069773267402
1786719007.009383,-0.0346679650247097,0.0908203125,0.9882811903953552,0.9930508084941135,-0.55694580078125,-0.118255615234375,-0.3719329833984375,0.6800787893192897
1786719007.018986,-0.0410156212747097,0.0732421875,0.9926757216453552,0.9962187448359232,-0.61798095703125,0.064849853515625,-0.3719329833984375,0.7241823740563699
1786719007.028589,-0.0385742150247097,0.0693359375,0.9931640028953552,0.9963283489597702,-0.3719329833984375,0.0019073486328125,-0.1888275146484375,0.41712541568067435
1786719007.038192,-0.0390624962747097,0.08056640625,0.9921874403953552,0.9962192235193709,-0.3719329833984375,-0.0591278076171875,-0.0667572021484375,0.38247452962513057
1786719007.047795,-0.0278320275247097,0.083984375,0.9965819716453552,1.0005016857601092,-0.492095947265625,0.186920166015625,0.1163482666015625,0.5391052670116939
1786719007.057398,-0.0336913987994194,0.0810546875,0.9902343153953552,0.9941171822804855,-0.1888275146484375,0.0667572021484375,-0.1277923583984375,0.2375778634301351
1786719007.066994,-0.0322265587747097,0.08154296875,0.9999999403953552,1.0038364845101702,-0.3719329833984375,0.1239776611328125,-0.3719329833984375,0.54040609613446
1786719007.076588,-0.0253906212747097,0.0791015625,0.9877929091453552,0.9912802692460397,-0.12969970703125,-0.057220458984375,-0.1888275146484375,0.2361186676624288
1786719007.086182,-0.0317382775247097,0.072265625,0.9853515028953552,0.9885075736052867,0.05340576171875,0.003814697265625,-0.3108978271484375,0.3154745413272012
1786719007.095776,-0.0214843712747097,0.07666015625,0.9799804091453552,0.9832090113877322,-0.0667572021484375,0.3070831298828125,-0.1888275146484375,0.3666229711646796
1786719007.10537,-0.0351562462747097,0.0888671875,0.9951171278953552,0.9996956721407715,0.11444091796875,0.186920166015625,-0.3719329833984375,0.4317059373097634
1786719007.114988,-0.0224609337747097,0.08349609375,0.9902343153953552,0.994002057645782,0.5435943603515625,0.9174346923828125,0.0553131103515625,1.0678205764876112
1786719007.124608,-0.0317382775247097,0.0751953125,0.9877929091453552,0.9911591621127518,0.72479248046875,0.370025634765625,-0.1888275146484375,0.8354034596624872
1786719007.134228,-0.0356445275247097,0.083984375,0.9775390028953552,0.9817873546589637,0.9098052978515625,0.6122589111328125,-0.2498626708984375,1.1247390846631091
1786719007.143848,-0.0356445275247097,0.07373046875,0.9868163466453552,0.9902086731447268,0.6656646728515625,0.3070831298828125,-0.2498626708984375,0.7744939377746626
1786719007.153468,-0.0292968712747097,0.06884765625,0.9799804091453552,0.9828325944667804,0.54168701171875,0.125885009765625,-0.1277923583984375,0.5706161066895286
1786719007.163081,-0.029785148799419403,0.0820312425494194,0.9755858778953552,0.9794815388725079,0.179290771484375,0.003814697265625,-0.0667572021484375,0.19135374752896295
1786719007.172696,-0.04296875,0.07666015625,0.9838866591453552,0.9878036500626252,-0.1888275146484375,-0.4863739013671875,-0.3108978271484375,0.6073490439154936
1786719007.182311,-0.0380859337747097,0.08349609375,0.9897460341453552,0.9939916237722826,-0.3719329833984375,-0.2422332763671875,-0.1888275146484375,0.48235561011306843
1786719007.191926,-0.0351562462747097,0.08837890625,0.9931640028953552,0.9977081383697336,-0.3719329833984375,-0.1811981201171875,-0.0057220458984375,0.41376278793884896
1786719007.201541,-0.0395507775247097,0.0859375,0.9819335341453552,0.986480097816599,-0.3719329833984375,0.0667572021484375,-0.0667572021484375,0.38372801854573646
1786719007.21111,-0.0297851525247097,0.083984375,0.9858397841453552,0.9898588841642133,-0.0057220458984375,-0.3643035888671875,0.1163482666015625,0.38247452962513057
1786719007.22068,-0.0473632775247097,0.083984375,0.9926757216453552,0.997347353556498,-0.06866455078125,-0.484466552734375,-0.1888275146484375,0.524479257493207
1786719007.23025,-0.0322265587747097,0.06396484375,0.9770507216453552,0.979672478430486,-0.308990478515625,-0.667572021484375,0.0553131103515625,0.7376903549991785
1786719007.23982,-0.0400390587747097,0.08740234375,0.9799804091453552,0.9846846694395397,-0.1888275146484375,-0.2422332763671875,0.1773834228515625,0.3546796712111146
1786719007.24939,-0.0258789025247097,0.08544921875,0.9824218153953552,0.9864704303452659,-0.0667572021484375,-0.4215240478515625,0.1773834228515625,0.4621730473084621
1786719007.258975,-0.0278320275247097,0.087890625,0.9794921278953552,0.9838212298624165,-0.12969970703125,-0.240325927734375,0.0553131103515625,0.27863615293451105
1786719007.268565,-0.0253906212747097,0.0830078125,0.9721679091453552,0.9760355650061131,-0.0667572021484375,-0.2422332763671875,0.2384185791015625,0.3463768223756861
1786719007.278155,-0.0214843712747097,0.080078125,0.9980468153953552,1.0014846629047274,-0.3719329833984375,0.1239776611328125,0.2994537353515625,0.4933326912091155
1786719007.287745,-0.0341796837747097,0.07470703125,0.9814452528953552,0.9848777465919084,-0.4329681396484375,-0.0591278076171875,0.1163482666015625,0.45221059997022656
1786719007.297335,-0.02880859375,0.08056640625,0.9755858778953552,0.9793307337354136,-0.3719329833984375,-0.2422332763671875,-0.2498626708984375,0.5093549436569214
1786719007.305345,-0.02880859375,0.0727538987994194,0.9951171278953552,0.9981889415812366,-0.61798095703125,0.186920166015625,-0.3108978271484375,0.7165870991318419
1786719007.313354,-0.0185546837747097,0.068359375,0.9902343153953552,0.9927644634186288,-0.3719329833984375,-0.0591278076171875,-0.2498626708984375,0.45195309057664207
1786719007.321363,-0.0356445275247097,0.07421875,0.9829100966453552,0.986352479229106,-0.4940032958984375,0.1239776611328125,-0.4940032958984375,0.7095413822864745
1786719007.329372,-0.0278320275247097,0.07421875,0.9873046278953552,0.9904814348948114,-0.25177001953125,0.003814697265625,-0.3108978271484375,0.4000751849035555
1786719007.338972,-0.0390624962747097,0.0732421875,0.9858397841453552,0.9893282451485742,-0.12969970703125,0.125885009765625,-0.2498626708984375,0.308383533925183
1786719007.348572,-0.0268554650247097,0.07421875,0.9824218153953552,0.9855872676825534,-0.308990478515625,0.186920166015625,-0.2498626708984375,0.43914191166993455
1786719007.358172,-0.0346679650247097,0.078125,0.9892577528953552,0.9929432436385889,0.1773834228515625,0.2460479736328125,-0.1888275146484375,0.35729583585546487
1786719007.367772,-0.0263671837747097,0.0693359375,0.9863280653953552,0.9891136199627206,0.1773834228515625,0.3070831298828125,-0.3719329833984375,0.5139057029269308
1786719007.377372,-0.0258789025247097,0.07568359375,0.9833983778953552,0.9866458805498629,-0.12969970703125,-0.057220458984375,-0.4329681396484375,0.4555849041408237
1786719007.386984,-0.0415039025247097,0.0771484375,0.9882811903953552,0.9921563216664662,-0.43487548828125,0.492095947265625,-0.6160736083984375,0.9004564412497584
1786719007.396596,-0.0361328087747097,0.08154296875,0.9824218153953552,0.9864620920173358,-0.3719329833984375,0.6122589111328125,-0.3719329833984375,0.8071736260191248
1786719007.406208,-0.0361328087747097,0.08203125,0.9936522841453552,0.9976871090847039,-0.3719329833984375,0.3719329833984375,-0.8602142333984375,1.008284094697812
1786719007.41582,-0.0351562462747097,0.072265625,0.9882811903953552,0.9915432383401286,-0.492095947265625,0.370025634765625,-0.3108978271484375,0.6897353482492949
1786719007.425432,-0.029785148799419403,0.0771484300494194,0.9887694716453552,0.992221801517145,-0.308990478515625,0.553131103515625,-0.3108978271484375,0.7057525008211786
1786719007.435,-0.0253906212747097,0.08349609375,0.9863280653953552,0.9901814651399856,-0.43487548828125,0.370025634765625,-0.1888275146484375,0.6014079239416996
1786719007.444569,-0.0317382775247097,0.0693359375,0.9931640028953552,0.9960871082070908,-0.5550384521484375,-0.0591278076171875,-0.4940032958984375,0.7453878435790777
1786719007.454138,-0.0458984337747097,0.09130859375,0.9809569716453552,0.9862659406748264,-0.3719329833984375,-0.3643035888671875,-0.1277923583984375,0.5360803445997716
1786719007.463707,-0.0375976525247097,0.07568359375,0.9853515028953552,0.9889687427297281,-0.3108978271484375,-0.3643035888671875,-0.1277923583984375,0.49568684736652757
1786719007.473276,-0.0371093712747097,0.07421875,0.9833983778953552,0.9868930529369343,-0.0057220458984375,-0.7305145263671875,-0.1888275146484375,0.7545462512868552
1786719007.482912,-0.0332031212747097,0.08935546875,0.9941405653953552,0.9987003108152674,0.1773834228515625,-0.3643035888671875,0.4825592041015625,0.6301153616816387
1786719007.492548,-0.033203125,0.0776367112994194,0.9775390028953552,0.9811790910087721,0.1163482666015625,-0.1811981201171875,0.0553131103515625,0.22232682710810026
1786719007.502184,-0.0454101525247097,0.07373046875,0.9912108778953552,0.9949860644413533,-0.06866455078125,-0.484466552734375,0.0553131103515625,0.49242481804747
1786719007.51182,-0.0458984337747097,0.0849609375,0.9853515028953552,0.9900720233306188,0.1163482666015625,-0.0591278076171875,0.4215240478515625,0.4412658378936327
1786719007.521456,-0.02880859375,0.09033203125,0.9863280653953552,0.9908747971011008,-0.25177001953125,0.064849853515625,0.1163482666015625,0.28483427704009273
1786719007.531073,-0.0361328087747097,0.08349609375,0.9833983778953552,0.9875978671446564,-0.0057220458984375,0.0667572021484375,0.2994537353515625,0.3068579564944582
1786719007.54069,-0.0297851525247097,0.07763671875,0.9848632216453552,0.9883674320609998,-0.25177001953125,0.064849853515625,-0.0057220458984375,0.2600507412891335
1786719007.550307,-0.0283203087747097,0.07373046875,0.9868163466453552,0.9899720823930721,-0.25177001953125,0.003814697265625,-0.1277923583984375,0.28237135392073515
1786719007.559924,-0.0351562462747097,0.0703125,0.9868163466453552,0.9899425798069623,0.05340576171875,0.370025634765625,-0.0057220458984375,0.37390358058960527
1786719007.569541,-0.0371093712747097,0.080078125,0.9824218153953552,0.9863783426782166,0.05340576171875,0.492095947265625,-0.3108978271484375,0.5845237853378016
1786719007.579098,-0.0200195275247097,0.08642578125,0.9829100966453552,0.9869054945811007,0.23651123046875,0.064849853515625,-0.5550384521484375,0.606803715382638
1786719007.588656,-0.0483398400247097,0.0849609375,0.9873046278953552,0.9921318104456077,0.2994537353515625,0.2460479736328125,-0.5550384521484375,0.6769636831530552
1786719007.598214,-0.0410156212747097,0.07080078125,0.9819335341453552,0.9853367430951453,0.1163482666015625,-0.0591278076171875,-0.1888275146484375,0.22954051290155575
1786719007.607772,-0.0322265587747097,0.0693359375,0.9833983778953552,0.9863662570093725,0.05340576171875,-0.118255615234375,-0.6771087646484375,0.6894293619240144
1786719007.61733,-0.0346679612994194,0.0771484300494194,0.9824218153953552,0.9860559675619095,-0.12969970703125,-0.118255615234375,-0.2498626708984375,0.30534858579491325
1786719007.628101,-0.0385742150247097,0.07373046875,0.9809569716453552,0.9844799298647451,-0.0057220458984375,-0.2422332763671875,-0.0667572021484375,0.25132891999834284
1786719007.638871,-0.0346679612994194,0.08642578125,0.9897460341453552,0.9941169424729616,-0.2498626708984375,0.1239776611328125,-0.0667572021484375,0.2868071456696132
1786719007.649641,-0.0268554650247097,0.064453125,0.9892577528953552,0.9917188729612474,-0.6771087646484375,-0.2422332763671875,-0.0057220458984375,0.7191564371905317
1786719007.657578,-0.02783203125,0.08642578125,0.9765624403953552,0.9807743051380912,-0.2498626708984375,0.1239776611328125,0.0553131103515625,0.284361310563212
1786719007.665514,-0.0249023400247097,0.0585937462747097,1.00634765625,1.008359538498585,-0.0057220458984375,-0.2422332763671875,-0.2498626708984375,0.34805323773432556
1786719007.67345,-0.0356445275247097,0.078125,0.9838866591453552,0.9876269569081578,-0.0667572021484375,0.1239776611328125,-0.0057220458984375,0.14092454118397427
1786719007.681386,-0.0341796800494194,0.07177734375,0.9809569716453552,0.9841731645517026,0.1773834228515625,0.3070831298828125,-0.0667572021484375,0.3608620947118828
1786719007.692067,-0.0366210900247097,0.07861328125,0.9965819716453552,1.0003483285496273,-0.12969970703125,0.308990478515625,-0.0667572021484375,0.34169233801183535
1786719007.702748,-0.0317382775247097,0.08251953125,0.9970702528953552,1.0009824576418724,0.2994537353515625,-0.4215240478515625,-0.2498626708984375,0.574270334286624
1786719007.713429,-0.033203125,0.0820312425494194,0.9741210341453552,0.9781325888796383,-0.12969970703125,-0.057220458984375,-0.1277923583984375,0.19085880067581196
1786719007.724078,-0.0366210900247097,0.08447265625,0.9873046278953552,0.9915882019024401,-0.3719329833984375,0.1239776611328125,-0.1888275146484375,0.43515564443993
1786719007.734727,-0.0371093712747097,0.08251953125,0.9824218153953552,0.9865795466351557,-0.25177001953125,-0.118255615234375,-0.3108978271484375,0.4171690211351345
1786719007.745376,-0.0346679650247097,0.0732421875,0.9687499403953552,0.9721330839163658,-0.12969970703125,0.064849853515625,-0.2498626708984375,0.28889249179148113
1786719007.753367,-0.033203125,0.076171875,0.9897460341453552,0.9932279769303923,-0.43487548828125,0.125885009765625,-0.0667572021484375,0.4576245732368777
1786719007.761357,-0.0371093712747097,0.0947265625,0.9765624403953552,0.9818474561103687,-0.1888275146484375,0.0019073486328125,-0.3719329833984375,0.41712541568067435
1786719007.769347,-0.0400390587747097,0.072265625,0.9838866591453552,0.987349180801004,-0.308990478515625,0.308990478515625,-0.3108978271484375,0.5362906772938063
1786719007.777337,-0.0419921837747097,0.0712890625,0.9892577528953552,0.9927116276108916,0.05340576171875,-0.057220458984375,-0.2498626708984375,0.2618352738262042
1786719007.787156,-0.0258789025247097,0.0751953125,0.9833983778953552,0.9866085456071582,-0.43487548828125,-0.118255615234375,-0.4329681396484375,0.6249499906336067
1786719007.796975,-0.0234374962747097,0.0693359375,0.9931640028953552,0.9958571810795743,-0.43487548828125,0.308990478515625,-0.1277923583984375,0.5485642104496111
1786719007.806794,-0.0317382775247097,0.08056640625,0.9902343153953552,0.9940132109095852,-0.25177001953125,0.186920166015625,-0.4329681396484375,0.5345920885579057
1786719007.816613,-0.0415039025247097,0.0830078125,0.9790038466453552,0.9833928017873722,-0.37384033203125,0.186920166015625,-0.1888275146484375,0.45864100624001114
1786719007.826432,-0.0400390587747097,0.07763671875,0.9853515028953552,0.9892159372876917,-0.3108978271484375,0.1239776611328125,-0.1888275146484375,0.3842964346359306
1786719007.83582,-0.0341796837747097,0.068359375,0.9799804091453552,0.9829561827680965,-0.308990478515625,-0.118255615234375,-0.0667572021484375,0.3375144891504109
1786719007.845206,-0.0444335900247097,0.095703125,0.9916991591453552,0.9972966731654399,-0.8602142333984375,-0.5474090576171875,0.1773834228515625,1.03493482036558
1786719007.854592,-0.0234374962747097,0.0947265625,0.9907225966453552,0.9955168011532546,-0.5550384521484375,-0.3643035888671875,-0.3108978271484375,0.7331045267562231
1786719007.863978,-0.04248046875,0.0869140550494194,0.9824218153953552,0.9871733720857034,-0.6771087646484375,-0.2422332763671875,-0.0057220458984375,0.7191564371905317
1786719007.873364,-0.0351562462747097,0.07568359375,0.9765624403953552,0.9801215067561648,-0.5550384521484375,-0.4215240478515625,-0.1888275146484375,0.7220845079135859
1786719007.881577,-0.0278320275247097,0.08349609375,0.9873046278953552,0.9912197776937417,-0.797271728515625,0.186920166015625,-0.1888275146484375,0.8403791928896783
1786719007.88979,-0.0380859337747097,0.07421875,0.9897460341453552,0.9932553414452463,-0.6771087646484375,0.0667572021484375,-0.1277923583984375,0.6922887331651839
1786719007.898003,-0.0385742150247097,0.07861328125,0.9804686903953552,0.9843713074339616,-0.61798095703125,0.064849853515625,-0.1277923583984375,0.6343791087506684
1786719007.906216,-0.033203125,0.076171875,0.9960936903953552,0.9995535213765289,-0.12969970703125,0.064849853515625,-0.0667572021484375,0.15963721854153387
1786719007.914486,-0.0234375,0.0678710862994194,0.9868163466453552,0.9894252385947101,-0.0057220458984375,0.2460479736328125,-0.1888275146484375,0.3102066688941147
1786719007.922756,-0.029785148799419403,0.0771484300494194,0.9838866591453552,0.9873560621135123,0.35858154296875,0.003814697265625,-0.1277923583984375,0.3806916885592757
1786719007.931026,-0.033203125,0.0722656175494194,0.9873046278953552,0.9905024963386767,0.23651123046875,0.003814697265625,-0.0667572021484375,0.2457816878690475
1786719007.939296,-0.0419921837747097,0.076171875,0.9794921278953552,0.9833464936878331,0.29754638671875,0.186920166015625,-0.3719329833984375,0.5116709341484575
1786719007.95083,-0.0336913987994194,0.0776367112994194,0.9741210341453552,0.9777905493810355,-0.12969970703125,-0.484466552734375,-0.0667572021484375,0.5059509647792051
1786719007.962365,-0.0424804650247097,0.076171875,0.9653319716453552,0.9692639268694776,-0.1888275146484375,-0.1163482666015625,-0.3719329833984375,0.4330437547975453
1786719007.9739,-0.0385742150247097,0.0791015625,0.9833983778953552,0.987328413903869,-0.4940032958984375,-0.4215240478515625,-0.1277923583984375,0.6618554722450516
1786719007.985435,-0.0336913987994194,0.0776367112994194,0.9892577528953552,0.9928713264859745,-0.12969970703125,-0.606536865234375,0.0553131103515625,0.6227106254666758
1786719007.996176,-0.0327148400247097,0.0830078125,0.9829100966453552,0.9869512732558072,-0.308990478515625,-0.118255615234375,-0.0667572021484375,0.3375144891504109
1786719008.006916,-0.0424804650247097,0.07763671875,0.9902343153953552,0.994181094868279,0.1163482666015625,-0.6694793701171875,0.2994537353515625,0.7425712664584444
1786719008.017656,-0.0249023400247097,0.07958984375,0.9877929091453552,0.991306966143535,0.1163482666015625,-0.2422332763671875,0.2994537353515625,0.4023511139996684
1786719008.025688,-0.0234375,0.1015624925494194,0.9794921278953552,0.9850223778717272,-0.3108978271484375,-0.3643035888671875,0.2994537353515625,0.5648425474440962
1786719008.033721,-0.0258789025247097,0.07958984375,0.9838866591453552,0.9874397292332536,-0.25177001953125,-0.484466552734375,0.2384185791015625,0.5957679097718364
1786719008.041754,-0.0341796837747097,0.07080078125,0.9853515028953552,0.9884829718648089,-0.1888275146484375,-0.4863739013671875,0.1773834228515625,0.5510719380643336
1786719008.049787,-0.0234375,0.0820312425494194,0.9780272841453552,0.981741213198871,-0.0057220458984375,-0.3643035888671875,-0.3108978271484375,0.47896482709735205
1786719008.060316,-0.0209960900247097,0.068359375,0.9819335341453552,0.9845340549853538,0.179290771484375,-0.301361083984375,0.0553131103515625,0.3549974983805717
1786719008.070845,-0.0205078087747097,0.07666015625,0.9960936903953552,0.9992497134462698,0.11444091796875,0.186920166015625,-0.1277923583984375,0.25370604847711786
1786719008.081374,-0.0263671837747097,0.08837890625,0.9999999403953552,1.0042439645030832,0.2994537353515625,-0.1811981201171875,-0.2498626708984375,0.43004261725846105
1786719008.09201,-0.0249023400247097,0.06982421875,0.9877929091453552,0.9905707341833788,0.41961669921875,0.308990478515625,-0.4329681396484375,0.6775062361537219
1786719008.102648,-0.0346679650247097,0.087890625,0.9833983778953552,0.9879266164088611,0.2994537353515625,0.1239776611328125,-0.0667572021484375,0.3309071230944621
1786719008.113286,-0.0312499962747097,0.07421875,0.9790038466453552,0.9823102956118979,0.54168701171875,0.370025634765625,-0.4940032958984375,0.8212082838153864
1786719008.121315,-0.0400390587747097,0.07373046875,0.9765624403953552,0.980159940132523,0.1773834228515625,0.2460479736328125,-0.5550384521484375,0.6325125827955383
1786719008.129344,-0.0327148400247097,0.06787109375,0.9843749403953552,0.9872541564374508,0.0553131103515625,0.2460479736328125,-0.7381439208984375,0.7800356360224167
1786719008.137373,-0.0449218712747097,0.09326171875,0.9912108778953552,0.996601588981829,0.1773834228515625,0.3070831298828125,-0.1277923583984375,0.3769559844679419
1786719008.145402,-0.0317382775247097,0.0849609375,0.9843749403953552,0.9885442339316302,-0.0057220458984375,0.1239776611328125,-0.4940032958984375,0.5093549436569214
1786719008.153386,-0.0327148400247097,0.076171875,0.9956054091453552,0.999050822540249,0.1163482666015625,0.1239776611328125,-0.5550384521484375,0.580495532251958
1786719008.16137,-0.0322265587747097,0.07958984375,0.9750975966453552,0.9788709911434484,0.1773834228515625,0.2460479736328125,-0.3719329833984375,0.4799360667536998
1786719008.169354,-0.0405273400247097,0.08154296875,0.9799804091453552,0.9842018712391984,-0.06866455078125,0.675201416015625,-0.0667572021484375,0.6819591606263408
1786719008.177338,-0.0361328087747097,0.07958984375,0.9790038466453552,0.9828980897552407,-0.12969970703125,0.553131103515625,-0.0057220458984375,0.5681626294377948
1786719008.187995,-0.0390624962747097,0.0634765625,0.9731444716453552,0.9759945262633114,-0.3108978271484375,0.6122589111328125,-0.5550384521484375,0.882941740179096
1786719008.198652,-0.0346679650247097,0.0703125,0.9663085341453552,0.9694833152856988,-0.4329681396484375,0.4291534423828125,-0.3108978271484375,0.6843183075040932
1786719008.209309,-0.0371093712747097,0.06591796875,0.9775390028953552,0.9804615169511629,-0.3719329833984375,0.3070831298828125,-0.1888275146484375,0.5179672027132534
1786719008.217329,-0.0361328087747097,0.08203125,0.9941405653953552,0.9981734166020997,-0.74005126953125,0.186920166015625,-0.3108978271484375,0.8241798886916274
1786719008.225349,-0.0410156212747097,0.0751953125,0.9790038466453552,0.9827436837532588,-0.12969970703125,-0.301361083984375,-0.2498626708984375,0.4123977100478742
1786719008.233369,-0.0327148400247097,0.068359375,0.9926757216453552,0.9955643390822915,-0.43487548828125,0.003814697265625,-0.3719329833984375,0.5722459142385783
1786719008.241389,-0.0429687462747097,0.06982421875,0.9882811903953552,0.9916760791557536,-0.3108978271484375,-0.0591278076171875,0.1163482666015625,0.33718018284060397
1786719008.252067,-0.0371093712747097,0.06787109375,0.9970702528953552,1.0000663378056645,-0.3108978271484375,-0.2422332763671875,-0.2498626708984375,0.4666538046707675
1786719008.262745,-0.0239257775247097,0.06494140625,0.9873046278953552,0.9897273651564229,-0.3719329833984375,0.0667572021484375,-0.1888275146484375,0.42242928220786924
1786719008.273423,-0.0385742112994194,0.0727538987994194,0.9916991591453552,0.9951122156910209,-0.1888275146484375,-0.0591278076171875,-0.1888275146484375,0.273510069668791
1786719008.284177,-0.0395507775247097,0.07373046875,0.9858397841453552,0.9893839123558986,-0.61798095703125,-0.179290771484375,-0.1888275146484375,0.6705978484017288
1786719008.294929,-0.0439453087747097,0.07421875,0.9829100966453552,0.98668732185138,-0.1888275146484375,0.0019073486328125,-0.0057220458984375,0.18892382082833492
1786719008.305681,-0.0336913987994194,0.0727538987994194,0.9863280653953552,0.9895813724652065,-0.43487548828125,-0.301361083984375,0.1773834228515625,0.5580323216003078
1786719008.3136,-0.0258789025247097,0.076171875,0.9741210341453552,0.9774372927719278,-0.06866455078125,0.003814697265625,-0.1277923583984375,0.14512153291036423
1786719008.321517,-0.0419921837747097,0.07958984375,0.9804686903953552,0.9845896300347172,-0.12969970703125,-0.484466552734375,0.1163482666015625,0.5148463594738816
1786719008.329434,-0.0405273400247097,0.0888671875,0.9829100966453552,0.9877510315818557,-0.74005126953125,-0.179290771484375,0.2384185791015625,0.7979125773761717
1786719008.337351,-0.0351562462747097,0.0908203125,0.9897460341453552,0.9945257678517859,-0.43487548828125,-0.423431396484375,0.0553131103515625,0.6094836979061276
1786719008.346966,-0.0341796837747097,0.080078125,0.9882811903953552,0.9921091009439008,-0.1888275146484375,-0.4215240478515625,0.1163482666015625,0.4763142579712059
1786719008.356581,-0.0449218712747097,0.07568359375,0.9877929091453552,0.991706010992966,-0.003814697265625,-0.301361083984375,-0.1277923583984375,0.32735904099398355
1786719008.366196,-0.0219726525247097,0.080078125,0.9887694716453552,0.9922501557673459,0.1773834228515625,0.1239776611328125,-0.1888275146484375,0.2872127599024886
1786719008.375811,-0.0361328087747097,0.08056640625,0.9790038466453552,0.9829776484907436,0.23651123046875,0.125885009765625,0.0553131103515625,0.2735765669758611
1786719008.385426,-0.0278320275247097,0.0830078125,0.9921874403953552,0.9960425872273022,0.1163482666015625,-0.0591278076171875,-0.0057220458984375,0.13063597737249577
1786719008.395025,-0.0385742112994194,0.0771484300494194,0.9829100966453552,0.9866874419611531,-0.003814697265625,-0.484466552734375,0.1163482666015625,0.4982562711845638
1786719008.404624,-0.0400390587747097,0.08642578125,0.9785155653953552,0.9831405055297179,0.1773834228515625,-0.3643035888671875,-0.0667572021484375,0.4106561914822865
1786719008.414223,-0.0395507775247097,0.0849609375,0.9804686903953552,0.9849372963540729,-0.0057220458984375,-0.1811981201171875,-0.2498626708984375,0.30870188669939713
1786719008.423822,-0.0302734337747097,0.08251953125,0.9770507216453552,0.9809964660985996,0.05340576171875,-0.057220458984375,-0.1277923583984375,0.14985740948040288
1786719008.433421,-0.0361328087747097,0.08056640625,0.9936522841453552,0.9975677357820227,-0.003814697265625,-0.301361083984375,-0.1277923583984375,0.32735904099398355
1786719008.443007,-0.0292968712747097,0.06884765625,0.9868163466453552,0.9896488308708756,-0.1888275146484375,0.4291534423828125,-0.0057220458984375,0.46889364381124604
1786719008.452594,-0.0361328087747097,0.08984375,0.9897460341453552,0.9944720666717949,-0.3108978271484375,-0.2422332763671875,-0.0057220458984375,0.39416641271735187
1786719008.462181,-0.0346679612994194,0.0820312425494194,0.9829100966453552,0.9869362949969168,-0.1888275146484375,0.0667572021484375,-0.0667572021484375,0.21111342535632494
1786719008.471768,-0.0327148400247097,0.0751953125,0.9995116591453552,1.0028699579443567,-0.12969970703125,0.064849853515625,0.0553131103515625,0.15520005696440395
1786719008.481355,-0.0224609337747097,0.06982421875,0.9887694716453552,0.9914862495909434,-0.0896453857421875,0.2079010009765625,-0.0782012939453125,0.23952988073859052
1786719008.490965,-0.0341796837747097,0.068359375,0.9897460341453552,0.9926925339901517,-0.026702880859375,0.26702880859375,0.1010894775390625,0.28676908992133054
1786719008.500575,-0.0278320275247097,0.08740234375,1.00390625,1.008088066707563,0.2765655517578125,0.1468658447265625,-0.1392364501953125,0.3427023049664851
1786719008.510185,-0.0283203125,0.0820312425494194,0.9775390028953552,0.9813835473635905,0.0934600830078125,-0.1583099365234375,-0.0171661376953125,0.18463883503005657
1786719008.519795,-0.0283203125,0.076171875,0.9804686903953552,0.983830802265662,0.2765655517578125,-0.1583099365234375,-0.4444122314453125,0.5468571768564074
1786719008.529405,-0.0327148400247097,0.078125,0.9877929091453552,0.9914174739940215,0.034332275390625,0.26702880859375,-0.3223419189453125,0.41998500266300187
1786719008.539013,-0.0410156212747097,0.07177734375,0.9711913466453552,0.9747034934087261,0.156402587890625,0.14495849609375,-0.1392364501953125,0.25467925740357844
1786719008.548623,-0.0415039025247097,0.07763671875,0.9726561903953552,0.976632018079201,0.217437744140625,-0.09918212890625,-0.0782012939453125,0.25145916099052956
1786719008.558233,-0.0419921837747097,0.072265625,0.9790038466453552,0.9825651102096042,0.0362396240234375,0.2079010009765625,-0.0782012939453125,0.22505905654102862
1786719008.567843,-0.0297851525247097,0.083984375,0.9995116591453552,1.0034760023650597,-0.331878662109375,0.209808349609375,0.1010894775390625,0.4054405904672583
1786719008.577453,-0.0302734337747097,0.0673828125,0.9794921278953552,0.9822737667381191,-0.026702880859375,0.45013427734375,-0.1392364501953125,0.4719329407330683
1786719008.585434,-0.0463867150247097,0.07763671875,0.9868163466453552,0.9909519107583052,-0.331878662109375,0.08392333984375,0.1659393310546875,0.38042401991056696
1786719008.593415,-0.0268554650247097,0.064453125,0.9902343153953552,0.9926930143354827,-0.087738037109375,0.08392333984375,-0.0171661376953125,0.12262041595798821
1786719008.601396,-0.0380859337747097,0.07373046875,0.9916991591453552,0.9951652840725459,-0.026702880859375,0.14495849609375,0.2269744873046875,0.2706352292721283
1786719008.609377,-0.0224609337747097,0.07861328125,0.9853515028953552,0.9887376425488507,-0.514984130859375,0.209808349609375,0.1010894775390625,0.5651966746822881
1786719008.620122,-0.0346679650247097,0.08447265625,0.9770507216453552,0.9813081117164958,-0.148773193359375,0.45013427734375,0.2841949462890625,0.5527396296615334
1786719008.630867,-0.0302734337747097,0.076171875,0.9833983778953552,0.9868084945827854,-0.2117156982421875,0.3299713134765625,0.0438690185546875,0.39449853661145107
1786719008.641612,-0.0317382775247097,0.0654296875,0.9707030653953552,0.9734232396211436,-0.2727508544921875,0.1468658447265625,0.2841949462890625,0.42039192721757673
1786719008.64956,-0.0385742150247097,0.08349609375,0.9960936903953552,1.0003310490941082,-0.3948211669921875,-0.0362396240234375,0.2269744873046875,0.4568528013941237
1786719008.657509,-0.0336914025247097,0.0654296875,0.9882811903953552,0.9910175911151577,-0.2727508544921875,-0.1583099365234375,0.1010894775390625,0.3311708729604611
1786719008.665458,-0.0463867150247097,0.0791015625,0.9912108778953552,0.9954435137057279,-0.331878662109375,-0.34332275390625,0.4100799560546875,0.6294279387436617
1786719008.673407,-0.0346679650247097,0.0888671875,0.9931640028953552,0.9977344243135243,-0.331878662109375,-0.83160400390625,0.3490447998046875,0.9610103734856921
1786719008.68411,-0.0327148400247097,0.06591796875,0.9814452528953552,0.9842002965823553,-0.3948211669921875,-0.3414154052734375,0.2841949462890625,0.5943189382472525
1786719008.694813,-0.0346679650247097,0.064453125,0.9921874403953552,0.9948829026571452,-0.2117156982421875,-0.1583099365234375,0.0438690185546875,0.26797399812889183
1786719008.705516,-0.0268554650247097,0.06689453125,0.9770507216453552,0.9797061840064908,-0.087738037109375,-0.09918212890625,-0.0171661376953125,0.13352802752065382
1786719008.713484,-0.0341796837747097,0.080078125,0.9843749403953552,0.9882179821096224,-0.2727508544921875,-0.2193450927734375,0.1659393310546875,0.3873514682312222
1786719008.721452,-0.0312499962747097,0.0771484375,0.9843749403953552,0.9878878817731392,-0.209808349609375,0.26702880859375,0.1659393310546875,0.37796797453710873
1786719008.72942,-0.0185546875,0.0678710862994194,0.9990233778953552,1.0014981130112686,-0.3948211669921875,0.2079010009765625,0.2841949462890625,0.5290305734155376
1786719008.737388,-0.0415039025247097,0.076171875,0.9907225966453552,0.9945129420824605,-0.392913818359375,-0.09918212890625,0.0438690185546875,0.4076062488984577
1786719008.748023,-0.0517578087747097,0.08837890625,0.9824218153953552,0.9877460833654624,-0.2117156982421875,-0.3414154052734375,0.2269744873046875,0.46141676793049935
1786719008.758658,-0.0419921837747097,0.07080078125,0.9843749403953552,0.9878107700375303,-0.514984130859375,-0.34332275390625,0.0438690185546875,0.6204866309403523
1786719008.769293,-0.0405273400247097,0.06884765625,0.9868163466453552,0.9900449318425313,-0.2117156982421875,-0.4634857177734375,0.4100799560546875,0.6540704226762971
1786719008.777351,-0.0346679650247097,0.0703125,0.9799804091453552,0.9831110404038307,-0.2727508544921875,-0.5245208740234375,0.1010894775390625,0.5997785077690345
1786719008.785409,-0.0302734337747097,0.0908203125,0.9853515028953552,0.9899911081485756,-0.2727508544921875,-0.4024505615234375,0.3490447998046875,0.5984912324900366
1786719008.793467,-0.0292968712747097,0.06884765625,0.9838866591453552,0.9867275533204763,-0.2117156982421875,-0.4634857177734375,0.7724761962890625,0.9253983041346865
1786719008.801525,-0.0317382775247097,0.08203125,0.9897460341453552,0.9936466456156618,-0.026702880859375,-0.40435791015625,0.3490447998046875,0.5348370178127299
1786719008.812155,-0.0288085900247097,0.06494140625,0.9848632216453552,0.9874223445185993,-0.1468658447265625,-0.4634857177734375,0.5321502685546875,0.7208137729330866
1786719008.822785,-0.0258789025247097,0.07080078125,0.9824218153953552,0.9853096424912319,-0.2727508544921875,-0.7686614990234375,0.5321502685546875,0.9738672584238586
1786719008.833415,-0.0312499962747097,0.091796875,0.9804686903953552,0.9852522932592027,-0.2727508544921875,-0.7076263427734375,0.4711151123046875,0.8927919794974567
1786719008.841394,-0.0312499962747097,0.0693359375,0.9931640028953552,0.9960716696821059,-0.2117156982421875,-0.9517669677734375,0.3490447998046875,1.03562356582762
1786719008.849372,-0.0283203087747097,0.080078125,0.9829100966453552,0.9865732634122982,-0.514984130859375,-0.89263916015625,0.2841949462890625,1.0690089301674164
1786719008.85735,-0.0395507775247097,0.08251953125,0.9873046278953552,0.9915362652490904,-0.453948974609375,-0.89263916015625,0.4100799560546875,1.0821459754354643
1786719008.865328,-0.0351562462747097,0.072265625,0.9868163466453552,0.9900832208533051,-0.2727508544921875,-0.7076263427734375,0.3490447998046875,0.8348415070441954
1786719008.876177,-0.0390624962747097,0.07861328125,0.9833983778953552,0.9873086124669019,-0.820159912109375,-0.58746337890625,0.4100799560546875,1.0890092163728553
1786719008.887026,-0.0209960900247097,0.080078125,0.9907225966453552,0.9941753393660278,-0.3948211669921875,0.1468658447265625,0.2841949462890625,0.5081536162899588
1786719008.897875,-0.0224609337747097,0.07275390625,0.9829100966453552,0.9858548993173626,-0.8182525634765625,-0.1583099365234375,0.1010894775390625,0.8395346187663385
1786719008.905733,-0.0229492150247097,0.0703125,0.9936522841453552,0.99640121232051,-0.698089599609375,0.209808349609375,-0.2613067626953125,0.7743577060240904
1786719008.913591,-0.0278320275247097,0.08447265625,0.9946288466453552,0.9985974133699408,-0.5779266357421875,0.0247955322265625,-0.0171661376953125,0.5787129608035887
1786719008.921449,-0.0302734337747097,0.076171875,0.9780272841453552,0.9814560631359239,-0.0896453857421875,0.2079010009765625,-0.2613067626953125,0.3457460710148802
1786719008.929307,-0.0268554650247097,0.0620117150247097,0.9912108778953552,0.9935117881837537,-0.5168914794921875,-0.1583099365234375,-0.4444122314453125,0.6998150248686287
1786719008.940004,-0.0307617150247097,0.07080078125,0.9956054091453552,0.9985935932381912,-0.514984130859375,-0.03814697265625,-0.2040863037109375,0.5552612591584394
1786719008.950701,-0.0366210900247097,0.08349609375,0.9770507216453552,0.9812954777098568,-0.576019287109375,-0.58746337890625,0.1010894775390625,0.8289333647206278
1786719008.961398,-0.0375976525247097,0.07763671875,0.9931640028953552,0.996903094699159,-0.637054443359375,-0.03814697265625,-0.0171661376953125,0.6384263713304255
1786719008.972051,-0.0336914025247097,0.07470703125,0.9790038466453552,0.9824280039110616,-0.5779266357421875,0.2079010009765625,-0.3223419189453125,0.6936327091600324
1786719008.982707,-0.0375976525247097,0.0581054650247097,0.9794921278953552,0.9819341409433107,-0.8831024169921875,0.5130767822265625,-0.1392364501953125,1.0307785661432811
1786719008.993363,-0.0424804650247097,0.076171875,0.9887694716453552,0.9926085897812723,-0.6999969482421875,0.6351470947265625,0.0438690185546875,0.9462198741713895
1786719009.001372,-0.0278320275247097,0.06494140625,0.9999999403953552,1.0024928372774429,-0.576019287109375,0.38909912109375,-0.0171661376953125,0.6953351863966728
1786719009.009382,-0.0356445275247097,0.072265625,0.9785155653953552,0.9818276654383356,-0.698089599609375,0.209808349609375,-0.2613067626953125,0.7743577060240904
1786719009.017392,-0.0375976525247097,0.0712890625,0.9829100966453552,0.9862088886209043,-0.698089599609375,-0.09918212890625,-0.1392364501953125,0.7187161977026434
1786719009.025402,-0.0410156212747097,0.07275390625,0.9770507216453552,0.980613850978505,-0.820159912109375,-0.34332275390625,-0.2613067626953125,0.9267221908486565
1786719009.036121,-0.0415039025247097,0.06689453125,0.9848632216453552,0.9880045635449292,-0.9441375732421875,-0.2803802490234375,-0.1392364501953125,0.9946836835462234
1786719009.04684,-0.0390624962747097,0.06591796875,0.9926757216453552,0.9956285178536544,-1.369476318359375,-0.58746337890625,-0.2613067626953125,1.512897826138104
1786719009.057559,-0.0483398362994194,0.0834960862994194,0.9916991591453552,0.9963812314823977,-1.003265380859375,-0.34332275390625,-0.0782012939453125,1.0632626110963366
1786719009.068151,-0.0415039025247097,0.0610351525247097,0.9926757216453552,0.995415969387985,-1.1234283447265625,-0.8296966552734375,0.2269744873046875,1.414922331223244
1786719009.078743,-0.0297851525247097,0.0830078125,0.9907225966453552,0.9946399930380191,-0.698089599609375,-1.01470947265625,0.1659393310546875,1.2427792501373602
1786719009.089335,-0.0258789025247097,0.0791015625,1.017578125,1.0209760111111037,-0.392913818359375,-1.19781494140625,0.4711151123046875,1.345767941197761
1786719009.097404,-0.0278320275247097,0.0849609375,0.9765624403953552,0.9806463086393314,0.278472900390625,-0.278472900390625,0.7152557373046875,0.8165078580462077
1786719009.105473,-0.0200195275247097,0.068359375,0.9912108778953552,0.9937669697121071,0.217437744140625,-0.09918212890625,0.6542205810546875,0.6965061636101096
1786719009.113542,-0.0273437462747097,0.08837890625,0.9877929091453552,0.9921155894794346,0.461578369140625,-0.278472900390625,0.3490447998046875,0.6422102610369756
1786719009.121611,-0.0249023400247097,0.087890625,0.9755858778953552,0.9798534041633207,0.644683837890625,0.14495849609375,0.4100799560546875,0.7776861749992485
1786719009.132268,-0.0278320275247097,0.0830078125,0.9848632216453552,0.9887469261857856,0.827789306640625,0.08392333984375,-0.0171661376953125,0.8322096727643045
1786719009.142925,-0.0371093712747097,0.07568359375,0.9892577528953552,0.9928423910484921,1.0700225830078125,-0.0362396240234375,-0.2613067626953125,1.1020630030657845
1786719009.153582,-0.0312499962747097,0.08056640625,0.9819335341453552,0.9857286510812177,0.888824462890625,-0.09918212890625,0.2269744873046875,0.9226935777463772
1786719009.164232,-0.0297851525247097,0.08544921875,0.9873046278953552,0.9914429648545051,1.0700225830078125,0.0247955322265625,-0.2040863037109375,1.0895936701025306
1786719009.174885,-0.0258789025247097,0.08935546875,0.9843749403953552,0.9887609117829117,0.888824462890625,0.08392333984375,-0.0171661376953125,0.8929427356145029
1786719009.185538,-0.0190429650247097,0.07373046875,0.9873046278953552,0.990236963964996,0.644683837890625,0.514984130859375,-0.2040863037109375,0.8499865441504145
1786719009.196188,-0.0312499962747097,0.072265625,0.9819335341453552,0.9850849447144127,0.7648468017578125,0.3299713134765625,0.1010894775390625,0.8391011740819596
1786719009.206838,-0.0327148400247097,0.076171875,0.9926757216453552,0.9961312682789275,0.5245208740234375,0.3299713134765625,0.1010894775390625,0.6278712427503582
1786719009.217488,-0.0341796800494194,0.08154296875,0.9868163466453552,0.9907694021755667,0.2155303955078125,0.3299713134765625,0.2269744873046875,0.4548096711729289
1786719009.22814,-0.0356445275247097,0.07763671875,0.9838866591453552,0.9875884519803453,0.3414154052734375,0.3299713134765625,0.2841949462890625,0.5533645400382252
1786719009.23879,-0.0361328087747097,0.07470703125,0.9819335341453552,0.9854340088850829,0.4596710205078125,0.5130767822265625,0.2269744873046875,0.7253017644000895
1786719009.24944,-0.0361328087747097,0.072265625,0.9833983778953552,0.9867118475389896,0.461578369140625,0.57220458984375,0.1010894775390625,0.742086090670007
1786719009.257425,-0.0346679612994194,0.08154296875,0.9877929091453552,0.9917590204535905,0.461578369140625,0.38909912109375,-0.0171661376953125,0.603943203602642
1786719009.26541,-0.0341796800494194,0.0673828050494194,0.9848632216453552,0.9877571858985774,0.5817413330078125,0.3299713134765625,0.1010894775390625,0.6764045599463941
1786719009.273395,-0.0327148400247097,0.0732421875,0.9716796278953552,0.9749851168374231,0.644683837890625,0.08392333984375,0.1659393310546875,0.6709666455188308
1786719009.28138,-0.0297851525247097,0.08642578125,0.9799804091453552,0.9842348161309327,0.522613525390625,-0.03814697265625,0.1010894775390625,0.5336657857809275
1786719009.292069,-0.0283203125,0.0678710862994194,0.9902343153953552,0.9929614916209333,0.5245208740234375,0.0247955322265625,-0.0782012939453125,0.5308977378737175
1786719009.302758,-0.0302734337747097,0.076171875,0.9858397841453552,0.989241484844468,0.644683837890625,0.08392333984375,0.1659393310546875,0.6709666455188308
1786719009.313447,-0.0385742112994194,0.0624999925494194,0.9775390028953552,0.9802942012618941,0.644683837890625,0.26702880859375,0.1659393310546875,0.7172569254090617
1786719009.324071,-0.0317382775247097,0.06640625,0.9819335341453552,0.9846880591225251,0.4596710205078125,-0.1583099365234375,0.3490447998046875,0.5984912324900366
1786719009.334694,-0.0410156212747097,0.07373046875,0.9790038466453552,0.9826326856750937,0.339508056640625,0.08392333984375,-0.0171661376953125,0.3501478598789343
1786719009.345317,-0.02880859375,0.0922851487994194,0.9951171278953552,0.999802271448452,0.5245208740234375,0.0247955322265625,0.2841949462890625,0.5970793357678295
1786719009.353324,-0.0258789025247097,0.07568359375,0.9799804091453552,0.9832392009412034,0.2155303955078125,-0.1583099365234375,0.4100799560546875,0.4895722191338305
1786719009.361333,-0.0356445275247097,0.076171875,0.9853515028953552,0.9889339063565424,0.156402587890625,-0.70953369140625,0.1010894775390625,0.7335658874351948
1786719009.369342,-0.0332031212747097,0.0693359375,0.9824218153953552,0.9854250569455256,-0.026702880859375,-0.09918212890625,0.4100799560546875,0.4227478076801586
1786719009.377351,-0.0224609337747097,0.0849609375,0.9858397841453552,0.9897489249555522,-0.026702880859375,-0.03814697265625,0.5321502685546875,0.5341836235713827
1786719009.388033,-0.0375976525247097,0.07958984375,0.9829100966453552,0.9868436475910962,-0.0286102294921875,-0.6465911865234375,0.4711151123046875,0.800529922465888
1786719009.398715,-0.0366210900247097,0.07177734375,0.9833983778953552,0.9866942084342136,-0.087738037109375,-0.40435791015625,0.4711151123046875,0.6270189245179083
1786719009.409397,-0.0253906212747097,0.0732421875,0.9931640028953552,0.9961846406794406,-0.026702880859375,-0.278472900390625,0.5893707275390625,0.6523940945303542
1786719009.417409,-0.0468749962747097,0.0751953125,0.9892577528953552,0.9932182549476698,0.0934600830078125,0.0247955322265625,0.2269744873046875,0.24671243061802023
1786719009.425421,-0.0283203125,0.076171875,0.9799804091453552,0.9833441904795142,-0.0896453857421875,-0.0362396240234375,0.4100799560546875,0.4213254987441896
1786719009.433433,-0.0336914025247097,0.064453125,0.9868163466453552,0.9894927073671809,0.034332275390625,0.26702880859375,0.5321502685546875,0.5963782340724059
1786719009.441445,-0.0278320275247097,0.07373046875,0.9790038466453552,0.9821707262612916,-0.026702880859375,-0.03814697265625,0.2841949462890625,0.2879843795508183
1786719009.452088,-0.0292968712747097,0.0561523400247097,0.9858397841453552,0.987872194142794,-0.1468658447265625,-0.1583099365234375,0.2841949462890625,0.35692909638406434
1786719009.462731,-0.0507812462747097,0.0908203125,0.9672850966453552,0.972865623983099,-0.7610321044921875,-0.2193450927734375,0.5321502685546875,0.9541834425907953
1786719009.473374,-0.0229492150247097,0.08056640625,0.9999999403953552,1.0035026123917188,-0.698089599609375,-0.22125244140625,0.2841949462890625,0.7855243467947042
1786719009.484127,-0.0380859337747097,0.08544921875,0.9936522841453552,0.9980465766304489,-0.2727508544921875,-0.0362396240234375,0.1010894775390625,0.29313038301189315
1786719009.494881,-0.0258789025247097,0.08544921875,0.9956054091453552,0.9996006289015423,0.156402587890625,-0.40435791015625,0.1010894775390625,0.44518105471137837
1786719009.505635,-0.0356445275247097,0.07080078125,1.00341796875,1.0065440392642768,0.8869171142578125,-0.2803802490234375,0.4100799560546875,1.0165631421430077
1786719009.513615,-0.01904296875,0.07666015625,0.9824218153953552,0.9855922268259797,0.888824462890625,-0.09918212890625,-0.1392364501953125,0.9051148046464469
1786719009.521596,-0.0341796837747097,0.08056640625,0.9829100966453552,0.9867985887131987,0.766754150390625,-0.22125244140625,0.2841949462890625,0.8471312398121783
1786719009.529577,-0.0361328087747097,0.0600585900247097,0.9799804091453552,0.9824836977855682,0.644683837890625,0.209808349609375,-0.0782012939453125,0.6824604287267626
1786719009.537558,-0.0253906212747097,0.08935546875,0.9892577528953552,0.9936095737802729,0.8869171142578125,0.3299713134765625,0.1659393310546875,0.9607491331621022
1786719009.548142,-0.0219726525247097,0.08154296875,0.9765624403953552,0.9802072501274752,0.278472900390625,0.38909912109375,-0.1392364501953125,0.4983292800457218
1786719009.558726,-0.0317382775247097,0.080078125,0.9926757216453552,0.9964059979284939,0.583648681640625,0.26702880859375,0.3490447998046875,0.7306041612737582
1786719009.56931,-0.0405273400247097,0.0791015625,0.9829100966453552,0.9869203516833571,0.2765655517578125,0.0247955322265625,0.3490447998046875,0.4460219670691076
1786719009.579989,-0.0380859337747097,0.0830078125,0.9750975966453552,0.9793651812633909,0.2155303955078125,-0.1583099365234375,0.3490447998046875,0.43971315611487366
1786719009.590667,-0.02880859375,0.0683593675494194,0.9765624403953552,0.9793758921867236,0.156402587890625,-0.70953369140625,0.4100799560546875,0.8343053392477353
1786719009.601345,-0.0390624962747097,0.083984375,0.9916991591453552,0.9960152991339827,0.156402587890625,-0.58746337890625,0.5321502685546875,0.8079349598684655
1786719009.61202,-0.0371093712747097,0.07421875,0.9995116591453552,1.002950190715106,0.095367431640625,-0.58746337890625,0.5321502685546875,0.7983683842039986
1786719009.622694,-0.0419921837747097,0.07568359375,0.9892577528953552,0.9930368832649932,0.461578369140625,-0.52642822265625,0.8373260498046875,1.0914651520543657
1786719009.633368,-0.0532226487994194,0.0703125,0.9868163466453552,0.9907487067909613,1.1920928955078125,-0.7076263427734375,0.7152557373046875,1.559939512370394
1786719009.641447,-0.0322265587747097,0.07861328125,0.9897460341453552,0.9933860333152515,1.1920928955078125,-1.0128021240234375,0.4711151123046875,1.6336471660026364
1786719009.649529,-0.0297851525247097,0.07275390625,0.9843749403953552,0.9875091439900257,0.8869171142578125,-1.1348724365234375,0.5893707275390625,1.556250387702433
1786719009.657611,-0.0268554650247097,0.07958984375,0.9863280653953552,0.9898983845912604,1.010894775390625,-1.07574462890625,0.9593963623046875,1.7605613120639039
1786719009.665693,-0.0395507737994194,0.07666015625,0.9765624403953552,0.9803648521113651,0.5245208740234375,-0.8296966552734375,0.7152557373046875,1.2145408419668366
1786719009.673637,-0.0405273400247097,0.06982421875,0.9877929091453552,0.9910866350483041,0.339508056640625,-0.52642822265625,0.4711151123046875,0.7837996192744485
1786719009.681581,-0.0312499962747097,0.0791015625,0.9951171278953552,0.9987450714210366,0.156402587890625,-0.461578369140625,0.5893707275390625,0.764770694285109
1786719009.689525,-0.01904296875,0.0781249925494194,0.9819335341453552,0.9852205918467436,-0.087738037109375,-0.58746337890625,0.3490447998046875,0.6889437255556137
1786719009.697469,-0.0239257775247097,0.07373046875,0.9921874403953552,0.9952108026596894,-0.2727508544921875,-0.1583099365234375,0.5321502685546875,0.6185781866111181
1786719009.708085,-0.029785148799419403,0.07177734375,1.0009765625,1.0039886557322875,-0.026702880859375,-0.09918212890625,0.4100799560546875,0.4227478076801586
1786719009.718701,-0.0195312462747097,0.08349609375,0.9912108778953552,0.9949130975671358,-0.0896453857421875,0.2079010009765625,0.3490447998046875,0.4160425382849891
1786719009.729317,-0.0278320275247097,0.08740234375,0.9946288466453552,0.9988495051949512,-0.0286102294921875,0.5130767822265625,0.1010894775390625,0.5237226481265439
1786719009.74002,-0.0244140587747097,0.0791015625,0.9916991591453552,0.9951483938113959,0.339508056640625,0.209808349609375,0.1010894775390625,0.4117090557163204
1786719009.750724,-0.0170898400247097,0.068359375,0.9770507216453552,0.9795882703718793,0.2765655517578125,0.1468658447265625,-0.3223419189453125,0.44940226242832426
1786719009.761428,-0.0214843712747097,0.07421875,0.9824218153953552,0.9854555415772633,0.7038116455078125,0.2079010009765625,-0.3871917724609375,0.8297536545390528
1786719009.772103,-0.0224609337747097,0.07861328125,0.9677733778953552,0.971220805222947,0.461578369140625,0.45013427734375,-0.0782012939453125,0.6494543100734803
1786719009.782777,-0.0249023400247097,0.09033203125,0.9692382216453552,0.9737570193362962,-0.0286102294921875,0.5130767822265625,-0.2040863037109375,0.5529173076093314
1786719009.793451,-0.0395507737994194,0.0917968675494194,0.9746093153953552,0.9797215146435345,-0.2727508544921875,0.6961822509765625,0.1010894775390625,0.7545076790001096
1786719009.801418,-0.0419921837747097,0.07470703125,0.9892577528953552,0.9929629326817417,-0.698089599609375,0.698089599609375,-0.2613067626953125,1.0212440464432875
1786719009.809388,-0.0449218712747097,0.0771484375,0.9775390028953552,0.9816070283515488,-0.331878662109375,0.57220458984375,0.1010894775390625,0.669164121476102
1786719009.817358,-0.0322265587747097,0.0927734375,0.9794921278953552,0.9844035201100193,-0.7610321044921875,0.2689361572265625,-0.3223419189453125,0.8691379829698761
1786719009.825328,-0.0434570275247097,0.08984375,0.9853515028953552,0.9903928497891537,-0.9441375732421875,0.4520416259765625,-0.0782012939453125,1.0496917791418119
1786719009.836002,-0.0390624925494194,0.0727538987994194,0.9902343153953552,0.9936714786594196,-0.7610321044921875,0.2689361572265625,0.2841949462890625,0.8557238387633251
1786719009.846676,-0.0346679650247097,0.06640625,0.9921874403953552,0.9950113440138778,-0.7610321044921875,0.2079010009765625,0.0438690185546875,0.7901374444131957
1786719009.85735,-0.0395507737994194,0.0771484300494194,0.9858397841453552,0.9896444937304424,-0.9441375732421875,-0.0362396240234375,0.2269744873046875,0.9717131703564755
1786719009.868066,-0.0434570237994194,0.07568359375,0.9804686903953552,0.9843451488812252,-0.8831024169921875,0.0247955322265625,0.1659393310546875,0.8988996378387962
1786719009.878781,-0.0292968712747097,0.08056640625,0.9833983778953552,0.9871279664408981,-0.8182525634765625,-0.1583099365234375,0.6542205810546875,1.0595300195433603
1786719009.889496,-0.0273437462747097,0.07861328125,0.9926757216453552,0.9961590318786223,-0.820159912109375,-0.40435791015625,0.9593963623046875,1.3253712615492517
1786719009.897486,-0.0395507775247097,0.06982421875,0.9843749403953552,0.9876404754794207,-0.5779266357421875,-0.0362396240234375,0.6542205810546875,0.8736801905303657
1786719009.905478,-0.0346679650247097,0.068359375,0.9916991591453552,0.9946567720570497,-0.514984130859375,-0.40435791015625,1.1425018310546875,1.3168236056914493
1786719009.91347,-0.0312499962747097,0.07080078125,1.0048828125,1.0078585117717118,-0.453948974609375,-0.09918212890625,1.0776519775390625,1.1735589252087562
1786719009.921462,-0.0346679650247097,0.06982421875,0.9868163466453552,0.9898907976789603,-0.637054443359375,-0.40435791015625,1.0776519775390625,1.3155521532815433
1786719009.932102,-0.0273437462747097,0.0771484375,0.9887694716453552,0.9921515156098195,-0.3948211669921875,-0.2803802490234375,1.1425018310546875,1.2408897098093896
1786719009.942742,-0.0263671837747097,0.0620117150247097,0.9916991591453552,0.9939858668160829,-0.453948974609375,-0.22125244140625,0.7724761962890625,0.9228985795906002
1786719009.953382,-0.0253906212747097,0.0590820275247097,1.0009765625,1.003040103036495,-0.209808349609375,-0.58746337890625,1.0776519775390625,1.245177316616236
1786719009.961443,-0.0283203087747097,0.07568359375,0.9814452528953552,0.9847663838103115,-0.2117156982421875,-0.8296966552734375,1.0776519775390625,1.3764279353994375
1786719009.969504,-0.0214843712747097,0.06982421875,0.9946288466453552,0.9973081481228292,-0.2727508544921875,-0.6465911865234375,0.8983612060546875,1.1399675643017384
1786719009.977565,-0.0312499962747097,0.07275390625,0.9907225966453552,0.9938817619040599,-0.1468658447265625,-0.4634857177734375,1.3256072998046875,1.4119572586387592
1786719009.985626,-0.0302734337747097,0.07421875,0.9824218153953552,0.9856863228272875,0.156402587890625,-0.58746337890625,0.8983612060546875,1.0847247796555888
1786719009.996241,-0.024414055049419403,0.07666015625,0.9726561903953552,0.9759779148908216,-0.148773193359375,-0.58746337890625,0.9593963623046875,1.13476343993881
1786719010.006856,-0.0288085900247097,0.06884765625,0.9814452528953552,0.9842787811698257,-0.087738037109375,-0.58746337890625,0.7724761962890625,0.9744386376498895
1786719010.017471,-0.0463867150247097,0.0751953125,0.9814452528953552,0.9854140483997496,-0.026702880859375,-0.70953369140625,0.4711151123046875,0.8521153396862586
1786719010.028143,-0.0234374962747097,0.0590820275247097,0.9819335341453552,0.9839885505874777,-0.5779266357421875,-0.6465911865234375,0.8373260498046875,1.2054850776644197
1786719010.038817,-0.0166015587747097,0.072265625,0.9829100966453552,0.9857028915437818,-0.637054443359375,-0.52642822265625,0.8373260498046875,1.1764692733320592
1786719010.049491,-0.0185546875,0.07080078125,0.9755858778953552,0.9783275689679218,-0.5779266357421875,-0.7686614990234375,0.9593963623046875,1.3584112324273192
1786719010.057461,-0.0336913987994194,0.0771484300494194,0.9848632216453552,0.9884546301989888,-0.453948974609375,-0.40435791015625,0.8373260498046875,1.0347414675832582
1786719010.065431,-0.0356445275247097,0.06689453125,0.9848632216453552,0.9877757721281106,-0.1468658447265625,-0.1583099365234375,0.5321502685546875,0.5742956735620839
1786719010.073401,-0.0283203125,0.0712890625,0.9853515028953552,0.9883328158016215,-0.5168914794921875,0.3299713134765625,0.4100799560546875,0.7377150124857734
1786719010.081371,-0.0268554650247097,0.07080078125,0.9892577528953552,0.9921516357346146,-0.3948211669921875,-0.2803802490234375,0.5321502685546875,0.7195003448715946
1786719010.092036,-0.0219726525247097,0.078125,0.9799804091453552,0.9833350982206774,-0.392913818359375,-0.40435791015625,0.6542205810546875,0.8636499040926288
1786719010.102701,-0.0507812462747097,0.08447265625,0.9770507216453552,0.9820094079462033,-0.148773193359375,0.08392333984375,0.5893707275390625,0.6136240253712361
1786719010.113366,-0.0297851525247097,0.0732421875,0.9736327528953552,0.9768379143191019,-0.209808349609375,-0.58746337890625,0.6542205810546875,0.9039564888849966
1786719010.121361,-0.019531242549419403,0.0825195237994194,0.9770507216453552,0.9807237398530315,-0.637054443359375,-0.70953369140625,0.5321502685546875,1.091998320221844
1786719010.129359,-0.033203125,0.0820312425494194,0.9999999403953552,1.003908089943836,-0.881195068359375,-0.40435791015625,0.2841949462890625,1.0103350115199694
1786719010.137357,-0.0249023400247097,0.07373046875,0.9970702528953552,1.0001026936118154,-0.698089599609375,-0.09918212890625,0.2269744873046875,0.7407318014398864
1786719010.145355,-0.0214843712747097,0.08447265625,0.9956054091453552,0.9994134972985358,-0.6351470947265625,-0.3414154052734375,0.3490447998046875,0.8011295670291497
1786719010.156051,-0.0263671837747097,0.0712890625,0.9882811903953552,0.9911998134087792,-0.514984130859375,-0.22125244140625,0.6542205810546875,0.8614904912654259
1786719010.166747,-0.0200195275247097,0.06884765625,0.9956054091453552,0.9981838067074225,-0.209808349609375,-0.09918212890625,0.2841949462890625,0.3669106236625329
1786719010.177443,-0.03271484375,0.0722656175494194,1.00927734375,1.0123899135651448,-0.2727508544921875,-0.1583099365234375,0.5321502685546875,0.6185781866111181
1786719010.18807,-0.0249023400247097,0.08349609375,0.9907225966453552,0.9945466242031744,-0.087738037109375,-0.09918212890625,0.1659393310546875,0.21229912727342812
1786719010.198698,-0.029296867549419403,0.07177734375,0.9980468153953552,1.0010533148862872,0.461578369140625,0.08392333984375,0.4100799560546875,0.6231077661102156
1786719010.209326,-0.0258789025247097,0.0771484375,0.9960936903953552,0.9994119466216184,0.8869171142578125,-0.0362396240234375,0.2269744873046875,0.9162165114207402
1786719010.217357,-0.0332031212747097,0.0791015625,0.9868163466453552,0.9905382407856904,1.621246337890625,0.38909912109375,0.4100799560546875,1.7169750681117957
1786719010.225391,-0.0219726525247097,0.076171875,0.9936522841453552,0.9968098182638797,1.8634796142578125,0.3299713134765625,0.2269744873046875,1.9060311535646839
1786719010.233425,-0.0249023400247097,0.07470703125,0.9951171278953552,0.9982281128517647,2.4776458740234375,0.0247955322265625,-0.0782012939453125,2.479003698637516
1786719010.241459,-0.0258789025247097,0.08056640625,0.9931640028953552,0.99676245919429,2.231597900390625,-0.22125244140625,0.4711151123046875,2.291491060619249
1786719010.252133,-0.0249023400247097,0.06640625,0.9848632216453552,0.9874135313673987,2.4776458740234375,-0.3414154052734375,0.4711151123046875,2.545042829711368
1786719010.262807,-0.0195312462747097,0.078125,0.9868163466453552,0.9900967059901418,1.7414093017578125,0.0247955322265625,0.6542205810546875,1.8604101008494238
1786719010.273481,-0.0253906212747097,0.0771484375,0.9863280653953552,0.9896664173568542,1.804351806640625,0.26702880859375,0.4100799560546875,1.8695334704423185
1786719010.281813,-0.0385742112994194,0.0727538987994194,0.9838866591453552,0.9873267228289209,1.316070556640625,0.08392333984375,0.5321502685546875,1.4220649582032883
1786719010.290148,-0.024902336299419403,0.0771484300494194,0.9785155653953552,0.981867973982883,1.132965087890625,0.026702880859375,0.7152557373046875,1.3401170486089913
1786719010.298483,-0.0229492150247097,0.07861328125,0.9775390028953552,0.9809634124883493,0.827789306640625,0.26702880859375,0.4100799560546875,0.9616158750589441
1786719010.306818,-0.0224609337747097,0.0693359375,0.9741210341453552,0.9768437720226567,0.3986358642578125,0.2079010009765625,0.3490447998046875,0.5691798052903179
1786719010.316988,-0.0361328087747097,0.0654296875,0.9829100966453552,0.9857478795126464,0.339508056640625,0.45013427734375,0.4100799560546875,0.6971744104035147
1786719010.327158,-0.0312499962747097,0.06591796875,0.9931640028953552,0.9958395842295186,0.583648681640625,0.08392333984375,0.4711151123046875,0.7547439033163683
1786719010.337328,-0.0395507775247097,0.07275390625,0.9809569716453552,0.9844460244711587,0.3986358642578125,-0.2803802490234375,0.5893707275390625,0.7647754512240451
1786719010.348077,-0.0341796837747097,0.0849609375,0.9916991591453552,0.995918588004774,0.644683837890625,-0.09918212890625,0.1659393310546875,0.6730454718090293
1786719010.358825,-0.0346679650247097,0.06787109375,0.9936522841453552,0.9965707275216634,0.8869171142578125,-0.3414154052734375,0.1659393310546875,0.9647395027220086
1786719010.369573,-0.0268554650247097,0.0830078125,0.9902343153953552,0.9940701747483607,0.5817413330078125,-0.6465911865234375,-0.0782012939453125,0.8732803578428948
1786719010.377501,-0.0341796837747097,0.0732421875,0.9711913466453552,0.9745487676927937,0.461578369140625,-0.52642822265625,0.5893707275390625,0.9151716336007477
1786719010.38543,-0.0390624962747097,0.07958984375,0.9775390028953552,0.9815512844599646,0.1583099365234375,-0.6465911865234375,0.3490447998046875,0.7516478369306573
1786719010.393359,-0.0454101525247097,0.07568359375,0.9711913466453552,0.9751936833850243,0.3986358642578125,-0.3414154052734375,0.4711151123046875,0.7052832624360633
1786719010.401288,-0.029296867549419403,0.0810546875,0.9853515028953552,0.9891136199001943,0.156402587890625,-0.766754150390625,0.5893707275390625,0.9796588952896094
1786719010.411988,-0.0327148400247097,0.0849609375,0.9750975966453552,0.9793385240264314,0.156402587890625,-0.766754150390625,0.5893707275390625,0.9796588952896094
1786719010.422688,-0.0268554650247097,0.06787109375,0.9765624403953552,0.9792864245763067,-0.148773193359375,-0.40435791015625,0.2841949462890625,0.5161448925103483
1786719010.433388,-0.0297851525247097,0.080078125,0.9707030653953552,0.9744557981675593,0.0362396240234375,-0.3414154052734375,0.4100799560546875,0.5348302157369197
1786719010.44406,-0.0278320275247097,0.09326171875,0.9853515028953552,0.9901464306851161,0.034332275390625,-0.70953369140625,0.6542205810546875,0.9657232176196295
1786719010.454735,-0.0312499962747097,0.0908203125,0.9843749403953552,0.9890495006359015,-0.0896453857421875,-0.5245208740234375,0.5321502685546875,0.75255720765534
1786719010.46541,-0.0161132775247097,0.0830078125,0.9819335341453552,0.9855675522904612,-0.331878662109375,-0.34332275390625,0.4711151123046875,0.6707931191918552
1786719010.47342,-0.0249023400247097,0.0703125,0.9892577528953552,0.9920659634613638,-0.209808349609375,-0.03814697265625,0.4711151123046875,0.5171307224778903
1786719010.481432,-0.0249023400247097,0.07080078125,0.9843749403953552,0.9872319385244157,-0.148773193359375,-0.22125244140625,0.3490447998046875,0.4392247467541719
1786719010.489444,-0.0068359337747097015,0.08203125,0.9907225966453552,0.9941363686491155,-0.392913818359375,-0.09918212890625,0.1659393310546875,0.4378975050659653
1786719010.497456,-0.0322265587747097,0.08544921875,0.9814452528953552,0.9856849925337572,-0.331878662109375,0.08392333984375,-0.0171661376953125,0.34275537868487593
1786719010.508198,-0.0200195275247097,0.0810546875,0.9833983778953552,0.9869361749856225,-0.2117156982421875,0.6961822509765625,-0.3223419189453125,0.7958627872732315
1786719010.51894,-0.0288085900247097,0.06494140625,0.9975585341453552,1.0000851714484968,-0.5779266357421875,0.1468658447265625,-0.2613067626953125,0.6510376309230014
1786719010.529682,-0.0258789025247097,0.0830078125,0.9882811903953552,0.9920986472227341,-0.0896453857421875,-0.0362396240234375,-0.2613067626953125,0.2786230962510647
1786719010.540325,-0.0175781212747097,0.08544921875,0.9941405653953552,0.9979609326507377,-0.331878662109375,0.209808349609375,-0.8106231689453125,0.9007068956992941
1786719010.550968,-0.0229492150247097,0.08056640625,0.9975585341453552,1.0010697484853492,0.156402587890625,0.38909912109375,-0.7495880126953125,0.8589191372366326
1786719010.561611,-0.029296867549419403,0.08154296875,0.9755858778953552,0.9794260397547242,-0.026702880859375,0.57220458984375,-0.4444122314453125,0.7250057709719601
1786719010.572233,-0.0209960900247097,0.07568359375,0.9877929091453552,0.9909105275034092,-0.026702880859375,0.75531005859375,-0.8754730224609375,1.156572237915113
1786719010.582856,-0.0205078087747097,0.08740234375,0.9804686903953552,0.9845702579091632,0.3986358642578125,0.7572174072265625,-0.8754730224609375,1.2242310922110988
1786719010.593479,-0.0327148400247097,0.064453125,0.9692382216453552,0.9719296252190066,0.2155303955078125,0.8182525634765625,-0.7495880126953125,1.130430359553488
1786719010.601444,-0.0341796800494194,0.0576171875,0.9877929091453552,0.9900620294615559,0.461578369140625,0.93841552734375,-1.0585784912109375,1.4880412342649623
1786719010.609409,-0.0312499962747097,0.0751953125,0.9975585341453552,1.0008765789723386,0.156402587890625,0.87738037109375,-0.5702972412109375,1.0580628660019675
1786719010.617374,-0.0341796837747097,0.06982421875,0.9902343153953552,0.99328126514774,0.0362396240234375,1.1234283447265625,-1.1157989501953125,1.5837966578261824
1786719010.625339,-0.033203125,0.0776367112994194,0.9843749403953552,0.9879898429283138,-0.270843505859375,0.87738037109375,-0.5054473876953125,1.04815532340146
1786719010.636002,-0.009277340024709702,0.0693359375,0.9863280653953552,0.9888056400797288,-0.148773193359375,0.57220458984375,-0.9326934814453125,1.1042955609940563
1786719010.646665,-0.0288085900247097,0.0590820275247097,0.9877929091453552,0.989977500852159,-0.331878662109375,0.45013427734375,-0.7495880126953125,0.9352253753934379
1786719010.657328,-0.0332031212747097,0.0703125,0.9897460341453552,0.992795803287409,-0.209808349609375,0.57220458984375,-0.9937286376953125,1.1657333492612474
1786719010.668031,-0.0307617150247097,0.0703125,0.9873046278953552,0.9902830701527202,-0.514984130859375,0.26702880859375,-0.4444122314453125,0.7307634850717334
1786719010.678735,-0.0444335900247097,0.0751953125,0.9921874403953552,0.9960243951945872,0.034332275390625,0.38909912109375,-0.6923675537109375,0.7949526153181046
1786719010.689439,-0.0268554650247097,0.0541992150247097,0.9916991591453552,0.9935421446323214,0.156402587890625,0.209808349609375,-0.2040863037109375,0.33186221904140795
1786719010.697428,-0.0375976525247097,0.06884765625,0.9843749403953552,0.9874956235471862,0.7038116455078125,0.4520416259765625,-0.6275177001953125,1.0456916027330254
1786719010.705416,-0.0244140587747097,0.083984375,0.9936522841453552,0.9974940016347353,0.8296966552734375,0.5130767822265625,-0.5054473876953125,1.0986907599319784
1786719010.713404,-0.0390624925494194,0.07666015625,0.9887694716453552,0.9925057813122716,0.919342041015625,-0.030517578125,-0.6465911865234375,1.1243670545881257
1786719010.721392,-0.0468749962747097,0.08154296875,0.9833983778953552,0.9878860717084401,0.919342041015625,0.030517578125,-0.5855560302734375,1.0904113790414045
1786719010.73206,-0.0517578087747097,0.0771484375,0.9750975966453552,0.9795131827399766,0.431060791015625,-0.030517578125,-0.1583099365234375,0.4602246887420172
1786719010.742728,-0.0273437462747097,0.07861328125,0.9829100966453552,0.9864278922134191,0.3719329833984375,-0.5207061767578125,-0.1583099365234375,0.6591897319099073
1786719010.753396,-0.0322265587747097,0.08935546875,0.9799804091453552,0.9845732848268278,0.247955322265625,-0.335693359375,-0.2193450927734375,0.4714701932170376
1786719010.764073,-0.0385742112994194,0.0908203125,0.9711913466453552,0.9761910318881178,0.125885009765625,-0.335693359375,-0.2803802490234375,0.4551375080726804
1786719010.774751,-0.0400390587747097,0.08935546875,0.9829100966453552,0.9877751688063829,-0.057220458984375,-0.274658203125,-0.0362396240234375,0.2828862312301474
1786719010.785429,-0.0288085900247097,0.0654296875,0.9858397841453552,0.9884285805607403,0.0057220458984375,-0.3376007080078125,-0.0972747802734375,0.3513820751459665
1786719010.793429,-0.0322265587747097,0.0849609375,0.9912108778953552,0.9953672269315579,-0.1773834228515625,-0.3986358642578125,0.3299713134765625,0.5470434157290966
1786719010.80143,-0.0366210900247097,0.07470703125,0.9936522841453552,0.9971294331931377,-0.1773834228515625,-0.5207061767578125,0.2689361572265625,0.6123123858620408
1786719010.809431,-0.0273437462747097,0.07763671875,0.9887694716453552,0.9921896031588102,-0.057220458984375,-0.518798828125,0.3299713134765625,0.61750099004593
1786719010.817432,-0.0273437462747097,0.072265625,0.9853515028953552,0.9883762367009394,-0.240325927734375,-0.213623046875,0.3299713134765625,0.4607303174471964
1786719010.828132,-0.0219726525247097,0.08544921875,0.9755858778953552,0.9795673389781878,-0.1773834228515625,-0.5779266357421875,0.4520416259765625,0.7548547586246998
1786719010.838832,-0.029785148799419403,0.0820312425494194,0.9711913466453552,0.975104564465793,-0.179290771484375,-0.274658203125,0.2079010009765625,0.38833636900292096
1786719010.849532,-0.0234375,0.08642578125,0.9931640028953552,0.9971927941567007,0.4940032958984375,-0.3986358642578125,0.3299713134765625,0.7154235642949848
1786719010.860118,-0.029296867549419403,0.0727538987994194,0.9687499403953552,0.9719196897144994,0.0667572021484375,-0.2155303955078125,0.0247955322265625,0.22699051487857358
1786719010.870703,-0.0214843712747097,0.07373046875,0.9897460341453552,0.9927209942061379,-0.11444091796875,-0.274658203125,0.3299713134765625,0.44431398803867495
1786719010.881288,-0.0229492150247097,0.07421875,0.9838866591453552,0.9869488575230336,-0.1773834228515625,-0.0324249267578125,-0.0362396240234375,0.18392815153517375
1786719010.891979,-0.0253906212747097,0.07470703125,0.9716796278953552,0.9748780043850411,-0.1773834228515625,0.2727508544921875,-0.0972747802734375,0.33958841294425846
1786719010.90267,-0.0200195275247097,0.07275390625,0.9863280653953552,0.9892102733713851,-0.484466552734375,0.030517578125,-0.1583099365234375,0.5105890708730448
1786719010.913361,-0.013671875,0.0776367112994194,0.9936522841453552,0.996774418258558,-0.60272216796875,0.030517578125,-0.2193450927734375,0.6421196181860148
1786719010.924027,-0.0400390587747097,0.068359375,0.9731444716453552,0.9763638118405827,-0.484466552734375,0.213623046875,-0.1583099365234375,0.5526343120695115
1786719010.934694,-0.0273437462747097,0.07080078125,0.9770507216453552,0.979994154958924,-0.4215240478515625,0.2727508544921875,-0.0972747802734375,0.5114077965974222
1786719010.945361,-0.0317382775247097,0.0712890625,0.9794921278953552,0.9825956835348583,-0.545501708984375,0.457763671875,-0.4634857177734375,0.849669761950674
1786719010.953368,-0.014648430049419403,0.0722656175494194,0.9853515028953552,0.9881065125991463,-0.057220458984375,0.213623046875,-0.4024505615234375,0.4592117611223292
1786719010.961375,-0.0258789025247097,0.0771484375,0.9882811903953552,0.9916255897735976,-0.6656646728515625,0.4558563232421875,-0.2193450927734375,0.8360781744826564
1786719010.969382,-0.029785148799419403,0.06689453125,0.9853515028953552,0.9880686300345214,-0.545501708984375,0.518798828125,-0.1583099365234375,0.7692765267254694
1786719010.977389,-0.0380859375,0.0776367112994194,0.9829100966453552,0.9867067728884934,-0.2994537353515625,0.3337860107421875,-0.3414154052734375,0.5636045772890892
1786719010.985377,-0.0439453087747097,0.07958984375,0.9824218153953552,0.9866196616509116,-0.41961669921875,0.335693359375,-0.1583099365234375,0.5602055353116092
1786719010.993365,-0.0253906212747097,0.07421875,0.9907225966453552,0.9938231080046356,-0.4825592041015625,0.4558563232421875,-0.2803802490234375,0.7206118628953204
1786719011.001353,-0.0307617150247097,0.07373046875,0.9907225966453552,0.993938493387328,-0.41961669921875,0.030517578125,-0.0972747802734375,0.43182389896241263
1786719011.017377,-0.033203125,0.0771484300494194,0.9843749403953552,0.9879515934736959,-0.4215240478515625,0.0896453857421875,-0.2803802490234375,0.5141321835330646
1786719011.025413,-0.0366210900247097,0.076171875,0.9931640028953552,0.9967537285722781,-0.2994537353515625,-0.2155303955078125,-0.2803802490234375,0.4633993688452786
1786719011.033449,-0.0312499962747097,0.06982421875,0.9853515028953552,0.988316532316116,0.0057220458984375,0.1506805419921875,0.1468658447265625,0.21049214686436635
1786719011.041485,-0.0268554650247097,0.0712890625,0.9921874403953552,0.9951076641811724,0.0667572021484375,0.0896453857421875,-0.0972747802734375,0.14817287910005153
1786719011.049451,-0.033203125,0.0825195237994194,0.9921874403953552,0.9961665705072296,-0.1163482666015625,-0.0896453857421875,-0.0362396240234375,0.15128292922671072
1786719011.057417,-0.029296867549419403,0.07666015625,0.9824218153953552,0.9858436536130808,0.3719329833984375,-0.1544952392578125,-0.2193450927734375,0.4586013441070349
1786719011.065383,-0.020019523799419403,0.06689453125,0.9697265028953552,0.9722371881706481,-0.057220458984375,0.152587890625,-0.1583099365234375,0.22719877044963144
1786719011.073349,-0.0278320275247097,0.0859375,0.9848632216453552,0.9889971895875409,-0.179290771484375,0.213623046875,-0.4024505615234375,0.48963909297170194
1786719011.084015,-0.0224609337747097,0.08447265625,0.9990233778953552,1.0028398839203636,0.0057220458984375,0.5779266357421875,0.0247955322265625,0.5784866087714956
1786719011.094681,-0.0371093712747097,0.08203125,0.9995116591453552,1.0035585624070313,-0.3604888916015625,0.2727508544921875,-0.0362396240234375,0.45349595361337197
1786719011.105347,-0.0307617150247097,0.09228515625,0.9985350966453552,1.0032622650174268,0.0667572021484375,0.4558563232421875,-0.0362396240234375,0.4621415603772649
1786719011.113376,-0.0415039025247097,0.0908203125,0.9755858778953552,0.9806827765573479,-0.41961669921875,-0.274658203125,-0.3414154052734375,0.6066957901330108
1786719011.121405,-0.0356445275247097,0.08642578125,0.9926757216453552,0.9970682205101411,-0.3604888916015625,-0.2155303955078125,-0.3414154052734375,0.5412670979413978
1786719011.129434,-0.0498046837747097,0.0888671875,0.9755858778953552,0.980890253131771,0.0667572021484375,-0.2155303955078125,-0.2193450927734375,0.3146778434371085
1786719011.137463,-0.0312499962747097,0.09423828125,0.9868163466453552,0.9917983252287782,-0.1163482666015625,-0.1544952392578125,0.1468658447265625,0.24284825394011741
1786719011.146526,-0.0346679650247097,0.06640625,0.9873046278953552,0.99014245747852,-0.11444091796875,-0.274658203125,0.0247955322265625,0.2985777464376447
1786719011.155589,-0.0239257775247097,0.080078125,0.9877929091453552,0.9913222383723274,0.003814697265625,-0.274658203125,0.0247955322265625,0.27580155706137816
1786719011.164652,-0.0375976525247097,0.0712890625,0.9965819716453552,0.9998356565536365,-0.2994537353515625,-0.0896453857421875,0.5130767822265625,0.6007966538362483
1786719011.173715,-0.029785148799419403,0.0820312425494194,1.001953125,1.0057466602184024,-0.1773834228515625,-0.3376007080078125,0.2689361572265625,0.4666538046707675
1786719011.182997,-0.0312499962747097,0.07763671875,0.9863280653953552,0.9898722518345385,-0.2994537353515625,-0.3376007080078125,0.3910064697265625,0.5971037070990342
1786719011.192279,-0.0346679650247097,0.07568359375,0.9790038466453552,0.9825367198778231,0.125885009765625,-0.335693359375,0.3299713134765625,0.48725571821130254
1786719011.201561,-0.0229492150247097,0.08447265625,0.9990233778953552,1.0028509389264322,0.3108978271484375,-0.7038116455078125,0.4520416259765625,0.8923844030985576
1786719011.212255,-0.0278320275247097,0.08056640625,0.9956054091453552,0.9992475660674217,0.431060791015625,-0.518798828125,0.3299713134765625,0.7508972615027555
1786719011.222947,-0.0170898400247097,0.07763671875,0.9838866591453552,0.9870929443444245,0.614166259765625,-0.518798828125,0.2689361572265625,0.8477494177893375
1786719011.233639,-0.0351562462747097,0.07568359375,0.9780272841453552,0.9815810392157045,0.1888275146484375,-0.2727508544921875,0.2689361572265625,0.42705446441679384
1786719011.244234,-0.0346679650247097,0.06787109375,0.9838866591453552,0.9868339836112172,0.4329681396484375,0.0896453857421875,0.3299713134765625,0.5517053315429735
1786719011.254827,-0.0185546875,0.05712890625,0.9838866591453552,0.9857184924722435,0.3719329833984375,-0.2155303955078125,0.0858306884765625,0.43835419766642725
1786719011.26542,-0.0166015587747097,0.09326171875,0.9887694716453552,0.9932967471988364,0.431060791015625,-0.030517578125,0.3910064697265625,0.5827785063758452
1786719011.273472,-0.0209960900247097,0.07666015625,0.9814452528953552,0.9846585193778744,0.2498626708984375,0.0896453857421875,0.3299713134765625,0.42349582903591193
1786719011.281525,-0.0322265587747097,0.06591796875,0.9790038466453552,0.9817495920248646,0.125885009765625,0.152587890625,-0.0362396240234375,0.2011054708316971
1786719011.289578,-0.0258789025247097,0.07373046875,0.9799804091453552,0.9830907902766031,0.3108978271484375,-0.0324249267578125,-0.2803802490234375,0.4199070359535716
1786719011.297631,-0.0336913987994194,0.07177734375,0.9799804091453552,0.9831829431685463,0.1888275146484375,0.0896453857421875,-0.1583099365234375,0.2622101475443433
1786719011.308222,-0.0278320275247097,0.06494140625,0.9916991591453552,0.994212869687105,0.06866455078125,-0.091552734375,-0.1583099365234375,0.19534267252084214
1786719011.318813,-0.0214843712747097,0.08447265625,0.9819335341453552,0.9857944376705459,0.3719329833984375,-0.0324249267578125,-0.2193450927734375,0.43301014969478463
1786719011.329404,-0.0429687462747097,0.07470703125,0.9829100966453552,0.9866811601332978,-0.057220458984375,0.030517578125,-0.2803802490234375,0.2877821876757539
1786719011.337414,-0.0292968712747097,0.087890625,0.9882811903953552,0.9926141143055733,0.0057220458984375,0.4558563232421875,0.0247955322265625,0.45656603867080175
1786719011.345424,-0.0219726525247097,0.076171875,0.9819335341453552,0.9851286299154922,0.125885009765625,0.701904296875,-0.1583099365234375,0.7304647244441955
1786719011.353434,-0.0268554650247097,0.07080078125,0.9833983778953552,0.9863094525931096,-0.179290771484375,0.823974609375,-0.2193450927734375,0.8713160203725937
1786719011.361444,-0.0312499962747097,0.06494140625,0.9882811903953552,0.9909054747059163,-0.1163482666015625,0.6389617919921875,-0.4024505615234375,0.7640520566280716
1786719011.372075,-0.0341796837747097,0.0791015625,0.9868163466453552,0.9905714562712609,0.247955322265625,0.640869140625,-0.4024505615234375,0.7963426095066156
1786719011.382706,-0.0180664025247097,0.07421875,0.9648436903953552,0.9678626786106981,0.37384033203125,0.213623046875,-0.8296966552734375,0.9347662487388615
1786719011.393337,-0.0268554650247097,0.0620117150247097,0.9902343153953552,0.9925374895632442,-0.2994537353515625,0.0286102294921875,-0.4024505615234375,0.5024515293221122
1786719011.401345,-0.029296867549419403,0.0771484300494194,0.9814452528953552,0.9849086105513172,-0.1163482666015625,-0.2155303955078125,-0.0972747802734375,0.26353871329690426
1786719011.409353,-0.0380859337747097,0.06396484375,0.9833983778953552,0.9862121522444698,-0.179290771484375,-0.091552734375,-0.3414154052734375,0.3963477801994446
1786719011.417361,-0.0263671837747097,0.06884765625,0.9799804091453552,0.9827496275552717,-0.3604888916015625,0.0896453857421875,-0.0362396240234375,0.37323162580674857
1786719011.425369,-0.029296867549419403,0.0820312425494194,0.9804686903953552,0.9843303734255043,-0.545501708984375,-0.152587890625,-0.1583099365234375,0.5881472731147493
1786719011.436047,-0.0312499962747097,0.06591796875,0.9814452528953552,0.9841526940989,-0.057220458984375,0.030517578125,0.0858306884765625,0.10757513925326213
