timestamp,accel_x,accel_y,accel_z,accel_rms,gyro_x,gyro_y,gyro_z,gyro_rms
1780936348.963677,-0.029296867549419403,-0.20751953125,0.9687499403953552,0.9911604861547055,0.553131103515625,-0.26702880859375,0.3833770751953125,0.724041700512286
1780936348.971633,-0.0166015587747097,-0.19140625,0.9838866591453552,1.002469412170277,0.553131103515625,-0.26702880859375,0.4405975341796875,0.7558998540948606
1780936348.979589,-0.0170898400247097,-0.20068359375,0.9770507216453552,0.9975941459833225,0.6122589111328125,0.0972747802734375,0.1392364501953125,0.635381890048634
1780936348.987545,-0.0126953125,-0.19873046875,0.9711913466453552,0.9913967934020596,0.675201416015625,0.77056884765625,0.1392364501953125,1.033953620928317
1780936348.997141,-0.029296867549419403,-0.1982421875,0.9643554091453552,0.9849566622450445,0.736236572265625,0.70953369140625,-0.2880096435546875,1.0622767550702192
1780936349.006737,-0.0283203125,-0.1943359375,0.9599608778953552,0.9798435506721074,0.797271728515625,0.64849853515625,-0.3490447998046875,1.0853685233416293
1780936349.016333,-0.0283203125,-0.20947265625,0.9814452528953552,1.0039500078426993,0.7953643798828125,1.1997222900390625,-0.4711151123046875,1.5145585228193732
1780936349.025929,-0.0327148400247097,-0.21435546875,0.9697265028953552,0.993673999940891,0.736236572265625,0.64849853515625,-0.7190704345703125,1.2164114971153377
1780936349.035525,-0.029785148799419403,-0.20849609375,0.9648436903953552,0.9875632248589152,1.102447509765625,-0.14495849609375,-0.4711151123046875,1.2076228411304781
1780936349.046137,-0.0307617150247097,-0.2001953125,0.9506835341453552,0.9720203847416663,0.553131103515625,-0.32806396484375,-0.3490447998046875,0.7317186993483962
1780936349.056749,-0.0356445275247097,-0.19970703125,0.9677733778953552,0.9888067261280813,0.675201416015625,0.03814697265625,-0.2307891845703125,0.7145738530249841
1780936349.067361,-0.0346679650247097,-0.19482421875,0.9663085341453552,0.986362269743043,0.1850128173828125,0.0972747802734375,0.0743865966796875,0.2218681843770259
1780936349.075477,-0.0297851525247097,-0.20166015625,0.9819335341453552,1.002869602395487,0.6122589111328125,-1.0623931884765625,0.9288787841796875,1.5382964788629234
1780936349.083593,-0.0180664025247097,-0.19189453125,0.9658202528953552,0.9848647962673303,0.553131103515625,-0.69427490234375,1.4820098876953125,1.7275198884318264
1780936349.091709,-0.0346679612994194,-0.189453125,0.9790038466453552,0.9977689541468635,0.370025634765625,-0.26702880859375,1.7223358154296875,1.7817586862744763
1780936349.099825,-0.0351562462747097,-0.2001953125,0.9677733778953552,0.9888879793799127,-0.0553131103515625,0.5855560302734375,1.6651153564453125,1.7659401334802804
1780936349.110403,-0.020507805049419403,-0.1982421875,0.9638671278953552,0.9842562548493005,-0.057220458984375,2.11334228515625,1.4820098876953125,2.581829410008046
1780936349.120981,-0.01318359375,-0.19921875,0.9707030653953552,0.9910228850352886,0.492095947265625,2.47955322265625,1.3599395751953125,2.8705013940917454
1780936349.131559,-0.0297851525247097,-0.205078125,0.9560546278953552,0.978255919575528,0.2498626708984375,2.3555755615234375,0.4405975341796875,2.4094177237416057
1780936349.142175,-0.02880859375,-0.2001953125,0.9692382216453552,0.9901165731968514,0.064849853515625,2.11334228515625,0.6275177001953125,2.205493047322719
1780936349.152793,-0.0361328087747097,-0.2026367038488388,0.9643554091453552,0.986077364492552,-0.057220458984375,1.62506103515625,-0.0476837158203125,1.6267671270541206
1780936349.163411,-0.030273430049419403,-0.203125,0.9736327528953552,0.9950562716261553,-0.3032684326171875,1.3790130615234375,-0.5931854248046875,1.53150831348545
1780936349.171517,-0.0400390550494194,-0.20263671875,0.9589843153953552,0.9809769023220246,-0.3643035888671875,0.1583099365234375,-0.5931854248046875,0.7138964133992306
1780936349.179623,-0.0380859375,-0.193359375,0.9672850966453552,0.9871569504024468,-0.789642333984375,-0.51116943359375,-0.2880096435546875,0.9837574702340738
1780936349.187729,-0.0415039025247097,-0.1923827975988388,0.9750975966453552,0.9947607942215476,-0.6694793701171875,-1.1844635009765625,-0.0476837158203125,1.3614074147413013
1780936349.195835,-0.0395507775247097,-0.19091796875,0.9726561903953552,0.9920050400622169,-0.789642333984375,-1.30462646484375,0.3223419189453125,1.5586819884441914
1780936349.204357,-0.0336913987994194,-0.19482421875,0.9667968153953552,0.9868068042039485,-0.8525848388671875,-1.1844635009765625,0.5664825439453125,1.5654894331187919
1780936349.212879,-0.0322265587747097,-0.1943359375,0.9609374403953552,0.980920879606526,-0.728607177734375,-1.30462646484375,0.9288787841796875,1.7594699281078623
1780936349.221401,-0.029785148799419403,-0.20751953125,0.9672850966453552,0.9897433854951684,-0.911712646484375,-1.18255615234375,1.4820098876953125,2.103809000463747
1780936349.237369,-0.0434570237994194,-0.1923828125,0.9755858778953552,0.9953227941787349,-0.911712646484375,-0.63323974609375,1.4820098876953125,1.8516386885726634
1780936349.244815,-0.0175781212747097,-0.189453125,0.9707030653953552,0.989174361822906,-0.606536865234375,-0.45013427734375,1.4820098876953125,1.6633884524532432
1780936349.252261,-0.0312499962747097,-0.2080078125,0.9711913466453552,0.9937084301378464,-0.545501708984375,-0.32806396484375,1.7223358154296875,1.836202260276825
1780936349.259707,-0.0078125,-0.203125,0.9760741591453552,0.9970163313269057,-0.1201629638671875,-0.0858306884765625,1.1768341064453125,1.1860626286426215
1780936349.269251,-0.024414055049419403,-0.1982421875,0.9736327528953552,0.9939098291592297,0.1239776611328125,0.0400543212890625,1.0547637939453125,1.0627800666797433
1780936349.278795,-0.02880859375,-0.19873046875,0.9736327528953552,0.994124977955003,0.431060791015625,-0.20599365234375,0.4405975341796875,0.6499022830258061
1780936349.288339,-0.0263671837747097,-0.19384765625,0.9799804091453552,0.9993166387699773,0.4901885986328125,-0.2079010009765625,0.2574920654296875,0.5914472522515458
1780936349.297883,-0.0366210900247097,-0.21044921875,0.9594725966453552,0.9829637031042722,0.919342041015625,-0.51116943359375,-0.0476837158203125,1.0529756478541006
1780936349.307427,-0.0341796837747097,-0.19091796875,0.9648436903953552,0.9841449428159925,1.041412353515625,-0.81634521484375,-0.2307891845703125,1.3432136269290418
1780936349.317018,-0.0297851525247097,-0.18701171875,0.9604491591453552,0.9789397967003738,0.553131103515625,-1.18255615234375,-0.0476837158203125,1.3063945835301445
1780936349.326613,-0.0219726525247097,-0.1953125,0.9755858778953552,0.9951872061396653,0.5512237548828125,-0.7572174072265625,0.2574920654296875,0.9713536912542574
1780936349.336208,-0.0307617150247097,-0.1953125,0.9721679091453552,0.9920704104747622,0.247955322265625,-0.57220458984375,-0.1049041748046875,0.6323802814521944
1780936349.345803,-0.03271484375,-0.1943359375,0.9594725966453552,0.9795021088894966,-0.057220458984375,-0.14495849609375,0.3833770751953125,0.4138419122097913
1780936349.355398,-0.024902336299419403,-0.20751953125,0.9667968153953552,0.9891312170091436,-0.240325927734375,-0.02288818359375,0.0171661376953125,0.24202292613094253
1780936349.364997,-0.0317382775247097,-0.19482421875,0.9707030653953552,0.990569652089,-0.606536865234375,0.03814697265625,-0.2307891845703125,0.6500813857708962
1780936349.374597,-0.0268554650247097,-0.2021484225988388,0.9638671278953552,0.9852030455688477,-0.3643035888671875,0.2231597900390625,0.0743865966796875,0.43364820133073045
1780936349.384197,-0.0205078087747097,-0.20458984375,0.9667968153953552,0.9884197775464583,-0.6694793701171875,0.2803802490234375,-0.2880096435546875,0.7808746799810128
1780936349.393797,-0.04736328125,-0.2041015625,0.9682616591453552,0.9906721802880225,-0.423431396484375,-0.08392333984375,-0.1659393310546875,0.46246419979292963
1780936349.403397,-0.0327148400247097,-0.20166015625,0.9794921278953552,1.0005707910915587,-0.5435943603515625,-0.0858306884765625,-0.4711151123046875,0.7244385306789275
1780936349.4114,-0.0415039025247097,-0.20458984375,0.9775390028953552,0.9995809523355651,-0.118255615234375,-0.51116943359375,-0.2307891845703125,0.5731860327063505
1780936349.419403,-0.0341796800494194,-0.20703125,0.9829100966453552,1.0050584296906446,-0.1811981201171875,-0.7572174072265625,0.0171661376953125,0.7787847178933951
1780936349.427406,-0.0244140587747097,-0.2099609375,0.9721679091453552,0.9948819453150135,0.3070831298828125,-0.6961822509765625,0.2002716064453125,0.7868154113777919
1780936349.435409,-0.0307617150247097,-0.201171875,0.9838866591453552,1.0047135733364436,-0.057220458984375,-0.93841552734375,0.2574920654296875,0.9747820508428935
1780936349.443412,-0.0361328087747097,-0.1982421875,0.9824218153953552,1.0028749513969528,0.492095947265625,-0.63323974609375,0.7457733154296875,1.0951387288170928
1780936349.451415,-0.0166015587747097,-0.1972656100988388,0.9614257216453552,0.981595003513521,-0.179290771484375,-0.32806396484375,0.8716583251953125,0.9484510433600465
1780936349.461004,-0.0263671875,-0.19287109375,0.9741210341453552,0.9933812342426234,-0.1201629638671875,-0.5741119384765625,0.9288787841796875,1.0985715504625986
1780936349.470593,-0.0249023400247097,-0.1943359375,0.9653319716453552,0.9850139078324829,-0.484466552734375,-0.02288818359375,0.9288787841796875,1.047877619460252
1780936349.480182,-0.0180664025247097,-0.1953125,0.9838866591453552,1.0032478884107572,-0.911712646484375,0.34332275390625,0.5664825439453125,1.1269396326796157
1780936349.489771,-0.025878898799419403,-0.20263671875,0.9624022841453552,0.9838442527743069,-0.972747802734375,0.83160400390625,0.4405975341796875,1.3534879734089555
1780936349.49936,-0.01806640625,-0.193359375,0.9804686903953552,0.9995164309708788,-0.6694793701171875,0.7114410400390625,-0.0476837158203125,0.9780719386726119
1780936349.508967,-0.029296867549419403,-0.20703125,0.9755858778953552,0.9977414745682479,-0.6694793701171875,0.4024505615234375,-0.6542205810546875,1.018908067569675
1780936349.518574,-0.0327148400247097,-0.18994140625,0.9628905653953552,0.9819909569305905,-0.301361083984375,0.34332275390625,-1.0204315185546875,1.1180203488084797
1780936349.528181,-0.02783203125,-0.18798828125,0.9799804091453552,0.9982363538559031,-0.423431396484375,-0.20599365234375,-1.0814666748046875,1.1795328316955545
1780936349.537788,-0.0302734337747097,-0.19970703125,0.9863280653953552,1.0067981087138296,-0.240325927734375,-0.26702880859375,-1.0204315185546875,1.0818231926799367
1780936349.547395,-0.0410156212747097,-0.2197265625,0.9692382216453552,0.9946782262394546,-0.240325927734375,-0.69427490234375,-1.1425018310546875,1.3583389214511692
1780936349.557029,-0.0390624962747097,-0.1865234375,0.9672850966453552,0.9858789629281286,-0.545501708984375,-1.12152099609375,-0.4711151123046875,1.3331657467193827
1780936349.566662,-0.0390624962747097,-0.1953125,0.9648436903953552,0.9851884074466111,-0.423431396484375,-0.38909912109375,-0.0476837158203125,0.5770320704424227
1780936349.576295,-0.0380859375,-0.20947265625,0.9707030653953552,0.9937775271757879,-0.606536865234375,-0.38909912109375,0.1392364501953125,0.7339426980270755
1780936349.585928,-0.0361328087747097,-0.19677734375,0.9726561903953552,0.9930191174381593,-0.8525848388671875,-0.5130767822265625,0.6275177001953125,1.1764043335454717
1780936349.595561,-0.0292968712747097,-0.19091796875,0.9780272841453552,0.9969179233973338,-0.972747802734375,0.03814697265625,0.8106231689453125,1.2668083522294649
1780936349.60513,-0.013183590024709702,-0.20068359375,0.9672850966453552,0.9879717455669311,-1.033782958984375,-0.14495849609375,0.5054473876953125,1.1598263808020006
1780936349.614703,-0.0234374962747097,-0.201171875,0.9624022841453552,0.9834823821761322,-0.9746551513671875,0.4024505615234375,0.3833770751953125,1.122005837927075
1780936349.624276,-0.014648430049419403,-0.2021484375,0.9765624403953552,0.9973729328979887,-0.972747802734375,0.22125244140625,0.1392364501953125,1.00726248794233
1780936349.633849,-0.020507805049419403,-0.21337890625,0.9765624403953552,0.999812646294956,-0.728607177734375,0.28228759765625,-0.2880096435546875,0.832769032815874
1780936349.643422,-0.0273437462747097,-0.1953125,0.9653319716453552,0.9852717739777663,-0.179290771484375,0.03814697265625,-0.3490447998046875,0.394249469921005
1780936349.65303,-0.0297851525247097,-0.19677734375,0.9770507216453552,0.9971141313771134,0.1850128173828125,-0.3910064697265625,-0.5359649658203125,0.6887483187280561
1780936349.662637,-0.029785148799419403,-0.19921875,0.9824218153953552,1.0028598550172758,0.431060791015625,-0.63323974609375,-0.5359649658203125,0.9349141276987218
1780936349.672244,-0.0336914025247097,-0.19091796875,0.9902343153953552,1.0090335875391938,0.247955322265625,-0.14495849609375,-0.6542205810546875,0.7144923905159135
1780936349.681851,-0.0312499962747097,-0.19921875,0.9570311903953552,0.9780456901435037,0.6122589111328125,-0.0247955322265625,-0.2307891845703125,0.6547819792836127
1780936349.691458,-0.0327148400247097,-0.20166015625,0.9541015028953552,0.9757288338487248,0.247955322265625,0.34332275390625,0.0743865966796875,0.42998339613897646
1780936349.701039,-0.0351562462747097,-0.2060546875,0.9663085341453552,0.9886590307355695,-0.301361083984375,-0.26702880859375,0.2574920654296875,0.47793833422156207
1780936349.71062,-0.0346679650247097,-0.19482421875,0.9750975966453552,0.9949742041852393,-0.606536865234375,-0.93841552734375,0.5664825439453125,1.2527622054655638
1780936349.720201,-0.037109375,-0.20361328125,0.9824218153953552,1.003986104176242,-0.4863739013671875,-1.3675689697265625,0.9288787841796875,1.7232586151211444
1780936349.729782,-0.01904296875,-0.189453125,0.9760741591453552,0.9944726669860723,-0.057220458984375,-1.12152099609375,1.1157989501953125,1.5830637456724417
1780936349.739363,-0.0185546875,-0.20458984375,0.9692382216453552,0.9907694034900971,0.1239776611328125,-0.6313323974609375,1.6040802001953125,1.7283009995953746
1780936349.748988,-0.0283203087747097,-0.2001953125,0.9672850966453552,0.9881905996457777,-0.3643035888671875,0.4024505615234375,1.6040802001953125,1.6934452598152314
1780936349.758614,-0.0297851525247097,-0.21142578125,0.9702147841453552,0.993430794601371,-0.606536865234375,0.16021728515625,1.4171600341796875,1.5498061523388513
1780936349.76824,-0.0205078087747097,-0.19921875,0.9697265028953552,0.9901909770291577,-0.5435943603515625,-0.0858306884765625,1.8482208251953125,1.9284143627281007
1780936349.777866,-0.015136711299419403,-0.20751953125,0.9628905653953552,0.9851150779510831,-0.972747802734375,0.46539306640625,1.5430450439453125,1.8825028556758574
1780936349.787492,-0.0209960900247097,-0.208984375,0.9682616591453552,0.9907804728401657,-1.3408660888671875,0.2231597900390625,1.2340545654296875,1.8359228825367697
1780936349.797067,-0.0258789025247097,-0.205078125,0.9677733778953552,0.9896019734784208,-1.522064208984375,0.46539306640625,1.2989044189453125,2.0543667764267175
1780936349.806639,-0.0346679612994194,-0.20263671875,0.9755858778953552,0.9970111897442654,-1.8291473388671875,0.2803802490234375,1.4171600341796875,2.3308229520500974
1780936349.816211,-0.0219726525247097,-0.19189453125,0.9633788466453552,0.9825503095243335,-1.766204833984375,-0.02288818359375,1.2340545654296875,2.1547375837896943
1780936349.825783,-0.0263671837747097,-0.19921875,0.9804686903953552,1.0008507339145807,-1.6460418701171875,-0.5741119384765625,1.2989044189453125,2.1739850610424774
1780936349.835355,-0.0166015587747097,-0.2109375,0.9692382216453552,0.9920650033935533,-1.3408660888671875,-0.2079010009765625,1.3599395751953125,1.9210883224525237
1780936349.843509,-0.02734375,-0.19384765625,0.9707030653953552,0.9902469569080331,-1.0318756103515625,-0.5741119384765625,1.4171600341796875,1.844644777624109
1780936349.851664,-0.024414055049419403,-0.212890625,0.9716796278953552,0.9950275189981946,-0.911712646484375,-0.51116943359375,1.4171600341796875,1.7609249564011158
1780936349.859819,-0.0341796800494194,-0.20703125,0.9667968153953552,0.9893059543252753,-0.7266998291015625,-0.7572174072265625,1.0547637939453125,1.487950773527494
1780936349.867974,-0.0170898400247097,-0.21044921875,0.9721679091453552,0.9948323375708126,-0.728607177734375,-1.12152099609375,1.6651153564453125,2.1357169555901288
1780936349.876129,-0.0351562425494194,-0.212890625,0.9707030653953552,0.9943957063317518,-0.7266998291015625,-0.7572174072265625,1.3599395751953125,1.7178202733713341
1780936349.884284,-0.0317382775247097,-0.220703125,0.9711913466453552,0.9964586391034098,-0.423431396484375,-0.51116943359375,1.4171600341796875,1.5649060354684035
1780936349.893712,-0.0385742112994194,-0.20458984375,0.9750975966453552,0.9970758732045267,-0.484466552734375,-0.51116943359375,1.2989044189453125,1.4775502428393235
1780936349.90314,-0.0273437462747097,-0.20458984375,0.9628905653953552,0.9847654165096233,-0.423431396484375,-0.32806396484375,1.7871856689453125,1.8657311510078867
1780936349.912568,-0.029296867549419403,-0.20751953125,0.9809569716453552,1.0030948322656508,-0.3643035888671875,-0.4482269287109375,1.7223358154296875,1.8166081431048908
1780936349.921996,-0.03662109375,-0.212890625,0.9770507216453552,1.0006456092883467,0.186920166015625,-0.93841552734375,1.2989044189453125,1.613293383107616
1780936349.931424,-0.024902336299419403,-0.212890625,0.9746093153953552,0.9979007276385076,0.064849853515625,-0.99945068359375,1.2989044189453125,1.6402011650991692
1780936349.942093,-0.025390617549419403,-0.20703125,0.9594725966453552,0.9818830305334153,0.1239776611328125,-1.0013580322265625,1.2340545654296875,1.5940448675060783
1780936349.952762,-0.013671875,-0.19921875,0.9716796278953552,0.9919860532207265,0.064849853515625,-0.63323974609375,1.5430450439453125,1.669187253479389
1780936349.963431,-0.01904296875,-0.193359375,0.9750975966453552,0.994266466065688,-0.118255615234375,-0.32806396484375,0.8716583251953125,0.9388283077569396
1780936349.971416,-0.009765617549419403,-0.20751953125,0.9648436903953552,0.9869564681545328,-0.057220458984375,-0.45013427734375,0.8716583251953125,0.9826918563051491
1780936349.979404,-0.0219726525247097,-0.2060546875,0.9819335341453552,1.0035610580223218,-0.606536865234375,-0.45013427734375,0.7457733154296875,1.0614545089334306
1780936349.987392,-0.0175781212747097,-0.19921875,0.9643554091453552,0.9848748427323222,-0.911712646484375,-0.38909912109375,0.5664825439453125,1.1417182438720266
1780936349.99538,-0.020019523799419403,-0.20361328125,0.9580077528953552,0.9796111495089034,-0.972747802734375,-0.14495849609375,0.3833770751953125,1.0555705732444556
1780936350.006102,-0.0219726525247097,-0.21533203125,0.9765624403953552,1.0002624061375867,-1.033782958984375,-0.45013427734375,0.3833770751953125,1.1909265534497004
1780936350.016824,-0.01806640625,-0.2119140625,0.9565429091453552,0.979902189994646,-0.972747802734375,-0.51116943359375,0.5054473876953125,1.209549312468543
1780936350.027546,-0.03173828125,-0.20263671875,0.9648436903953552,0.9864037232179321,-0.9746551513671875,-0.0858306884765625,0.5664825439453125,1.1305848237817935
1780936350.038462,-0.0224609375,-0.208984375,0.9707030653953552,0.9931985722278596,-0.6694793701171875,-0.3910064697265625,0.3833770751953125,0.8649084738663668
1780936350.049377,-0.0302734337747097,-0.21435546875,0.9770507216453552,1.0007461518503349,0.064849853515625,-0.08392333984375,0.2002716064453125,0.22662159389544878
1780936350.060292,-0.0263671837747097,-0.2275390475988388,0.9682616591453552,0.9949873803889736,0.064849853515625,-0.20599365234375,-0.0476837158203125,0.2211619882831317
1780936350.068119,-0.0302734337747097,-0.19970703125,0.9638671278953552,0.9848041527940676,0.3070831298828125,-0.0247955322265625,0.2002716064453125,0.3674555529927517
1780936350.075944,-0.029296867549419403,-0.2119140625,0.9589843153953552,0.982556254627571,0.308990478515625,-0.32806396484375,0.0171661376953125,0.4509941874633093
1780936350.083769,-0.03271484375,-0.22216796875,0.9624022841453552,0.9882545339477502,0.6122589111328125,0.0400543212890625,-0.1049041748046875,0.6224710505773879
1780936350.091594,-0.0263671837747097,-0.21044921875,0.9658202528953552,0.9888340927352488,0.675201416015625,-0.32806396484375,-0.0476837158203125,0.7521945585903548
1780936350.102239,-0.0263671837747097,-0.19140625,0.9609374403953552,0.9801695492479088,0.492095947265625,0.22125244140625,-0.2880096435546875,0.6116049533187063
1780936350.112884,-0.0195312462747097,-0.20556640625,0.9638671278953552,0.9857377223160451,0.247955322265625,0.22125244140625,-0.4138946533203125,0.530794940363242
1780936350.123529,-0.0166015625,-0.203125,0.9711913466453552,0.992344702863506,0.736236572265625,0.58746337890625,-0.7762908935546875,1.2205675169007737
1780936350.134166,-0.0390624925494194,-0.19970703125,0.9750975966453552,0.9961044622118755,0.4901885986328125,0.0972747802734375,-1.0204315185546875,1.1362340116220213
1780936350.144804,-0.0302734337747097,-0.19482421875,0.9658202528953552,0.9857391733653013,0.4329681396484375,-0.0858306884765625,-0.9593963623046875,1.0560633016246974
1780936350.155442,-0.0214843712747097,-0.20654296875,0.9702147841453552,0.9921886431134713,0.431060791015625,-0.02288818359375,-0.9021759033203125,1.000129309155101
1780936350.16344,-0.0224609337747097,-0.20556640625,0.9697265028953552,0.9915298943260498,0.064849853515625,0.22125244140625,-0.4711151123046875,0.5245070022135857
1780936350.171439,-0.01806640625,-0.197265625,0.9575194716453552,0.9777953059927373,0.064849853515625,0.16021728515625,-0.2880096435546875,0.33589378789185026
1780936350.179438,-0.02783203125,-0.2119140625,0.9614257216453552,0.9848967509795364,-0.1811981201171875,0.0972747802734375,-0.3490447998046875,0.40512641716128883
1780936350.187437,-0.029785148799419403,-0.2021484375,0.9609374403953552,0.9824214524460833,-0.057220458984375,0.16021728515625,-0.4138946533203125,0.44749585856895185
1780936350.198077,-0.0229492150247097,-0.2109375,0.9741210341453552,0.9969619273276772,0.1239776611328125,0.2231597900390625,-0.8373260498046875,0.8753774420395827
1780936350.208717,-0.0170898400247097,-0.1943359375,0.9638671278953552,0.983411592098301,-0.1811981201171875,-0.0247955322265625,-0.4711151123046875,0.5053682085314227
1780936350.219357,-0.0297851525247097,-0.189453125,0.9794921278953552,0.9980904119828808,0.064849853515625,0.22125244140625,-0.8373260498046875,0.8684889521523841
1780936350.227366,-0.0307617150247097,-0.2099609375,0.9726561903953552,0.9955350034536936,0.308990478515625,0.52642822265625,-1.0204315185546875,1.189067817023974
1780936350.235374,-0.0385742112994194,-0.1943359375,0.9819335341453552,1.001722462491764,0.431060791015625,0.83160400390625,-1.2645721435546875,1.5736967087461358
1780936350.243382,-0.0214843712747097,-0.2060546875,0.9682616591453552,0.9901771321438949,0.7953643798828125,0.2803802490234375,-1.3904571533203125,1.626219135310012
1780936350.25139,-0.0175781212747097,-0.2060546875,0.9711913466453552,0.9929653349372725,0.919342041015625,0.64849853515625,-1.3256072998046875,1.7386704264391373
1780936350.262102,-0.00927734375,-0.203125,0.9760741591453552,0.9970288856815372,1.346588134765625,0.03814697265625,-1.8138885498046875,2.2594128589806144
1780936350.272814,-0.020507805049419403,-0.20849609375,0.9731444716453552,0.9954402814186651,1.407623291015625,0.28228759765625,-1.6956329345703125,2.2217697148894
1780936350.283526,-0.0341796837747097,-0.19580078125,0.9726561903953552,0.9927568994650477,1.468658447265625,-0.14495849609375,-1.3904571533203125,2.027644371070545
1780936350.294189,-0.0214843712747097,-0.18994140625,0.9677733778953552,0.9864707937796654,1.3446807861328125,-0.0858306884765625,-1.1425018310546875,1.7665909989701727
1780936350.304853,-0.0336913987994194,-0.20361328125,0.9555663466453552,0.9775993665585122,0.797271728515625,-0.32806396484375,-0.8373260498046875,1.2018248989768916
1780936350.315517,-0.0385742112994194,-0.1953125,0.9814452528953552,1.0014338354901187,0.1239776611328125,-1.5506744384765625,-0.3490447998046875,1.5943004569011636
1780936350.323609,-0.0380859375,-0.20458984375,0.9755858778953552,0.9975346349624931,0.1239776611328125,-1.4247894287109375,0.5054473876953125,1.51686269594661
1780936350.3317,-0.0244140587747097,-0.18603515625,0.9672850966453552,0.9853149668096142,0.1239776611328125,-1.0013580322265625,1.2340545654296875,1.5940448675060783
1780936350.339791,-0.0263671837747097,-0.2119140475988388,0.9628905653953552,0.9862864862084034,-0.057220458984375,0.09918212890625,1.6040802001953125,1.6081618588560644
1780936350.355756,-0.0185546875,-0.19921875,0.9643554091453552,0.9848927565616932,-0.240325927734375,0.70953369140625,1.0547637939453125,1.2937238004303226
1780936350.363627,-0.010253902524709702,-0.2041015625,0.9697265028953552,0.9910257719906093,0.1239776611328125,0.8907318115234375,1.0547637939453125,1.3861097653280192
1780936350.371498,-0.019531242549419403,-0.212890625,0.9653319716453552,0.9887212464234415,0.064849853515625,1.07574462890625,0.6885528564453125,1.2788811697107134
1780936350.379369,-0.0278320275247097,-0.19140625,0.9584960341453552,0.9778167628792077,-0.4863739013671875,1.0738372802734375,0.2574920654296875,1.2066433773884637
1780936350.38737,-0.0219726525247097,-0.2070312350988388,0.9516600966453552,0.9741671670265679,-0.423431396484375,1.07574462890625,-0.0476837158203125,1.1570628292810143
1780936350.395371,-0.0307617150247097,-0.205078125,0.9619140028953552,0.9840131449482484,-0.789642333984375,0.95367431640625,-0.1659393310546875,1.2492259919582591
1780936350.403372,-0.025390617549419403,-0.203125,0.9648436903953552,0.9863203313225724,-0.972747802734375,0.70953369140625,0.0171661376953125,1.2041474258779565
1780936350.411373,-0.0214843712747097,-0.20458984375,0.9746093153953552,0.9960832796659735,-0.8525848388671875,0.2231597900390625,-0.2307891845703125,0.9110240650340123
1780936350.42105,-0.0234375,-0.197265625,0.9770507216453552,0.9970412006936323,-0.789642333984375,-0.20599365234375,0.3833770751953125,0.9016353931670613
1780936350.430727,-0.0312499962747097,-0.20361328125,0.9702147841453552,0.9918425570335139,-0.8525848388671875,-0.3910064697265625,0.5664825439453125,1.0957597544302173
1780936350.440404,-0.0283203125,-0.2041015625,0.9692382216453552,0.9908997013892424,-0.423431396484375,-0.02288818359375,0.7457733154296875,0.8579020075066367
1780936350.450081,-0.0327148400247097,-0.19970703125,0.9711913466453552,0.9920513045641084,-0.8525848388671875,-0.2079010009765625,0.9288787841796875,1.2778652234771783
1780936350.459758,-0.024902336299419403,-0.2021484375,0.9663085341453552,0.9875405309651882,-0.606536865234375,-0.20599365234375,1.4171600341796875,1.5552051042130852
1780936350.46929,-0.0283203125,-0.19482421875,0.9726561903953552,0.9923802602964505,-0.423431396484375,0.09918212890625,1.4171600341796875,1.4823878725553772
1780936350.478822,-0.02294921875,-0.21240234375,0.9736327528953552,0.9967959469130663,-0.118255615234375,0.28228759765625,1.1157989501953125,1.1570125217913412
1780936350.488354,-0.0224609375,-0.20361328125,0.9643554091453552,0.9858723128086496,-0.1811981201171875,0.2803802490234375,1.0547637939453125,1.106332908212694
1780936350.497886,-0.0073242150247097015,-0.205078125,0.9653319716453552,0.9869024759113499,-0.3643035888671875,0.5855560302734375,0.9937286376953125,1.2095823968737647
1780936350.507418,-0.017578125,-0.212890625,0.9555663466453552,0.9791519042173985,0.0019073486328125,0.7686614990234375,0.6885528564453125,1.0319637465428542
1780936350.517038,-0.0234374962747097,-0.2109375,0.9648436903953552,0.9879105688439643,0.247955322265625,0.83160400390625,-0.1049041748046875,0.8741006504082974
1780936350.526658,-0.03271484375,-0.20751953125,0.9780272841453552,1.0003359362656856,0.4901885986328125,0.8907318115234375,-0.2307891845703125,1.0425697434723755
1780936350.536278,-0.0297851525247097,-0.20947265625,0.9697265028953552,0.9925398931252115,0.980377197265625,0.52642822265625,-0.4711151123046875,1.2083937982169881
1780936350.545898,-0.037109375,-0.203125,0.9750975966453552,0.9967207203231196,0.797271728515625,0.16021728515625,-0.7190704345703125,1.0855293996139717
1780936350.555518,-0.0302734337747097,-0.18505859375,0.9609374403953552,0.9790627805543505,0.4901885986328125,-0.0858306884765625,-0.9021759033203125,1.0303267102457274
1780936350.563506,-0.0175781212747097,-0.1875,0.9750975966453552,0.9931165910058578,0.858306884765625,0.34332275390625,-0.5931854248046875,1.0983761514101447
1780936350.571494,-0.029296867549419403,-0.20849609375,0.9672850966453552,0.9899340310088501,0.553131103515625,0.09918212890625,-0.8373260498046875,1.0084175851562245
1780936350.579482,-0.0322265625,-0.19384765625,0.9731444716453552,0.9927867987932264,0.675201416015625,-0.02288818359375,-0.7190704345703125,0.9866524773246477
1780936350.58747,-0.0312499962747097,-0.19921875,0.9648436903953552,0.9856916452493953,0.431060791015625,-0.20599365234375,-0.5359649658203125,0.7179869322931323
1780936350.595458,-0.020507805049419403,-0.193359375,0.9682616591453552,0.9875925569480826,0.247955322265625,-0.14495849609375,-0.8373260498046875,0.8852173298750616
1780936350.603446,-0.0361328087747097,-0.201171875,0.9594725966453552,0.9810012063572328,0.3070831298828125,-0.3910064697265625,-0.4711151123046875,0.6849347100771809
1780936350.613037,-0.0253906212747097,-0.1943359375,0.9658202528953552,0.9855048965660026,-0.240325927734375,-0.20599365234375,-0.4138946533203125,0.5210553909081523
1780936350.622628,-0.0249023400247097,-0.1962890625,0.9599608778953552,0.9801399949422819,-0.484466552734375,-0.14495849609375,-0.5359649658203125,0.7368712580192414
1780936350.632219,-0.0297851525247097,-0.20166015625,0.9526366591453552,0.9742025345262239,-0.606536865234375,-0.26702880859375,-0.5931854248046875,0.8894157080398668
1780936350.64181,-0.0292968712747097,-0.20166015625,0.9682616591453552,0.9894724684680102,-0.606536865234375,-0.14495849609375,-0.4711151123046875,0.7815685405132184
1780936350.651401,-0.029296867549419403,-0.203125,0.9633788466453552,0.9849958752385428,-0.3643035888671875,-0.3299713134765625,-0.5359649658203125,0.7272252863904894
1780936350.661002,-0.0307617150247097,-0.21630859375,0.9726561903953552,0.9968930512125007,-0.3643035888671875,-0.0247955322265625,-0.8373260498046875,0.9134806166314824
1780936350.6706,-0.0249023400247097,-0.220703125,0.9624022841453552,0.9876984116883397,0.1239776611328125,0.2231597900390625,-0.4138946533203125,0.48629161662255976
1780936350.680198,-0.011718746274709702,-0.20361328125,0.9692382216453552,0.9904637437149799,0.1239776611328125,0.4634857177734375,-0.7762908935546875,0.9125880902443644
1780936350.689796,-0.0249023400247097,-0.21533203125,0.9619140028953552,0.986035779871665,0.186920166015625,0.03814697265625,-0.9021759033203125,0.9221256424793572
1780936350.699394,-0.02880859375,-0.2080078125,0.9697265028953552,0.9922029407094816,0.125885009765625,0.34332275390625,-0.6542205810546875,0.7494812323927771
1780936350.708998,-0.0283203087747097,-0.19677734375,0.9746093153953552,0.9946791847413937,0.431060791015625,0.28228759765625,-0.5359649658203125,0.7434770594499348
1780936350.718607,-0.0214843712747097,-0.224609375,0.9736327528953552,0.9994356843026709,0.6122589111328125,0.1583099365234375,-0.9593963623046875,1.1490710988738073
1780936350.728216,-0.029785148799419403,-0.20751953125,0.9584960341453552,0.9811555220308334,0.4901885986328125,0.2803802490234375,-0.8373260498046875,1.0099568604418545
1780936350.737825,-0.0126953125,-0.197265625,0.9736327528953552,0.9934966709942722,0.247955322265625,0.16021728515625,-0.5931854248046875,0.6625861215747026
1780936350.747434,-0.024902336299419403,-0.20263671875,0.9765624403953552,0.9976752809054996,-0.118255615234375,0.09918212890625,-0.9021759033203125,0.9152829320820193
1780936350.757021,-0.0361328087747097,-0.1972656100988388,0.9560546278953552,0.9768621971996577,0.247955322265625,0.28228759765625,-0.5931854248046875,0.7021659902267443
1780936350.766606,-0.019531242549419403,-0.2021484375,0.9707030653953552,0.991720677099734,0.3070831298828125,0.0972747802734375,-0.7762908935546875,0.840470096405461
1780936350.776191,-0.0429687462747097,-0.21044921875,0.9604491591453552,0.9841736503950538,0.186920166015625,0.22125244140625,-0.5931854248046875,0.660121761110973
1780936350.785776,-0.04248046875,-0.197265625,0.9682616591453552,0.9890646882801835,0.064849853515625,0.03814697265625,-0.2880096435546875,0.2976747382703693
1780936350.795361,-0.025390617549419403,-0.2021484375,0.9741210341453552,0.9951987054893352,0.1239776611328125,0.5855560302734375,-0.4711151123046875,0.7617058317299452
1780936350.804979,-0.0385742112994194,-0.197265625,0.9663085341453552,0.986992340267217,0.3070831298828125,0.2231597900390625,0.0743865966796875,0.38682516246295207
1780936350.814596,-0.0346679650247097,-0.19677734375,0.9770507216453552,0.9972719305585461,0.3070831298828125,0.0972747802734375,0.0171661376953125,0.3225788396954212
1780936350.824213,-0.0317382775247097,-0.1943359375,0.9707030653953552,0.9904737331359064,0.3070831298828125,0.2231597900390625,0.2002716064453125,0.4291958258150805
1780936350.83383,-0.02392578125,-0.205078125,0.9721679091453552,0.9938510572183289,0.247955322265625,0.28228759765625,-0.1049041748046875,0.39009359841176483
1780936350.843447,-0.0346679612994194,-0.208984375,0.9790038466453552,1.0016610545894258,0.4901885986328125,0.4024505615234375,-0.2880096435546875,0.6965636162480989
1780936350.851881,-0.0219726525247097,-0.2041015625,0.9584960341453552,0.9802320606602739,0.3070831298828125,0.2803802490234375,-0.4138946533203125,0.5867042839013626
1780936350.860317,-0.0170898400247097,-0.2001953125,0.9804686903953552,1.0008441829898527,0.736236572265625,-0.26702880859375,-0.6542205810546875,1.0204671693082377
1780936350.868753,-0.020019523799419403,-0.208984375,0.9819335341453552,1.004125846598166,0.858306884765625,-0.32806396484375,-0.5359649658203125,1.0637551964864105
1780936350.877189,-0.02392578125,-0.21044921875,0.9731444716453552,0.9959274468428038,0.370025634765625,-0.32806396484375,-0.6542205810546875,0.8200911559627002
1780936350.885625,-0.0317382775247097,-0.20361328125,0.9545897841453552,0.9765794092424348,0.919342041015625,-0.26702880859375,-0.2880096435546875,0.9997218251985254
1780936350.894061,-0.019531242549419403,-0.19873046875,0.9697265028953552,0.9900731079383857,0.797271728515625,0.16021728515625,-0.2880096435546875,0.8627058260691356
1780936350.903137,-0.0322265625,-0.197265625,0.9667968153953552,0.9872428072140144,0.6122589111328125,-0.1430511474609375,-0.1049041748046875,0.6374397939749922
1780936350.912213,-0.020507805049419403,-0.203125,0.9755858778953552,0.9967186869131108,0.675201416015625,-0.63323974609375,0.2002716064453125,0.9470999126652733
1780936350.921289,-0.0249023400247097,-0.19140625,0.9614257216453552,0.9806099618701927,0.858306884765625,-0.99945068359375,0.3833770751953125,1.3720679134639795
1780936350.930365,-0.019531242549419403,-0.19921875,0.9633788466453552,0.9839554776263109,0.186920166015625,-1.18255615234375,0.9288787841796875,1.5153197674446466
1780936350.939441,-0.02880859375,-0.18798828125,0.9697265028953552,0.9881998883722043,-0.118255615234375,-0.63323974609375,1.1768341064453125,1.3416092876319374
1780936350.947828,-0.0263671837747097,-0.19970703125,0.9702147841453552,0.9909060773277738,-0.423431396484375,0.34332275390625,0.9288787841796875,1.0770238885826136
1780936350.956215,-0.014648433774709702,-0.2060546875,0.9833983778953552,1.0048609259494523,-0.301361083984375,0.83160400390625,1.0547637939453125,1.3765574391470388
1780936350.964602,-0.02392578125,-0.20263671875,0.9663085341453552,0.9876164569084167,-0.3643035888671875,1.1348724365234375,0.6885528564453125,1.3765019390328355
1780936350.972989,-0.0224609375,-0.21240234375,0.9682616591453552,0.9915391519828091,0.1850128173828125,1.3790130615234375,0.2002716064453125,1.40570817839136
1780936350.981376,-0.03271484375,-0.20361328125,0.9570311903953552,0.9789981249688526,-0.118255615234375,1.07574462890625,0.0743865966796875,1.084778439553761
1780936350.989763,-0.03271484375,-0.20849609375,0.9594725966453552,0.9824095611423864,-0.057220458984375,0.52642822265625,-0.2880096435546875,0.6027855417276521
1780936350.99891,-0.0341796800494194,-0.20361328125,0.9750975966453552,0.9967155771900127,-0.423431396484375,0.16021728515625,-0.4711151123046875,0.6533859311566216
1780936351.008057,-0.0390624925494194,-0.20361328125,0.9663085341453552,0.9882997671697136,-0.3032684326171875,0.0972747802734375,-0.2880096435546875,0.4293992080568259
1780936351.017204,-0.0400390587747097,-0.1953125,0.9604491591453552,0.9809244039103291,-0.667572021484375,-0.45013427734375,-0.1049041748046875,0.8119594555148473
1780936351.026351,-0.03271484375,-0.2041015625,0.9672850966453552,0.9891249501497485,-0.8525848388671875,-1.0623931884765625,0.3223419189453125,1.399815883284988
1780936351.035498,-0.0351562462747097,-0.19677734375,0.9648436903953552,0.9853327516941481,-0.4253387451171875,-0.7572174072265625,0.3833770751953125,0.9493520062074414
1780936351.045082,-0.0371093712747097,-0.18896484375,0.9643554091453552,0.9833952271379863,-0.8525848388671875,-1.4896392822265625,0.6275177001953125,1.8274858584068634
1780936351.054666,-0.030761711299419403,-0.18798828125,0.9633788466453552,0.9820308951011332,-0.6694793701171875,-1.2454986572265625,0.9937286376953125,1.7282841599521352
1780936351.06425,-0.0214843712747097,-0.2060546875,0.9702147841453552,0.9920871130218406,-1.094818115234375,-1.30462646484375,0.9288787841796875,1.9399723487501528
1780936351.073834,-0.0239257775247097,-0.2060546875,0.9663085341453552,0.9883234087246086,-0.789642333984375,-0.32806396484375,1.2340545654296875,1.5013499429204196
1780936351.083418,-0.0273437462747097,-0.19482421875,0.9814452528953552,1.000969001069819,-0.728607177734375,-0.81634521484375,1.3599395751953125,1.745486630549414
1780936351.091393,-0.0283203087747097,-0.2099609375,0.9824218153953552,1.0050065962617754,-0.240325927734375,-0.51116943359375,1.2989044189453125,1.4164051083421025
1780936351.099368,-0.008789058774709702,-0.21044921875,0.9721679091453552,0.9947243662435752,0.064849853515625,-0.45013427734375,1.2989044189453125,1.3762191179810133
1780936351.107343,-0.0087890625,-0.22314453125,0.9653319716453552,0.9908261930970134,0.6122589111328125,-0.2079010009765625,1.1768341064453125,1.3427666642278289
1780936351.115318,-0.0253906212747097,-0.21142578125,0.9858397841453552,1.0085760381000777,0.492095947265625,0.03814697265625,0.8106231689453125,0.9490645577983776
1780936351.12334,-0.0366210900247097,-0.19677734375,0.9804686903953552,1.0006904017194762,0.492095947265625,0.03814697265625,0.6275177001953125,0.7983683842039986
1780936351.131362,-0.009765621274709702,-0.2109375,0.9819335341453552,1.0043821293433683,0.6122589111328125,0.2803802490234375,0.1392364501953125,0.687648781986105
1780936351.139384,-0.0258789025247097,-0.20654296875,0.9584960341453552,0.9808386019158916,0.858306884765625,0.28228759765625,-0.1049041748046875,0.909605344156498
1780936351.147406,-0.03759765625,-0.19775390625,0.9580077528953552,0.9789274977240321,1.224517822265625,-0.02288818359375,-0.2307891845703125,1.24628705108775
1780936351.158082,-0.0361328087747097,-0.19921875,0.9638671278953552,0.9849028025438619,0.736236572265625,-0.38909912109375,-0.0476837158203125,0.834096009540747
1780936351.168758,-0.0385742112994194,-0.20361328125,0.9672850966453552,0.9892354604799496,0.4329681396484375,-0.0858306884765625,-0.2307891845703125,0.4980883101916962
1780936351.179434,-0.0400390587747097,-0.19580078125,0.9682616591453552,0.9886716910767654,0.553131103515625,0.03814697265625,0.0171661376953125,0.5547106322062199
1780936351.190064,-0.0351562425494194,-0.19384765625,0.9653319716453552,0.9852302729334501,0.1239776611328125,0.0400543212890625,-0.2880096435546875,0.3161081522112141
1780936351.200694,-0.0361328087747097,-0.20361328125,0.9628905653953552,0.9848462768872756,-0.1811981201171875,-0.0858306884765625,-0.2307891845703125,0.3057177023546285
1780936351.211324,-0.0346679650247097,-0.19580078125,0.9677733778953552,0.9879904476765202,-0.1811981201171875,0.0972747802734375,0.0171661376953125,0.20637300670054376
1780936351.222018,-0.0283203125,-0.203125,0.9667968153953552,0.9883106232271807,-0.118255615234375,0.22125244140625,0.0171661376953125,0.25145916099052956
1780936351.232714,-0.019531242549419403,-0.2021484375,0.9707030653953552,0.991720677099734,-0.423431396484375,-0.08392333984375,0.1392364501953125,0.4535681465471636
1780936351.24341,-0.029785148799419403,-0.20751953125,0.9799804091453552,1.002154236257035,-0.179290771484375,-0.32806396484375,-0.3490447998046875,0.5114718154885546
1780936351.251426,-0.0307617150247097,-0.2099609375,0.9677733778953552,0.9907649516157333,-0.1811981201171875,-0.2079010009765625,-0.4138946533203125,0.4973573855772135
1780936351.259444,-0.0234374962747097,-0.2060546875,0.9731444716453552,0.9949964890220806,-0.118255615234375,-0.02288818359375,-0.2307891845703125,0.2603303808573089
1780936351.267462,-0.00830078125,-0.21337890625,0.9755858778953552,0.99868276532173,-0.240325927734375,-0.08392333984375,-0.3490447998046875,0.43200920219668004
1780936351.27548,-0.0253906212747097,-0.2001953125,0.9741210341453552,0.9948038178254568,-0.118255615234375,-0.38909912109375,-0.4711151123046875,0.6223599967962655
1780936351.286111,-0.0302734337747097,-0.19921875,0.9682616591453552,0.9890071949763511,0.1850128173828125,-0.3910064697265625,-0.2307891845703125,0.49028506980998815
1780936351.296742,-0.0322265587747097,-0.19482421875,0.9624022841453552,0.9824526369399212,-0.1811981201171875,-0.5130767822265625,0.0171661376953125,0.5444035446957896
1780936351.307373,-0.02392578125,-0.1943359375,0.9663085341453552,0.9859467951033524,-0.1811981201171875,-0.2651214599609375,0.0171661376953125,0.32158486212692927
1780936351.315391,-0.0253906212747097,-0.19677734375,0.9628905653953552,0.9831196506984327,0.003814697265625,-0.32806396484375,0.1392364501953125,0.35640890281700505
1780936351.323408,-0.02734375,-0.203125,0.9716796278953552,0.9930602930114155,-0.1811981201171875,-0.5130767822265625,-0.1049041748046875,0.5541528932392382
1780936351.331425,-0.0029296837747097015,-0.1875,0.9809569716453552,0.9987198872890466,-0.240325927734375,-0.26702880859375,-0.1049041748046875,0.3742536867578435
1780936351.339442,-0.0234375,-0.18994140625,0.9726561903953552,0.9913057645998449,-0.057220458984375,-0.32806396484375,-0.5359649658203125,0.6309980907595145
1780936351.349768,-0.0087890625,-0.19775390625,0.9633788466453552,0.9835052908960366,-0.3643035888671875,-0.2079010009765625,-0.6542205810546875,0.7771386618513471
1780936351.360094,-0.0214843712747097,-0.19873046875,0.9555663466453552,0.9762491589035124,-0.118255615234375,-0.20599365234375,-0.8373260498046875,0.8703635384262718
1780936351.37042,-0.0249023400247097,-0.205078125,0.9775390028953552,0.9991294541118619,-0.240325927734375,0.22125244140625,-0.8373260498046875,0.8987903582321831
1780936351.380746,-0.0351562462747097,-0.1943359375,0.9648436903953552,0.9848480924243393,-0.240325927734375,0.16021728515625,-1.0814666748046875,1.1193731722340565
1780936351.391072,-0.024902336299419403,-0.20703125,0.9721679091453552,0.9942798943968361,0.186920166015625,-0.02288818359375,-0.7762908935546875,0.7988057140678609
1780936351.399937,-0.0268554650247097,-0.1972656100988388,0.9809569716453552,1.0009553022732767,-0.179290771484375,-0.32806396484375,-0.4711151123046875,0.6014321198691686
1780936351.408799,-0.025390617549419403,-0.19873046875,0.9711913466453552,0.9916406175968964,0.1239776611328125,-0.7572174072265625,-0.3490447998046875,0.8429596280591228
1780936351.417661,-0.0410156212747097,-0.21142578125,0.9599608778953552,0.9838231697085327,0.3070831298828125,-0.7572174072265625,0.0743865966796875,0.8204947386980178
1780936351.426523,-0.0380859375,-0.21435546875,0.9541015028953552,0.9786258138049811,0.1239776611328125,-0.8182525634765625,0.0171661376953125,0.827769529748047
1780936351.435385,-0.0302734337747097,-0.2001953125,0.9653319716453552,0.986336889414663,0.003814697265625,-0.63323974609375,0.0171661376953125,0.633483862644882
1780936351.446053,-0.0185546837747097,-0.201171875,0.9731444716453552,0.9938936373047735,0.064849853515625,-1.12152099609375,0.3833770751953125,1.1870100378536939
1780936351.456721,-0.02197265625,-0.2080078125,0.9628905653953552,0.9853467859647702,0.247955322265625,-0.57220458984375,0.4405975341796875,0.7635614720527254
1780936351.467389,-0.024414055049419403,-0.2119140625,0.9643554091453552,0.9876664270476725,0.3070831298828125,-0.4482269287109375,0.1392364501953125,0.560886991597466
1780936351.475439,-0.015136715024709702,-0.21044921875,0.9814452528953552,1.0038689049099252,0.247955322265625,-0.45013427734375,0.0171661376953125,0.5141958632301552
1780936351.483488,0.00146484375,-0.2119140625,0.9726561903953552,0.9954746507907026,0.492095947265625,-0.45013427734375,-0.2880096435546875,0.7264494777584543
1780936351.491537,-0.017578125,-0.21826171875,0.9877929091453552,1.011771713237756,0.6122589111328125,-0.2651214599609375,-0.1049041748046875,0.6753926625932567
1780936351.499586,-0.0317382775247097,-0.2158203125,0.9770507216453552,1.0011063071500161,0.7953643798828125,-0.0858306884765625,-0.5931854248046875,0.9959118194255198
1780936351.510178,-0.0258789025247097,-0.20166015625,0.9741210341453552,0.9951122174805584,1.2836456298828125,-0.0858306884765625,-0.1659393310546875,1.2971695616967276
1780936351.52077,-0.015624996274709702,-0.20361328125,0.9589843153953552,0.9804863211612258,1.1615753173828125,-0.0858306884765625,-0.3490447998046875,1.2159179237547395
1780936351.531362,-0.02197265625,-0.19287109375,0.9741210341453552,0.9932743053111855,0.980377197265625,0.03814697265625,-0.1659393310546875,0.9950530146842007
1780936351.542038,-0.0346679612994194,-0.19873046875,0.9824218153953552,1.002919882201444,0.247955322265625,-0.51116943359375,0.0743865966796875,0.5729828945492105
1780936351.552715,-0.024414055049419403,-0.19384765625,0.9819335341453552,1.0011825135292574,0.308990478515625,-1.12152099609375,0.4405975341796875,1.2439496161893588
1780936351.563392,-0.0332031212747097,-0.2060546875,0.9663085341453552,0.9885915054587768,0.064849853515625,-0.45013427734375,0.5664825439453125,0.7264494777584543
1780936351.571474,-0.0053710900247097015,-0.1953125,0.9658202528953552,0.9853854992677492,-0.240325927734375,0.28228759765625,0.5664825439453125,0.6770120471060156
1780936351.579558,-0.02197265625,-0.21240234375,0.9804686903953552,1.0034522440548712,-0.1201629638671875,0.4024505615234375,0.6275177001953125,0.7551053280266875
1780936351.587642,-0.009765617549419403,-0.20751953125,0.9716796278953552,0.9936402882347299,-0.179290771484375,0.83160400390625,0.0743865966796875,0.8539577072770964
1780936351.595726,-0.014648433774709702,-0.201171875,0.9663085341453552,0.9871356963787769,0.1239776611328125,0.4634857177734375,-0.5359649658203125,0.7193385264440448
1780936351.60631,-0.0185546875,-0.2041015625,0.9746093153953552,0.9959242149373451,-0.057220458984375,0.28228759765625,-0.4711151123046875,0.5521864882073607
1780936351.616894,-0.0170898400247097,-0.19921875,0.9672850966453552,0.9877351017230515,-0.545501708984375,0.34332275390625,-0.8373260498046875,1.056672864010507
1780936351.627478,-0.0302734337747097,-0.205078125,0.9711913466453552,0.9930690559799182,-0.728607177734375,0.34332275390625,-0.9593963623046875,1.2526692751078754
1780936351.638127,-0.0278320275247097,-0.2001953125,0.9667968153953552,0.9876987734940798,-0.789642333984375,-0.32806396484375,-0.7190704345703125,1.117239128621277
1780936351.648774,-0.0268554650247097,-0.20361328125,0.9726561903953552,0.9941024338655904,-0.9746551513671875,-0.8792877197265625,-0.4711151123046875,1.3946501379164566
1780936351.659421,-0.0268554650247097,-0.205078125,0.9667968153953552,0.9886730175410926,-0.911712646484375,-0.93841552734375,-0.1659393310546875,1.3188553799830627
1780936351.667427,-0.0390624962747097,-0.18603515625,0.9560546278953552,0.974769413500598,-0.667572021484375,-1.12152099609375,0.2002716064453125,1.3204432834832545
1780936351.675432,-0.0205078087747097,-0.19970703125,0.9653319716453552,0.9859864522558803,-0.789642333984375,-0.63323974609375,0.5054473876953125,1.131372906419976
1780936351.683437,-0.02294921875,-0.2119140625,0.9765624403953552,0.9995541188537121,-1.155853271484375,-0.63323974609375,0.6885528564453125,1.4869749148364972
1780936351.691442,-0.013671875,-0.205078125,0.9643554091453552,0.9860148643237772,-0.911712646484375,-0.26702880859375,1.0547637939453125,1.4195249189064805
1780936351.702084,-0.017578125,-0.208984375,0.9672850966453552,0.9897595251700639,-0.728607177734375,-0.38909912109375,1.1157989501953125,1.3882628867541411
1780936351.712726,-0.011718746274709702,-0.19482421875,0.9780272841453552,0.9973119741377511,-0.606536865234375,-0.45013427734375,0.8716583251953125,1.1533846159934766
1780936351.723368,-0.00927734375,-0.205078125,0.9628905653953552,0.9845310291646262,-0.1811981201171875,0.2231597900390625,0.6885528564453125,0.7461488368571516
1780936351.731416,-0.0170898400247097,-0.21923828125,0.9672850966453552,0.9919667054844827,0.431060791015625,0.09918212890625,0.5664825439453125,0.7187161977026434
1780936351.739463,-0.025878898799419403,-0.212890625,0.9716796278953552,0.995064538049074,0.064849853515625,0.28228759765625,0.3223419189453125,0.4333544784594724
1780936351.74751,-0.03759765625,-0.20849609375,0.9736327528953552,0.9964160488345668,0.186920166015625,0.03814697265625,-0.0476837158203125,0.19664200146605967
1780936351.755557,-0.02294921875,-0.20703125,0.9760741591453552,0.9980527888188631,0.736236572265625,-0.20599365234375,0.2574920654296875,0.8067092654151191
1780936351.766173,-0.0283203125,-0.19775390625,0.9760741591453552,0.9963078900061686,0.8563995361328125,-0.0858306884765625,-0.1049041748046875,0.8670593742439496
1780936351.776789,-0.0317382775247097,-0.2021484225988388,0.9555663466453552,0.9772299350002462,0.7953643798828125,-0.0858306884765625,0.5054473876953125,0.9462813881709536
1780936351.787405,-0.0219726525247097,-0.19140625,0.9643554091453552,0.9834126830308523,0.3070831298828125,0.2231597900390625,0.0171661376953125,0.3799934431437958
1780936351.795547,-0.0302734337747097,-0.19677734375,0.9614257216453552,0.9818234169376433,0.3070831298828125,0.0972747802734375,0.6275177001953125,0.7053657885057114
1780936351.80369,-0.0253906212747097,-0.2158203125,0.9628905653953552,0.9871075584067323,0.247955322265625,0.22125244140625,0.1392364501953125,0.3603071935599785
1780936351.811833,-0.02392578125,-0.208984375,0.9736327528953552,0.9960962049486742,-0.484466552734375,0.22125244140625,0.2002716064453125,0.569007205485784
1780936351.819976,-0.0229492150247097,-0.205078125,0.9638671278953552,0.9857096651960997,-0.423431396484375,0.09918212890625,0.1392364501953125,0.45663774623444753
1780936351.830492,-0.0361328087747097,-0.19677734375,0.9804686903953552,1.0006726516343085,-0.423431396484375,0.28228759765625,0.0171661376953125,0.5091906436715224
1780936351.841008,-0.0317382775247097,-0.1943359375,0.9633788466453552,0.9832967899001676,-0.3643035888671875,0.0972747802734375,0.1392364501953125,0.4019530778607748
1780936351.851524,-0.029296867549419403,-0.19873046875,0.9790038466453552,0.9994001387853642,-0.6084442138671875,-0.0858306884765625,0.0743865966796875,0.6189544686310997
1780936351.859492,-0.0219726525247097,-0.201171875,0.9741210341453552,0.9949194489577553,-0.1811981201171875,-0.5130767822265625,0.2002716064453125,0.5798182987300007
1780936351.867463,-0.020507805049419403,-0.19775390625,0.9780272841453552,0.9980303332253074,-0.240325927734375,-0.38909912109375,0.3833770751953125,0.5967685140509921
1780936351.875434,-0.0268554650247097,-0.20849609375,0.9726561903953552,0.9951140144853291,0.1239776611328125,-0.5130767822265625,0.3833770751953125,0.6523773652612713
1780936351.883405,-0.0166015587747097,-0.19921875,0.9731444716453552,0.9934655931632611,-0.118255615234375,-0.51116943359375,0.6885528564453125,0.8656694614539748
1780936351.892999,-0.0224609337747097,-0.21630859375,0.9663085341453552,0.9904777051697224,-0.240325927734375,-0.20599365234375,0.5664825439453125,0.6489163343159569
1780936351.902593,-0.02392578125,-0.20751953125,0.9819335341453552,1.0039074978989997,-0.057220458984375,-0.14495849609375,1.1157989501953125,1.1266296835132232
1780936351.912187,-0.0288085900247097,-0.20068359375,0.9702147841453552,0.9911713106390061,0.247955322265625,0.03814697265625,0.9937286376953125,1.024906648792205
1780936351.921781,-0.0214843712747097,-0.19970703125,0.9614257216453552,0.9821832287211232,0.064849853515625,-0.02288818359375,0.5664825439453125,0.5706416082305708
1780936351.931375,-0.0185546875,-0.19921875,0.9770507216453552,0.9973266763941966,-0.118255615234375,0.16021728515625,0.8716583251953125,0.8941153196761572
1780936351.940991,-0.01708984375,-0.20751953125,0.9604491591453552,0.9827609098415744,-0.240325927734375,0.22125244140625,0.6275177001953125,0.7074515237300915
1780936351.950607,-0.014160152524709702,-0.201171875,0.9760741591453552,0.9966902213636145,-0.1811981201171875,0.2803802490234375,0.6275177001953125,0.7107913243947633
1780936351.960223,-0.01708984375,-0.19775390625,0.9824218153953552,1.0022730633720727,0.064849853515625,0.34332275390625,0.5054473876953125,0.614453479588801
1780936351.969839,-0.0351562462747097,-0.1875,0.9692382216453552,0.9878334586104982,-0.423431396484375,0.46539306640625,0.2002716064453125,0.6602980918766208
1780936351.979455,-0.019531242549419403,-0.1982421875,0.9687499403953552,0.9890186456059934,-0.179290771484375,0.16021728515625,0.0743865966796875,0.25169053412452363
1780936351.987428,-0.0234374962747097,-0.2060546875,0.9658202528953552,0.9878343036031891,0.064849853515625,0.34332275390625,0.0743865966796875,0.3572245548899963
1780936351.995401,-0.0415039025247097,-0.201171875,0.9750975966453552,0.9964978776692623,0.003814697265625,0.34332275390625,0.0743865966796875,0.35130959427631114
1780936352.003374,-0.0214843712747097,-0.20068359375,0.9750975966453552,0.9957664414876776,0.3070831298828125,0.2231597900390625,0.0171661376953125,0.3799934431437958
1780936352.011347,-0.02734375,-0.2021484375,0.9682616591453552,0.989516200988478,0.431060791015625,0.09918212890625,0.1392364501953125,0.4637211331267792
1780936352.022027,-0.03271484375,-0.19921875,0.9584960341453552,0.9795269362429618,0.370025634765625,0.22125244140625,0.0743865966796875,0.4374985474004643
1780936352.032707,-0.0258789025247097,-0.21044921875,0.9648436903953552,0.9878673687110516,0.247955322265625,-0.20599365234375,0.5054473876953125,0.5994933597411928
1780936352.043387,-0.01904296875,-0.2001953125,0.9736327528953552,0.9941838538803444,0.370025634765625,0.03814697265625,0.2574920654296875,0.45241167719875097
1780936352.05139,-0.0336913987994194,-0.19921875,0.9707030653953552,0.9915077719678063,-0.057220458984375,-0.32806396484375,0.2574920654296875,0.4209540470343886
1780936352.059395,-0.0161132775247097,-0.20556640625,0.9653319716453552,0.9871084036577934,-0.118255615234375,-0.38909912109375,0.3833770751953125,0.558892206383039
1780936352.0674,-0.0258789025247097,-0.2109375,0.9633788466453552,0.9865410020196161,-0.057220458984375,0.09918212890625,0.2002716064453125,0.23069458591164352
1780936352.075405,-0.029296867549419403,-0.2021484375,0.9746093153953552,0.9957839197774297,0.003814697265625,-0.26702880859375,0.4405975341796875,0.5152136679664533
1780936352.086052,-0.0166015587747097,-0.20947265625,0.9614257216453552,0.9841208379622255,-0.057220458984375,-0.02288818359375,0.2002716064453125,0.2095394144851748
1780936352.096699,-0.0249023400247097,-0.20654296875,0.9702147841453552,0.9922685381755223,-0.179290771484375,0.16021728515625,0.2574920654296875,0.35230231756482666
1780936352.107346,-0.0209960900247097,-0.208984375,0.9628905653953552,0.9855321129815371,0.064849853515625,0.34332275390625,0.2574920654296875,0.43402555294592504
1780936352.115371,-0.0307617150247097,-0.21142578125,0.9833983778953552,1.0063396612156603,0.3070831298828125,-0.5130767822265625,0.0171661376953125,0.598199389335999
1780936352.123399,-0.0263671837747097,-0.2041015625,0.9760741591453552,0.9975336788031084,0.431060791015625,-0.51116943359375,-0.1049041748046875,0.676840070683632
1780936352.131427,-0.0195312462747097,-0.19677734375,0.9604491591453552,0.9805944013185925,0.675201416015625,-0.02288818359375,-0.1659393310546875,0.6956699524405259
1780936352.139455,-0.0283203125,-0.19384765625,0.9672850966453552,0.9869242180258472,0.431060791015625,0.03814697265625,0.0171661376953125,0.43308575750909595
1780936352.150077,-0.0307617150247097,-0.2021484225988388,0.9760741591453552,0.9972617670510449,0.3070831298828125,0.0972747802734375,-0.1049041748046875,0.33877325370714
1780936352.160699,-0.0263671837747097,-0.201171875,0.9648436903953552,0.9859455860071351,0.4901885986328125,-0.0858306884765625,0.1392364501953125,0.5167577366396685
1780936352.171321,-0.02880859375,-0.18505859375,0.9809569716453552,0.998675722351458,0.1850128173828125,-0.3910064697265625,0.1392364501953125,0.4544255615906162
1780936352.182027,-0.0268554650247097,-0.20361328125,0.9614257216453552,0.9831169831430933,0.3070831298828125,-0.7572174072265625,0.8716583251953125,1.1947662894256095
1780936352.192732,-0.012207027524709702,-0.19677734375,0.9628905653953552,0.9828675269138164,0.247955322265625,-0.26702880859375,0.9288787841796875,0.9977985879715314
1780936352.203437,-0.0185546875,-0.19873046875,0.9785155653953552,0.9986645019018194,-0.301361083984375,0.46539306640625,0.7457733154296875,0.9292938433058932
1780936352.211456,-0.011718746274709702,-0.208984375,0.9692382216453552,0.9915818313717948,-0.545501708984375,0.95367431640625,0.3833770751953125,1.163634305984107
1780936352.219475,-0.0219726525247097,-0.2001953125,0.9658202528953552,0.986595013928609,-0.118255615234375,1.13677978515625,0.2002716064453125,1.160328137563912
1780936352.227494,-0.01806640625,-0.20849609375,0.9672850966453552,0.9896653345126387,-0.118255615234375,0.70953369140625,-0.2307891845703125,0.7554376860401326
1780936352.235513,-0.0224609375,-0.19873046875,0.9653319716453552,0.9858316836071371,-0.3643035888671875,0.6465911865234375,-0.5931854248046875,0.950087477841918
1780936352.243492,-0.02880859375,-0.193359375,0.9584960341453552,0.9782292320548477,-0.728607177734375,0.46539306640625,-0.5931854248046875,1.0484884710409461
1780936352.251471,-0.0336913987994194,-0.18896484375,0.9799804091453552,0.9986012341446515,-0.423431396484375,0.22125244140625,-0.7190704345703125,0.8633128518851507
1780936352.25945,-0.0263671837747097,-0.205078125,0.9702147841453552,0.992002516684279,-0.667572021484375,-0.14495849609375,-1.2073516845703125,1.3872142803811054
1780936352.267429,-0.0366210900247097,-0.2099609375,0.9721679091453552,0.9952563202926814,-1.033782958984375,-0.26702880859375,-0.5359649658203125,1.1946840735074091
1780936352.27828,-0.0380859375,-0.197265625,0.9780272841453552,0.9984496151407111,-1.3408660888671875,-0.5741119384765625,-0.5931854248046875,1.574609581571261
1780936352.289131,-0.0493164025247097,-0.19189453125,0.9682616591453552,0.988324976539879,-0.789642333984375,-0.93841552734375,-0.0476837158203125,1.2273681005853834
1780936352.299982,-0.025390617549419403,-0.20703125,0.9599608778953552,0.9823601727603397,-0.789642333984375,-0.99945068359375,0.2574920654296875,1.2995148511331265
1780936352.310866,-0.02783203125,-0.2119140625,0.9609374403953552,0.9844201116405189,-0.728607177734375,-0.81634521484375,0.7457733154296875,1.3241849445041005
1780936352.321748,-0.025390617549419403,-0.2021484375,0.9702147841453552,0.9913755098939304,-0.5435943603515625,-0.5741119384765625,1.0547637939453125,1.3181904291585682
1780936352.33263,-0.012207027524709702,-0.20068359375,0.9658202528953552,0.9865250514934996,-0.1811981201171875,-0.2651214599609375,1.1768341064453125,1.2198609188586864
1780936352.340338,-0.00927734375,-0.2080078125,0.9702147841453552,0.9923054199903923,-0.240325927734375,-0.45013427734375,1.2340545654296875,1.3353906131312376
1780936352.348046,-0.02392578125,-0.20361328125,0.9653319716453552,0.9868620100047034,0.064849853515625,-0.20599365234375,0.9288787841796875,0.9536533353404948
1780936352.355754,-0.010253898799419403,-0.212890625,0.9731444716453552,0.9962116860122636,0.4901885986328125,-0.2651214599609375,0.5664825439453125,0.7946550971057648
1780936352.363462,-0.015136711299419403,-0.212890625,0.9677733778953552,0.991028177805676,0.7953643798828125,0.0400543212890625,-0.1049041748046875,0.8032519725041145
1780936352.374155,-0.0219726525247097,-0.19677734375,0.9702147841453552,0.990212526605524,0.370025634765625,-0.02288818359375,-0.2880096435546875,0.46945968315971826
1780936352.384848,-0.0327148400247097,-0.21142578125,0.9667968153953552,0.9901854391949094,0.553131103515625,0.03814697265625,-0.3490447998046875,0.6551652321895173
1780936352.395541,-0.020019523799419403,-0.2177734375,0.9775390028953552,1.0017028269878083,1.1615753173828125,-0.0858306884765625,-0.7190704345703125,1.3688266562682363
1780936352.40349,-0.0239257775247097,-0.2109375,0.9643554091453552,0.9874454045081771,0.919342041015625,-0.38909912109375,-0.6542205810546875,1.19356293637589
1780936352.411442,-0.02783203125,-0.20703125,0.9604491591453552,0.982903427475499,0.7953643798828125,-0.2079010009765625,-0.1049041748046875,0.8287534065600455
1780936352.419394,-0.0341796800494194,-0.197265625,0.9736327528953552,0.9940033776831491,0.553131103515625,0.09918212890625,0.2002716064453125,0.5965734059769805
1780936352.427346,-0.0170898400247097,-0.19921875,0.9741210341453552,0.994430471248769,0.247955322265625,0.03814697265625,0.1392364501953125,0.28692128262936223
1780936352.438034,-0.0312499962747097,-0.1928710788488388,0.9467772841453552,0.9667280078166449,0.247955322265625,0.46539306640625,0.1392364501953125,0.5453983288953624
1780936352.448722,-0.0292968712747097,-0.20556640625,0.9672850966453552,0.989321137061794,-0.179290771484375,0.34332275390625,0.1392364501953125,0.41158532912656837
1780936352.45941,-0.0361328087747097,-0.2021484225988388,0.9638671278953552,0.985499571215731,-0.728607177734375,0.09918212890625,0.0171661376953125,0.735527151384503
1780936352.47006,-0.0249023400247097,-0.19677734375,0.9736327528953552,0.9936308102422146,-0.667572021484375,0.03814697265625,0.2574920654296875,0.7165261747841581
1780936352.480711,-0.0415039025247097,-0.21044921875,0.9804686903953552,1.0036584580637224,-0.057220458984375,-0.14495849609375,-0.0476837158203125,0.16297510015513594
1780936352.491362,-0.0185546875,-0.205078125,0.9809569716453552,1.0023362180433093,-0.179290771484375,-0.14495849609375,-0.1049041748046875,0.2533042285882266
1780936352.499378,-0.0268554650247097,-0.1972656100988388,0.9702147841453552,0.9904300400854059,-0.301361083984375,-0.69427490234375,-0.2880096435546875,0.8098059630214878
1780936352.507394,-0.0258789025247097,-0.20556640625,0.9741210341453552,0.9959111677950196,-0.484466552734375,-0.51116943359375,-0.3490447998046875,0.7860243652900198
1780936352.51541,-0.0214843712747097,-0.2075195163488388,0.9541015028953552,0.9766450766280969,0.064849853515625,-0.32806396484375,-0.1049041748046875,0.35048017693080974
1780936352.523426,-0.0200195275247097,-0.20166015625,0.9838866591453552,1.004539973393441,-0.1811981201171875,-0.6961822509765625,-0.3490447998046875,0.7995841153871746
1780936352.534114,-0.033203125,-0.212890625,0.9721679091453552,0.9957586601655584,-0.057220458984375,-0.51116943359375,-0.4138946533203125,0.6602099323806628
1780936352.544802,-0.0244140587747097,-0.1953125,0.9707030653953552,0.990458207139526,-0.3643035888671875,0.0400543212890625,-0.0476837158203125,0.3695878654256286
1780936352.55549,-0.0332031212747097,-0.2099609375,0.9707030653953552,0.9937054310539926,-0.118255615234375,0.09918212890625,0.1392364501953125,0.2078660008077999
1780936352.566139,-0.0166015625,-0.19287109375,0.9833983778953552,1.0022710413500824,-0.3032684326171875,0.4024505615234375,0.0743865966796875,0.5093835121577869
1780936352.576788,-0.01806640625,-0.21337890625,0.9790038466453552,1.0021504300321578,0.003814697265625,0.70953369140625,0.2002716064453125,0.7372661171544466
1780936352.587437,-0.010742180049419403,-0.19287109375,0.9624022841453552,0.9815970709841857,-0.3643035888671875,0.5283355712890625,0.2574920654296875,0.6914895114968117
1780936352.595486,-0.017578125,-0.20703125,0.9741210341453552,0.9960334924687495,-0.3643035888671875,0.6465911865234375,0.2574920654296875,0.7855567650466425
1780936352.603534,-0.0175781212747097,-0.1962890625,0.9682616591453552,0.9881138734860437,-0.3643035888671875,0.5283355712890625,0.0743865966796875,0.6460564576849607
1780936352.611582,-0.01904296875,-0.1875,0.9643554091453552,0.9825987175885784,-0.6694793701171875,0.7114410400390625,-0.0476837158203125,0.9780719386726119
1780936352.61963,-0.0229492150247097,-0.19677734375,0.9687499403953552,0.988799492566395,-0.240325927734375,0.95367431640625,0.1392364501953125,0.9932965530884057
1780936352.627585,-0.024902336299419403,-0.203125,0.9726561903953552,0.9939516873030474,0.064849853515625,0.58746337890625,-0.1049041748046875,0.6002696152133629
1780936352.63554,-0.03271484375,-0.208984375,0.9707030653953552,0.9934833522327724,0.1239776611328125,0.4634857177734375,-0.4138946533203125,0.6336388996006027
1780936352.643495,-0.0263671837747097,-0.1953125,0.9628905653953552,0.9828532148616324,0.064849853515625,0.40435791015625,-0.2880096435546875,0.5006599422636347
1780936352.65145,-0.0224609375,-0.20751953125,0.9711913466453552,0.9933687539692484,0.431060791015625,0.03814697265625,-0.1659393310546875,0.4634700191649188
1780936352.663439,-0.0234375,-0.2021484375,0.9658202528953552,0.987026883166203,0.0019073486328125,0.2803802490234375,-0.3490447998046875,0.44771530495611417
1780936352.675428,-0.02880859375,-0.18896484375,0.9550780653953552,0.9740183562164775,0.370025634765625,-0.02288818359375,-0.5359649658203125,0.6516910954729194
1780936352.687417,-0.0175781212747097,-0.20947265625,0.9501952528953552,0.973169462472414,0.064849853515625,0.28228759765625,-0.4138946533203125,0.5051738070591908
1780936352.699406,-0.0258789025247097,-0.21044921875,0.9682616591453552,0.991205948246521,-0.240325927734375,0.09918212890625,-0.1049041748046875,0.2803542975008881
1780936352.707488,-0.0336913987994194,-0.20751953125,0.9692382216453552,0.9917772917855762,-0.1811981201171875,0.2231597900390625,-0.1049041748046875,0.30600316422503476
1780936352.715573,-0.0283203087747097,-0.19677734375,0.9702147841453552,0.9903737124321398,-0.057220458984375,0.28228759765625,-0.1049041748046875,0.3065376887241956
1780936352.723658,-0.0185546875,-0.19775390625,0.9814452528953552,1.0013419337549907,0.186920166015625,0.28228759765625,0.2002716064453125,0.3933626222736876
1780936352.731743,-0.0205078087747097,-0.1953125,0.9750975966453552,0.9946772671879749,0.247955322265625,0.34332275390625,-0.2880096435546875,0.5121541857391382
1780936352.742367,-0.0327148400247097,-0.21435546875,0.9790038466453552,1.0027298038291654,0.675201416015625,0.16021728515625,-0.0476837158203125,0.6955862760339486
1780936352.752991,-0.02880859375,-0.21533203125,0.9760741591453552,0.9999592906250813,0.6732940673828125,0.0972747802734375,-0.3490447998046875,0.7646041827774885
1780936352.763615,-0.0283203125,-0.212890625,0.9682616591453552,0.9917938792329303,0.9784698486328125,0.2803802490234375,-0.1659393310546875,1.0312866673805305
1780936352.772833,-0.0478515625,-0.19921875,0.9584960341453552,0.9801492385640198,1.041412353515625,0.22125244140625,0.0743865966796875,1.0672514692652175
1780936352.782052,-0.0292968712747097,-0.20068359375,0.9653319716453552,0.9864066235319037,1.163482666015625,-0.32806396484375,0.3833770751953125,1.2681860513872323
1780936352.791271,-0.024902336299419403,-0.2080078125,0.9692382216453552,0.9916199406589479,0.370025634765625,-0.38909912109375,0.5664825439453125,0.7805251879435957
1780936352.80049,-0.015136711299419403,-0.19384765625,0.9736327528953552,0.9928578807529141,0.247955322265625,-0.51116943359375,0.6275177001953125,0.8464954197978978
1780936352.809087,-0.029785148799419403,-0.20361328125,0.9584960341453552,0.9803367640065168,0.4901885986328125,-0.6961822509765625,0.5054473876953125,0.9901674861014219
1780936352.817684,-0.014160152524709702,-0.2060546875,0.9833983778953552,1.004853926602002,-0.423431396484375,0.34332275390625,0.6275177001953125,0.8312298869367568
1780936352.826281,-0.01708984375,-0.2080078125,0.9653319716453552,0.9876361315287849,-0.484466552734375,0.83160400390625,0.0743865966796875,0.9653012098805335
1780936352.834878,-0.02392578125,-0.21533203125,0.9804686903953552,1.004121098043586,-0.2384185791015625,0.8907318115234375,-0.0476837158203125,0.9233202671202798
1780936352.843475,-0.0209960900247097,-0.2001953125,0.9575194716453552,0.9784490469734736,0.247955322265625,1.01470947265625,-0.2880096435546875,1.0835435895794285
1780936352.85168,-0.0258789025247097,-0.1943359375,0.9624022841453552,0.9821681784338588,-0.301361083984375,0.64849853515625,-0.7190704345703125,1.0141159415536163
1780936352.859885,-0.0234375,-0.193359375,0.9799804091453552,0.9991490212252316,-0.4863739013671875,0.5855560302734375,-0.4138946533203125,0.8664549731912601
1780936352.86809,-0.0307617150247097,-0.2119140475988388,0.9638671278953552,0.9873670477174258,-0.3643035888671875,0.4024505615234375,-0.8373260498046875,0.9978970252553943
1780936352.876295,-0.0307617150247097,-0.19140625,0.9804686903953552,0.9994505933241057,-0.423431396484375,0.28228759765625,-0.6542205810546875,0.8288455851331886
1780936352.8845,-0.0336913987994194,-0.208984375,0.9638671278953552,0.9868380918795359,-0.728607177734375,0.22125244140625,-0.2307891845703125,0.7956662051318423
1780936352.892705,-0.0229492150247097,-0.20458984375,0.9604491591453552,0.9822658794536842,-0.8525848388671875,-0.7572174072265625,-0.4711151123046875,1.23378626930071
1780936352.902045,-0.030761711299419403,-0.1982421875,0.9755858778953552,0.9959990225576052,-0.789642333984375,-0.51116943359375,-0.1049041748046875,0.946485124739052
1780936352.911385,-0.0205078087747097,-0.19921875,0.9741210341453552,0.9944950828117346,-0.789642333984375,-0.81634521484375,0.3223419189453125,1.1806179899221958
1780936352.920725,-0.0385742112994194,-0.19921875,0.9775390028953552,0.9983779756738327,-1.0318756103515625,-0.3910064697265625,0.5664825439453125,1.240385346253813
1780936352.930065,-0.0249023400247097,-0.19970703125,0.9892577528953552,1.0095216325235248,-0.789642333984375,-0.63323974609375,0.9288787841796875,1.3738061680427494
1780936352.939405,-0.0332031212747097,-0.19091796875,0.9672850966453552,0.9865052337652463,-1.033782958984375,-0.20599365234375,0.9937286376953125,1.448667386416975
1780936352.948991,-0.014648430049419403,-0.2080078125,0.9702147841453552,0.9923701698147552,-0.7266998291015625,-0.0858306884765625,1.2340545654296875,1.4346951659354177
1780936352.958577,-0.0263671837747097,-0.18359375,0.9794921278953552,0.9968985515227929,-0.6694793701171875,-0.3910064697265625,0.8106231689453125,1.1216945254441941
1780936352.968163,-0.0307617150247097,-0.2060546875,0.9707030653953552,0.9928087723826393,0.003814697265625,-0.26702880859375,0.5664825439453125,0.6262758251193948
1780936352.977749,-0.0068359337747097015,-0.2041015625,0.9765624403953552,0.9976865127866795,0.186920166015625,-0.14495849609375,0.6275177001953125,0.6706195479640336
1780936352.987335,-0.0161132775247097,-0.20166015625,0.9687499403953552,0.9896478683589265,0.370025634765625,-0.32806396484375,0.3833770751953125,0.6257179214294707
1780936352.996949,-0.020019523799419403,-0.2119140625,0.9765624403953552,0.9994911461385444,0.308990478515625,-0.14495849609375,0.2002716064453125,0.3957231326966656
1780936353.006565,-0.0205078087747097,-0.20068359375,0.9667968153953552,0.9876186294717996,0.6122589111328125,0.0400543212890625,0.0171661376953125,0.613807786850932
1780936353.016181,-0.02734375,-0.20263671875,0.9672850966453552,0.9886605983056285,0.370025634765625,-0.26702880859375,-0.2307891845703125,0.5113579985854636
1780936353.025797,-0.0268554650247097,-0.19140625,0.9584960341453552,0.9777894538258888,0.370025634765625,-0.20599365234375,-0.0476837158203125,0.4261761278439394
1780936353.035413,-0.02880859375,-0.19482421875,0.9746093153953552,0.9943086688452452,0.247955322265625,0.16021728515625,0.0171661376953125,0.29571286171903904
1780936353.045004,-0.0341796837747097,-0.201171875,0.9663085341453552,0.987618629449698,-0.423431396484375,0.83160400390625,-0.1049041748046875,0.9390762763125616
1780936353.054595,-0.02880859375,-0.2001953125,0.9667968153953552,0.987726774203993,0.064849853515625,0.52642822265625,0.0743865966796875,0.5355983036526561
1780936353.064186,-0.0278320275247097,-0.2001953125,0.9604491591453552,0.9814863077018083,-0.606536865234375,0.46539306640625,-0.2307891845703125,0.7985870790727736
1780936353.073777,-0.0249023400247097,-0.2060546875,0.9614257216453552,0.983574134989692,-0.423431396484375,0.58746337890625,0.2002716064453125,0.7513428547825836
1780936353.083368,-0.02197265625,-0.19775390625,0.9619140028953552,0.9822769232889368,-0.545501708984375,0.34332275390625,0.0743865966796875,0.6488266283224139
1780936353.092978,-0.0229492150247097,-0.205078125,0.9643554091453552,0.9861871318221869,-0.545501708984375,0.34332275390625,0.0743865966796875,0.6488266283224139
1780936353.102588,-0.0292968712747097,-0.201171875,0.9658202528953552,0.9869838858159491,-0.789642333984375,0.22125244140625,0.2574920654296875,0.8595288373334334
1780936353.112198,-0.0405273362994194,-0.19287109375,0.9746093153953552,0.9943364830112845,-0.484466552734375,0.03814697265625,0.0743865966796875,0.4916262788000171
1780936353.121808,-0.0332031212747097,-0.20166015625,0.9736327528953552,0.9948517494540307,-0.484466552734375,0.03814697265625,0.0171661376953125,0.48626917291202004
1780936353.131418,-0.0283203125,-0.20703125,0.9741210341453552,0.9962809682720415,-0.6694793701171875,-0.0858306884765625,-0.0476837158203125,0.6766411684573288
1780936353.139437,-0.0253906212747097,-0.20556640625,0.9550780653953552,0.9772800734828221,-0.5435943603515625,-0.5741119384765625,0.2002716064453125,0.8156028830598423
1780936353.147458,-0.0214843712747097,-0.20947265625,0.9765624403953552,0.9990067927278733,-0.8525848388671875,-0.2651214599609375,0.0171661376953125,0.893020141027839
1780936353.155479,-0.0312499962747097,-0.20947265625,0.9760741591453552,0.9987873247768577,-0.240325927734375,-0.26702880859375,-0.2880096435546875,0.4604459696217177
1780936353.1635,-0.0185546875,-0.205078125,0.9702147841453552,0.9918256102541195,-0.423431396484375,-0.20599365234375,-0.2307891845703125,0.5243960145245723
1780936353.171521,-0.0209960900247097,-0.208984375,0.9707030653953552,0.9931665247874626,-0.423431396484375,-0.20599365234375,-0.1049041748046875,0.48242348432272464
1780936353.179542,-0.029785148799419403,-0.203125,0.9775390028953552,0.9988640662751107,-0.3643035888671875,0.0972747802734375,0.2574920654296875,0.4565979100893967
1780936353.189849,-0.02392578125,-0.20361328125,0.9731444716453552,0.9945053916413585,-0.484466552734375,0.16021728515625,0.1392364501953125,0.528927413020123
1780936353.200156,-0.0244140587747097,-0.1962890625,0.9633788466453552,0.9834755942506752,-0.423431396484375,-0.14495849609375,-0.4711151123046875,0.6498127131415082
1780936353.210463,-0.0253906212747097,-0.21484375,0.9643554091453552,0.9883237706898907,-0.3643035888671875,0.0400543212890625,-0.1659393310546875,0.40231494516897753
1780936353.22077,-0.0253906212747097,-0.20654296875,0.9731444716453552,0.995145639734555,-0.301361083984375,0.34332275390625,-0.2880096435546875,0.5400357127732454
1780936353.231077,-0.012207027524709702,-0.2119140475988388,0.9711913466453552,0.9941173003672809,-0.240325927734375,0.22125244140625,0.0743865966796875,0.3350262081318425
1780936353.239953,-0.033203125,-0.197265625,0.9526366591453552,0.9734129538197188,-0.1811981201171875,0.2803802490234375,-0.5931854248046875,0.6806723080728091
1780936353.248828,-0.029296867549419403,-0.19921875,0.9716796278953552,0.9923244006203953,-0.301361083984375,0.22125244140625,-0.1049041748046875,0.38829889474464907
1780936353.257703,-0.0258789025247097,-0.2041015625,0.9682616591453552,0.9898776722311403,-0.1811981201171875,-0.2079010009765625,0.2002716064453125,0.3408288445675417
1780936353.266578,-0.0327148400247097,-0.20068359375,0.9736327528953552,0.9946380764221955,-0.606536865234375,-0.26702880859375,0.2574920654296875,0.7109806729205699
1780936353.275453,-0.03271484375,-0.21923828125,0.9550780653953552,0.980464071736632,-0.3032684326171875,0.0972747802734375,0.3833770751953125,0.4984095774407264
1780936353.285227,-0.0249023400247097,-0.20458984375,0.9726561903953552,0.9942520784080671,-0.789642333984375,-0.63323974609375,0.5054473876953125,1.131372906419976
1780936353.295001,-0.0263671837747097,-0.20556640625,0.9609374403953552,0.9830328275863051,-0.8525848388671875,-0.5130767822265625,0.8106231689453125,1.2834557312027135
1780936353.304775,-0.01220703125,-0.20703125,0.9814452528953552,1.0031180062780893,-0.667572021484375,-0.45013427734375,0.5664825439453125,0.9844672387150666
1780936353.314549,-0.0253906212747097,-0.205078125,0.9560546278953552,0.9781319811366754,-0.484466552734375,-0.32806396484375,0.3223419189453125,0.6680105676235044
1780936353.324323,-0.0312499962747097,-0.2119140475988388,0.9677733778953552,0.9911959628650019,-0.3643035888671875,0.1583099365234375,0.1392364501953125,0.4209108337006299
1780936353.333742,-0.0126953125,-0.208984375,0.9746093153953552,0.9968445002150618,-0.057220458984375,0.22125244140625,-0.2307891845703125,0.32479296708709443
1780936353.343161,-0.01416015625,-0.20703125,0.9711913466453552,0.9931138304849074,-0.2384185791015625,0.4024505615234375,-0.0476837158203125,0.4701952893062312
1780936353.35258,-0.0229492150247097,-0.19970703125,0.9736327528953552,0.9941681458946101,0.3070831298828125,0.2803802490234375,-0.3490447998046875,0.5429046002492183
1780936353.361999,-0.03759765625,-0.2041015625,0.9765624403953552,0.9983712894316253,0.247955322265625,-0.02288818359375,-0.4711151123046875,0.5328744315783311
1780936353.371418,-0.0297851525247097,-0.21044921875,0.9609374403953552,0.9841629912453437,0.553131103515625,0.34332275390625,-0.4711151123046875,0.8036006346861871
1780936353.382086,-0.0258789025247097,-0.20849609375,0.9526366591453552,0.9755290580257032,0.370025634765625,0.03814697265625,-0.4711151123046875,0.6002696152133629
1780936353.392754,-0.0214843712747097,-0.21142578125,0.9599608778953552,0.9832025865892865,0.186920166015625,0.34332275390625,-0.2880096435546875,0.48555042641684343
1780936353.403422,-0.0302734337747097,-0.1904296875,0.9687499403953552,0.987753204849199,-0.118255615234375,-0.26702880859375,-0.1659393310546875,0.33589378789185026
1780936353.411411,-0.0341796800494194,-0.19921875,0.9741210341453552,0.9948709212979638,-0.118255615234375,-0.51116943359375,0.5664825439453125,0.772127614432853
1780936353.4194,-0.02783203125,-0.19775390625,0.9785155653953552,0.9986861074039363,-0.301361083984375,-0.51116943359375,0.3223419189453125,0.6752903120067244
1780936353.427389,-0.030761711299419403,-0.203125,0.9599608778953552,0.9816979859390004,-0.545501708984375,0.46539306640625,0.4405975341796875,0.8415990778803806
1780936353.435378,-0.0219726525247097,-0.2070312350988388,0.9746093153953552,0.9965982377171482,-0.728607177734375,1.31988525390625,0.1392364501953125,1.5140516147041385
1780936353.446037,-0.0229492150247097,-0.2001953125,0.9809569716453552,1.001439668595592,-0.545501708984375,1.13677978515625,-0.0476837158203125,1.2617900503646382
1780936353.456696,-0.0278320275247097,-0.21142578125,0.9750975966453552,0.9981436798962647,-0.606536865234375,1.01470947265625,-0.1659393310546875,1.1937579923826875
1780936353.467355,-0.0307617150247097,-0.2158203125,0.9575194716453552,0.982022519588456,-1.033782958984375,0.77056884765625,-0.2880096435546875,1.3211484057611655
1780936353.475425,-0.024902336299419403,-0.2138671875,0.9658202528953552,0.989529211870563,-0.911712646484375,0.64849853515625,-0.7190704345703125,1.3299746575527231
1780936353.483496,-0.0283203125,-0.20703125,0.9697265028953552,0.9919846112689025,-1.277923583984375,0.46539306640625,-0.3490447998046875,1.4041052898672437
1780936353.491567,-0.0361328087747097,-0.20947265625,0.9555663466453552,0.9789236009145614,-1.094818115234375,-0.02288818359375,-0.5931854248046875,1.245399342618378
1780936353.499638,-0.0341796837747097,-0.20068359375,0.9750975966453552,0.9961212168039099,-1.216888427734375,-0.26702880859375,-0.0476837158203125,1.2467540121961787
1780936353.510226,-0.030273430049419403,-0.20703125,0.9599608778953552,0.9824985018477843,-1.949310302734375,-1.12152099609375,-0.1049041748046875,2.2513606745514925
1780936353.520814,-0.012207027524709702,-0.19677734375,0.9682616591453552,0.9881300395723281,-1.644134521484375,-0.99945068359375,-0.1659393310546875,1.9312213377196168
1780936353.531402,-0.0161132775247097,-0.19580078125,0.9609374403953552,0.9808151446650258,-1.888275146484375,-0.99945068359375,0.2574920654296875,2.1519263141487555
1780936353.539391,-0.0317382775247097,-0.205078125,0.9584960341453552,0.9807033206256238,-2.3174285888671875,-0.7572174072265625,0.3833770751953125,2.4679609899856993
1780936353.54738,-0.0346679612994194,-0.20751953125,0.9677733778953552,0.9903794900712877,-2.681732177734375,-0.87738037109375,0.2002716064453125,2.82870862851315
1780936353.555369,-0.013671875,-0.20849609375,0.9707030653953552,0.9929360414663997,-2.742767333984375,-0.69427490234375,0.8716583251953125,2.9605030863484125
1780936353.563358,-0.014648430049419403,-0.22265625,0.9692382216453552,0.9945919326363079,-2.9888153076171875,-0.2079010009765625,0.3833770751953125,3.0204664790457767
1780936353.571422,-0.0253906212747097,-0.205078125,0.9580077528953552,0.9800411091427947,-3.108978271484375,-0.14495849609375,0.6275177001953125,3.1749861924440155
1780936353.579486,-0.0180664025247097,-0.21142578125,0.9589843153953552,0.982180315956116,-3.353118896484375,-0.20599365234375,0.6275177001953125,3.417545637270251
1780936353.58755,-0.010253898799419403,-0.21240234375,0.9697265028953552,0.9927685472902217,-3.780364990234375,-0.14495849609375,0.8106231689453125,3.869015681928732
1780936353.595614,-0.010742183774709702,-0.21484375,0.9667968153953552,0.9904389500039428,-3.4770965576171875,0.1583099365234375,0.3223419189453125,3.4955924847877644
1780936353.606198,-0.0258789025247097,-0.2138671875,0.9780272841453552,1.0014720465483713,-4.268646240234375,0.52642822265625,0.0171661376953125,4.301018725157967
1780936353.616782,-0.0161132775247097,-0.2119140475988388,0.9750975966453552,0.997989240556159,-4.024505615234375,0.70953369140625,0.0171661376953125,4.086609619547354
1780936353.627366,-0.015624996274709702,-0.2060546875,0.9653319716453552,0.9872023552595568,-4.085540771484375,0.83160400390625,-0.3490447998046875,4.183902590530131
1780936353.635435,-0.02392578125,-0.20703125,0.9746093153953552,0.9966432155693372,-5.1212310791015625,1.3790130615234375,-0.9021759033203125,5.379833282727247
1780936353.643502,-0.020507805049419403,-0.1982421875,0.9843749403953552,1.0043478273243236,-5.4302215576171875,1.5621185302734375,-0.9593963623046875,5.731314146636663
1780936353.651569,-0.0307617150247097,-0.20068359375,0.9697265028953552,0.9907520771259235,-5.6133270263671875,1.3179779052734375,-0.5931854248046875,5.796410528243662
1780936353.659636,-0.029296867549419403,-0.21728515625,0.9648436903953552,0.9894415053304177,-5.306243896484375,1.31988525390625,-0.4138946533203125,5.4835782256209304
1780936353.670225,-0.0302734337747097,-0.2211913913488388,0.9643554091453552,0.9898603272923167,-4.756927490234375,1.19781494140625,-0.4138946533203125,4.922847607356002
1780936353.680814,-0.0346679650247097,-0.2109375,0.9726561903953552,0.9958697512323638,-4.756927490234375,0.83160400390625,-0.9593963623046875,4.923450593502882
1780936353.691403,-0.0292968712747097,-0.19677734375,0.9711913466453552,0.9913587955319765,-4.1446685791015625,0.4024505615234375,-0.8373260498046875,4.247512095185112
1780936353.702059,-0.0307617150247097,-0.2060546875,0.9804686903953552,1.0023590525343535,-2.9888153076171875,-0.0247955322265625,-0.7190704345703125,3.074198115173835
1780936353.712716,-0.0234375,-0.2236328125,0.9750975966453552,1.000687900504677,-2.437591552734375,-0.51116943359375,-0.7762908935546875,2.6087879023060636
1780936353.723373,-0.0205078087747097,-0.2236328125,0.9765624403953552,1.0020510990155802,-1.827239990234375,-0.63323974609375,-0.8373260498046875,2.107347496647413
1780936353.731433,-0.014648430049419403,-0.22314453125,0.9692382216453552,0.9947013565025161,-0.1811981201171875,-0.6961822509765625,-0.8373260498046875,1.1039100502261578
1780936353.739495,-0.010742183774709702,-0.2216796725988388,0.9750975966453552,1.0000362967109373,0.3070831298828125,-0.5130767822265625,-1.0204315185546875,1.1827207266207915
1780936353.747557,-0.03271484375,-0.232421875,0.9643554091453552,0.9925077048204755,0.675201416015625,-0.14495849609375,-0.7190704345703125,0.9969815483008725
1780936353.755619,-0.03271484375,-0.2216796875,0.9765624403953552,1.0019412881215228,1.163482666015625,-0.02288818359375,-0.4711151123046875,1.2554541935526384
1780936353.766208,-0.0185546875,-0.2294921875,0.9619140028953552,0.9890851780903014,1.163482666015625,0.34332275390625,-0.1659393310546875,1.2243766941017273
1780936353.776797,-0.0263671837747097,-0.2172851413488388,0.9741210341453552,0.9984086589145802,1.2836456298828125,0.4024505615234375,-0.3490447998046875,1.3898002841626085
1780936353.787386,-0.02783203125,-0.21826171875,0.9726561903953552,0.9972326030318155,1.834869384765625,0.28228759765625,-0.2880096435546875,1.8786648188863329
1780936353.798069,-0.0253906212747097,-0.208984375,0.9545897841453552,0.9775279068331155,1.895904541015625,0.28228759765625,-0.0476837158203125,1.9173977295252638
1780936353.808753,-0.0288085900247097,-0.21044921875,0.9555663466453552,0.9788901120007538,1.4667510986328125,0.2803802490234375,-0.2307891845703125,1.5110378939979092
1780936353.819437,-0.0214843712747097,-0.21044921875,0.9594725966453552,0.9825162164539247,1.468658447265625,0.52642822265625,-0.1049041748046875,1.5636780980192655
1780936353.830088,-0.0263671837747097,-0.2060546875,0.9570311903953552,0.979317344894127,1.3446807861328125,0.5855560302734375,-0.0476837158203125,1.4674181469297625
1780936353.840738,-0.008300777524709702,-0.20068359375,0.9628905653953552,0.9836163116964443,1.041412353515625,0.64849853515625,-0.1049041748046875,1.2312980654765147
1780936353.851388,-0.02392578125,-0.205078125,0.9677733778953552,0.9895528239184225,0.675201416015625,0.64849853515625,-0.7762908935546875,1.2161722138353772
1780936353.859372,-0.0302734337747097,-0.19970703125,0.9604491591453552,0.9814591007404333,0.3681182861328125,0.8907318115234375,-0.5359649658203125,1.1028021931570287
1780936353.867355,-0.0195312462747097,-0.20068359375,0.9624022841453552,0.9832972749426572,0.431060791015625,0.58746337890625,-0.9021759033203125,1.1596758114398982
1780936353.875338,-0.015624992549419403,-0.20849609375,0.9628905653953552,0.9853288803382173,-0.0553131103515625,0.5855560302734375,-0.7190704345703125,0.9289766921938833
1780936353.883321,-0.0341796800494194,-0.22802734375,0.9594725966453552,0.9867889256266215,0.003814697265625,0.46539306640625,-0.5931854248046875,0.7539722848851662
1780936353.892942,-0.0307617150247097,-0.21826171875,0.9619140028953552,0.9868449776682916,-0.057220458984375,0.46539306640625,-0.7762908935546875,0.906913688617241
1780936353.902563,-0.0322265587747097,-0.2197265625,0.9599608778953552,0.9853137573626725,-0.118255615234375,0.28228759765625,-0.6542205810546875,0.7222708958559318
1780936353.912184,-0.033203125,-0.23388671875,0.9541015028953552,0.9829115537751008,0.003814697265625,0.22125244140625,-0.7762908935546875,0.8072141885270536
1780936353.921805,-0.0307617150247097,-0.2260742038488388,0.9682616591453552,0.9947796084199072,0.064849853515625,0.03814697265625,-0.8373260498046875,0.840699475856478
1780936353.931426,-0.0297851525247097,-0.22998046875,0.9575194716453552,0.9852013550018037,0.186920166015625,-0.02288818359375,-0.9021759033203125,0.9216205173190058
1780936353.941028,-0.02685546875,-0.2080078125,0.9692382216453552,0.9916709114222662,0.370025634765625,-0.63323974609375,-0.9593963623046875,1.2076228411304781
1780936353.950628,-0.02783203125,-0.22802734375,0.9692382216453552,0.9960892639514957,0.6122589111328125,-0.8182525634765625,-0.9593963623046875,1.4017273671798558
1780936353.960228,-0.0219726525247097,-0.22412109375,0.9663085341453552,0.9922022199555961,0.736236572265625,-0.45013427734375,-1.0204315185546875,1.3363927723693518
1780936353.969828,-0.02392578125,-0.2216796875,0.9697265028953552,0.995029555981216,0.7953643798828125,-0.3910064697265625,-0.7762908935546875,1.1781842417764445
1780936353.979428,-0.0419921837747097,-0.2197265625,0.9580077528953552,0.9837794266876307,0.9784698486328125,-0.6961822509765625,-0.7190704345703125,1.3996911306182698
1780936353.989065,-0.0307617150247097,-0.2119140475988388,0.9799804091453552,1.0031029104681544,1.163482666015625,-1.48773193359375,-0.4138946533203125,1.9334805415107146
1780936353.998704,-0.0234375,-0.2080078125,0.9750975966453552,0.9973123329483262,1.102447509765625,-1.42669677734375,-0.4711151123046875,1.863545989589022
1780936354.008343,-0.0371093712747097,-0.2099609375,0.9643554091453552,0.9876447012261994,1.224517822265625,-1.48773193359375,-0.1049041748046875,1.9297137324412135
1780936354.017982,-0.0175781212747097,-0.20947265625,0.9682616591453552,0.9908170490231257,1.2836456298828125,-0.8792877197265625,-0.1049041748046875,1.5594543542760824
1780936354.027621,-0.0229492150247097,-0.21484375,0.9672850966453552,0.991123080942285,0.7953643798828125,-0.0858306884765625,-0.1659393310546875,0.8170111782966062
1780936354.0372,-0.0209960900247097,-0.21044921875,0.9736327528953552,0.9963385202728031,0.675201416015625,0.70953369140625,-0.3490447998046875,1.039791942506182
1780936354.04678,-0.02880859375,-0.216796875,0.9663085341453552,0.9907487084249786,0.492095947265625,0.64849853515625,-0.4711151123046875,0.9405627147920085
1780936354.05636,-0.0322265625,-0.21826171875,0.9467772841453552,0.9721439990947458,-0.240325927734375,0.58746337890625,-0.2880096435546875,0.697007408768253
1780936354.06594,-0.0224609375,-0.20751953125,0.9658202528953552,0.9881182168477851,-0.3643035888671875,0.2803802490234375,-0.0476837158203125,0.4621730473084621
1780936354.07552,-0.0322265587747097,-0.2158203125,0.9482421278953552,0.9730262542673598,-0.545501708984375,-0.26702880859375,0.0171661376953125,0.6075945814498726
1780936354.085191,-0.0419921875,-0.21728515625,0.9663085341453552,0.9913265688458911,-0.606536865234375,-0.20599365234375,-0.0476837158203125,0.6423348740716889
1780936354.094863,-0.0214843712747097,-0.21533203125,0.9663085341453552,0.9902432251994788,-0.8525848388671875,-0.2079010009765625,0.0743865966796875,0.8807139714111678
1780936354.104535,-0.0312499962747097,-0.2158203125,0.9638671278953552,0.9882281162727602,-0.6694793701171875,-0.6961822509765625,0.5054473876953125,1.09011440469123
1780936354.114207,-0.0249023400247097,-0.22021484375,0.9707030653953552,0.9956802424043989,-0.240325927734375,-0.99945068359375,0.6885528564453125,1.2372401774095445
1780936354.123879,-0.011718746274709702,-0.2060546875,0.9638671278953552,0.9857158330331388,-0.3032684326171875,-0.5741119384765625,0.6275177001953125,0.9029699464444074
1780936354.133386,-0.02392578125,-0.21044921875,0.9628905653953552,0.9859105221105489,-0.179290771484375,0.03814697265625,1.1157989501953125,1.130755353522264
1780936354.142898,-0.0312499962747097,-0.2075195163488388,0.9755858778953552,0.9979021580704575,-0.118255615234375,0.09918212890625,0.8716583251953125,0.8852173298750616
1780936354.15241,-0.02880859375,-0.2119140625,0.9672850966453552,0.9906452256743181,-0.118255615234375,-0.02288818359375,0.8716583251953125,0.879941188583066
1780936354.161922,-0.0219726525247097,-0.2216796725988388,0.9555663466453552,0.9811889306059517,0.0019073486328125,0.4024505615234375,0.9288787841796875,1.0123170887367612
1780936354.171434,-0.0278320275247097,-0.21533203125,0.9687499403953552,0.9927834368352403,-0.057220458984375,0.64849853515625,0.5054473876953125,0.8241975447392452
1780936354.181038,-0.01416015625,-0.22314453125,0.9487304091453552,0.974722207138485,0.3070831298828125,0.7114410400390625,0.8716583251953125,1.166291832258455
1780936354.190641,-0.019531242549419403,-0.21923828125,0.9707030653953552,0.9953448319898575,0.064849853515625,0.70953369140625,0.3833770751953125,0.8090868584564267
1780936354.200244,-0.020019523799419403,-0.21728515625,0.9785155653953552,1.002549915056968,0.1239776611328125,0.4024505615234375,0.2002716064453125,0.46631065962368773
1780936354.209847,-0.0244140587747097,-0.21630859375,0.9707030653953552,0.9948114872496682,0.492095947265625,0.46539306640625,0.0171661376953125,0.6775277144572313
1780936354.21945,-0.015624996274709702,-0.2001953125,0.9731444716453552,0.9936460468141938,0.736236572265625,-0.08392333984375,-0.1659393310546875,0.7593571484504795
1780936354.229041,-0.0205078087747097,-0.2119140475988388,0.9731444716453552,0.9961617822845747,0.186920166015625,0.03814697265625,-0.2880096435546875,0.3454618571805629
1780936354.23863,-0.029296867549419403,-0.21875,0.9575194716453552,0.9826257718624157,0.308990478515625,0.64849853515625,-0.2880096435546875,0.7739347651408451
1780936354.248219,-0.0263671837747097,-0.2221679538488388,0.9584960341453552,0.9842603698056541,-0.057220458984375,0.16021728515625,-0.8373260498046875,0.8544347096594003
1780936354.257808,-0.0356445275247097,-0.20361328125,0.9667968153953552,0.9886480581594503,-0.118255615234375,0.34332275390625,-0.9021759033203125,0.972510290133762
1780936354.267397,-0.0258789025247097,-0.20654296875,0.9619140028953552,0.9841789799127557,-0.1811981201171875,0.4024505615234375,-0.9593963623046875,1.0560495221380481
1780936354.275396,-0.0366210900247097,-0.21044921875,0.9521483778953552,0.9758158183980414,-0.484466552734375,0.22125244140625,-1.0204315185546875,1.1510608010033097
1780936354.283395,-0.030761711299419403,-0.193359375,0.9521483778953552,0.972070298029528,-0.545501708984375,0.28228759765625,-1.0814666748046875,1.2437156310863502
1780936354.291394,-0.025390617549419403,-0.212890625,0.9633788466453552,0.9869477715847816,-0.728607177734375,0.03814697265625,-1.2645721435546875,1.4599542175093658
1780936354.299393,-0.0209960900247097,-0.2221679538488388,0.9653319716453552,0.9907902154313063,-0.606536865234375,-0.38909912109375,-1.3904571533203125,1.5660958432177445
1780936354.310053,-0.0336913987994194,-0.20947265625,0.9633788466453552,0.9864647516425648,-0.240325927734375,-0.51116943359375,-1.3904571533203125,1.5008070617509668
1780936354.320713,-0.0380859337747097,-0.21142578125,0.9658202528953552,0.9894241558762917,-0.057220458984375,-0.51116943359375,-1.3904571533203125,1.4825449288256207
1780936354.331373,-0.0263671837747097,-0.2353515625,0.9648436903953552,0.9934832324942021,0.1239776611328125,-1.1196136474609375,-0.9021759033203125,1.4432001041340625
1780936354.342036,-0.02783203125,-0.21435546875,0.9741210341453552,0.997814951837739,0.4329681396484375,-1.2454986572265625,-1.0814666748046875,1.705373414773699
1780936354.352701,-0.0253906212747097,-0.21533203125,0.9707030653953552,0.9946240538509543,0.431060791015625,-0.87738037109375,-0.7762908935546875,1.248293744495885
1780936354.363366,-0.01904296875,-0.23095703125,0.9785155653953552,1.0055826652561284,0.553131103515625,-1.06048583984375,-1.0204315185546875,1.5722164985285398
1780936354.371518,-0.0341796800494194,-0.22119140625,0.9648436903953552,0.9904631419809933,0.736236572265625,-1.12152099609375,-0.8373260498046875,1.581445082417368
1780936354.379671,-0.012207027524709702,-0.2211913913488388,0.9628905653953552,0.9880449807853947,0.492095947265625,-0.93841552734375,-0.8373260498046875,1.3505173219757765
1780936354.387824,-0.0214843712747097,-0.21337890625,0.9643554091453552,0.987913706246361,0.370025634765625,-0.81634521484375,-1.0204315185546875,1.358167502277174
1780936354.395977,-0.0166015587747097,-0.21484375,0.9780272841453552,1.0014843070166162,0.370025634765625,-0.32806396484375,-0.9593963623046875,1.0793453179664847
1780936354.406548,-0.01904296875,-0.20703125,0.9741210341453552,0.9960604210085814,0.553131103515625,-0.32806396484375,-0.6542205810546875,0.9173791753582307
1780936354.417119,-0.0209960900247097,-0.21826171875,0.9589843153953552,0.9837326521176004,0.675201416015625,-0.14495849609375,-0.5931854248046875,0.9103729268711721
1780936354.42769,-0.024414055049419403,-0.20263671875,0.9648436903953552,0.9861952305529827,0.431060791015625,0.03814697265625,-0.7190704345703125,0.8392442355756703
1780936354.435752,-0.0385742112994194,-0.203125,0.9633788466453552,0.9853154507903076,0.3681182861328125,-0.0858306884765625,-0.4711151123046875,0.6040094607798608
1780936354.443814,-0.02294921875,-0.20751953125,0.9682616591453552,0.9905158570474131,0.247955322265625,0.09918212890625,-0.2307891845703125,0.3529625819387314
1780936354.451876,-0.02880859375,-0.21484375,0.9604491591453552,0.9846067028468448,0.003814697265625,0.46539306640625,-0.3490447998046875,0.5817538400775151
1780936354.459938,-0.033203125,-0.20947265625,0.9506835341453552,0.974053603926036,-0.057220458984375,0.09918212890625,-0.2880096435546875,0.3099368167889331
1780936354.470445,-0.0175781212747097,-0.201171875,0.9682616591453552,0.9890954221962005,-0.484466552734375,0.22125244140625,-0.1049041748046875,0.542830884749576
1780936354.480952,-0.0351562425494194,-0.20849609375,0.9614257216453552,0.9844013412935266,-0.606536865234375,0.03814697265625,0.0171661376953125,0.6079776613450147
1780936354.491459,-0.0283203087747097,-0.20556640625,0.9692382216453552,0.9912024604317151,-0.606536865234375,-0.02288818359375,0.2574920654296875,0.6593276890862464
1780936354.499509,-0.0209960900247097,-0.20458984375,0.9765624403953552,0.9979839878239063,-0.6694793701171875,0.0972747802734375,0.1392364501953125,0.6906893650207331
1780936354.50756,-0.0258789025247097,-0.21826171875,0.9516600966453552,0.9767112342010992,-0.240325927734375,-0.26702880859375,0.2002716064453125,0.4113023857316801
1780936354.515611,-0.02685546875,-0.21240234375,0.9716796278953552,0.9949860657813914,-0.240325927734375,-0.14495849609375,0.2002716064453125,0.3447872292868979
1780936354.531658,-0.020019523799419403,-0.2119140625,0.9731444716453552,0.9961518528378728,0.003814697265625,-0.02288818359375,-0.3490447998046875,0.34981522713304514
1780936354.539653,-0.0214843712747097,-0.21826171875,0.9765624403953552,1.0008865850193545,0.370025634765625,0.09918212890625,0.0171661376953125,0.38347195642113663
1780936354.547648,-0.029785148799419403,-0.2080078125,0.9604491591453552,0.9831668182221461,0.492095947265625,-0.02288818359375,-0.2880096435546875,0.5706416082305708
1780936354.555643,-0.0209960900247097,-0.21484375,0.9575194716453552,0.9815509213944982,0.370025634765625,0.34332275390625,-0.3490447998046875,0.6136951653746098
1780936354.563796,-0.0229492150247097,-0.21044921875,0.9726561903953552,0.9954273478547498,0.492095947265625,-0.32806396484375,-0.0476837158203125,0.5933448601771877
1780936354.571949,-0.02685546875,-0.20751953125,0.9648436903953552,0.98727347728364,0.553131103515625,-0.57220458984375,-0.1049041748046875,0.8027309612853609
1780936354.580102,-0.02783203125,-0.2314453125,0.9682616591453552,0.9959278062252503,0.6122589111328125,-0.5741119384765625,0.2002716064453125,0.8628871354418488
1780936354.588255,-0.0214843712747097,-0.2041015625,0.9653319716453552,0.9869067035463484,0.858306884765625,-0.02288818359375,0.4405975341796875,0.9650599797471212
1780936354.597686,-0.0166015587747097,-0.21533203125,0.9658202528953552,0.9896728026670476,0.6732940673828125,0.5855560302734375,0.2574920654296875,0.9287103582504744
1780936354.607117,-0.02685546875,-0.203125,0.9643554091453552,0.9858815025015368,0.4901885986328125,1.2569427490234375,0.5054473876953125,1.44071752896958
1780936354.616548,-0.0209960900247097,-0.21826171875,0.9716796278953552,0.9961126005301237,0.370025634765625,1.07574462890625,-0.1659393310546875,1.149644005157782
1780936354.625979,-0.0312499962747097,-0.19921875,0.9599608778953552,0.9809126157351392,0.553131103515625,1.19781494140625,-0.0476837158203125,1.3202228555387547
1780936354.63541,-0.02783203125,-0.2138671875,0.9487304091453552,0.9729353447633478,0.431060791015625,0.52642822265625,-0.6542205810546875,0.9438986427766318
1780936354.643404,-0.024414055049419403,-0.2216796875,0.9638671278953552,0.9893319817792684,-0.118255615234375,0.52642822265625,-0.5931854248046875,0.8018603446637054
1780936354.651398,-0.0322265625,-0.21826171875,0.9716796278953552,0.9964125794414312,-0.240325927734375,0.28228759765625,-0.7190704345703125,0.8090149128446663
1780936354.659392,-0.0244140587747097,-0.21142578125,0.9633788466453552,0.9866081843400463,0.003814697265625,-0.02288818359375,-0.9593963623046875,0.9596769252550135
1780936354.667386,-0.0415039025247097,-0.2099609375,0.9682616591453552,0.9916334049292488,-0.545501708984375,-0.26702880859375,-0.9593963623046875,1.135481342483151
1780936354.67538,-0.0205078087747097,-0.20556640625,0.9702147841453552,0.9919651430234322,-0.789642333984375,-0.93841552734375,-0.9593963623046875,1.5571127440181096
1780936354.683374,-0.02783203125,-0.22119140625,0.9775390028953552,1.0026379019087592,-0.8525848388671875,-0.5130767822265625,-0.4711151123046875,1.1009532873687284
1780936354.692994,-0.005859367549419403,-0.2080078125,0.9589843153953552,0.9813014314793455,-1.1577606201171875,-0.8792877197265625,-0.4138946533203125,1.511577100780246
1780936354.702614,-0.03271484375,-0.20849609375,0.9707030653953552,0.9933807544333315,-1.033782958984375,-0.69427490234375,0.0743865966796875,1.2475007864031589
1780936354.712234,-0.02392578125,-0.2099609375,0.9643554091453552,0.9872372528588086,-0.9746551513671875,-0.7572174072265625,-0.0476837158203125,1.2351536757213433
1780936354.721854,-0.030761711299419403,-0.21240234375,0.9726561903953552,0.9960527612666747,-0.8525848388671875,-0.3299713134765625,-0.0476837158203125,0.915453828403196
1780936354.731474,-0.029785148799419403,-0.22216796875,0.9707030653953552,0.9962480627812752,-0.911712646484375,-0.20599365234375,0.1392364501953125,0.9450080018859377
1780936354.742118,-0.02685546875,-0.21826171875,0.9692382216453552,0.9938722877572033,-0.3643035888671875,0.1583099365234375,0.3223419189453125,0.5115500499197649
1780936354.752762,-0.029296867549419403,-0.23388671875,0.9677733778953552,0.9960655674295924,-0.057220458984375,0.16021728515625,0.5054473876953125,0.5333111860042289
1780936354.763406,-0.02783203125,-0.21435546875,0.9550780653953552,0.9792328629829923,-0.057220458984375,0.34332275390625,0.2574920654296875,0.43295133448853174
1780936354.771424,-0.01806640625,-0.21826171875,0.9584960341453552,0.9831984643900071,0.186920166015625,0.46539306640625,0.2002716064453125,0.5400357127732454
1780936354.779442,-0.0292968712747097,-0.220703125,0.9707030653953552,0.9959079361161812,0.308990478515625,0.03814697265625,0.1392364501953125,0.3410529231646363
1780936354.78746,-0.0214843712747097,-0.2216796725988388,0.9628905653953552,0.9883125499456054,0.370025634765625,-0.20599365234375,0.3223419189453125,0.5322186279142885
1780936354.795478,-0.0351562462747097,-0.20654296875,0.9594725966453552,0.9820812712324637,0.1239776611328125,-0.6961822509765625,0.7457733154296875,1.0277246834837355
1780936354.80507,-0.0185546837747097,-0.21630859375,0.9687499403953552,0.9927789940546115,0.003814697265625,-0.32806396484375,0.3223419189453125,0.4599400283227978
1780936354.814662,-0.0170898400247097,-0.21142578125,0.9721679091453552,0.9950393797138356,-0.3643035888671875,-0.0247955322265625,0.2002716064453125,0.41646205064579106
1780936354.824254,-0.020996086299419403,-0.2177734375,0.9619140028953552,0.9864809449181593,-0.118255615234375,0.03814697265625,0.5054473876953125,0.520496535805295
1780936354.833846,-0.012695308774709702,-0.21142578125,0.9648436903953552,0.9878184948348487,-0.301361083984375,0.52642822265625,0.2574920654296875,0.6589744610442064
1780936354.843438,-0.014160152524709702,-0.2060546875,0.9736327528953552,0.9952988403845519,-0.240325927734375,0.09918212890625,-0.1659393310546875,0.3084307180334689
1780936354.854114,-0.0170898400247097,-0.21923828125,0.9707030653953552,0.9952999184996769,-0.2384185791015625,0.4024505615234375,-0.5359649658203125,0.7113847889279802
1780936354.864786,-0.0224609337747097,-0.201171875,0.9672850966453552,0.9882383695390813,0.064849853515625,0.22125244140625,-0.5931854248046875,0.6364173901850433
1780936354.875458,-0.0200195275247097,-0.22021484375,0.9643554091453552,0.9893819859073921,-0.118255615234375,0.64849853515625,-0.5931854248046875,0.8867940509695473
1780936354.886111,-0.0361328050494194,-0.2177734375,0.9716796278953552,0.9964397367368293,0.064849853515625,0.03814697265625,-1.1425018310546875,1.144976475298575
1780936354.896764,-0.02734375,-0.2177734375,0.9560546278953552,0.9809247689118442,0.064849853515625,-0.45013427734375,-0.9021759033203125,1.0103206083578617
1780936354.907417,-0.0273437462747097,-0.22021484375,0.9677733778953552,0.9928884976829768,-0.4863739013671875,-0.5741119384765625,-0.9593963623046875,1.2192643150014364
1780936354.915455,-0.033203125,-0.2236328125,0.9633788466453552,0.9895518604399471,-0.057220458984375,-0.51116943359375,-0.7762908935546875,0.9312335486777057
1780936354.923496,-0.03271484375,-0.21240234375,0.9628905653953552,0.9865816020783414,-0.1811981201171875,-0.3910064697265625,-0.3490447998046875,0.5545728900448762
1780936354.931537,-0.0205078087747097,-0.2099609375,0.9677733778953552,0.9904996095201678,0.186920166015625,-0.26702880859375,-0.4711151123046875,0.5728812984590828
1780936354.939578,-0.0322265625,-0.2177734375,0.9672850966453552,0.9920203020116811,-0.1811981201171875,-0.5741119384765625,0.0171661376953125,0.6022723245498612
1780936354.950181,-0.01904296875,-0.22021484375,0.9667968153953552,0.9917425544591958,-0.362396240234375,-0.14495849609375,0.0171661376953125,0.3906900009075571
1780936354.960784,-0.004882805049419403,-0.20361328125,0.9775390028953552,0.9985312775612928,-0.179290771484375,-0.14495849609375,0.0171661376953125,0.23119866481577817
1780936354.971387,-0.020019523799419403,-0.21728515625,0.9736327528953552,0.9977847252640873,-0.240325927734375,0.03814697265625,-0.4138946533203125,0.4801255326592894
1780936354.979393,-0.02392578125,-0.21240234375,0.9716796278953552,0.9949113015268105,0.125885009765625,0.34332275390625,-0.5931854248046875,0.6968403671101299
1780936354.987401,-0.011718746274709702,-0.2236328125,0.9702147841453552,0.9957237022463257,0.186920166015625,0.34332275390625,-0.5931854248046875,0.7104073549828984
1780936354.995409,-0.02685546875,-0.22216796875,0.9663085341453552,0.9918830604977728,-0.118255615234375,0.34332275390625,-0.5931854248046875,0.695502589560204
1780936355.003417,-0.0292968712747097,-0.205078125,0.9594725966453552,0.9815818904876877,0.064849853515625,0.16021728515625,-0.5931854248046875,0.6178543761798202
1780936355.013016,-0.0263671837747097,-0.220703125,0.9624022841453552,0.9877364295666997,-0.240325927734375,0.46539306640625,-0.9021759033203125,1.0432011399208794
1780936355.022615,-0.030273430049419403,-0.1982421875,0.9702147841453552,0.9907235602558164,-0.1811981201171875,0.2231597900390625,-0.5359649658203125,0.608187056102849
1780936355.032214,-0.0322265587747097,-0.20947265625,0.9575194716453552,0.9806940824675606,-0.1811981201171875,0.0972747802734375,-0.6542205810546875,0.6857840113962859
1780936355.041813,-0.019531242549419403,-0.216796875,0.9638671278953552,0.9881407767532574,-0.3643035888671875,0.0972747802734375,-0.5931854248046875,0.7028857915333585
1780936355.051412,-0.0219726525247097,-0.2138671875,0.9516600966453552,0.9756428193223065,-0.3643035888671875,0.2231597900390625,-0.1049041748046875,0.43991167595693986
1780936355.060999,-0.0185546875,-0.2265625,0.9575194716453552,0.9841333148585475,-0.301361083984375,0.16021728515625,-0.2307891845703125,0.41200937989044184
1780936355.070586,-0.025390617549419403,-0.21826171875,0.9775390028953552,1.001930817727896,-0.423431396484375,0.22125244140625,-0.1659393310546875,0.5057495941153203
1780936355.080173,-0.020019523799419403,-0.22265625,0.9648436903953552,0.9904039246150764,-0.118255615234375,-0.02288818359375,-0.0476837158203125,0.12954534432820838
1780936355.08976,-0.0166015587747097,-0.23388671875,0.9648436903953552,0.9929259568855675,0.125885009765625,0.34332275390625,-0.6542205810546875,0.7494812323927771
1780936355.099347,-0.0224609375,-0.2265625,0.9829100966453552,1.0089337531310023,0.553131103515625,-0.14495849609375,-0.5359649658203125,0.7837253523096873
1780936355.107363,-0.0185546875,-0.2275390625,0.9750975966453552,1.0014657379936418,0.797271728515625,-0.14495849609375,-0.7762908935546875,1.12217767135868
1780936355.115381,-0.013183590024709702,-0.220703125,0.9667968153953552,0.9917558967252506,0.980377197265625,0.16021728515625,-0.5931854248046875,1.1570125217913412
1780936355.123399,-0.0327148400247097,-0.21044921875,0.9648436903953552,0.9880700791573722,0.6122589111328125,0.2803802490234375,-0.8373260498046875,1.074518018455486
1780936355.131417,-0.0278320275247097,-0.20556640625,0.9697265028953552,0.9916661028553571,0.736236572265625,-0.08392333984375,-0.5359649658203125,0.9145194704864054
1780936355.139435,-0.0087890625,-0.22265625,0.9648436903953552,0.9902405769202853,0.919342041015625,0.03814697265625,-0.7190704345703125,1.1677787760422562
1780936355.147453,-0.0283203125,-0.2216796875,0.9643554091453552,0.9899117531871722,0.736236572265625,-0.32806396484375,-0.6542205810546875,1.038111180965686
1780936355.157035,-0.0283203125,-0.208984375,0.9658202528953552,0.9885773970696914,0.675201416015625,-0.69427490234375,-0.2307891845703125,0.995579348886144
1780936355.166617,-0.0219726525247097,-0.22021484375,0.9692382216453552,0.9941831346211116,0.370025634765625,-0.45013427734375,-0.2307891845703125,0.6267403654928518
1780936355.176199,-0.024902336299419403,-0.22265625,0.9482421278953552,0.9743505863562371,0.1850128173828125,0.4024505615234375,0.2002716064453125,0.4861120379240183
1780936355.185781,-0.0322265587747097,-0.22021484375,0.9619140028953552,0.987325517478639,-0.1811981201171875,0.8907318115234375,-0.1049041748046875,0.9150086363992854
1780936355.195363,-0.0175781212747097,-0.21533203125,0.9624022841453552,0.9863544142740968,-0.0553131103515625,1.0738372802734375,0.0171661376953125,1.0753979360986294
1780936355.205005,-0.012207027524709702,-0.2167968600988388,0.9687499403953552,0.9927871559834509,0.1239776611328125,0.8907318115234375,-0.2307891845703125,0.928459621219155
1780936355.214647,-0.02880859375,-0.22998046875,0.9697265028953552,0.9970408424422631,-0.3643035888671875,0.7686614990234375,-0.7190704345703125,1.1138311787769315
1780936355.224289,-0.0258789025247097,-0.2138671875,0.9648436903953552,0.988601152326241,-0.3643035888671875,0.5855560302734375,-0.7190704345703125,0.9963208616325554
1780936355.233931,-0.0209960900247097,-0.2216796725988388,0.9619140028953552,0.9873506276931309,-0.667572021484375,0.03814697265625,-0.6542205810546875,0.9354742989880077
1780936355.243573,-0.0205078087747097,-0.2099609375,0.9624022841453552,0.9852524153864409,-0.728607177734375,-0.20599365234375,-0.5359649658203125,0.9276638663000395
1780936355.253236,-0.0341796837747097,-0.2099609375,0.9560546278953552,0.9794346826506319,-1.0318756103515625,-0.7572174072265625,-0.0476837158203125,1.2807885125186593
1780936355.262897,-0.0356445275247097,-0.2211913913488388,0.9687499403953552,0.9943201752782145,-1.094818115234375,-0.63323974609375,0.5054473876953125,1.3620192154320885
1780936355.272558,-0.0395507737994194,-0.2080078125,0.9497069716453552,0.9730235586875374,-0.789642333984375,-0.69427490234375,0.5054473876953125,1.1666317831144197
1780936355.282219,-0.0170898400247097,-0.21142578125,0.9677733778953552,0.9907463018211217,-1.3408660888671875,-0.8792877197265625,0.6885528564453125,1.7450426351395902
1780936355.29188,-0.0126953125,-0.2041015625,0.9633788466453552,0.9848438561204252,-1.033782958984375,-0.51116943359375,1.1768341064453125,1.6477074710700266
1780936355.301378,-0.0327148400247097,-0.2211913913488388,0.9614257216453552,0.987084246964751,-0.8525848388671875,-0.5130767822265625,1.1768341064453125,1.541131793851223
1780936355.310877,-0.0219726525247097,-0.2167968600988388,0.9619140028953552,0.9862870905440527,-0.606536865234375,-0.32806396484375,1.1157989501953125,1.3116860261412808
1780936355.320376,-0.0234375,-0.22265625,0.9692382216453552,0.9947601984240038,-0.423431396484375,-0.26702880859375,1.2340545654296875,1.3317241465880088
1780936355.329875,-0.010742183774709702,-0.23388671875,0.9721679091453552,0.999964417012897,-0.1201629638671875,-0.0858306884765625,1.1157989501953125,1.125528028183514
1780936355.339374,-0.0170898400247097,-0.22412109375,0.9570311903953552,0.9830722387929165,0.125885009765625,0.34332275390625,0.5054473876953125,0.6238546391279611
1780936355.349083,-0.0249023400247097,-0.2255859375,0.9589843153953552,0.9854745348870048,0.064849853515625,0.22125244140625,-0.1049041748046875,0.2533042285882266
1780936355.35879,-0.015624992549419403,-0.21728515625,0.9814452528953552,1.005331668629604,-0.057220458984375,-0.20599365234375,-0.0476837158203125,0.2190463478050538
1780936355.368497,-0.037109375,-0.232421875,0.9677733778953552,0.9959831046028804,0.3070831298828125,0.2803802490234375,-0.5931854248046875,0.724418443236909
1780936355.378204,-0.0307617150247097,-0.2216796725988388,0.9599608778953552,0.9857043407860244,0.431060791015625,-0.14495849609375,-0.1659393310546875,0.48410973211830316
1780936355.387911,-0.0317382775247097,-0.21484375,0.9575194716453552,0.9818394439796653,0.186920166015625,-0.26702880859375,-0.2880096435546875,0.43496331783588893
1780936355.395827,-0.0258789025247097,-0.21435546875,0.9628905653953552,0.9868010060322712,0.247955322265625,-0.08392333984375,-0.1659393310546875,0.3099368167889331
1780936355.40374,-0.0346679612994194,-0.208984375,0.9716796278953552,0.9945037133171775,0.3070831298828125,0.2231597900390625,0.4405975341796875,0.5815724612411799
1780936355.411653,-0.0312499962747097,-0.2158203125,0.9804686903953552,1.0044271115418728,0.553131103515625,0.16021728515625,0.3223419189453125,0.6599453832315206
1780936355.419566,-0.01904296875,-0.22119140625,0.9677733778953552,0.9929116696970844,0.003814697265625,0.22125244140625,0.0743865966796875,0.23345355107395765
1780936355.427479,-0.02734375,-0.20751953125,0.9697265028953552,0.9920592355963114,0.370025634765625,0.22125244140625,0.2002716064453125,0.4753738839693615
1780936355.435392,-0.01708984375,-0.212890625,0.9570311903953552,0.9805728837581839,0.0019073486328125,-0.0858306884765625,0.0743865966796875,0.11359538207495191
1780936355.445003,-0.0239257775247097,-0.2060546875,0.9589843153953552,0.9811635410293141,-0.118255615234375,0.09918212890625,-0.0476837158203125,0.16154015594665264
1780936355.454614,-0.0307617150247097,-0.2197265625,0.9667968153953552,0.9919284891754689,-0.240325927734375,-0.20599365234375,-0.2307891845703125,0.391731520383458
1780936355.464225,-0.0219726525247097,-0.2119140475988388,0.9794921278953552,1.0023947274590312,-0.3032684326171875,-0.3910064697265625,-0.2880096435546875,0.5725446326450131
1780936355.473836,-0.012695308774709702,-0.2211913913488388,0.9628905653953552,0.9880511340002132,-0.240325927734375,-0.51116943359375,0.0171661376953125,0.5651065542579715
1780936355.483447,-0.0214843712747097,-0.2070312350988388,0.9765624403953552,0.9984977268409537,-0.1811981201171875,-0.5130767822265625,-0.6542205810546875,0.8509319078924583
1780936355.491423,-0.0268554650247097,-0.208984375,0.9550780653953552,0.9780438619996388,0.370025634765625,-0.81634521484375,-0.7190704345703125,1.1490869288505243
1780936355.499399,-0.0292968712747097,-0.21044921875,0.9604491591453552,0.9836715750909915,0.247955322265625,-0.45013427734375,-0.4711151123046875,0.6971744104035147
1780936355.507375,-0.005371086299419403,-0.2119140625,0.9716796278953552,0.9945339198439366,0.431060791015625,-0.32806396484375,-0.3490447998046875,0.6444157375877098
1780936355.515351,-0.0195312462747097,-0.21484375,0.9633788466453552,0.9872376150951911,0.1239776611328125,-0.0858306884765625,-0.6542205810546875,0.6713731721031576
1780936355.524962,-0.0268554650247097,-0.21044921875,0.9624022841453552,0.9855091304510455,0.308990478515625,-0.14495849609375,-0.7190704345703125,0.7959587748597378
1780936355.534573,-0.0170898400247097,-0.2109375,0.9731444716453552,0.9958899809879793,0.1239776611328125,-0.2651214599609375,-0.3490447998046875,0.45551303083718236
1780936355.544184,-0.029785148799419403,-0.216796875,0.9609374403953552,0.9855398543196242,0.247955322265625,-0.26702880859375,-0.2880096435546875,0.4644736604365695
1780936355.553795,-0.013671875,-0.22412109375,0.9672850966453552,0.99300435196525,0.1239776611328125,-0.0247955322265625,-0.6542205810546875,0.6663256317701532
1780936355.563406,-0.0268554650247097,-0.2255859375,0.9584960341453552,0.9850506985286703,0.064849853515625,-0.08392333984375,-0.4138946533203125,0.42726738059284286
1780936355.571396,-0.0224609337747097,-0.2099609375,0.9624022841453552,0.9852950042246778,0.1850128173828125,0.0972747802734375,-0.4138946533203125,0.4636819055347245
1780936355.579386,-0.0380859375,-0.20751953125,0.9638671278953552,0.9866887729789544,-0.1811981201171875,-0.0247955322265625,-0.2880096435546875,0.34117023893197274
1780936355.587376,-0.015136715024709702,-0.21435546875,0.9868163466453552,1.0099425177361618,0.125885009765625,0.34332275390625,-0.4138946533203125,0.552291891195774
1780936355.595366,-0.02783203125,-0.22412109375,0.9672850966453552,0.9933002289436017,0.1850128173828125,0.4024505615234375,-0.4138946533203125,0.6062218909884382
1780936355.606065,-0.014648430049419403,-0.208984375,0.9560546278953552,0.9787387276577848,0.247955322265625,0.58746337890625,-0.5931854248046875,0.8708983933826699
1780936355.616764,-0.0058593712747097015,-0.21630859375,0.9643554091453552,0.9883345056759594,-0.0553131103515625,0.4024505615234375,-0.4711151123046875,0.622073503445656
1780936355.627463,-0.020019523799419403,-0.20751953125,0.9746093153953552,0.9966586450930821,-0.118255615234375,0.16021728515625,-0.0476837158203125,0.20476255944808855
1780936355.63543,-0.009765621274709702,-0.21484375,0.9638671278953552,0.9875692606142541,0.1239776611328125,0.0972747802734375,-0.5931854248046875,0.6137603698007273
1780936355.643399,-0.0190429650247097,-0.2255859375,0.9609374403953552,0.9872448602389698,0.247955322265625,0.46539306640625,-0.8373260498046875,0.9895390147843511
1780936355.651368,-0.0209960900247097,-0.20947265625,0.9672850966453552,0.9899293347027204,0.247955322265625,0.58746337890625,-0.5931854248046875,0.8708983933826699
1780936355.667462,-0.0214843712747097,-0.220703125,0.9628905653953552,0.9880939674551312,0.003814697265625,0.22125244140625,-0.9593963623046875,0.9845854837173468
1780936355.675589,-0.02294921875,-0.21875,0.9809569716453552,1.0053132891595842,0.1239776611328125,0.2231597900390625,-0.7762908935546875,0.8171892704668705
1780936355.683716,-0.0263671837747097,-0.2221679538488388,0.9702147841453552,0.9956759289406405,0.6122589111328125,-0.0247955322265625,-0.8373260498046875,1.037588890824038
