timestamp,accel_x,accel_y,accel_z,accel_rms,gyro_x,gyro_y,gyro_z,gyro_rms
1785431031.823999,0.07470703125,-0.43701171875,0.8945311903953552,0.9983718913476826,0.469207763671875,-0.12969970703125,-0.1049041748046875,0.4979787398929864
1785431031.834834,0.07568359375,-0.44970703125,0.8774413466453552,0.9888719518327022,0.7114410400390625,-0.3147125244140625,-0.2307891845703125,0.8114530018365602
1785431031.845669,0.0576171912252903,-0.427734375,0.8906249403953552,0.9896914775502325,0.957489013671875,-0.194549560546875,0.0743865966796875,0.9798816809068882
1785431031.856169,0.064453125,-0.4365234375,0.8959960341453552,0.9987571326470147,1.140594482421875,-0.194549560546875,0.4405975341796875,1.2381161060116406
1785431031.866671,0.06884765625,-0.43408203125,0.8959960341453552,0.9979860233637787,1.079559326171875,-0.072479248046875,0.5664825439453125,1.2213124304275569
1785431031.877173,0.06494140625,-0.44384765625,0.8906249403953552,0.9972115686546039,1.5048980712890625,-0.3757476806640625,0.6275177001953125,1.673225325098917
1785431031.887859,0.07763671875,-0.43505859375,0.8852538466453552,0.9894330766122549,1.3256072998046875,-0.4367828369140625,0.8716583251953125,1.6455400924318035
1785431031.898545,0.07421875,-0.42236328125,0.8749999403953552,0.9744352517698158,1.3828277587890625,-0.6198883056640625,0.8716583251953125,1.7482169081263745
1785431031.909231,0.07470703125,-0.427734375,0.8735350966453552,0.9755005900285448,0.835418701171875,-0.560760498046875,0.6885528564453125,1.2192135902115269
1785431031.91731,0.06982421875,-0.42431640625,0.8789061903953552,0.9784661085864136,0.774383544921875,-0.072479248046875,0.6275177001953125,0.9993505791771095
1785431031.925391,0.078125,-0.423828125,0.8881835341453552,0.9872202315050826,0.469207763671875,-0.194549560546875,0.3833770751953125,0.6363830912149195
1785431031.933472,0.083984375,-0.42822265625,0.8642577528953552,0.9681784350054876,0.164031982421875,0.110626220703125,0.3223419189453125,0.37821814429460315
1785431031.941553,0.0791015625,-0.4267578125,0.8749999403953552,0.9767313773047336,-0.446319580078125,-0.255584716796875,0.3833770751953125,0.6414847596058421
1785431031.952109,0.076171875,-0.43115234375,0.8818358778953552,0.98454507951927,-0.568389892578125,-0.255584716796875,0.0171661376953125,0.6234463038052962
1785431031.962665,0.07177734375,-0.421875,0.8955077528953552,0.9925042257826887,-0.6313323974609375,0.1125335693359375,-0.1049041748046875,0.6498071146138013
1785431031.973221,0.0712890625,-0.43603515625,0.8916015028953552,0.9950688558503612,-0.690460205078125,-0.011444091796875,-0.0476837158203125,0.6921993923632223
1785431031.983872,0.060546875,-0.42626953125,0.8974608778953552,0.9953932211428115,-0.690460205078125,-0.072479248046875,-0.0476837158203125,0.6958895551367323
1785431031.994525,0.06591796875,-0.44140625,0.8994140028953552,1.0040568732633797,-0.568389892578125,0.110626220703125,0.0743865966796875,0.5838138371584006
1785431032.005178,0.0791015625,-0.43212890625,0.8901366591453552,0.9926407813308987,-0.385284423828125,-0.194549560546875,0.1392364501953125,0.4535200192015168
1785431032.013192,0.07373046875,-0.4306640625,0.8955077528953552,0.9964144982118572,-0.2040863037109375,-0.3147125244140625,-0.1659393310546875,0.4101597907844479
1785431032.021207,0.08056640625,-0.43994140625,0.8852538466453552,0.9918234519054617,-0.3223419189453125,-0.0095367431640625,0.0171661376953125,0.32293952756344046
1785431032.029222,0.07177734375,-0.43408203125,0.8925780653953552,0.9951255195978278,-0.019073486328125,-0.072479248046875,0.0743865966796875,0.10559547832997443
1785431032.037237,0.0703125,-0.42333984375,0.8959960341453552,0.9934633179774324,0.3452301025390625,-0.3757476806640625,-0.2880096435546875,0.5859348922909883
1785431032.048002,0.07177734375,-0.43603515625,0.8940429091453552,0.9972920173925276,0.1010894775390625,-0.1316070556640625,-0.1049041748046875,0.1963272407516
1785431032.058767,0.0751953125,-0.4404296875,0.8906249403953552,0.996416293076117,0.469207763671875,-0.072479248046875,-0.1659393310546875,0.5029364059980941
1785431032.069532,0.07373046875,-0.42919921875,0.8940429091453552,0.9944651199467958,0.5283355712890625,-0.3757476806640625,-0.2880096435546875,0.7094183181975642
1785431032.077459,0.07080078125,-0.44091796875,0.9042968153953552,1.0085505124317857,0.469207763671875,-0.377655029296875,-0.3490447998046875,0.6961404448197791
1785431032.085388,0.0624999962747097,-0.42138671875,0.8847655653953552,0.9819791861249366,0.957489013671875,-0.12969970703125,0.0743865966796875,0.9690926638211222
1785431032.093317,0.07568359375,-0.44775390625,0.8862304091453552,0.995799128850288,1.079559326171875,-0.377655029296875,0.3223419189453125,1.1882659519599317
1785431032.101246,0.0581054650247097,-0.43212890625,0.8911132216453552,0.9920657289079807,0.957489013671875,-0.377655029296875,-0.0476837158203125,1.0303796723586873
1785431032.112011,0.0751953125,-0.42626953125,0.8837890028953552,0.9840950411077345,0.957489013671875,-0.255584716796875,0.3223419189453125,1.0421195092079532
1785431032.122776,0.056640625,-0.4296875,0.8955077528953552,0.9948736822091181,0.652313232421875,-0.072479248046875,0.5054473876953125,0.8283977645540402
1785431032.133541,0.07080078125,-0.4306640625,0.8930663466453552,0.9940079400412736,0.896453857421875,-0.072479248046875,0.2574920654296875,0.9355131873165906
1785431032.144187,0.0732421875,-0.43212890625,0.8730468153953552,0.9768881980649464,0.7114410400390625,-0.4978179931640625,0.2574920654296875,0.9056893902045027
1785431032.154834,0.07275390625,-0.43505859375,0.8837890028953552,0.9877510377160469,0.774383544921875,-0.61798095703125,0.5054473876953125,1.1122263257210938
1785431032.165481,0.072265625,-0.431640625,0.8847655653953552,0.9870896896515503,0.4062652587890625,-0.4367828369140625,0.2002716064453125,0.6292371758485242
1785431032.176036,0.07177734375,-0.42529296875,0.8828124403953552,0.9825395163863878,0.652313232421875,-0.560760498046875,0.0743865966796875,0.8634224082846361
1785431032.186591,0.06689453125,-0.43408203125,0.8857421278953552,0.9886562624562063,0.469207763671875,-0.743865966796875,0.1392364501953125,0.8904376963671312
1785431032.197146,0.0712890625,-0.41845703125,0.8964843153953552,0.9919034959029891,0.6542205810546875,-0.6198883056640625,-0.1049041748046875,0.9073428051547263
1785431032.205434,0.06787109375,-0.42724609375,0.8945311903953552,0.9936456916736399,0.2231597900390625,-0.3757476806640625,0.1392364501953125,0.4586648018735387
1785431032.213723,0.0751953125,-0.42822265625,0.8867186903953552,0.987572283047794,0.7114410400390625,-0.4978179931640625,0.1392364501953125,0.8794076965962654
1785431032.222012,0.0595703125,-0.43603515625,0.8876952528953552,0.9907967206396366,0.957489013671875,-0.377655029296875,-0.1049041748046875,1.0346078572807265
1785431032.230301,0.06298828125,-0.4296875,0.8793944716453552,0.9807820899626444,0.774383544921875,-0.682830810546875,0.1392364501953125,1.0417843248680907
1785431032.240624,0.0673828125,-0.42919921875,0.8784179091453552,0.9799849161611204,0.774383544921875,-0.61798095703125,0.1392364501953125,1.0004784490242762
1785431032.250947,0.080078125,-0.42041015625,0.8950194716453552,0.9920771442816309,0.164031982421875,-0.560760498046875,0.4405975341796875,0.7317684159296919
1785431032.26127,0.07177734375,-0.431640625,0.8759765028953552,0.9791835628986899,0.3452301025390625,-0.3757476806640625,0.2002716064453125,0.5481595201870894
1785431032.272027,0.06103515625,-0.423828125,0.8842772841453552,0.9824977786717702,0.0400543212890625,-0.3757476806640625,0.4405975341796875,0.5804453939033116
1785431032.282784,0.07763671875,-0.42431640625,0.8984374403953552,0.9966251587308737,-0.080108642578125,0.110626220703125,0.3833770751953125,0.40698100337494697
1785431032.293541,0.083984375,-0.4208984375,0.8867186903953552,0.9851288777771849,-0.2651214599609375,-0.3147125244140625,0.6885528564453125,0.8021461199020351
1785431032.301719,0.078125,-0.4296875,0.8818358778953552,0.9840576095050136,-0.690460205078125,-0.255584716796875,0.6885528564453125,1.0080495416276247
1785431032.3099,0.07763671875,-0.43701171875,0.8818358778953552,0.9872391898453827,-0.751495361328125,0.110626220703125,0.3223419189453125,0.8251592279760871
1785431032.318081,0.07861328125,-0.42236328125,0.8833007216453552,0.982237727943884,-1.0585784912109375,-0.0095367431640625,0.1392364501953125,1.0677388072874348
1785431032.326262,0.08447265625,-0.44091796875,0.8749999403953552,0.9834475992712738,-1.361846923828125,-0.072479248046875,-0.0476837158203125,1.364607644010541
1785431032.336574,0.08544921875,-0.4287109375,0.9008788466453552,1.0013377718083842,-1.300811767578125,0.415802001953125,-0.4711151123046875,1.444628674968004
1785431032.346886,0.0693359375,-0.435546875,0.8842772841453552,0.9881573092411728,-1.178741455078125,0.05340576171875,-0.5931854248046875,1.320663674636799
1785431032.357198,0.07861328125,-0.43212890625,0.8959960341453552,0.9978598763403194,-1.2416839599609375,0.2956390380859375,-1.3256072998046875,1.8402217829816405
1785431032.365258,0.07275390625,-0.4287109375,0.8881835341453552,0.9889166745149442,-1.1196136474609375,0.3566741943359375,-1.0204315185546875,1.5562877897567018
1785431032.373319,0.07177734375,-0.42041015625,0.8930663466453552,0.9896788297546012,-0.995635986328125,0.232696533203125,-1.5087127685546875,1.8225402359992717
1785431032.38138,0.06787109375,-0.43017578125,0.8881835341453552,0.9892055794766842,-0.751495361328125,0.232696533203125,-1.5087127685546875,1.701501446564884
1785431032.389441,0.0654296875,-0.4404296875,0.8911132216453552,0.9961637051352852,-0.385284423828125,0.415802001953125,-1.1425018310546875,1.2754002611086883
1785431032.400029,0.07177734375,-0.443359375,0.8857421278953552,0.993105553103389,-0.202178955078125,0.293731689453125,-1.0814666748046875,1.138738250863023
1785431032.410617,0.060546875,-0.42822265625,0.8896483778953552,0.9891990718201812,0.0400543212890625,0.2956390380859375,-0.8373260498046875,0.8888879024803003
1785431032.421205,0.06005859375,-0.435546875,0.8872069716453552,0.9901738865177244,-0.080108642578125,0.415802001953125,-0.7762908935546875,0.8842715933806036
1785431032.429246,0.05810546875,-0.43994140625,0.8759765028953552,0.9819671685227878,-0.3871917724609375,0.1735687255859375,-0.3490447998046875,0.5494322919465721
1785431032.437287,0.06787109375,-0.44482421875,0.8867186903953552,0.9943566296102334,-0.2651214599609375,0.0514984130859375,-0.2307891845703125,0.355253603495895
1785431032.445328,0.05859375,-0.44091796875,0.8706054091453552,0.9776480251802485,-0.1430511474609375,0.2956390380859375,0.1392364501953125,0.3567251893170162
1785431032.453369,0.08251953125,-0.4375,0.8749999403953552,0.9817538483395901,-0.507354736328125,0.05340576171875,0.3833770751953125,0.6381527917706334
1785431032.461354,0.07080078125,-0.4326171875,0.8867186903953552,0.989161471875282,-0.6313323974609375,0.1125335693359375,0.5054473876953125,0.816530135414044
1785431032.469339,0.07666015625,-0.4443359375,0.8896483778953552,0.9973893127571175,-0.873565673828125,0.293731689453125,0.4405975341796875,1.0215289907804839
1785431032.477324,0.076171875,-0.44189453125,0.8818358778953552,0.9892964403216786,-0.812530517578125,0.598907470703125,0.3223419189453125,1.0596227220898657
1785431032.485309,0.08447265625,-0.4482421875,0.8964843153953552,1.0058532775999662,-0.8106231689453125,0.1735687255859375,-0.1049041748046875,0.8356081081607093
1785431032.49596,0.07275390625,-0.4296875,0.8886718153953552,0.9897788005453341,-0.812530517578125,0.232696533203125,-0.3490447998046875,0.9144319498088543
1785431032.506611,0.07470703125,-0.443359375,0.8979491591453552,1.0042217724827667,-0.5702972412109375,0.0514984130859375,-0.5359649658203125,0.7843146527191398
1785431032.517262,0.07763671875,-0.43310546875,0.8847655653953552,0.9881386101498041,0.102996826171875,0.110626220703125,-0.5359649658203125,0.5568706775323197
1785431032.525251,0.0712890625,-0.44091796875,0.8906249403953552,0.9963451059010552,0.102996826171875,-0.072479248046875,-0.5359649658203125,0.5505633770835912
1785431032.53324,0.0712890625,-0.43212890625,0.8906249403953552,0.9924869301422464,0.164031982421875,-0.072479248046875,-1.0204315185546875,1.0360696003235093
1785431032.541229,0.064453125,-0.4375,0.8813475966453552,0.9860699982429287,0.286102294921875,0.110626220703125,-0.9021759033203125,0.9528977093048561
1785431032.549218,0.064453125,-0.4228515625,0.8881835341453552,0.9858131869466397,0.3452301025390625,0.2346038818359375,-1.3256072998046875,1.3897688722831205
1785431032.559886,0.06396484375,-0.43408203125,0.8808593153953552,0.9840893478789727,0.0400543212890625,-0.0095367431640625,-1.0204315185546875,1.0212618577935486
1785431032.570554,0.05859375,-0.4384765625,0.8828124403953552,0.9874475825671364,0.1010894775390625,0.1735687255859375,-0.6542205810546875,0.6843608358506352
1785431032.581222,0.0566406287252903,-0.43115234375,0.8847655653953552,0.9858552683091352,-0.019073486328125,-0.255584716796875,-0.3490447998046875,0.4330353537663436
1785431032.589214,0.0703125,-0.4306640625,0.8857421278953552,0.9873978425709901,0.102996826171875,-0.255584716796875,-0.1049041748046875,0.2948504359044949
1785431032.597208,0.0693359375,-0.43017578125,0.8876952528953552,0.988868816889278,0.0400543212890625,-0.3147125244140625,0.8106231689453125,0.8704931037681688
1785431032.605202,0.0537109375,-0.4423828125,0.8749999403953552,0.9819431313953035,-0.3871917724609375,-0.4978179931640625,0.8716583251953125,1.0758849654408384
1785431032.613196,0.06396484375,-0.435546875,0.8940429091453552,0.99654668979999,-0.1430511474609375,-0.6198883056640625,1.2340545654296875,1.3883860460069484
1785431032.623899,0.0576171875,-0.43896484375,0.8823241591453552,0.9871706013427619,-0.0820159912109375,-0.4367828369140625,1.5430450439453125,1.6057689363919083
1785431032.634602,0.068359375,-0.4296875,0.8784179091453552,0.9802664815824003,-0.1430511474609375,-0.1926422119140625,1.7871856689453125,1.8032213585371424
1785431032.645305,0.06005859375,-0.4404296875,0.8852538466453552,0.9905855426539262,0.225067138671875,0.415802001953125,1.7871856689453125,1.8486695586344455
1785431032.655973,0.07421875,-0.4345703125,0.8876952528953552,0.9911420893952889,-0.1430511474609375,0.3566741943359375,1.2989044189453125,1.3545600028240687
1785431032.66664,0.078125,-0.4345703125,0.8784179091453552,0.9831443918563769,-0.1621246337890625,0.8487701416015625,0.9632110595703125,1.294013406203405
1785431032.677307,0.07666015625,-0.43408203125,0.8891600966453552,0.992426151850493,-0.34332275390625,0.84686279296875,0.7190704345703125,1.1628023879136735
1785431032.687941,0.0810546875,-0.44140625,0.8925780653953552,0.9990520220337379,-0.1621246337890625,0.6656646728515625,-0.1964569091796875,0.7127335902904053
1785431032.698577,0.076171875,-0.43896484375,0.8798827528953552,0.9862484207501608,0.2040863037109375,0.4215240478515625,-0.8106231689453125,0.9361856996934422
1785431032.709213,0.07470703125,-0.4267578125,0.8886718153953552,0.988656141702488,0.08392333984375,0.48065185546875,-0.3795623779296875,0.6181722509751798
1785431032.7172,0.0673828125,-0.43310546875,0.8759765028953552,0.9795180570598705,0.2040863037109375,0.2994537353515625,-1.4171600341796875,1.4627598304077705
1785431032.725189,0.07373046875,-0.439453125,0.8959960341453552,1.0006818297034101,0.38909912109375,0.35858154296875,-1.7223358154296875,1.8017823148498335
1785431032.733178,0.068359375,-0.41650390625,0.8823241591453552,0.9780820159288574,0.1468658447265625,0.1163482666015625,-1.8444061279296875,1.8538987189792806
1785431032.741167,0.06591796875,-0.43310546875,0.8813475966453552,0.9842251326692623,0.26702880859375,-0.00762939453125,-1.5392303466796875,1.562239627080168
1785431032.75183,0.07666015625,-0.43408203125,0.8789061903953552,0.9832497551109163,0.14495849609375,-0.19073486328125,-1.9702911376953125,1.9848022372370926
1785431032.762493,0.0517578125,-0.43017578125,0.8813475966453552,0.9820914723391996,0.0209808349609375,-0.2498626708984375,-1.6040802001953125,1.6235593116368718
1785431032.773156,0.072265625,-0.43798828125,0.8857421278953552,0.9907548496967156,0.0209808349609375,-0.0667572021484375,-1.7223358154296875,1.7237567637535731
1785431032.781185,0.0595703125,-0.43017578125,0.8857421278953552,0.9864780494435683,0.14495849609375,-0.12969970703125,-0.8678436279296875,0.8893748040797623
1785431032.789213,0.0517578162252903,-0.43701171875,0.8945311903953552,0.9969173308029966,0.0209808349609375,-0.3108978271484375,-0.6275177001953125,0.7006255193894181
1785431032.797241,0.06103515625,-0.43505859375,0.8735350966453552,0.9777856796688115,0.1468658447265625,-0.0667572021484375,-0.2574920654296875,0.3038556633422859
1785431032.805269,0.0712890625,-0.4384765625,0.8872069716453552,0.99220967382407,0.26702880859375,0.35858154296875,-0.1964569091796875,0.4883445758286694
1785431032.816051,0.06982421875,-0.435546875,0.8872069716453552,0.9908141664219561,0.14495849609375,0.17547607421875,0.3490447998046875,0.4166978407475618
1785431032.826833,0.08154296875,-0.4287109375,0.8857421278953552,0.9874114850523484,-0.1621246337890625,0.4215240478515625,0.5970001220703125,0.7485827045493183
1785431032.837615,0.091796875,-0.43212890625,0.8837890028953552,0.9880511421557859,-0.03814697265625,0.118255615234375,0.0476837158203125,0.13309139270339593
1785431032.848191,0.0712890625,-0.42919921875,0.8886718153953552,0.9894603050581744,0.1468658447265625,-0.0667572021484375,0.2307891845703125,0.28158435343705424
1785431032.85877,0.0615234412252903,-0.44189453125,0.8886718153953552,0.9943809662533446,-0.34332275390625,0.35858154296875,0.1659393310546875,0.5234377688880486
1785431032.869349,0.06982421875,-0.43115234375,0.8906249403953552,0.9919579373639772,-0.03814697265625,0.05340576171875,-0.3223419189453125,0.3289554371293215
1785431032.880029,0.06689453125,-0.44287109375,0.8823241591453552,0.9894976532574682,0.2040863037109375,0.0553131103515625,-0.1964569091796875,0.2886279208662827
1785431032.890711,0.06982421875,-0.4404296875,0.8857421278953552,0.9916616601865715,0.45013427734375,-0.12969970703125,-0.7457733154296875,0.8806933175917484
1785431032.901393,0.078125,-0.43310546875,0.8930663466453552,0.9956160716845821,0.45013427734375,-0.31280517578125,-0.2574920654296875,0.6056154798174872
1785431032.909342,0.06640625,-0.4384765625,0.8862304091453552,0.9909973884904151,0.6351470947265625,-0.4329681396484375,-0.5626678466796875,0.9526113308046352
1785431032.917291,0.068359375,-0.43212890625,0.8833007216453552,0.9857122098393716,0.57220458984375,-0.370025634765625,-0.5016326904296875,0.8461515343776695
1785431032.92524,0.07666015625,-0.4267578125,0.8710936903953552,0.973038142897111,0.93841552734375,-0.49591064453125,-0.0743865966796875,1.0639945653455354
1785431032.933189,0.06396484375,-0.4267578125,0.8818358778953552,0.9817577335112868,0.75531005859375,-0.98419189453125,-0.1964569091796875,1.2560741566636666
1785431032.9439,0.0732421875,-0.41748046875,0.8823241591453552,0.9788515115322972,0.5092620849609375,-0.7381439208984375,0.1087188720703125,0.9033405295248967
1785431032.954611,0.0859375,-0.4189453125,0.8774413466453552,0.9761166659650818,0.3261566162109375,-0.7991790771484375,0.3490447998046875,0.9310733633396948
1785431032.965322,0.083984375,-0.4267578125,0.8823241591453552,0.9837029671529328,0.2040863037109375,-0.3719329833984375,0.5970001220703125,0.7323895884391199
1785431032.973343,0.0791015625,-0.4423828125,0.8642577528953552,0.9741155339204279,-0.6504058837890625,0.2994537353515625,0.0476837158203125,0.7176169521672878
1785431032.981365,0.08447265625,-0.421875,0.8749999403953552,0.9750584807952833,-0.77056884765625,-0.00762939453125,0.1087188720703125,0.7782379776028895
1785431032.989387,0.08740234375,-0.41845703125,0.8764647841453552,0.975159461084453,-1.0128021240234375,-0.2498626708984375,-0.0133514404296875,1.0432534484469413
1785431032.997409,0.0869140625,-0.43212890625,0.8852538466453552,0.9889205321346469,-0.89263916015625,-0.00762939453125,0.0476837158203125,0.8939444136297297
1785431033.008053,0.07080078125,-0.42822265625,0.8872069716453552,0.98768598475808,-1.2607574462890625,0.2994537353515625,-0.3795623779296875,1.3502775554414583
1785431033.018697,0.07373046875,-0.44140625,0.8935546278953552,0.9993575599325618,-0.89263916015625,0.301361083984375,-0.5016326904296875,1.0673605432525692
1785431033.029341,0.07373046875,-0.43408203125,0.8862304091453552,0.9895795723286553,-0.58746337890625,0.05340576171875,-0.4405975341796875,0.7362686901301243
1785431033.04009,0.0673828125,-0.4345703125,0.8774413466453552,0.9814759888706255,-0.52642822265625,-0.19073486328125,-0.5626678466796875,0.7937893721681412
1785431033.050838,0.0693359375,-0.44140625,0.9047850966453552,1.0091001044889507,-0.28228759765625,-0.31280517578125,-0.5016326904296875,0.6551097021826209
1785431033.061586,0.0712890625,-0.4287109375,0.8920897841453552,0.9923202010141506,-0.03814697265625,0.05340576171875,-0.5016326904296875,0.5059078206702514
1785431033.069542,0.07275390625,-0.44140625,0.8925780653953552,0.9984128460905395,-0.03814697265625,-0.00762939453125,-0.5016326904296875,0.5031389025820572
1785431033.077499,0.05712890625,-0.4287109375,0.8779296278953552,0.978681363569332,-0.1010894775390625,0.2384185791015625,-0.0743865966796875,0.26943620227340487
1785431033.085456,0.0732421875,-0.435546875,0.8818358778953552,0.9862555520226605,-0.3414154052734375,-0.0667572021484375,0.1087188720703125,0.36447331334537225
1785431033.093413,0.06689453125,-0.44189453125,0.8930663466453552,0.9986556736785188,-0.4062652587890625,-0.0667572021484375,-0.2574920654296875,0.4856028709726475
1785431033.104047,0.07763671875,-0.4375,0.8857421278953552,0.9909454209122006,0.08392333984375,-0.12969970703125,-0.0133514404296875,0.15505934972154736
1785431033.114681,0.07666015625,-0.44140625,0.8906249403953552,0.9969598996697746,-0.1010894775390625,0.4215240478515625,-0.0133514404296875,0.43368175699219175
1785431033.125315,0.0581054650247097,-0.44140625,0.9008788466453552,1.0048872667806403,0.14495849609375,0.48065185546875,0.3490447998046875,0.6114502792754356
1785431033.135965,0.0751953125,-0.43603515625,0.8876952528953552,0.9918587875906949,0.69427490234375,0.48065185546875,0.3490447998046875,0.9137155566480578
1785431033.146616,0.07177734375,-0.4375,0.8842772841453552,0.9891938901607161,0.26702880859375,0.48065185546875,0.2918243408203125,0.6224885835738352
1785431033.157267,0.076171875,-0.44140625,0.8803710341453552,0.9877726407641793,0.3871917724609375,0.4215240478515625,0.1087188720703125,0.5825974465467985
1785431033.165258,0.0771484375,-0.4287109375,0.8857421278953552,0.9870582892967427,0.3871917724609375,0.5435943603515625,0.2307891845703125,0.7061699122605668
1785431033.173249,0.06982421875,-0.43798828125,0.8930663466453552,0.9971342214300233,0.75531005859375,0.48065185546875,-0.0133514404296875,0.8953757600806456
1785431033.18124,0.068359375,-0.443359375,0.8842772841453552,0.9915577919648791,0.6351470947265625,0.6046295166015625,-0.1964569091796875,0.8986567762220836
1785431033.189231,0.07861328125,-0.43994140625,0.8911132216453552,0.9969008289259685,0.8144378662109375,0.4215240478515625,0.1087188720703125,0.9234778578718779
1785431033.199888,0.05810546875,-0.44775390625,0.8911132216453552,0.998970760258755,0.8754730224609375,0.6046295166015625,-0.0133514404296875,1.0640526896560507
1785431033.210545,0.06884765625,-0.44189453125,0.8852538466453552,0.9918090287551196,1.24359130859375,0.606536865234375,0.0476837158203125,1.384442143411089
1785431033.221202,0.068359375,-0.4375,0.8886718153953552,0.992883099679145,1.1806488037109375,0.2994537353515625,-0.0743865966796875,1.2203022179303198
1785431033.231857,0.08203125,-0.4287109375,0.8901366591453552,0.9913957160806908,0.9975433349609375,0.4215240478515625,-0.1392364501953125,1.0918617206886352
1785431033.242511,0.0625,-0.4384765625,0.8867186903953552,0.9911800955216313,1.18255615234375,0.17547607421875,0.0476837158203125,1.1964550316763731
1785431033.253165,0.07373046875,-0.41552734375,0.8666991591453552,0.9639847446351478,1.1806488037109375,0.3604888916015625,-0.1964569091796875,1.2499916623068439
1785431033.263887,0.07421875,-0.43359375,0.8745116591453552,0.9789191002691626,-0.03814697265625,-0.19073486328125,0.2307891845703125,0.30182549148205423
1785431033.274608,0.0732421875,-0.4267578125,0.8896483778953552,0.9894245220588618,0.3261566162109375,-0.3108978271484375,0.3490447998046875,0.5699718146491832
1785431033.285329,0.06298828125,-0.41943359375,0.8808593153953552,0.977652901933832,-0.03814697265625,0.118255615234375,-0.0133514404296875,0.12497136879639562
1785431033.293305,0.0712890625,-0.4423828125,0.8749999403953552,0.9830613301922796,-0.4673004150390625,0.0553131103515625,0.3490447998046875,0.5858852194270978
1785431033.301281,0.05908203125,-0.42333984375,0.8842772841453552,0.9821678191523003,-0.5245208740234375,0.1163482666015625,0.0476837158203125,0.5393818713879169
1785431033.309257,0.0732421875,-0.4345703125,0.8852538466453552,0.9888832830706215,-0.34332275390625,-0.00762939453125,0.4138946533203125,0.5378080559621868
1785431033.317233,0.0830078125,-0.43212890625,0.8847655653953552,0.9881476581271743,-0.6504058837890625,-0.0667572021484375,0.4749298095703125,0.8081105504351568
1785431033.327887,0.0830078125,-0.44580078125,0.8955077528953552,1.0037742619707053,-0.1621246337890625,-0.3108978271484375,0.3490447998046875,0.49474652912127814
1785431033.338541,0.06396484375,-0.4345703125,0.8818358778953552,0.9851788534503678,0.0209808349609375,-0.2498626708984375,0.0476837158203125,0.2552357469058582
1785431033.349195,0.06884765625,-0.42724609375,0.8793944716453552,0.9801091067611634,0.1468658447265625,-0.4329681396484375,0.2307891845703125,0.5121470824016333
1785431033.35719,0.06103515625,-0.42919921875,0.8784179091453552,0.9795689270191097,0.14495849609375,-0.12969970703125,0.1087188720703125,0.22283350901063959
1785431033.365187,0.080078125,-0.4326171875,0.8857421278953552,0.9889940617377425,0.08392333984375,-0.61798095703125,0.6542205810546875,0.9038518456579718
1785431033.373184,0.06396484375,-0.42236328125,0.8881835341453552,0.9855720333446774,-0.0362396240234375,-0.2498626708984375,0.0476837158203125,0.25694046277745614
1785431033.381181,0.080078125,-0.43017578125,0.8754882216453552,0.97874579698577,0.0820159912109375,-0.2498626708984375,0.0476837158203125,0.26726712083091286
1785431033.391877,0.078125,-0.4375,0.8867186903953552,0.9918567444552937,0.1468658447265625,0.0553131103515625,-0.0133514404296875,0.1575035792785624
1785431033.402573,0.0634765625,-0.43994140625,0.8813475966453552,0.9870923467602146,-0.16021728515625,-0.19073486328125,-0.0133514404296875,0.24945466019961174
1785431033.413269,0.07421875,-0.43603515625,0.8876952528953552,0.9917852299517639,-0.1621246337890625,0.0553131103515625,0.1659393310546875,0.23849486084374844
1785431033.42391,0.08203125,-0.43896484375,0.8881835341453552,0.9941273813510811,-0.4673004150390625,-0.3108978271484375,0.0476837158203125,0.5632946596371495
1785431033.434553,0.07568359375,-0.42919921875,0.8876952528953552,0.9889099239827023,-0.28228759765625,-0.19073486328125,0.1659393310546875,0.37894846279188305
1785431033.445196,0.0712890625,-0.43212890625,0.8803710341453552,0.9832958251773026,-0.46539306640625,-0.19073486328125,-0.2574920654296875,0.5650421737261527
1785431033.45587,0.0859375,-0.43017578125,0.8945311903953552,0.9963044249979165,0.0209808349609375,0.0553131103515625,-0.0743865966796875,0.09504262926712793
1785431033.466547,0.080078125,-0.435546875,0.8720702528953552,0.9780695846465884,0.0209808349609375,0.2994537353515625,-0.3223419189453125,0.44047366295955553
1785431033.477224,0.06689453125,-0.431640625,0.8857421278953552,0.98758676813237,0.45013427734375,0.17547607421875,-0.0133514404296875,0.48331250886414245
1785431033.48533,0.0771484375,-0.44140625,0.8857421278953552,0.9926381395434822,0.45013427734375,0.118255615234375,-0.3795623779296875,0.6005604523392125
1785431033.493436,0.06640625,-0.4326171875,0.8779296278953552,0.9809831051021978,0.20599365234375,0.48065185546875,-0.0743865966796875,0.5281978386334578
1785431033.501542,0.0703125,-0.4296875,0.8852538466453552,0.9865341191833652,0.5092620849609375,0.0553131103515625,0.0476837158203125,0.5144717175024858
1785431033.509648,0.06396484375,-0.43505859375,0.8833007216453552,0.9867054505225431,0.45013427734375,0.17547607421875,-0.1392364501953125,0.5027917156497271
1785431033.520154,0.0673828125,-0.435546875,0.8876952528953552,0.991082431362611,0.57220458984375,0.48065185546875,-0.1392364501953125,0.7601520162880567
1785431033.53066,0.0673828125,-0.44189453125,0.8784179091453552,0.985611101437258,-0.03814697265625,0.17547607421875,-0.0743865966796875,0.19437183415208964
1785431033.541166,0.0810546875,-0.43310546875,0.8886718153953552,0.991911188012796,-0.22125244140625,0.05340576171875,-0.1964569091796875,0.3006661526966778
1785431033.551854,0.08837890625,-0.43408203125,0.9003905653953552,1.003464603848606,-0.1621246337890625,0.2994537353515625,-0.2574920654296875,0.4269181423370149
1785431033.562544,0.07666015625,-0.435546875,0.8896483778953552,0.9935049552822456,0.1468658447265625,0.2384185791015625,-0.5626678466796875,0.6284966991919776
1785431033.573234,0.07373046875,-0.4326171875,0.8847655653953552,0.9876253938877166,-0.09918212890625,-0.12969970703125,-0.6275177001953125,0.648411576667769
1785431033.581237,0.072265625,-0.451171875,0.8959960341453552,1.0057769506962568,0.38909912109375,0.17547607421875,-0.1392364501953125,0.44897301446985066
1785431033.58924,0.07470703125,-0.4375,0.8808593153953552,0.9863571990090417,0.63323974609375,-0.12969970703125,-0.4405975341796875,0.7822664361725421
1785431033.597243,0.0732421875,-0.41455078125,0.8818358778953552,0.9771649214990489,0.6923675537109375,-0.1277923583984375,-0.3223419189453125,0.7743436117164324
1785431033.605246,0.0712890625,-0.42822265625,0.8979491591453552,0.9973813043003087,0.8754730224609375,0.2384185791015625,-0.3795623779296875,0.9835466591155378
1785431033.615948,0.07568359375,-0.4306640625,0.8784179091453552,0.9812326758721484,0.8144378662109375,0.2384185791015625,-0.5016326904296875,0.9857929868317991
1785431033.62665,0.07080078125,-0.43603515625,0.8730468153953552,0.9784427167614586,1.0585784912109375,-0.0667572021484375,-0.1964569091796875,1.0787215874624685
1785431033.637352,0.06689453125,-0.4296875,0.8842772841453552,0.9854199821512107,0.6923675537109375,-0.0667572021484375,-0.0133514404296875,0.6957065577036793
1785431033.648053,0.06689453125,-0.427734375,0.8798827528953552,0.9806249194827279,-0.1010894775390625,-0.4329681396484375,-0.0743865966796875,0.450792477960021
1785431033.658752,0.064453125,-0.42529296875,0.8798827528953552,0.9793987816171525,-0.1010894775390625,-0.4329681396484375,0.1087188720703125,0.457712011601171
1785431033.669451,0.076171875,-0.41162109375,0.8774413466453552,0.9721817711538189,-0.1621246337890625,-0.3719329833984375,0.2918243408203125,0.4997799384890413
1785431033.677429,0.0620117224752903,-0.43115234375,0.8803710341453552,0.982237728356854,-0.4673004150390625,-0.3719329833984375,0.3490447998046875,0.6917630333474295
1785431033.685406,0.0693359375,-0.41748046875,0.8769530653953552,0.9737269088009398,-0.58746337890625,-0.19073486328125,0.5970001220703125,0.8590123138691513
1785431033.693383,0.07080078125,-0.41650390625,0.8852538466453552,0.9808988875248648,-0.89263916015625,-0.370025634765625,0.4749298095703125,1.0766995702825615
1785431033.70136,0.06005859375,-0.42333984375,0.8959960341453552,0.992790285606032,-0.9555816650390625,-0.4329681396484375,0.9632110595703125,1.4242097014793924
1785431033.71198,0.04833984375,-0.4287109375,0.9003905653953552,0.9984152335971596,-0.8335113525390625,-0.3719329833984375,0.9632110595703125,1.3269705589159557
1785431033.7226,0.0712890625,-0.4462890625,0.8706054091453552,0.9809229511905658,-0.77056884765625,-0.00762939453125,1.1425018310546875,1.3780946958037783
1785431033.73322,0.0751953125,-0.421875,0.8862304091453552,0.984396865466828,-0.70953369140625,0.05340576171875,1.1425018310546875,1.3459571570405402
1785431033.741236,0.0830078125,-0.43603515625,0.8837890028953552,0.9889893609441728,-0.58746337890625,0.48065185546875,1.2683868408203125,1.478155812385025
1785431033.749253,0.08251953125,-0.421875,0.8833007216453552,0.9823482852440498,-0.8335113525390625,0.7266998291015625,1.1425018310546875,1.5900139151564212
1785431033.75727,0.08251953125,-0.43994140625,0.8955077528953552,1.0011453687984757,-0.6504058837890625,0.3604888916015625,0.4749298095703125,0.8823482184795569
1785431033.765287,0.0830078125,-0.44384765625,0.8920897841453552,0.9998576007968134,-0.1621246337890625,0.1773834228515625,0.5970001220703125,0.6435514131254331
1785431033.77595,0.07763671875,-0.4345703125,0.8891600966453552,0.9927157166434869,-0.22125244140625,0.301361083984375,0.0476837158203125,0.3768884218477611
1785431033.786613,0.072265625,-0.43359375,0.8955077528953552,0.9975770627331965,0.26702880859375,-0.00762939453125,-0.0743865966796875,0.2773012045511118
1785431033.797276,0.06884765625,-0.43505859375,0.8876952528953552,0.9909686381413866,0.20599365234375,-0.31280517578125,-0.0133514404296875,0.3747782327764033
1785431033.807952,0.060546875,-0.43359375,0.8881835341453552,0.9902219218126114,0.08392333984375,-0.370025634765625,-0.3223419189453125,0.4978618383282451
1785431033.818628,0.06298828125,-0.451171875,0.8847655653953552,0.9951551085510275,0.0209808349609375,-0.6160736083984375,-0.1964569091796875,0.6469792914500165
1785431033.829304,0.0703125,-0.4443359375,0.8935546278953552,1.0004089893855717,0.08392333984375,-0.98419189453125,-0.0743865966796875,0.9905605372702504
1785431033.839942,0.07275390625,-0.42919921875,0.8935546278953552,0.9939542108585541,-0.1010894775390625,-0.7381439208984375,0.0476837158203125,0.746558281169576
1785431033.85058,0.07763671875,-0.44921875,0.8828124403953552,0.9935707072808818,-0.3414154052734375,-0.4329681396484375,0.5359649658203125,0.7689501502018341
1785431033.861218,0.07275390625,-0.42578125,0.8881835341453552,0.9876501374743638,-0.09918212890625,-0.19073486328125,0.3490447998046875,0.4099379892568966
1785431033.869248,0.07275390625,-0.4345703125,0.8979491591453552,1.0002285637747164,-0.09918212890625,-0.12969970703125,0.5359649658203125,0.5602834579792061
1785431033.87728,0.07568359375,-0.43603515625,0.8911132216453552,0.9949559978411311,0.0209808349609375,0.1773834228515625,0.4749298095703125,0.5074085121050765
1785431033.885312,0.08837890625,-0.4248046875,0.8911132216453552,0.9911370376406499,0.08392333984375,-0.00762939453125,0.4749298095703125,0.48234806794464963
1785431033.893344,0.07421875,-0.439453125,0.8833007216453552,0.9893672911426946,0.0209808349609375,-0.1277923583984375,0.2307891845703125,0.2646407565272639
1785431033.903972,0.0732421875,-0.4345703125,0.8911132216453552,0.994132057790763,-0.1621246337890625,0.1163482666015625,0.2307891845703125,0.3050982853721988
1785431033.9146,0.083984375,-0.4326171875,0.8994140028953552,1.0015770338664904,-0.03814697265625,-0.00762939453125,-0.0743865966796875,0.08394501146188883
1785431033.925228,0.0732421875,-0.4384765625,0.8803710341453552,0.9862450363138786,-0.03814697265625,-0.00762939453125,-0.1392364501953125,0.14456897401151428
1785431033.935921,0.08203125,-0.44482421875,0.8906249403953552,0.9989046481107896,0.38909912109375,-0.00762939453125,-0.8678436279296875,0.9511092977334435
1785431033.946616,0.078125,-0.43359375,0.9018554091453552,1.0037182048108915,0.08392333984375,0.301361083984375,-0.5016326904296875,0.5911827010480718
1785431033.957311,0.06591796875,-0.4306640625,0.8847655653953552,0.9862184438766558,0.3871917724609375,-0.2498626708984375,-0.9899139404296875,1.0919150298567073
1785431033.965309,0.064453125,-0.43310546875,0.8813475966453552,0.9841281108148302,0.3871917724609375,0.0553131103515625,-0.8678436279296875,0.9519083839195704
1785431033.973306,0.07470703125,-0.4296875,0.8930663466453552,0.9938712128263502,0.45013427734375,-0.00762939453125,-0.7457733154296875,0.871123936823964
1785431033.981303,0.08544921875,-0.43310546875,0.8950194716453552,0.9979688224942067,0.3261566162109375,-0.0057220458984375,-0.9288787841796875,0.9844931060228747
1785431033.9893,0.05712890625,-0.42919921875,0.8813475966453552,0.9819619480496561,0.63323974609375,-0.12969970703125,-0.6275177001953125,0.9008845953257738
1785431033.999941,0.0537109375,-0.42626953125,0.8749999403953552,0.9747899639261264,0.5092620849609375,-0.1277923583984375,-0.4405975341796875,0.6854231869210559
1785431034.010582,0.0654296875,-0.42822265625,0.8823241591453552,0.9829301140690072,0.3261566162109375,-0.0667572021484375,-0.2574920654296875,0.42087625983904414
1785431034.021223,0.07177734375,-0.4287109375,0.8769530653953552,0.9787705215801326,0.5092620849609375,0.2384185791015625,-0.0743865966796875,0.5672077712841703
1785431034.031923,0.06884765625,-0.4228515625,0.8701171278953552,0.9698697128669765,-0.22125244140625,-0.12969970703125,-0.0133514404296875,0.25681300160577086
1785431034.042623,0.06982421875,-0.42724609375,0.8730468153953552,0.9744872436418309,-0.52642822265625,-0.31280517578125,0.2307891845703125,0.6543985019230918
1785431034.053323,0.0771484375,-0.4384765625,0.8720702528953552,0.9791425346983332,-0.6504058837890625,-0.1277923583984375,0.2918243408203125,0.7242376311872203
1785431034.06134,0.07958984375,-0.43359375,0.9003905653953552,1.0025174579627925,-1.13677978515625,-0.19073486328125,0.1087188720703125,1.157785757882281
1785431034.069357,0.072265625,-0.43017578125,0.8749999403953552,0.9777005773868417,-1.1386871337890625,0.1163482666015625,0.0476837158203125,1.1456085913401535
1785431034.077374,0.0654296875,-0.43115234375,0.8837890028953552,0.9855234087358007,-1.1386871337890625,0.3604888916015625,0.1087188720703125,1.1993249863023427
1785431034.085391,0.07470703125,-0.4423828125,0.8964843153953552,1.0024808332648947,-1.38092041015625,-0.12969970703125,-0.0133514404296875,1.387062166649947
1785431034.096009,0.072265625,-0.439453125,0.8906249403953552,0.9957681226486096,-1.13677978515625,-0.00762939453125,0.1659393310546875,1.1488526229206601
1785431034.106627,0.08447265625,-0.44677734375,0.8920897841453552,1.0012840793295092,-1.19781494140625,-0.12969970703125,-0.2574920654296875,1.2320246797931025
1785431034.117245,0.06640625,-0.4443359375,0.8969725966453552,1.003196917123342,-1.07574462890625,-0.19073486328125,-0.2574920654296875,1.1224564394446714
1785431034.127915,0.078125,-0.44873046875,0.8881835341453552,0.9981645853948777,-0.3414154052734375,-0.4329681396484375,-0.4405975341796875,0.7057988920605326
1785431034.138587,0.07373046875,-0.4423828125,0.8955077528953552,1.001535256650106,-0.2841949462890625,-0.0667572021484375,-0.6847381591796875,0.7443719756759503
1785431034.149259,0.06982421875,-0.45263671875,0.8979491591453552,1.0080020402234635,0.26702880859375,-0.19073486328125,-0.5016326904296875,0.5994326724475747
1785431034.159915,0.06787109375,-0.45556640625,0.8930663466453552,1.0048456276368243,0.20599365234375,-0.19073486328125,-0.4405975341796875,0.5224359865113196
1785431034.170573,0.07080078125,-0.4482421875,0.8837890028953552,0.993487197159159,0.75531005859375,-0.25177001953125,-0.2574920654296875,0.8367697360127854
1785431034.181231,0.0654296875,-0.45751953125,0.8886718153953552,1.001669986053113,0.8754730224609375,-0.2498626708984375,-0.1964569091796875,0.9313858945302028
1785431034.189216,0.07861328125,-0.44482421875,0.8872069716453552,0.9955826656343317,1.24359130859375,-0.25177001953125,0.7190704345703125,1.458413444609525
1785431034.197201,0.080078125,-0.43212890625,0.8837890028953552,0.987031356826673,1.3637542724609375,-0.2498626708984375,0.6542205810546875,1.5330563064152258
1785431034.205186,0.0732421875,-0.427734375,0.8881835341453552,0.9885297688554245,1.48773193359375,-0.19073486328125,1.0204315185546875,1.8141131658100442
1785431034.213171,0.0654296875,-0.435546875,0.8891600966453552,0.9922639778783622,1.1806488037109375,-0.2498626708984375,0.4749298095703125,1.296889076224741
1785431034.223933,0.06787109375,-0.42822265625,0.8798827528953552,0.9809050858953355,0.9975433349609375,0.1163482666015625,0.7801055908203125,1.27168956789591
1785431034.234695,0.072265625,-0.42431640625,0.9008788466453552,0.9984234720310922,1.42669677734375,-0.12969970703125,0.7190704345703125,1.6029185875646248
1785431034.245457,0.0810546875,-0.435546875,0.8803710341453552,0.9855577610927482,1.18255615234375,-0.31280517578125,0.3490447998046875,1.272052830550794
1785431034.253384,0.07958984375,-0.43212890625,0.8818358778953552,0.9852433457722222,1.0585784912109375,-0.2498626708984375,0.1659393310546875,1.10025253371842
1785431034.261313,0.07177734375,-0.42578125,0.8754882216453552,0.9761768723787276,1.1234283447265625,-0.3719329833984375,0.1087188720703125,1.1883792252555443
1785431034.269242,0.0830078125,-0.42041015625,0.8696288466453552,0.9694788947325853,0.87738037109375,-0.12969970703125,-0.3795623779296875,0.9647206478168887
1785431034.277171,0.07666015625,-0.423828125,0.8754882216453552,0.9756980502886314,0.87738037109375,-0.31280517578125,-0.4405975341796875,1.0304220400890918
1785431034.287866,0.06982421875,-0.43701171875,0.8955077528953552,0.9988937878195887,0.69427490234375,-0.80108642578125,-0.8106231689453125,1.3344912976959957
1785431034.298561,0.078125,-0.43701171875,0.8808593153953552,0.9864055410776051,0.38909912109375,-0.80108642578125,-1.2340545654296875,1.5218502745226816
1785431034.309256,0.07568359375,-0.42431640625,0.8833007216453552,0.9828492172429275,0.26702880859375,-0.49591064453125,-1.1157989501953125,1.2498956153356802
1785431034.319906,0.0673828125,-0.4326171875,0.8803710341453552,0.983235084861694,0.1468658447265625,-0.4329681396484375,-0.5626678466796875,0.7250007530927344
1785431034.330559,0.060546875,-0.42138671875,0.8994140028953552,0.9950770017518259,0.26702880859375,-0.12969970703125,-0.1392364501953125,0.3278920366309334
1785431034.341212,0.0634765625,-0.41259765625,0.8749999403953552,0.9694797551376123,0.38909912109375,0.17547607421875,-0.0743865966796875,0.4332705210659265
1785431034.351898,0.06689453125,-0.4345703125,0.8916015028953552,0.9941224646806655,0.6923675537109375,-0.0667572021484375,0.1659393310546875,0.7150980457680138
1785431034.362584,0.08349609375,-0.42822265625,0.8950194716453552,0.9956937760283757,0.6351470947265625,0.0553131103515625,0.2307891845703125,0.6780376242001522
1785431034.37327,0.07177734375,-0.42236328125,0.8857421278953552,0.9839115029069759,0.5092620849609375,0.2994537353515625,0.4749298095703125,0.7580097194714973
1785431034.381279,0.068359375,-0.4306640625,0.8818358778953552,0.9837576197533956,0.3261566162109375,-0.1277923583984375,0.4138946533203125,0.5422340907858387
1785431034.389286,0.07568359375,-0.4228515625,0.8813475966453552,0.9804616445247363,0.0820159912109375,0.2384185791015625,0.3490447998046875,0.4305836898279067
1785431034.397293,0.07275390625,-0.4228515625,0.8691405653953552,0.9692790605388538,-0.0362396240234375,-0.0667572021484375,0.1659393310546875,0.18249848212772793
1785431034.4053,0.07861328125,-0.4326171875,0.8837890028953552,0.9871274895108878,-0.4673004150390625,-0.2498626708984375,0.0476837158203125,0.5320477130470662
1785431034.415934,0.08154296875,-0.408203125,0.8920897841453552,0.9844304089110797,-0.70953369140625,-0.12969970703125,-0.4405975341796875,0.845213736500888
1785431034.426568,0.0791015625,-0.427734375,0.8901366591453552,0.9907355977762363,-1.0128021240234375,0.1163482666015625,-0.1392364501953125,1.0289275244790406
1785431034.437202,0.08056640625,-0.41357421875,0.8828124403953552,0.9782087635814328,-0.8945465087890625,-0.0667572021484375,-0.5626678466796875,1.0588980527475456
1785431034.447859,0.07373046875,-0.431640625,0.8979491591453552,0.9990307820994986,-1.07574462890625,-0.43487548828125,-0.9288787841796875,1.4863239864267936
1785431034.458516,0.0791015625,-0.42822265625,0.8940429091453552,0.9944568486912023,-0.8335113525390625,-0.0667572021484375,-0.9288787841796875,1.2498053826693656
1785431034.469173,0.08154296875,-0.42822265625,0.8906249403953552,0.9915829181327194,-0.6504058837890625,-0.2498626708984375,-0.7457733154296875,1.0206061953480983
1785431034.477204,0.07958984375,-0.43310546875,0.8959960341453552,0.9983605478450714,-0.58746337890625,-0.00762939453125,-0.9288787841796875,1.099084721445984
1785431034.485238,0.083984375,-0.421875,0.8920897841453552,0.9903817818627557,-0.7724761962890625,0.1163482666015625,-0.5626678466796875,0.9627312702211156
1785431034.493272,0.0654296875,-0.4326171875,0.8979491591453552,0.99887505091308,-0.8335113525390625,0.1773834228515625,-0.6847381591796875,1.0931936700104061
1785431034.501306,0.07763671875,-0.43896484375,0.8862304091453552,0.9920291992883437,-0.64849853515625,0.48065185546875,-0.4405975341796875,0.9196209781157534
1785431034.512078,0.0732421875,-0.4169921875,0.8974608778953552,0.9923119115573097,-0.7724761962890625,0.4215240478515625,-0.3223419189453125,0.9371799770907032
1785431034.52285,0.0771484375,-0.419921875,0.8813475966453552,0.9793160106037023,-0.89263916015625,0.48065185546875,-0.3795623779296875,1.0825425973834224
1785431034.533622,0.07861328125,-0.43017578125,0.8862304091453552,0.9882487484722069,-0.8335113525390625,0.3604888916015625,-0.3223419189453125,0.9636377579199389
1785431034.541509,0.0791015625,-0.431640625,0.8896483778953552,0.9919903843446108,-1.19781494140625,0.35858154296875,-0.6275177001953125,1.3989709864297837
1785431034.549397,0.07763671875,-0.41748046875,0.8813475966453552,0.9783102718455583,-1.01470947265625,0.17547607421875,-0.3223419189453125,1.0790419265398798
1785431034.557285,0.06884765625,-0.43115234375,0.8901366591453552,0.9914512672071637,-0.8945465087890625,0.4215240478515625,-0.8106231689453125,1.2786734928568775
1785431034.565173,0.068359375,-0.43017578125,0.8837890028953552,0.9852954930188226,-0.9555816650390625,0.2384185791015625,-0.5016326904296875,1.1052669783936195
1785431034.575942,0.083984375,-0.43896484375,0.8945311903953552,0.9999647793211188,-0.8335113525390625,0.2384185791015625,-0.3223419189453125,0.9249264329565091
1785431034.586711,0.068359375,-0.43310546875,0.9067382216453552,1.0071879436352131,-0.8335113525390625,0.1773834228515625,-0.1964569091796875,0.8745292280298409
1785431034.59748,0.07666015625,-0.4404296875,0.8901366591453552,0.9960915425512238,-0.2841949462890625,0.2384185791015625,-0.3795623779296875,0.5307332522997689
1785431034.608073,0.07373046875,-0.4248046875,0.8916015028953552,0.9903779301404709,-0.1010894775390625,0.2384185791015625,-0.3223419189453125,0.41348133457179786
1785431034.618668,0.08447265625,-0.4423828125,0.8950194716453552,1.0019471228930554,-0.28228759765625,0.48065185546875,-0.3795623779296875,0.674373852322084
1785431034.629263,0.08251953125,-0.43896484375,0.8911132216453552,0.9967860256230249,-0.1621246337890625,0.6046295166015625,-0.3223419189453125,0.704106214953698
1785431034.639942,0.06787109375,-0.44775390625,0.8828124403953552,0.9921934543453498,0.2040863037109375,0.3604888916015625,-0.4405975341796875,0.6047558577275106
1785431034.65062,0.0830078125,-0.4306640625,0.8906249403953552,0.9927611072756976,0.08392333984375,0.35858154296875,-0.0133514404296875,0.36851337952634305
1785431034.661298,0.0673828125,-0.44384765625,0.8920897841453552,0.9986818153724112,-0.03814697265625,-0.00762939453125,-0.3795623779296875,0.3815507802683531
1785431034.669282,0.06591796875,-0.44091796875,0.8989257216453552,1.0034048469119405,0.87738037109375,-0.00762939453125,-0.1392364501953125,0.8883925440392393
1785431034.677265,0.0537109375,-0.4423828125,0.8979491591453552,1.002447060952542,0.8144378662109375,-0.0667572021484375,-0.0743865966796875,0.8205479435855645
1785431034.685248,0.0556640625,-0.4296875,0.8754882216453552,0.9768364559894356,0.6923675537109375,0.0553131103515625,-0.1392364501953125,0.7083919527150374
1785431034.693231,0.06982421875,-0.4365234375,0.8749999403953552,0.9803331212923184,0.93841552734375,-0.00762939453125,0.2307891845703125,0.9664085871593814
1785431034.703972,0.08251953125,-0.44287109375,0.8857421278953552,0.9937219912257316,0.26702880859375,-0.31280517578125,0.4749298095703125,0.6282593307170452
1785431034.714713,0.07177734375,-0.43310546875,0.8701171278953552,0.97459537778189,0.2040863037109375,-0.3719329833984375,0.9021759033203125,0.9969487068219093
1785431034.725454,0.07470703125,-0.42724609375,0.865234375,0.9678589198971422,-0.22125244140625,-0.67901611328125,0.9021759033203125,1.1506245632071406
1785431034.733412,0.0615234375,-0.4296875,0.8769530653953552,0.978500464958692,-0.40435791015625,-0.49591064453125,0.9021759033203125,1.106053365528604
1785431034.74137,0.07275390625,-0.41650390625,0.8696288466453552,0.9669658555057016,-0.6504058837890625,-0.2498626708984375,1.2073516845703125,1.393971756604381
1785431034.749328,0.07958984375,-0.4375,0.8754882216453552,0.981947259005236,-0.89263916015625,-0.43487548828125,1.0852813720703125,1.4709714535350884
1785431034.757286,0.08154296875,-0.42724609375,0.8823241591453552,0.9837095110797472,-0.9555816650390625,-0.3719329833984375,1.2073516845703125,1.584035527673941
1785431034.767909,0.07080078125,-0.44189453125,0.8852538466453552,0.9919465209247249,-1.25885009765625,-0.31280517578125,1.1425018310546875,1.728543051337745
1785431034.778532,0.08544921875,-0.419921875,0.8774413466453552,0.9764933522002673,-1.2607574462890625,0.0553131103515625,1.1425018310546875,1.7023158674327734
1785431034.789155,0.08642578125,-0.4365234375,0.8916015028953552,0.9964814936147813,-1.3217926025390625,-0.0667572021484375,0.5970001220703125,1.4518957792891483
1785431034.799887,0.0888671875,-0.44482421875,0.8808593153953552,0.9907972023171452,-1.13677978515625,0.48065185546875,0.2918243408203125,1.2682491600630579
1785431034.81062,0.08447265625,-0.43505859375,0.8950194716453552,0.9987349319383942,-1.1386871337890625,0.3604888916015625,-0.1964569091796875,1.2104362630016128
1785431034.821353,0.07763671875,-0.4453125,0.8867186903953552,0.9952892638077487,-1.3217926025390625,0.7266998291015625,-0.2574920654296875,1.5302060284492656
1785431034.831982,0.07763671875,-0.4482421875,0.8955077528953552,1.004431507992825,-1.1386871337890625,0.7266998291015625,-0.3223419189453125,1.3887423601886482
1785431034.842609,0.08203125,-0.44287109375,0.9003905653953552,1.0067606974394914,-0.8335113525390625,0.2994537353515625,-0.6275177001953125,1.085445612864097
1785431034.853236,0.07763671875,-0.45654296875,0.9038085341453552,1.0155436026125642,-0.6504058837890625,0.2994537353515625,-0.5626678466796875,0.910656608700882
1785431034.861279,0.06591796875,-0.44873046875,0.8867186903953552,0.9959790399828575,0.08392333984375,0.05340576171875,-0.4405975341796875,0.45168738025376615
1785431034.869321,0.0693359375,-0.45361328125,0.8916015028953552,1.002759054369818,0.51116943359375,-0.00762939453125,-0.4405975341796875,0.6748915354534308
1785431034.877363,0.06982421875,-0.44091796875,0.8842772841453552,0.9905707405057749,0.57220458984375,-0.00762939453125,-0.3223419189453125,0.6567957163445222
1785431034.885405,0.06787109375,-0.44189453125,0.8837890028953552,0.9904343813470152,0.75531005859375,0.23651123046875,-0.3223419189453125,0.8545964892626711
1785431034.896008,0.07568359375,-0.43994140625,0.8906249403953552,0.996237537814337,0.8144378662109375,0.2994537353515625,-0.2574920654296875,0.9051429397026057
1785431034.906611,0.078125,-0.451171875,0.8881835341453552,0.999264512900838,1.0585784912109375,0.4215240478515625,-0.3223419189453125,1.1841348139806285
1785431034.917214,0.06640625,-0.4462890625,0.8793944716453552,0.9883918019219933,0.8754730224609375,0.0553131103515625,-0.0133514404296875,0.8773202460875964
1785431034.927901,0.08544921875,-0.43505859375,0.8769530653953552,0.9826618074836444,0.57220458984375,0.118255615234375,-0.5626678466796875,0.8111705054178628
1785431034.93859,0.078125,-0.43701171875,0.8769530653953552,0.9829188353349118,0.93841552734375,-0.19073486328125,-0.5016326904296875,1.0810360059399002
1785431034.949279,0.07470703125,-0.421875,0.8720702528953552,0.971630681961082,0.5092620849609375,-0.0667572021484375,-0.5626678466796875,0.7618395506303179
1785431034.957271,0.0771484375,-0.42578125,0.8872069716453552,0.9871057515769909,0.3871917724609375,0.0553131103515625,-0.3795623779296875,0.5450179883066663
1785431034.965264,0.078125,-0.43310546875,0.8735350966453552,0.9781346674959268,-0.1010894775390625,0.2384185791015625,-0.7457733154296875,0.7894557234810049
1785431034.973257,0.0732421875,-0.42236328125,0.8828124403953552,0.9813831893276216,-0.3414154052734375,0.4215240478515625,-0.7457733154296875,0.922184818722462
1785431034.98125,0.06591796875,-0.439453125,0.8813475966453552,0.9870348594598548,-0.28228759765625,0.35858154296875,-0.6275177001953125,0.7759158941578659
1785431034.991947,0.078125,-0.43896484375,0.8803710341453552,0.9868367683845308,-0.4673004150390625,0.2994537353515625,-0.8678436279296875,1.0301430871727701
1785431035.002644,0.080078125,-0.43896484375,0.8828124403953552,0.9891715953608757,-0.2193450927734375,0.4215240478515625,-0.5016326904296875,0.690963203614115
1785431035.013341,0.06884765625,-0.4296875,0.8862304091453552,0.9873072903211603,-0.2841949462890625,0.5435943603515625,-0.3223419189453125,0.6929400470542989
1785431035.02395,0.06787109375,-0.431640625,0.8935546278953552,0.9946657667530429,-0.03814697265625,0.118255615234375,-0.3223419189453125,0.3454618571805629
1785431035.034561,0.0654296875,-0.4453125,0.8935546278953552,1.000511938807231,-0.03814697265625,0.17547607421875,-0.0133514404296875,0.18007027824604602
1785431035.045172,0.060546875,-0.44091796875,0.8891600966453552,0.9943240199780297,0.0209808349609375,0.2384185791015625,0.4138946533203125,0.47811337394346937
1785431035.053209,0.0654296875,-0.42822265625,0.8745116591453552,0.9759233214312051,0.26702880859375,0.118255615234375,0.5359649658203125,0.6103664634792993
1785431035.061245,0.06396484375,-0.4326171875,0.8803710341453552,0.9830067598539363,0.08392333984375,-0.12969970703125,0.2918243408203125,0.3301917425825963
1785431035.069281,0.0712890625,-0.4228515625,0.8901366591453552,0.9880429374755303,-0.03814697265625,-0.31280517578125,0.9632110595703125,1.013448476636548
1785431035.077317,0.0712890625,-0.43798828125,0.8886718153953552,0.9933043141064748,-0.2841949462890625,-0.7381439208984375,0.9021759033203125,1.1998102249886786
1785431035.087955,0.0712890625,-0.4306640625,0.8759765028953552,0.9787177830130139,-0.22125244140625,-0.858306884765625,0.5970001220703125,1.0686685627528612
1785431035.098593,0.087890625,-0.431640625,0.8842772841453552,0.9879193825250958,-0.4673004150390625,-0.6160736083984375,0.7190704345703125,1.055925498666402
1785431035.109231,0.07666015625,-0.4267578125,0.8847655653953552,0.9852964608661812,0.0209808349609375,-0.8602142333984375,0.7190704345703125,1.121370149705287
1785431035.119894,0.07666015625,-0.4287109375,0.8940429091453552,0.9944760283091258,-0.1621246337890625,-0.2498626708984375,0.2918243408203125,0.4169858475835222
1785431035.130556,0.08056640625,-0.43994140625,0.8842772841453552,0.9909519171002965,-0.28228759765625,-0.49591064453125,0.3490447998046875,0.6689139910486482
1785431035.141218,0.08544921875,-0.4375,0.8867186903953552,0.9924605054516976,-0.09918212890625,0.17547607421875,-0.0743865966796875,0.21485416701378343
1785431035.149244,0.07373046875,-0.4404296875,0.8847655653953552,0.9910724480898483,-0.03814697265625,0.05340576171875,-0.1392364501953125,0.15392906148803848
1785431035.157273,0.07568359375,-0.4287109375,0.8886718153953552,0.9895749945168988,0.02288818359375,-0.00762939453125,-0.5626678466796875,0.5631848562384211
1785431035.165302,0.080078125,-0.43359375,0.9042968153953552,1.0060659901203097,0.08392333984375,-0.00762939453125,-0.2574920654296875,0.27093080000378233
1785431035.173331,0.07568359375,-0.4404296875,0.8833007216453552,0.9899123601882481,0.3261566162109375,-0.0057220458984375,-0.2574920654296875,0.4155875886821923
1785431035.184027,0.08203125,-0.43212890625,0.8989257216453552,1.0007656921722519,0.3871917724609375,-0.0667572021484375,0.1659393310546875,0.42650891466768537
1785431035.194723,0.072265625,-0.44873046875,0.8828124403953552,0.9929446908353143,0.2040863037109375,-0.1277923583984375,0.2307891845703125,0.33353523643246075
1785431035.205419,0.07861328125,-0.44970703125,0.8867186903953552,0.997339710350006,0.6351470947265625,-0.3719329833984375,0.3490447998046875,0.8146031232139671
1785431035.216065,0.0712890625,-0.44091796875,0.8906249403953552,0.9963451059010552,0.6351470947265625,-0.2498626708984375,0.5970001220703125,0.9067813032920683
1785431035.226712,0.07421875,-0.4208984375,0.8881835341453552,0.9856641963003614,0.38909912109375,0.17547607421875,0.5359649658203125,0.6851630632527718
1785431035.237359,0.0732421875,-0.4365234375,0.8901366591453552,0.9941128715951001,0.8144378662109375,-0.0057220458984375,0.5970001220703125,1.0098271760452167
1785431035.245477,0.08984375,-0.4375,0.8769530653953552,0.984136590276153,0.4520416259765625,0.2384185791015625,0.7190704345703125,0.8821832804749139
1785431035.253595,0.09375,-0.427734375,0.8808593153953552,0.9836965444563758,0.5092620849609375,0.0553131103515625,0.6542205810546875,0.8309103321243865
1785431035.261713,0.08349609375,-0.4365234375,0.8867186903953552,0.9918640758968836,0.14495849609375,0.301361083984375,0.2918243408203125,0.4438388383469941
1785431035.269831,0.08154296875,-0.431640625,0.8828124403953552,0.986063228104444,0.1468658447265625,0.5435943603515625,0.0476837158203125,0.5651001165348521
1785431035.280292,0.078125,-0.4248046875,0.8901366591453552,0.9893966899587986,-0.09918212890625,0.35858154296875,-0.1392364501953125,0.39724627967448256
1785431035.290753,0.076171875,-0.427734375,0.8759765028953552,0.9778004314390706,0.0209808349609375,0.2384185791015625,0.0476837158203125,0.24404374823153827
1785431035.301214,0.08056640625,-0.4365234375,0.8876952528953552,0.992495097879987,-0.1621246337890625,0.3604888916015625,-0.7457733154296875,0.8440464891558692
1785431035.31197,0.07373046875,-0.42724609375,0.8837890028953552,0.9844076433497937,-0.28228759765625,0.48065185546875,-1.0509490966796875,1.1896245196564923
1785431035.322725,0.08349609375,-0.431640625,0.8872069716453552,0.9901623287916086,-0.03814697265625,0.301361083984375,-1.0509490966796875,1.0939687830440707
1785431035.33348,0.07080078125,-0.4267578125,0.8842772841453552,0.9844192686101186,0.08392333984375,0.301361083984375,-0.6275177001953125,0.7011705170421679
1785431035.341464,0.07373046875,-0.44970703125,0.8823241591453552,0.9930601783322808,0.26702880859375,0.23651123046875,-0.7457733154296875,0.826692073727472
1785431035.34945,0.072265625,-0.44677734375,0.8833007216453552,0.9924981009070756,0.2040863037109375,0.2994537353515625,-0.9288787841796875,0.9970654716103307
1785431035.357436,0.0585937462747097,-0.4375,0.8872069716453552,0.9909468641852737,0.3261566162109375,0.5435943603515625,-0.7457733154296875,0.9788006972367671
1785431035.365422,0.0634765625,-0.4384765625,0.8876952528953552,0.9921158359090845,-0.1621246337890625,0.2384185791015625,-0.7457733154296875,0.7995659158249767
1785431035.376057,0.072265625,-0.42578125,0.8891600966453552,0.9884926256045518,-0.0362396240234375,0.4215240478515625,-0.5626678466796875,0.7039822007364126
1785431035.386692,0.07861328125,-0.42724609375,0.8857421278953552,0.9865385900927126,-0.09918212890625,0.301361083984375,-0.4405975341796875,0.542938103985928
1785431035.397327,0.06103515625,-0.443359375,0.8803710341453552,0.9875960629027511,-0.22125244140625,0.17547607421875,-0.5016326904296875,0.5756560184339056
1785431035.405349,0.07421875,-0.427734375,0.8886718153953552,0.9890413105054204,-0.1621246337890625,0.2994537353515625,-0.1964569091796875,0.3931313440336159
1785431035.41337,0.076171875,-0.41943359375,0.8930663466453552,0.9895929433951808,-0.22125244140625,0.17547607421875,0.4138946533203125,0.5010521724317658
1785431035.421391,0.06298828125,-0.43505859375,0.8837890028953552,0.9870797866481326,-0.1621246337890625,0.2994537353515625,0.1087188720703125,0.3574587104009108
1785431035.429412,0.0693359375,-0.4296875,0.9042968153953552,1.0035893334524013,-0.1621246337890625,-0.0667572021484375,0.1087188720703125,0.20630248196317452
1785431035.440165,0.06982421875,-0.439453125,0.8935546278953552,0.9982155797369224,-0.03814697265625,0.35858154296875,0.2307891845703125,0.42813498127963795
1785431035.450918,0.0810546875,-0.43603515625,0.8833007216453552,0.9883909574206402,-0.03814697265625,0.301361083984375,-0.0133514404296875,0.30405913146067776
1785431035.461671,0.07568359375,-0.42919921875,0.8881835341453552,0.9893482531775446,0.0820159912109375,0.4215240478515625,0.3490447998046875,0.5533908365722848
1785431035.469611,0.06884765625,-0.4345703125,0.8818358778953552,0.9855079258032061,0.08392333984375,0.48065185546875,0.3490447998046875,0.5999179989021634
1785431035.477551,0.08056640625,-0.44482421875,0.8916015028953552,0.9996563266282288,0.3261566162109375,0.1773834228515625,0.2918243408203125,0.4722334834548636
1785431035.485491,0.06494140625,-0.43701171875,0.8935546278953552,0.996813172868298,0.3261566162109375,0.1773834228515625,0.5970001220703125,0.7030306983003467
1785431035.493431,0.0673828125,-0.43603515625,0.8823241591453552,0.9864902547506135,-0.1010894775390625,0.0553131103515625,0.4749298095703125,0.4887094706104825
1785431035.504088,0.0634765625,-0.43603515625,0.8906249403953552,0.993664287336024,-0.1621246337890625,-0.3719329833984375,0.5970001220703125,0.7218224759404961
1785431035.514745,0.068359375,-0.43408203125,0.8793944716453552,0.9830741837546799,-0.2841949462890625,0.1163482666015625,0.5970001220703125,0.671351496899649
1785431035.525402,0.06103515625,-0.44873046875,0.8979491591453552,1.0056823635188732,0.0209808349609375,0.1163482666015625,0.2307891845703125,0.2593082379938519
1785431035.536031,0.06884765625,-0.431640625,0.8740233778953552,0.9772259175999763,-0.1010894775390625,0.1163482666015625,0.2918243408203125,0.33002643455565617
1785431035.546659,0.07763671875,-0.43603515625,0.8911132216453552,0.9951064723814194,0.0820159912109375,-0.2498626708984375,0.5359649658203125,0.5970062158048124
1785431035.557287,0.0634765625,-0.43603515625,0.8872069716453552,0.9906019089467274,-0.03814697265625,-0.19073486328125,0.1659393310546875,0.25567722069951987
1785431035.567961,0.0703125,-0.44482421875,0.8852538466453552,0.9932204217811854,0.3871917724609375,-0.2498626708984375,0.1659393310546875,0.4897802410886136
1785431035.578636,0.07958984375,-0.43896484375,0.8901366591453552,0.9956746201601533,0.1468658447265625,-0.3719329833984375,-0.1964569091796875,0.44553230820148737
1785431035.589311,0.07861328125,-0.42724609375,0.8935546278953552,0.9935588284780786,0.20599365234375,-0.00762939453125,-0.0743865966796875,0.21914597471187489
1785431035.599997,0.07275390625,-0.44482421875,0.8969725966453552,1.003853353629848,0.3871917724609375,-0.4329681396484375,-0.3795623779296875,0.6938634428702165
1785431035.610683,0.07080078125,-0.4345703125,0.8793944716453552,0.983462629636923,0.38909912109375,-0.19073486328125,0.1087188720703125,0.4467635921279697
1785431035.621369,0.07666015625,-0.43603515625,0.8955077528953552,0.9989682540190779,0.0820159912109375,-0.2498626708984375,0.0476837158203125,0.26726712083091286
1785431035.629412,0.06591796875,-0.427734375,0.9023436903953552,1.0007627140122055,0.63323974609375,-0.31280517578125,-0.0133514404296875,0.7064120008818955
1785431035.637453,0.07763671875,-0.44580078125,0.8774413466453552,0.9872533177782647,0.3261566162109375,-0.3108978271484375,0.2307891845703125,0.5062600566294148
1785431035.645494,0.07275390625,-0.44677734375,0.8789061903953552,0.9886249123293505,0.38909912109375,-0.12969970703125,0.1659393310546875,0.44244321853860297
1785431035.653535,0.07666015625,-0.43896484375,0.8833007216453552,0.9893366861003091,0.81634521484375,-0.19073486328125,0.4749298095703125,0.9635131664319376
1785431035.661593,0.0712890625,-0.42138671875,0.8764647841453552,0.975109950219966,0.45013427734375,-0.12969970703125,0.1087188720703125,0.4808977799782539
1785431035.669651,0.07080078125,-0.43994140625,0.8828124403953552,0.9888978695879774,0.5092620849609375,0.0553131103515625,0.4749298095703125,0.6985454425977015
1785431035.677709,0.07763671875,-0.43505859375,0.8823241591453552,0.9868127288931534,0.1468658447265625,0.1163482666015625,0.5970001220703125,0.6257121073148602
1785431035.685767,0.0693359375,-0.431640625,0.8754882216453552,0.9785707575945345,0.08392333984375,-0.19073486328125,0.4749298095703125,0.5186340126331284
1785431035.696239,0.0869140625,-0.43701171875,0.8955077528953552,1.0002336887351733,0.0820159912109375,-0.2498626708984375,0.2918243408203125,0.3928351091972602
1785431035.706711,0.0810546875,-0.43310546875,0.8862304091453552,0.9897244806110556,-0.2841949462890625,-0.0667572021484375,0.1087188720703125,0.3115173906528678
1785431035.717183,0.0712890625,-0.43359375,0.8984374403953552,1.0001377429011211,0.26702880859375,0.118255615234375,-0.0133514404296875,0.2923474578562393
1785431035.725199,0.07568359375,-0.43505859375,0.8774413466453552,0.982296952637774,0.08392333984375,0.05340576171875,-0.3223419189453125,0.3373419853274061
1785431035.733215,0.0693359375,-0.4345703125,0.8886718153953552,0.9916634631836689,0.5092620849609375,-0.1277923583984375,-0.3223419189453125,0.6161031332115933
1785431035.741231,0.0693359375,-0.4287109375,0.8740233778953552,0.9759699817457194,0.3261566162109375,-0.0057220458984375,-0.6275177001953125,0.7072406550572773
1785431035.749247,0.08056640625,-0.44140625,0.8862304091453552,0.9933452377945173,0.20599365234375,-0.00762939453125,-0.5626678466796875,0.5992384318065619
1785431035.759998,0.0732421875,-0.43359375,0.8735350966453552,0.9779731709715036,0.26702880859375,-0.12969970703125,-0.6847381591796875,0.7463194659526018
1785431035.770749,0.07568359375,-0.4296875,0.8740233778953552,0.9768706255829234,-0.1010894775390625,-0.0667572021484375,-0.6275177001953125,0.6391041155916789
1785431035.7815,0.07177734375,-0.43896484375,0.8696288466453552,0.976778609533398,-0.6504058837890625,0.1773834228515625,-0.6847381591796875,0.9609157293991782
1785431035.792098,0.0703125,-0.4345703125,0.8676757216453552,0.9729626725087585,-0.8335113525390625,0.0553131103515625,-0.7457733154296875,1.1198118382099957
1785431035.802698,0.07275390625,-0.43212890625,0.8779296278953552,0.9812180970752282,-0.4673004150390625,-0.0667572021484375,-0.5626678466796875,0.7344530669971525
1785431035.813298,0.0634765625,-0.42724609375,0.8891600966453552,0.9885212066909984,-0.9555816650390625,-0.4329681396484375,-0.1392364501953125,1.0582932096410935
1785431035.821315,0.07470703125,-0.43017578125,0.8862304091453552,0.9879456874677778,-0.9555816650390625,-0.2498626708984375,0.2918243408203125,1.029917044602398
1785431035.829334,0.08203125,-0.42041015625,0.8891600966453552,0.9869546610260723,-1.0128021240234375,-0.2498626708984375,0.4749298095703125,1.146192750262093
1785431035.837353,0.06689453125,-0.43994140625,0.8769530653953552,0.9833971721286853,-1.38092041015625,0.05340576171875,0.1659393310546875,1.391879741989854
1785431035.845372,0.07080078125,-0.43701171875,0.8818358778953552,0.9867251433372474,-1.2607574462890625,0.0553131103515625,0.4138946533203125,1.3281105611345858
1785431035.854974,0.06689453125,-0.4384765625,0.8867186903953552,0.991466898120874,-1.38092041015625,-0.370025634765625,0.6542205810546875,1.5722164985285398
1785431035.864576,0.08203125,-0.43798828125,0.8974608778953552,1.0019974490195038,-1.6269683837890625,0.1773834228515625,0.6542205810546875,1.7625253386057358
1785431035.874178,0.07861328125,-0.427734375,0.9018554091453552,1.0012391934749,-1.3217926025390625,0.1773834228515625,0.7190704345703125,1.5151444989513911
1785431035.88378,0.0830078125,-0.42724609375,0.8925780653953552,0.9930383297665725,-0.6504058837890625,0.3604888916015625,0.6542205810546875,0.9904466786814359
1785431035.893382,0.07080078125,-0.44970703125,0.9013671278953552,1.0098078351011248,-1.01470947265625,0.35858154296875,0.2918243408203125,1.115068375818893
1785431035.901707,0.0693359375,-0.458984375,0.8842772841453552,0.9987093891511333,-0.70953369140625,0.48065185546875,0.2307891845703125,0.8875403726708783
1785431035.910032,0.09130859375,-0.4384765625,0.9121093153953552,1.0161409146301523,-0.1621246337890625,0.8487701416015625,-0.0743865966796875,0.8673110837070863
1785431035.918357,0.07275390625,-0.46484375,0.9121093153953552,1.0263119633034001,0.57220458984375,0.789642333984375,-0.3223419189453125,1.0270625204766708
1785431035.926682,0.0947265625,-0.43408203125,0.8828124403953552,0.9883107489114924,0.63323974609375,0.35858154296875,-0.5016326904296875,0.8838600879655406
1785431035.936853,0.07177734375,-0.43798828125,0.8828124403953552,0.9881009697925296,1.12152099609375,0.54168701171875,-0.8678436279296875,1.5180206605583695
1785431035.947024,0.07373046875,-0.44580078125,0.9003905653953552,1.007411380141287,1.3637542724609375,0.5435943603515625,-1.0509490966796875,1.8054956516351228
1785431035.957195,0.078125,-0.439453125,0.8979491591453552,1.0027638092328204,1.4858245849609375,0.1163482666015625,-1.1157989501953125,1.8617784276525744
1785431035.967847,0.064453125,-0.43408203125,0.8857421278953552,0.9884940729741294,1.54876708984375,0.301361083984375,-1.1730194091796875,1.966080500853304
1785431035.978502,0.072265625,-0.4423827826976776,0.8793944716453552,0.98704583669878,1.24359130859375,-0.19073486328125,-1.0509490966796875,1.6393270371383142
1785431035.989157,0.0571289099752903,-0.427734375,0.8710936903953552,0.972123770596216,0.99945068359375,-0.00762939453125,-1.1157989501953125,1.4979877081785047
1785431035.997161,0.0830078125,-0.42529296875,0.8842772841453552,0.9847389103004456,1.06048583984375,-0.00762939453125,-0.9899139404296875,1.4507301725776052
1785431036.005163,0.06494140625,-0.42578125,0.8735350966453552,0.973945904128407,0.93841552734375,-0.00762939453125,-0.9288787841796875,1.3204157320025751
1785431036.013165,0.078125,-0.41943359375,0.8784179091453552,0.9765480419817233,0.93841552734375,0.301361083984375,-0.9899139404296875,1.3969151063529655
1785431036.021167,0.08447265625,-0.435546875,0.8745116591453552,0.980615802420784,0.57220458984375,0.05340576171875,-0.8678436279296875,1.0408759919227535
1785431036.031848,0.06298828125,-0.42431640625,0.8813475966453552,0.9801966753158714,0.4520416259765625,0.2384185791015625,-0.3795623779296875,0.6365945720912026
1785431036.042529,0.08447265625,-0.4248046875,0.8940429091453552,0.9934321192557614,0.2040863037109375,0.1163482666015625,-0.2574920654296875,0.3485545900756835
1785431036.05321,0.06884765625,-0.42724609375,0.8828124403953552,0.9831770081285234,0.3871917724609375,0.1163482666015625,-0.4405975341796875,0.5979804134985122
1785431036.061296,0.0546875,-0.4228515625,0.8749999403953552,0.9733545408826203,0.26702880859375,0.118255615234375,0.0476837158203125,0.2959096346993292
1785431036.069383,0.087890625,-0.42138671875,0.8764647841453552,0.9764640528707375,-0.22125244140625,0.23651123046875,-0.0743865966796875,0.3323004224066752
1785431036.07747,0.07666015625,-0.42724609375,0.8862304091453552,0.9868233592061205,-0.52642822265625,0.48065185546875,-0.1392364501953125,0.7263192609573026
1785431036.085557,0.07080078125,-0.42578125,0.8769530653953552,0.9774196142821583,-0.70953369140625,-0.00762939453125,-0.1392364501953125,0.723106531545999
1785431036.096118,0.08251953125,-0.41796875,0.8735350966453552,0.9718903817229041,-1.19781494140625,0.301361083984375,-0.1392364501953125,1.242966582760489
1785431036.106679,0.08642578125,-0.42724609375,0.8759765028953552,0.9784393051764033,-1.4438629150390625,0.2384185791015625,-0.1392364501953125,1.470023919992086
1785431036.11724,0.08203125,-0.431640625,0.8666991591453552,0.9717047841758416,-1.8100738525390625,0.1773834228515625,-0.4405975341796875,1.8713520292754544
1785431036.125275,0.0859375,-0.42333984375,0.8730468153953552,0.9740701304754683,-1.8100738525390625,-0.0667572021484375,-0.4405975341796875,1.864121793984908
1785431036.13331,0.07763671875,-0.43505859375,0.8828124403953552,0.9872493327477091,-2.47955322265625,-0.12969970703125,-1.0509490966796875,2.696201068503764
1785431036.141345,0.07470703125,-0.44677734375,0.8955077528953552,1.003556311774373,-2.1152496337890625,0.1163482666015625,-1.2989044189453125,2.4849488167649674
1785431036.14938,0.0732421875,-0.43359375,0.9028319716453552,1.004227826289377,-1.6841888427734375,-0.2498626708984375,-1.1730194091796875,2.0675826335949172
1785431036.16002,0.05224609375,-0.443359375,0.9003905653953552,1.0049877412015988,-1.25885009765625,-0.61798095703125,-1.7223358154296875,2.2210458556126786
1785431036.17066,0.0576171912252903,-0.44677734375,0.8994140028953552,1.0059201182088184,-0.89263916015625,-0.92315673828125,-1.4820098876953125,1.9609631156411904
1785431036.1813,0.06005859375,-0.44921875,0.9091796278953552,1.0158799711652586,-0.4673004150390625,-0.7991790771484375,-1.2989044189453125,1.5950578562557436
1785431036.189307,0.08154296875,-0.45068359375,0.9101561903953552,1.018896093006036,-0.1621246337890625,-0.7381439208984375,-1.1730194091796875,1.3953907621712347
1785431036.197312,0.06689453125,-0.4462890625,0.8950194716453552,1.0023515651918826,0.08392333984375,-1.10626220703125,-1.2989044189453125,1.7082189225131075
1785431036.205317,0.08056640625,-0.44384765625,0.8842772841453552,0.9926923002774543,0.08392333984375,-1.16729736328125,-1.1157989501953125,1.6169828566038817
1785431036.213322,0.07080078125,-0.4375,0.8930663466453552,0.996988716152842,0.08392333984375,-0.98419189453125,-1.0509490966796875,1.4422797287778095
1785431036.223961,0.0732421875,-0.455078125,0.8720702528953552,0.9863909183829044,0.3871917724609375,-1.0433197021484375,-1.2340545654296875,1.6617232441084773
1785431036.2346,0.068359375,-0.44921875,0.8969725966453552,1.0055000391022688,-0.22125244140625,-0.858306884765625,-1.1157989501953125,1.425008999452726
1785431036.245239,0.080078125,-0.4501953125,0.8842772841453552,0.9955072278773136,-0.1621246337890625,-0.7991790771484375,-1.1730194091796875,1.4286168585542203
1785431036.255909,0.072265625,-0.43408203125,0.9033202528953552,1.0048069514596798,0.02288818359375,-0.67901611328125,-1.2340545654296875,1.40871481198348
1785431036.266582,0.07421875,-0.43798828125,0.8837890028953552,0.9891537590297363,0.4520416259765625,-0.7381439208984375,-1.2989044189453125,1.5608814077727087
1785431036.277255,0.0732421875,-0.4375,0.8886718153953552,0.9932312235868652,0.75531005859375,-0.553131103515625,-1.0509490966796875,1.4074591667615648
1785431036.285357,0.068359375,-0.4404296875,0.8891600966453552,0.994613991078004,0.9975433349609375,-0.5550384521484375,-0.8678436279296875,1.4339849898191
1785431036.293459,0.06982421875,-0.43408203125,0.8969725966453552,0.9989306635151836,0.8754730224609375,-0.5550384521484375,-0.6275177001953125,1.2117339478939413
1785431036.301561,0.072265625,-0.4462890625,0.8647460341453552,0.9757981099765921,1.42669677734375,-0.80108642578125,-0.4405975341796875,1.6944997324222983
1785431036.309663,0.078125,-0.42431640625,0.8779296278953552,0.97821692879156,0.75531005859375,-0.19073486328125,0.0476837158203125,0.7804785771808497
1785431036.320196,0.07568359375,-0.44091796875,0.8774413466453552,0.9849060758937146,1.06048583984375,-0.370025634765625,-0.2574920654296875,1.1523243252886983
1785431036.330729,0.07373046875,-0.42919921875,0.8945311903953552,0.9949041169820518,0.87738037109375,-0.31280517578125,0.3490447998046875,0.9947239143837046
1785431036.341262,0.06396484375,-0.43115234375,0.8676757216453552,0.9710020611151492,0.51116943359375,-0.19073486328125,-0.0743865966796875,0.5506426642361258
1785431036.351898,0.0791015625,-0.42236328125,0.8749999403953552,0.9748193136320613,0.3871917724609375,-0.2498626708984375,0.1659393310546875,0.4897802410886136
1785431036.362537,0.080078125,-0.4287109375,0.8828124403953552,0.9846640944771202,-0.03814697265625,-0.00762939453125,0.0476837158203125,0.061539710254294125
1785431036.373176,0.080078125,-0.4228515625,0.8779296278953552,0.9777404469227423,0.0209808349609375,0.3604888916015625,-0.0743865966796875,0.3686811660084736
1785431036.381178,0.0712890625,-0.41845703125,0.8852538466453552,0.9817651401608689,-0.1010894775390625,-0.0667572021484375,-0.1392364501953125,0.1845600053391842
1785431036.389182,0.07763671875,-0.41259765625,0.8906249403953552,0.9846202671565774,-0.52642822265625,0.17547607421875,-0.1964569091796875,0.5886542647400752
1785431036.397186,0.07958984375,-0.4453125,0.8999022841453552,1.0072049875245987,-0.3414154052734375,0.0553131103515625,-0.6847381591796875,0.7671312571989077
1785431036.40519,0.08349609375,-0.43115234375,0.8774413466453552,0.9812070413503163,-0.77056884765625,0.35858154296875,-0.8106231689453125,1.1745071281039852
1785431036.415853,0.08251953125,-0.44677734375,0.8798827528953552,0.9902591210227423,-0.58746337890625,-0.19073486328125,-0.9288787841796875,1.1154859054806563
1785431036.426516,0.08837890625,-0.43505859375,0.8906249403953552,0.9951379781316276,-0.46539306640625,-0.19073486328125,-0.8678436279296875,1.003056856248982
1785431036.437179,0.07958984375,-0.4443359375,0.8911132216453552,0.9989252936898321,-0.40435791015625,-0.00762939453125,-1.3561248779296875,1.4151460036712302
1785431036.447909,0.07177734375,-0.435546875,0.8857421278953552,0.989642452872078,-0.2841949462890625,-0.1277923583984375,-1.0509490966796875,1.0961713635071522
1785431036.458642,0.06640625,-0.44189453125,0.8828124403953552,0.9894636788202599,-0.22125244140625,-0.25177001953125,-0.9288787841796875,0.9875001677276448
1785431036.469375,0.07568359375,-0.44677734375,0.8959960341453552,1.0040651843657489,-0.28228759765625,-0.31280517578125,-0.8678436279296875,0.9647206478168887
1785431036.477345,0.07861328125,-0.4326171875,0.8779296278953552,0.9818849782157677,0.26702880859375,-0.25177001953125,-0.1964569091796875,0.4162785660086279
1785431036.485315,0.07568359375,-0.44775390625,0.8959960341453552,1.0045001045939486,0.2040863037109375,0.1163482666015625,-0.5016326904296875,0.5539165050901697
1785431036.493285,0.07568359375,-0.42333984375,0.8920897841453552,0.9903377265588219,0.93841552734375,-0.19073486328125,-0.1964569091796875,0.9775473426874023
1785431036.501255,0.06689453125,-0.45654296875,0.8945311903953552,1.0065249183285787,1.06048583984375,-0.00762939453125,0.1659393310546875,1.0734171070748288
1785431036.511993,0.0869140625,-0.439453125,0.8823241591453552,0.9895296989702116,0.93841552734375,0.05340576171875,-0.0743865966796875,0.9428728668861963
1785431036.522731,0.07470703125,-0.4306640625,0.8925780653953552,0.9938552601219693,1.06048583984375,-0.43487548828125,-0.1964569091796875,1.1629024997743342
1785431036.533469,0.07568359375,-0.43115234375,0.8847655653953552,0.9871324407562522,1.24359130859375,-0.25177001953125,0.2307891845703125,1.289639923877712
1785431036.544063,0.0830078125,-0.4453125,0.8842772841453552,0.9935491104358005,1.06048583984375,-0.49591064453125,-0.4405975341796875,1.250873203403816
1785431036.554659,0.0869140625,-0.44091796875,0.8808593153953552,0.9888760503448618,0.99945068359375,-0.19073486328125,-0.0743865966796875,1.0202033242312623
1785431036.565255,0.080078125,-0.412109375,0.8759765028953552,0.9713812210925135,0.75531005859375,-0.25177001953125,-0.1964569091796875,0.8200467940990295
1785431036.573249,0.07666015625,-0.42236328125,0.8637694716453552,0.9645544158060949,0.69427490234375,-0.49591064453125,-0.1964569091796875,0.8755228863646337
1785431036.581245,0.08056640625,-0.42724609375,0.8803710341453552,0.9818774507049421,0.26702880859375,-0.43487548828125,-0.4405975341796875,0.6742012029446952
1785431036.589241,0.091796875,-0.4267578125,0.8632811903953552,0.9673692730699959,0.0209808349609375,-0.3108978271484375,-0.3795623779296875,0.49108578996028457
1785431036.597237,0.0830078125,-0.4248046875,0.8715819716453552,0.9731415378839877,-0.1010894775390625,-0.9212493896484375,-0.4405975341796875,1.0261801535412582
1785431036.608414,0.08251953125,-0.42724609375,0.8764647841453552,0.9785393275230779,-0.22125244140625,-0.80108642578125,-0.3223419189453125,0.8914013782289943
1785431036.619591,0.08154296875,-0.4345703125,0.8793944716453552,0.9842942898439088,-0.4673004150390625,-0.6160736083984375,-0.5016326904296875,0.9217113023981414
1785431036.630768,0.083984375,-0.43017578125,0.8774413466453552,0.9808200114297235,-0.40435791015625,-0.80108642578125,-0.3223419189453125,0.95349310106904
1785431036.640995,0.0830078125,-0.42431640625,0.8749999403953552,0.975991601009366,-0.2841949462890625,-0.5550384521484375,-0.9288787841796875,1.1187717580269494
1785431036.651223,0.0830078125,-0.4296875,0.8857421278953552,0.9879578744667593,-0.40435791015625,-0.49591064453125,-0.5016326904296875,0.8130609097558783
1785431036.661451,0.08154296875,-0.4326171875,0.8818358778953552,0.9856172696419465,-0.1010894775390625,-0.7381439208984375,-0.8678436279296875,1.1437779911182944
1785431036.669387,0.0859375,-0.43701171875,0.8906249403953552,0.9957797350244225,-0.0362396240234375,-0.7381439208984375,-1.1157989501953125,1.3383486300533356
1785431036.677322,0.08544921875,-0.43115234375,0.8852538466453552,0.9883664732812933,-0.1621246337890625,-0.6160736083984375,-0.9288787841796875,1.1263422586165555
1785431036.685257,0.07958984375,-0.43310546875,0.8862304091453552,0.9896055923362854,-0.03814697265625,-0.49591064453125,-0.8678436279296875,1.0002675249254063
1785431036.693192,0.0908203125,-0.44970703125,0.8891600966453552,1.0005450617461782,0.02288818359375,-0.49591064453125,-0.8678436279296875,0.999801879797084
1785431036.703854,0.09619140625,-0.43701171875,0.8940429091453552,0.9997723502649348,-0.22125244140625,-0.74005126953125,-1.0509490966796875,1.3042708799075797
1785431036.714516,0.08935546875,-0.427734375,0.8759765028953552,0.9789156904335271,-0.0362396240234375,-0.7381439208984375,-0.9899139404296875,1.23535394432758
1785431036.725178,0.07958984375,-0.42724609375,0.8955077528953552,0.9953933410207604,-0.09918212890625,-0.80108642578125,-0.8678436279296875,1.1852126892686883
1785431036.735867,0.07177734375,-0.43359375,0.8955077528953552,0.9975418099561325,0.26702880859375,-0.74005126953125,-0.8106231689453125,1.1296416193575523
1785431036.746555,0.08203125,-0.43798828125,0.8999022841453552,1.0041847347470083,0.26702880859375,-0.370025634765625,-0.2574920654296875,0.523951828665525
1785431036.757243,0.068359375,-0.43603515625,0.9008788466453552,1.003186103357407,0.26702880859375,-0.43487548828125,-0.2574920654296875,0.5715970947145372
1785431036.765249,0.0693359375,-0.43994140625,0.8916015028953552,0.9966489618353533,0.8754730224609375,-0.4329681396484375,-0.1392364501953125,0.9865602931754905
1785431036.773256,0.0693359375,-0.4296875,0.8876952528953552,0.9886565034925945,0.32806396484375,-0.19073486328125,0.1087188720703125,0.39474744615280205
1785431036.781263,0.07421875,-0.44140625,0.8901366591453552,0.9963388842884129,0.5092620849609375,0.2384185791015625,0.5359649658203125,0.7768202717658299
1785431036.78927,0.07763671875,-0.44384765625,0.8842772841453552,0.9924588239883658,0.3871917724609375,0.4215240478515625,0.5359649658203125,0.7841290940689406
1785431036.799911,0.08056640625,-0.43408203125,0.8857421278953552,0.9896753370670393,0.3261566162109375,0.2994537353515625,0.7190704345703125,0.8444601635289319
1785431036.810552,0.08251953125,-0.4296875,0.8906249403953552,0.9922971355134508,0.3871917724609375,0.5435943603515625,0.4138946533203125,0.7853159117925782
1785431036.821193,0.07763671875,-0.43798828125,0.8935546278953552,0.9981488203889249,0.38909912109375,0.35858154296875,0.6542205810546875,0.8414175049696263
1785431036.831894,0.07568359375,-0.42431640625,0.8925780653953552,0.9911952490809998,0.93841552734375,0.17547607421875,0.4749298095703125,1.0662897723421931
1785431036.842597,0.0810546875,-0.44384765625,0.8945311903953552,1.001876566705935,0.93841552734375,0.118255615234375,0.1659393310546875,0.9602832676274153
1785431036.8533,0.07763671875,-0.42724609375,0.8881835341453552,0.9886539713417601,0.8754730224609375,-0.0667572021484375,0.2307891845703125,0.9078398453528058
1785431036.863952,0.08349609375,-0.4345703125,0.8916015028953552,0.9953774129158811,0.6351470947265625,0.0553131103515625,-0.1964569091796875,0.667133187062968
1785431036.874603,0.06982421875,-0.4150390625,0.8896483778953552,0.9841783787590355,0.75531005859375,0.17547607421875,-0.0133514404296875,0.7755407134365454
1785431036.885254,0.07666015625,-0.44482421875,0.8930663466453552,1.0006562170162658,1.3637542724609375,0.0553131103515625,-0.1392364501953125,1.3719591994280358
1785431036.893249,0.0712890625,-0.43212890625,0.8901366591453552,0.9920487861004642,1.0585784912109375,-0.2498626708984375,-0.1964569091796875,1.1052669783936195
1785431036.901242,0.08349609375,-0.4423828125,0.8867186903953552,0.994456729256418,1.30462646484375,-0.19073486328125,-0.2574920654296875,1.3434032025422837
1785431036.909235,0.07958984375,-0.42578125,0.8779296278953552,0.9789712189927694,0.69427490234375,-0.31280517578125,-0.2574920654296875,0.8038450608041383
1785431036.917228,0.08154296875,-0.43212890625,0.8867186903953552,0.9897750670055487,0.8144378662109375,-0.0667572021484375,-0.0743865966796875,0.8205479435855645
1785431036.927881,0.06201171875,-0.43408203125,0.8793944716453552,0.9826531941009853,0.9403228759765625,-0.5550384521484375,-0.0743865966796875,1.094444224350311
1785431036.938534,0.08203125,-0.4228515625,0.8793944716453552,0.9792176502931651,0.57220458984375,-0.31280517578125,0.2307891845703125,0.6917577743317546
1785431036.949187,0.076171875,-0.43408203125,0.8852538466453552,0.9888901543627279,0.5092620849609375,-0.5550384521484375,0.1087188720703125,0.7610751261776563
1785431036.957183,0.083984375,-0.43408203125,0.8735350966453552,0.9790526799766582,-0.2841949462890625,0.6046295166015625,0.1659393310546875,0.68838904801933
1785431036.96518,0.09130859375,-0.4384765625,0.8793944716453552,0.9868807384455491,-0.09918212890625,0.54168701171875,-0.1964569091796875,0.584685582619925
1785431036.973177,0.07861328125,-0.43359375,0.8935546278953552,0.9963049036621072,-0.22125244140625,0.606536865234375,-0.0743865966796875,0.6499022830258061
1785431036.981174,0.0927734375,-0.43359375,0.8945311903953552,0.9983969658080698,-0.3414154052734375,0.7877349853515625,-0.0743865966796875,0.8617564922125266
1785431036.991865,0.07958984375,-0.44140625,0.8823241591453552,0.989782775450639,-0.3414154052734375,0.7877349853515625,-0.2574920654296875,0.8963219565893153
1785431037.002556,0.0908203125,-0.44580078125,0.8886718153953552,0.9983607870924139,-0.4673004150390625,0.7877349853515625,-0.5016326904296875,1.0442851340272126
1785431037.013247,0.08837890625,-0.42822265625,0.9028319716453552,1.0031405900574413,-0.28228759765625,0.66375732421875,-0.3795623779296875,0.8150629865134416
1785431037.023893,0.07958984375,-0.42919921875,0.8964843153953552,0.9971111474422691,0.1468658447265625,0.1163482666015625,-0.7457733154296875,0.7689501502018341
1785431037.034539,0.0810546875,-0.43896484375,0.8999022841453552,1.0045317901511193,0.4520416259765625,0.2384185791015625,-0.7457733154296875,0.9040812399797545
1785431037.045185,0.08203125,-0.42919921875,0.8857421278953552,0.9876640180146105,0.5092620849609375,-0.0667572021484375,-1.0509490966796875,1.169742877315053
1785431037.055907,0.08935546875,-0.431640625,0.8818358778953552,0.98586639281872,0.5092620849609375,-0.3108978271484375,-0.6847381591796875,0.9082244638530543
1785431037.066631,0.068359375,-0.42138671875,0.8940429091453552,0.9907333113822165,0.45013427734375,-0.12969970703125,-0.4405975341796875,0.6430933592947395
1785431037.077355,0.0830078125,-0.431640625,0.8779296278953552,0.9818168656235757,0.45013427734375,0.118255615234375,-0.7457733154296875,0.8790808246010311
1785431037.085326,0.068359375,-0.43408203125,0.8798827528953552,0.9835109927434595,-0.1621246337890625,-0.0667572021484375,-0.1964569091796875,0.26331775117595274
1785431037.093295,0.07080078125,-0.4326171875,0.8911132216453552,0.993102791929005,0.26702880859375,-0.19073486328125,-0.3795623779296875,0.5017487134308902
1785431037.101264,0.076171875,-0.42919921875,0.8837890028953552,0.9854426038868992,0.3261566162109375,-0.3108978271484375,-0.0133514404296875,0.450792477960021
1785431037.109233,0.08349609375,-0.4365234375,0.8847655653953552,0.9901183842691175,-0.1621246337890625,-0.1277923583984375,0.2307891845703125,0.309643232544976
1785431037.117275,0.08251953125,-0.435546875,0.8945311903953552,0.9983469356642092,-0.34332275390625,-0.19073486328125,0.7801055908203125,0.8733928292869123
1785431037.125317,0.072265625,-0.435546875,0.8813475966453552,0.9857469183271383,-0.40435791015625,-0.31280517578125,0.1659393310546875,0.5374832640113977
1785431037.133359,0.07373046875,-0.431640625,0.8911132216453552,0.9928910237098779,-0.3910064697265625,-0.2918243408203125,0.5970001220703125,0.7710101497485018
1785431037.141401,0.0810546875,-0.43896484375,0.8950194716453552,1.0001599127332166,-0.331878662109375,-0.415802001953125,1.0852813720703125,1.208664720985334
1785431037.151999,0.083984375,-0.44091796875,0.8842772841453552,0.9916694740014195,-0.1468658447265625,-0.3528594970703125,0.7190704345703125,0.8143351219817911
1785431037.162597,0.08154296875,-0.43017578125,0.8891600966453552,0.9911135838000551,0.156402587890625,-0.232696533203125,0.9021759033203125,0.9447384858231719
1785431037.173195,0.09130859375,-0.423828125,0.8837890028953552,0.9844036471246865,0.034332275390625,0.194549560546875,0.9632110595703125,0.983261807415016
1785431037.181211,0.0908203125,-0.44921875,0.8989257216453552,1.0090159897394009,0.4634857177734375,0.0743865966796875,1.0852813720703125,1.1824500128582034
1785431037.189227,0.0947265625,-0.43603515625,0.8930663466453552,0.9983322486224263,0.156402587890625,0.194549560546875,0.7801055908203125,0.8190702252169686
1785431037.197243,0.0849609375,-0.4423828125,0.8749999403953552,0.9841472498504298,0.339508056640625,0.011444091796875,0.9632110595703125,1.0213580337176151
1785431037.205259,0.087890625,-0.4423828125,0.8837890028953552,0.9922249323601312,0.034332275390625,0.194549560546875,1.0204315185546875,1.0393790072453386
1785431037.215902,0.09130859375,-0.43603515625,0.8793944716453552,0.9857984345387134,0.2803802490234375,0.0743865966796875,0.6542205810546875,0.7156472723930164
1785431037.226545,0.08447265625,-0.42919921875,0.8901366591453552,0.9918119131085265,-0.2079010009765625,-0.1087188720703125,0.4138946533203125,0.4757640207061052
1785431037.237188,0.07958984375,-0.421875,0.8764647841453552,0.9759628971944136,-0.2689361572265625,0.1354217529296875,0.2307891845703125,0.37938022555869916
1785431037.247962,0.08544921875,-0.4287109375,0.8818358778953552,0.9842403936338856,-0.2689361572265625,-0.5970001220703125,-0.0743865966796875,0.658991022838206
1785431037.258735,0.087890625,-0.43310546875,0.8867186903953552,0.9907447425651582,-0.270843505859375,-0.293731689453125,-0.0743865966796875,0.40640850854869026
1785431037.269508,0.08740234375,-0.43603515625,0.8789061903953552,0.985008588132221,-0.331878662109375,-0.293731689453125,-0.0743865966796875,0.44939416720523007
1785431037.277489,0.0771484375,-0.4345703125,0.8989257216453552,1.0014343168429278,0.156402587890625,0.011444091796875,0.2918243408203125,0.33129168814075294
1785431037.28547,0.0849609375,-0.42236328125,0.8896483778953552,0.9884752594480968,0.4634857177734375,-0.7190704345703125,-0.0133514404296875,0.8556047927721326
1785431037.293451,0.0888671875,-0.4306640625,0.8920897841453552,0.994581869289638,-0.0247955322265625,0.3795623779296875,0.2307891845703125,0.4449113000055935
1785431037.301432,0.07177734375,-0.42724609375,0.8828124403953552,0.9833865041870578,0.156402587890625,0.6256103515625,0.2307891845703125,0.6849187756191747
1785431037.312092,0.0869140625,-0.44189453125,0.8920897841453552,0.9993242786930665,0.400543212890625,0.682830810546875,0.7190704345703125,1.0694648526707107
1785431037.322752,0.07373046875,-0.43115234375,0.8813475966453552,0.9839218015959178,-0.02288818359375,0.499725341796875,0.6542205810546875,0.8235616885563325
1785431037.333412,0.07958984375,-0.42138671875,0.8837890028953552,0.9823361500045732,0.217437744140625,0.988006591796875,0.9632110595703125,1.396857810691412
1785431037.341356,0.08056640625,-0.4287109375,0.8798827528953552,0.9820782415830613,-0.453948974609375,0.865936279296875,0.4749298095703125,1.0869561331396551
1785431037.3493,0.087890625,-0.439453125,0.8881835341453552,0.9948436064839989,-0.148773193359375,0.560760498046875,1.0852813720703125,1.2306183225496625
1785431037.357244,0.091796875,-0.4384765625,0.8779296278953552,0.9856210192858403,-0.331878662109375,0.194549560546875,0.2918243408203125,0.48286066703315234
1785431037.365188,0.078125,-0.42529296875,0.8925780653953552,0.9918030186070738,-0.6351470947265625,0.6237030029296875,0.3490447998046875,0.9561639713322172
1785431037.375917,0.08056640625,-0.42333984375,0.8857421278953552,0.9850110081876782,-0.3910064697265625,0.4405975341796875,0.1659393310546875,0.6120033562686787
1785431037.386646,0.08349609375,-0.43701171875,0.8940429091453552,0.998630844401187,-0.392913818359375,0.499725341796875,0.1659393310546875,0.6569950893900385
1785431037.397375,0.09130859375,-0.4345703125,0.8779296278953552,0.9838440157542389,-0.3910064697265625,0.0133514404296875,0.0476837158203125,0.39412949278632914
1785431037.407975,0.0859375,-0.439453125,0.8813475966453552,0.9885736639679713,-0.0247955322265625,0.0743865966796875,-0.0133514404296875,0.0795389536361429
1785431037.418578,0.06884765625,-0.431640625,0.8813475966453552,0.9837820973335775,-0.1468658447265625,-0.0476837158203125,-0.0133514404296875,0.15498894819704592
1785431037.429181,0.0849609375,-0.43603515625,0.8945311903953552,0.9987647715938784,-0.2079010009765625,0.0743865966796875,0.2918243408203125,0.36594758896302765
1785431037.439938,0.0888671875,-0.4384765625,0.9013671278953552,1.0062910971117145,0.034332275390625,0.072479248046875,0.3490447998046875,0.35813994304130964
1785431037.450697,0.0927734375,-0.4228515625,0.8872069716453552,0.9871912505438751,0.156402587890625,0.377655029296875,0.3490447998046875,0.5375103375031987
1785431037.461456,0.0712890625,-0.42919921875,0.8886718153953552,0.9894603050581744,0.034332275390625,0.682830810546875,0.5359649658203125,0.8687318720712213
1785431037.469397,0.0927734375,-0.43212890625,0.8774413466453552,0.982469144108456,-0.0247955322265625,0.4405975341796875,0.1087188720703125,0.45448960239796504
1785431037.477341,0.083984375,-0.43505859375,0.9008788466453552,1.0039482315203976,-0.0858306884765625,0.3185272216796875,0.1659393310546875,0.3692727442233162
1785431037.485285,0.076171875,-0.4384765625,0.8920897841453552,0.9969393328479614,-0.0858306884765625,0.5626678466796875,0.5359649658203125,0.781805894937027
1785431037.493229,0.068359375,-0.43603515625,0.8872069716453552,0.9909267743746127,-0.02288818359375,0.682830810546875,0.4749298095703125,0.8320697739966383
1785431037.503973,0.0810546875,-0.43505859375,0.8862304091453552,0.9905807288936092,0.0362396240234375,0.6237030029296875,0.7190704345703125,0.9525655022548359
1785431037.514717,0.07861328125,-0.439453125,0.8857421278953552,0.9918861901396495,-0.1468658447265625,0.1354217529296875,0.8373260498046875,0.8608272423635989
1785431037.525461,0.06982421875,-0.42626953125,0.8872069716453552,0.9867711717172654,-0.087738037109375,0.011444091796875,1.0204315185546875,1.0242604231603831
1785431037.536128,0.08447265625,-0.43701171875,0.8823241591453552,0.9882362034404113,-0.2689361572265625,-0.2307891845703125,0.8373260498046875,0.9092333133249915
1785431037.546796,0.08740234375,-0.421875,0.8847655653953552,0.9840872883171268,-0.3910064697265625,-0.0476837158203125,1.1425018310546875,1.2084991642884058
1785431037.557464,0.0791015625,-0.42626953125,0.8828124403953552,0.9835245677555995,-0.6351470947265625,-0.2307891845703125,0.7190704345703125,0.9867815206657251
1785431037.565483,0.09033203125,-0.4228515625,0.8881835341453552,0.9878427557589192,-0.5130767822265625,-0.1697540283203125,0.9021759033203125,1.0516584878765343
1785431037.573501,0.0869140625,-0.42919921875,0.8759765028953552,0.9793369477665185,-1.0623931884765625,-0.4138946533203125,0.8373260498046875,1.4146034725851837
1785431037.581519,0.07763671875,-0.41943359375,0.8769530653953552,0.975191611208083,-0.8182525634765625,-0.5359649658203125,0.4749298095703125,1.0873610376692868
1785431037.589537,0.08544921875,-0.4189453125,0.8911132216453552,0.9883822730309726,-0.820159912109375,-0.1678466796875,0.4138946533203125,0.9338862743185156
1785431037.600113,0.07373046875,-0.4287109375,0.8833007216453552,0.9846062232250155,-1.2454986572265625,-0.1087188720703125,0.5359649658203125,1.3602739220040132
1785431037.610689,0.08203125,-0.43505859375,0.8833007216453552,0.9880411281072744,-1.1234283447265625,-0.3528594970703125,0.5359649658203125,1.2937772277307042
1785431037.621265,0.0810546875,-0.4384765625,0.8837890028953552,0.9899063389363184,-1.1844635009765625,-0.2307891845703125,0.8373260498046875,1.4687860111472355
1785431037.631909,0.07763671875,-0.439453125,0.8906249403953552,0.9961723212500748,-1.308441162109375,-0.1678466796875,0.2307891845703125,1.3391991749918606
1785431037.642554,0.07080078125,-0.44775390625,0.8862304091453552,0.9954399275102882,-1.3675689697265625,-0.4749298095703125,0.5359649658203125,1.5437168314053693
1785431037.653199,0.08837890625,-0.435546875,0.9033202528953552,1.0067270686154914,-0.820159912109375,-0.232696533203125,0.1659393310546875,0.8685308397442707
1785431037.661201,0.0859375,-0.43701171875,0.8847655653953552,0.9905425795696224,-0.69427490234375,0.011444091796875,0.7801055908203125,1.0443722229600843
1785431037.669205,0.0732421875,-0.44384765625,0.8950194716453552,1.0017110434714864,-0.5130767822265625,0.2574920654296875,0.5970001220703125,0.8282264750484483
1785431037.677209,0.08154296875,-0.43017578125,0.8891600966453552,0.9911135838000551,-0.6351470947265625,0.1354217529296875,0.4749298095703125,0.804555285312722
1785431037.685213,0.06787109375,-0.44921875,0.8940429091453552,1.0028542736167971,-0.148773193359375,0.377655029296875,0.5359649658203125,0.6723207782021453
1785431037.695861,0.078125,-0.44921875,0.8930663466453552,1.0027305223673229,-0.2079010009765625,0.3185272216796875,0.6542205810546875,0.7567608511501969
1785431037.706509,0.08935546875,-0.4404296875,0.8813475966453552,0.9893110206297228,-0.0247955322265625,0.2574920654296875,0.9021759033203125,0.938529883759418
1785431037.717157,0.0703125,-0.43603515625,0.8979491591453552,1.0006913597868539,0.0972747802734375,0.3185272216796875,0.7801055908203125,0.8482256224951797
1785431037.727835,0.07421875,-0.43212890625,0.8940429091453552,0.9957693196024237,0.156402587890625,0.194549560546875,0.5359649658203125,0.591244235147063
1785431037.738515,0.07177734375,-0.435546875,0.8803710341453552,0.9848381720669815,-0.2689361572265625,0.2574920654296875,0.7190704345703125,0.8097475596111265
1785431037.749195,0.08203125,-0.44189453125,0.9018554091453552,1.0076423381984085,0.034332275390625,0.072479248046875,0.7801055908203125,0.7842172399023417
1785431037.75721,0.08642578125,-0.43212890625,0.8730468153953552,0.9779650040535528,0.4634857177734375,0.0743865966796875,0.4138946533203125,0.6258283793442789
1785431037.765223,0.0830078125,-0.42724609375,0.8994140028953552,0.99918720476441,0.2803802490234375,0.1354217529296875,0.4138946533203125,0.5179391076720659
1785431037.773236,0.07763671875,-0.4345703125,0.8818358778953552,0.9861609058100438,0.0972747802734375,0.2574920654296875,0.2307891845703125,0.3592049475593589
1785431037.781249,0.08837890625,-0.42138671875,0.8920897841453552,0.9905562986450313,0.0362396240234375,-0.1697540283203125,0.0476837158203125,0.18000965872631916
1785431037.791892,0.087890625,-0.421875,0.8715819716453552,0.9722954339526106,0.4634857177734375,0.1354217529296875,-0.0743865966796875,0.488560566882034
1785431037.802535,0.08056640625,-0.43310546875,0.8823241591453552,0.986188224776972,0.2803802490234375,0.0743865966796875,0.1087188720703125,0.30978418770536414
1785431037.813178,0.08349609375,-0.419921875,0.8696288466453552,0.9693091919984846,0.0362396240234375,0.1354217529296875,-0.1392364501953125,0.19758327504852521
1785431037.823881,0.0859375,-0.423828125,0.8808593153953552,0.9812892881133675,-0.331878662109375,-0.110626220703125,0.1659393310546875,0.3871917724609375
1785431037.834587,0.0693359375,-0.42919921875,0.8764647841453552,0.9783710745170149,-0.3910064697265625,-0.2307891845703125,0.0476837158203125,0.45653416502720945
1785431037.845293,0.0810546875,-0.43017578125,0.8959960341453552,0.997211090162948,-0.820159912109375,-0.110626220703125,0.2307891845703125,0.859164762925566
1785431037.853273,0.07666015625,-0.4306640625,0.8935546278953552,0.9948809915354123,-0.5130767822265625,-0.0476837158203125,0.1087188720703125,0.5266320483588487
1785431037.861252,0.06884765625,-0.43994140625,0.8872069716453552,0.9926855752152681,-0.8792877197265625,0.0743865966796875,-0.0133514404296875,0.882529614681044
1785431037.869231,0.08056640625,-0.43212890625,0.8852538466453552,0.9883828764366871,-0.9403228759765625,0.3185272216796875,0.5359649658203125,1.1282398444579873
1785431037.87721,0.06884765625,-0.42626953125,0.8930663466453552,0.9919744011584647,-1.1844635009765625,0.0743865966796875,0.1659393310546875,1.19834177616493
1785431037.887867,0.080078125,-0.43212890625,0.8852538466453552,0.9883431948067104,-1.1234283447265625,-0.0476837158203125,0.4749298095703125,1.2206241462907368
1785431037.898524,0.0673828125,-0.43212890625,0.8959960341453552,0.9970379773315738,-0.942230224609375,-0.110626220703125,0.2918243408203125,0.9925711071604391
1785431037.909181,0.076171875,-0.43115234375,0.8984374403953552,0.9994420105070085,-0.576019287109375,0.011444091796875,0.1087188720703125,0.5863010996947634
1785431037.919837,0.08740234375,-0.4453125,0.8837890028953552,0.9934915168173352,-0.5130767822265625,-0.2307891845703125,-0.1392364501953125,0.5795672706749277
1785431037.930493,0.07373046875,-0.44482421875,0.8920897841453552,0.9995643804103611,-0.3910064697265625,-0.2307891845703125,-0.0133514404296875,0.4542333849952098
1785431037.941149,0.07958984375,-0.4375,0.8847655653953552,0.9902277005504906,-0.3910064697265625,-0.0476837158203125,-0.0133514404296875,0.39412949278632914
1785431037.949183,0.087890625,-0.43505859375,0.9018554091453552,1.0051586546229179,-0.331878662109375,0.011444091796875,-0.2574920654296875,0.42021015856331995
1785431037.957217,0.08447265625,-0.439453125,0.8916015028953552,0.9976010819418012,0.034332275390625,0.194549560546875,-0.0743865966796875,0.21109619231067717
1785431037.965251,0.0791015625,-0.435546875,0.8906249403953552,0.9945707224558931,-0.148773193359375,-0.110626220703125,-0.0743865966796875,0.1997623326230173
1785431037.973285,0.08349609375,-0.427734375,0.8906249403953552,0.9915347082590601,0.156402587890625,-0.476837158203125,0.1659393310546875,0.5285558688852049
1785431037.983941,0.0869140625,-0.42724609375,0.8872069716453552,0.9885491841183269,0.2193450927734375,-0.3528594970703125,0.4138946533203125,0.5864562033465444
1785431037.994597,0.08935546875,-0.44775390625,0.8823241591453552,0.9934605589399229,0.4024505615234375,-0.2307891845703125,0.4749298095703125,0.6639189906936337
1785431038.005253,0.0751953125,-0.4228515625,0.8857421278953552,0.9843763995846588,0.0362396240234375,-0.1697540283203125,0.3490447998046875,0.3898230531292729
1785431038.015925,0.07568359375,-0.43994140625,0.8842772841453552,0.9905668894888562,0.2193450927734375,-0.2307891845703125,0.7190704345703125,0.7864084227114787
1785431038.026597,0.076171875,-0.43798828125,0.8681640028953552,0.9753689686352703,-0.0858306884765625,0.3185272216796875,0.9632110595703125,1.0181365543550165
1785431038.037269,0.09716796875,-0.42724609375,0.8730468153953552,0.9768273033897068,-0.0247955322265625,0.3185272216796875,0.9632110595703125,1.0148152317776589
1785431038.04525,0.08447265625,-0.435546875,0.8828124403953552,0.9880255638863799,-0.2689361572265625,0.6237030029296875,1.1425018310546875,1.3291510548055152
1785431038.053231,0.07763671875,-0.43798828125,0.8901366591453552,0.9950901801168827,-0.5130767822265625,0.4405975341796875,0.7801055908203125,1.0324430756290117
1785431038.061212,0.08935546875,-0.42626953125,0.8906249403953552,0.9914145941642462,-0.5741119384765625,0.6237030029296875,1.0852813720703125,1.3771149590094671
1785431038.069193,0.0791015625,-0.43603515625,0.8867186903953552,0.9912889339503176,-0.8792877197265625,0.8678436279296875,0.8373260498046875,1.4924524683492006
1785431038.079922,0.08837890625,-0.4423828125,0.8920897841453552,0.9996687285505449,-0.820159912109375,1.171112060546875,0.4138946533203125,1.4884470174771915
1785431038.090651,0.09130859375,-0.4384765625,0.8974608778953552,1.003012952312741,-0.5741119384765625,1.1119842529296875,-0.1964569091796875,1.266771018704386
1785431038.10138,0.09130859375,-0.439453125,0.8955077528953552,1.0016937874722778,-0.7572174072265625,0.7457733154296875,-0.2574920654296875,1.0935530181811728
1785431038.112061,0.080078125,-0.43994140625,0.8857421278953552,0.9922197660626072,-0.0858306884765625,0.3185272216796875,-0.7457733154296875,0.8154779801088008
1785431038.122745,0.06640625,-0.4462890625,0.9062499403953552,1.0123599517033337,0.2193450927734375,0.0743865966796875,-1.2989044189453125,1.3193931654533588
1785431038.133429,0.07666015625,-0.4287109375,0.8842772841453552,0.9857059210250736,0.156402587890625,-0.049591064453125,-1.1157989501953125,1.1277980051540435
1785431038.141367,0.0693359375,-0.4404296875,0.8955077528953552,1.0003598939162046,0.156402587890625,0.011444091796875,-1.1730194091796875,1.1834556481120038
1785431038.149306,0.06591796875,-0.43359375,0.8955077528953552,0.9971373296286109,-0.2079010009765625,-0.1087188720703125,-0.8678436279296875,0.8989967641151215
1785431038.157245,0.08349609375,-0.44140625,0.8632811903953552,0.9731728977427355,-0.1468658447265625,-0.3528594970703125,-0.9288787841796875,1.0044377515401814
1785431038.173222,0.07275390625,-0.42919921875,0.8916015028953552,0.9921987402811496,-0.3910064697265625,0.0743865966796875,-0.1392364501953125,0.4216707414519147
1785431038.181263,0.0712890625,-0.44091796875,0.8754882216453552,0.9828379377285461,-0.4520416259765625,-0.0476837158203125,0.4138946533203125,0.6147553598116151
1785431038.189304,0.07177734375,-0.4326171875,0.8706054091453552,0.9748145446336791,-0.148773193359375,0.072479248046875,0.5359649658203125,0.5609323925809199
1785431038.197345,0.08251953125,-0.4287109375,0.8740233778953552,0.97699509009895,-0.2689361572265625,0.1354217529296875,0.7801055908203125,0.8362000003943126
1785431038.208009,0.08447265625,-0.43359375,0.9057616591453552,1.0077417094031287,-0.453948974609375,-0.110626220703125,0.6542205810546875,0.8039355701369932
1785431038.218673,0.07666015625,-0.435546875,0.8706054091453552,0.9764894460831062,-0.5130767822265625,0.0743865966796875,1.2073516845703125,1.3139555702002719
1785431038.229337,0.064453125,-0.4267578125,0.8808593153953552,0.9809126206603852,-0.3910064697265625,0.1354217529296875,1.0852813720703125,1.1614907520498812
1785431038.237344,0.076171875,-0.43017578125,0.8837890028953552,0.9858683273915587,-0.8792877197265625,0.1354217529296875,1.3904571533203125,1.6507141001542678
1785431038.245351,0.0703125,-0.443359375,0.8779296278953552,0.9860384447845416,-0.5130767822265625,-0.2307891845703125,1.2683868408203125,1.3875577862347666
1785431038.253358,0.087890625,-0.4365234375,0.8891600966453552,0.9944260409482871,-0.6961822509765625,0.1354217529296875,1.0204315185546875,1.2426943557452768
1785431038.261365,0.07470703125,-0.4404296875,0.8769530653953552,0.9841778950250033,-0.637054443359375,0.072479248046875,1.2073516845703125,1.367036830314434
1785431038.27204,0.09130859375,-0.431640625,0.8891600966453552,0.9926009096859475,-1.0013580322265625,-0.0476837158203125,1.1425018310546875,1.519967788942384
1785431038.282715,0.06787109375,-0.4375,0.8686522841453552,0.9749715514402275,-0.759124755859375,0.011444091796875,0.9021759033203125,1.1791194692343234
1785431038.29339,0.07958984375,-0.42578125,0.8662108778953552,0.9684758649878447,-0.7572174072265625,0.0743865966796875,0.6542205810546875,1.0034521095936952
1785431038.304038,0.07568359375,-0.4228515625,0.8754882216453552,0.9751979678564517,-0.99945068359375,0.011444091796875,0.5970001220703125,1.164234418802776
1785431038.314687,0.07275390625,-0.42724609375,0.8916015028953552,0.9913554334669901,-1.1844635009765625,-0.2918243408203125,0.2307891845703125,1.2415228063775128
1785431038.325336,0.07958984375,-0.42578125,0.8823241591453552,0.9829141050423836,-0.99945068359375,-0.476837158203125,0.1087188720703125,1.1126972353355997
1785431038.33337,0.06494140625,-0.4453125,0.8945311903953552,1.0013524152325737,-1.0013580322265625,-0.5359649658203125,0.4138946533203125,1.2088362740001493
1785431038.341406,0.07421875,-0.431640625,0.8896483778953552,0.9916129730362496,-0.8792877197265625,-0.9632110595703125,0.6542205810546875,1.4590843046294601
1785431038.349442,0.0810546875,-0.43798828125,0.8989257216453552,1.0032303075135212,-1.0013580322265625,-0.7190704345703125,0.7190704345703125,1.4271799075277545
1785431038.357478,0.0751953125,-0.44091796875,0.8999022841453552,1.004931396264753,-0.9403228759765625,-0.7190704345703125,0.6542205810546875,1.3525065506804412
1785431038.368056,0.078125,-0.43896484375,0.8881835341453552,0.9938126785266906,-0.576019287109375,-0.476837158203125,0.5970001220703125,0.956859989923914
1785431038.378634,0.0869140625,-0.4365234375,0.8906249403953552,0.9956503152218154,-0.5741119384765625,-0.4138946533203125,0.8373260498046875,1.0963704737131423
1785431038.389212,0.08740234375,-0.44287109375,0.8803710341453552,0.9893569290880196,-0.759124755859375,0.194549560546875,1.3904571533203125,1.5960861573509009
1785431038.399899,0.07421875,-0.431640625,0.8813475966453552,0.9841725652112524,-0.5741119384765625,0.1964569091796875,1.0852813720703125,1.2433967555163445
1785431038.410586,0.09228515625,-0.44580078125,0.9052733778953552,1.0132989565539203,-0.270843505859375,0.499725341796875,1.1425018310546875,1.2760846585801096
1785431038.421273,0.0830078125,-0.4482421875,0.8945311903953552,1.0039907400872539,-0.331878662109375,0.499725341796875,0.9632110595703125,1.1347442041606013
1785431038.4293,0.10205078125,-0.4541015625,0.8955077528953552,1.0092357140501744,-0.2689361572265625,0.4405975341796875,0.9021759033203125,1.0394105080865947
1785431038.437328,0.087890625,-0.4365234375,0.8862304091453552,0.9918073459818952,0.156402587890625,0.560760498046875,0.5970001220703125,0.833860450807347
1785431038.445356,0.09814453125,-0.44091796875,0.9003905653953552,1.0073451118826535,0.4024505615234375,0.2574920654296875,0.5970001220703125,0.7646422457474767
1785431038.453384,0.087890625,-0.4375,0.8925780653953552,0.9979111256959738,0.705718994140625,0.194549560546875,0.4138946533203125,0.8409504231802131
1785431038.464017,0.08056640625,-0.44140625,0.8754882216453552,0.9837733730869367,0.827789306640625,0.011444091796875,-0.1392364501953125,0.8394956179091191
1785431038.47465,0.0869140625,-0.43310546875,0.8818358778953552,0.986290483004314,0.64849853515625,0.194549560546875,-0.0743865966796875,0.6811264547603262
1785431038.485283,0.0927734375,-0.4501953125,0.8803710341453552,0.9931444446125152,0.7686614990234375,-0.1087188720703125,-0.2574920654296875,0.8179012513650077
1785431038.495914,0.068359375,-0.44091796875,0.8749999403953552,0.982194764295194,0.7076263427734375,0.1354217529296875,-1.0509490966796875,1.2741931156482171
1785431038.506547,0.0693359375,-0.43701171875,0.8803710341453552,0.9853120684920058,0.4634857177734375,0.0743865966796875,-0.9899139404296875,1.0955738157707933
1785431038.51718,0.06982421875,-0.4306640625,0.8950194716453552,0.9956941352028656,0.5855560302734375,0.3185272216796875,-0.6847381591796875,0.9556159281726915
1785431038.525226,0.08251953125,-0.4228515625,0.8715819716453552,0.9722489651543045,0.64849853515625,0.377655029296875,-0.3223419189453125,0.8167484214630426
1785431038.533273,0.07861328125,-0.43994140625,0.8671874403953552,0.9755729320258772,0.339508056640625,0.377655029296875,-0.6275177001953125,0.8072592555898827
1785431038.54132,0.07568359375,-0.42919921875,0.8862304091453552,0.987595217603077,0.0972747802734375,0.3795623779296875,-0.8678436279296875,0.9521987944515822
1785431038.549367,0.0751953125,-0.421875,0.8959960341453552,0.9931977365314407,-0.0858306884765625,0.3795623779296875,-0.4405975341796875,0.5878441059917336
1785431038.559977,0.0625,-0.43310546875,0.8857421278953552,0.9879401369464392,-0.0858306884765625,0.2574920654296875,-0.0743865966796875,0.2814292746129899
1785431038.570587,0.06884765625,-0.44287109375,0.8852538466453552,0.9922445154551561,0.0362396240234375,0.4405975341796875,-0.0133514404296875,0.44228696390028105
1785431038.581197,0.07421875,-0.4521484375,0.8901366591453552,1.001144297461514,-0.3910064697265625,0.5626678466796875,0.5359649658203125,0.8699078167495418
1785431038.591885,0.072265625,-0.42578125,0.8847655653953552,0.9845415679988152,-0.0858306884765625,0.7457733154296875,0.6542205810546875,0.9957656922021776
1785431038.602574,0.083984375,-0.44873046875,0.8793944716453552,0.9908314920253336,-0.1468658447265625,0.4405975341796875,0.4749298095703125,0.664269589467229
1785431038.613263,0.07421875,-0.43798828125,0.8867186903953552,0.9917722486843163,-0.148773193359375,0.3204345703125,0.8373260498046875,0.9088050894417485
1785431038.621372,0.08154296875,-0.4423827826976776,0.8930663466453552,0.9999596400307293,-0.2689361572265625,0.1354217529296875,0.5359649658203125,0.6147553598116151
1785431038.629483,0.08203125,-0.43359375,0.8779296278953552,0.9825950832118497,0.0972747802734375,-0.0476837158203125,0.2307891845703125,0.2549505194078012
1785431038.637594,0.0830078125,-0.43994140625,0.8989257216453552,1.0042440893054265,0.034332275390625,0.072479248046875,0.1087188720703125,0.13509899953433824
1785431038.645705,0.07421875,-0.4443359375,0.8896483778953552,0.9972046352165653,0.034332275390625,0.011444091796875,-0.1392364501953125,0.14386264780527555
1785431038.656209,0.0771484375,-0.4443359375,0.8945311903953552,1.001784586302278,0.156402587890625,0.011444091796875,-0.4405975341796875,0.46767395037692755
1785431038.666713,0.07421875,-0.44091796875,0.8789061903953552,0.9860999794815254,0.339508056640625,-0.415802001953125,-0.5016326904296875,0.7347056427303706
1785431038.677217,0.07421875,-0.4365234375,0.8837890028953552,0.9885060121097621,0.217437744140625,-0.476837158203125,-0.6847381591796875,0.8622755908971232
1785431038.687887,0.07373046875,-0.4375,0.8764647841453552,0.9823609061180412,0.2193450927734375,-0.1697540283203125,-0.7457733154296875,0.795679921740991
1785431038.698559,0.0693359375,-0.4365234375,0.8842772841453552,0.9885881341445009,-0.0247955322265625,-0.0476837158203125,-0.2574920654296875,0.2630412875045993
1785431038.709231,0.07275390625,-0.43896484375,0.8837890028953552,0.9894777746679618,-0.2079010009765625,-0.2307891845703125,-0.4405975341796875,0.5390850220947595
1785431038.719883,0.068359375,-0.4345703125,0.8813475966453552,0.9850370281209139,-0.2079010009765625,-0.3528594970703125,-0.1392364501953125,0.43257304578852607
1785431038.730537,0.07470703125,-0.44775390625,0.8842772841453552,0.9939874326850453,-0.2689361572265625,-0.4138946533203125,0.0476837158203125,0.4958923043014121
1785431038.741191,0.07080078125,-0.44287109375,0.8745116591453552,0.9828113747236006,-0.0247955322265625,-0.2307891845703125,0.7801055908203125,0.8139061364568626
1785431038.749212,0.07763671875,-0.431640625,0.8896483778953552,0.9918746521312529,-0.087738037109375,0.011444091796875,0.9021759033203125,0.9065044351379
1785431038.757233,0.07275390625,-0.42822265625,0.8940429091453552,0.9939720808923806,-0.2689361572265625,-0.1697540283203125,1.4514923095703125,1.4859249683400988
1785431038.765254,0.09130859375,-0.43701171875,0.8930663466453552,0.9984407849882303,-0.0858306884765625,-0.1087188720703125,1.0852813720703125,1.0940851688929074
1785431038.773275,0.09130859375,-0.44287109375,0.8833007216453552,0.9923165975791844,-0.4520416259765625,0.0743865966796875,1.2683868408203125,1.3485845080480696
1785431038.781281,0.09375,-0.42626953125,0.8789061903953552,0.9813107903653007,-0.331878662109375,-0.232696533203125,0.9021759033203125,0.9890462494039819
1785431038.789287,0.08544921875,-0.4267578125,0.8798827528953552,0.98164018782723,-0.2689361572265625,-0.2307891845703125,1.0852813720703125,1.1416768198317946
1785431038.797293,0.07080078125,-0.4296875,0.8828124403953552,0.9843789428866624,-0.2689361572265625,-0.1697540283203125,0.7190704345703125,0.7862603746011253
1785431038.81592,0.0888671875,-0.43994140625,0.8886718153953552,0.9955819471170939,-0.331878662109375,-0.415802001953125,0.5359649658203125,0.7551775922115963
1785431038.826541,0.06640625,-0.43798828125,0.8857421278953552,0.9903447085131436,-0.1468658447265625,-0.0476837158203125,0.3490447998046875,0.38167471146563203
1785431038.837162,0.09033203125,-0.43115234375,0.8720702528953552,0.9770152226940162,-0.331878662109375,-0.110626220703125,0.1087188720703125,0.3663350927972997
1785431038.845227,0.091796875,-0.43359375,0.8818358778953552,0.9869471727718258,-0.270843505859375,0.011444091796875,-0.1392364501953125,0.30475229443967167
1785431038.853293,0.078125,-0.4267578125,0.8920897841453552,0.9919929078029196,-0.0858306884765625,-0.1087188720703125,-0.1964569091796875,0.24037890380197194
1785431038.861359,0.087890625,-0.4306640625,0.8842772841453552,0.9874930946327574,0.156402587890625,-0.1678466796875,-0.1964569091796875,0.3020423721027215
1785431038.869425,0.09228515625,-0.4169921875,0.8818358778953552,0.9798130178986162,0.034332275390625,-0.110626220703125,-0.3223419189453125,0.34252179281018114
1785431038.879008,0.07177734375,-0.43505859375,0.8793944716453552,0.983749258618245,-0.2689361572265625,-0.1697540283203125,-0.3223419189453125,0.4528215978772548
1785431038.888591,0.076171875,-0.43359375,0.8940429091453552,0.996553269009323,0.095367431640625,0.011444091796875,-0.1392364501953125,0.16915289922959145
1785431038.898174,0.08251953125,-0.431640625,0.8896483778953552,0.992268783384798,-0.02288818359375,-0.293731689453125,-0.0133514404296875,0.2949244569355952
1785431038.907757,0.07568359375,-0.42919921875,0.8916015028953552,0.9924178634545942,-0.0858306884765625,-0.1087188720703125,-0.1964569091796875,0.24037890380197194
1785431038.91734,0.0869140625,-0.42041015625,0.8735350966453552,0.9733253920501681,-0.0858306884765625,-0.0476837158203125,-0.0133514404296875,0.09909038702286177
1785431038.928122,0.0859375,-0.4423828125,0.8872069716453552,0.995100003636711,-0.2079010009765625,-0.1087188720703125,0.2918243408203125,0.3744383330356382
1785431038.938902,0.09326171875,-0.44091796875,0.8891600966453552,0.9968510825681073,-0.087738037109375,0.194549560546875,-0.0133514404296875,0.21383581464837864
1785431038.949682,0.076171875,-0.44091796875,0.8989257216453552,1.004130600441628,-0.5741119384765625,0.2574920654296875,-0.0133514404296875,0.629352796626908
1785431038.957581,0.0849609375,-0.44189453125,0.8930663466453552,1.0000283181790492,0.0972747802734375,0.0743865966796875,0.1659393310546875,0.20623193310859794
1785431038.965482,0.06689453125,-0.42578125,0.8837890028953552,0.9832840651619886,-0.2079010009765625,0.1964569091796875,0.1087188720703125,0.30600316422503476
1785431038.973383,0.0908203125,-0.4287109375,0.8828124403953552,0.9855958614013804,-0.0858306884765625,0.1354217529296875,0.0476837158203125,0.16727132152686056
