timestamp,accel_x,accel_y,accel_z,accel_rms,gyro_x,gyro_y,gyro_z,gyro_rms
1784715998.182036,0.02001953125,0.0722656175494194,0.9799804091453552,0.9828452082703392,-0.011444091796875,-0.881195068359375,1.6536712646484375,1.8738368037963982
1784715998.192694,-0.00048827752470970154,0.08251953125,0.9711913466453552,0.9746908962596703,-0.4367828369140625,-0.6389617919921875,1.2874603271484375,1.5022002237483942
1784715998.203352,0.01611328125,0.0820312425494194,0.9975585341453552,1.0010553389463908,-0.865936279296875,-0.759124755859375,1.2264251708984375,1.6823301502898689
1784715998.214066,0.01123046875,0.07666015625,0.9907225966453552,0.9937475365948508,-0.988006591796875,-0.209808349609375,0.6771087646484375,1.2159987040139557
1784715998.224783,0.010742191225290298,0.07373046875,0.9907225966453552,0.9935204276702773,-0.6809234619140625,0.1544952392578125,0.2498626708984375,0.7415907862472816
1784715998.2355,0.0156250037252903,0.08984375,0.9829100966453552,0.9871313480195325,-0.804901123046875,0.461578369140625,0.3681182861328125,0.9982141460257908
1784715998.246131,0.008300784975290298,0.07958984375,0.9843749403953552,0.9876221289226536,-0.988006591796875,0.766754150390625,-0.2384185791015625,1.2731505690357814
1784715998.256762,0.01513671875,0.0678710862994194,0.9799804091453552,0.9824445057705181,-0.988006591796875,0.949859619140625,-0.6084442138671875,1.4995314877976087
1784715998.267393,0.0034179724752902985,0.08056640625,0.9843749403953552,0.987672340217261,-0.7419586181640625,0.7038116455078125,-0.6656646728515625,1.2202306667605587
1784715998.275396,-0.0024414025247097015,0.07861328125,0.9853515028953552,0.9884855045438524,-1.5964508056640625,0.8869171142578125,-1.2149810791015625,2.193503171879092
1784715998.2834,0.008789066225290298,0.07373046875,0.9741210341453552,0.9769468864127792,-1.842498779296875,0.522613525390625,-1.2798309326171875,2.303452596585281
1784715998.291404,0.0009765625,0.07568359375,0.9824218153953552,0.9853332346987678,-2.147674560546875,0.217437744140625,-1.2149810791015625,2.477087849304496
1784715998.299408,-0.0009765587747097015,0.07275390625,0.9877929091453552,0.9904690383346257,-2.086639404296875,0.095367431640625,-1.3370513916015625,2.4800938237022043
1784715998.310079,-0.00048827752470970154,0.06689453125,0.9785155653953552,0.9807995862800362,-2.269744873046875,0.278472900390625,-1.3370513916015625,2.648961186721734
1784715998.32075,0.0039062537252902985,0.07177734375,0.9873046278953552,0.9899180138564798,-2.147674560546875,0.034332275390625,-0.6656646728515625,2.248731682490441
1784715998.331421,-0.0185546875,0.0810546875,0.9873046278953552,0.990799963190114,-2.1457672119140625,-0.1506805419921875,-0.1773834228515625,2.158352712640602
1784715998.339405,-0.012695308774709702,0.0610351525247097,0.9853515028953552,0.9873216522323083,-2.5119781494140625,0.0324249267578125,-0.3604888916015625,2.5379199829736696
1784715998.347389,-0.011718746274709702,0.0751953125,0.9995116591453552,1.0024047190649714,-2.2678375244140625,0.0324249267578125,0.0629425048828125,2.2689425228367237
1784715998.355373,0.0043945349752902985,0.076171875,0.9921874403953552,0.9951167687045331,-2.330780029296875,-0.209808349609375,0.3108978271484375,2.3607652461565447
1784715998.363357,-0.00439453125,0.06201171875,0.9907225966453552,0.9926711583756987,-2.147674560546875,-0.026702880859375,0.7381439208984375,2.271139694035953
1784715998.374036,0.0180664099752903,0.07080078125,0.9809569716453552,0.9836746037255572,-2.0236968994140625,0.0324249267578125,0.6771087646484375,2.134215733176258
1784715998.384715,0.005859375,0.0629882737994194,0.9858397841453552,0.9878673670667443,-2.2068023681640625,0.3376007080078125,0.4940032958984375,2.286479867949948
1784715998.395394,-0.00390625,0.0673828050494194,0.9877929091453552,0.9900962238910087,-2.3899078369140625,0.0324249267578125,0.4329681396484375,2.4290270181225098
1784715998.403379,0.0,0.0776367112994194,0.9931640028953552,0.9961938544221774,-2.3899078369140625,-0.0896453857421875,0.3108978271484375,2.411711679088887
1784715998.411365,-0.0009765587747097015,0.0654296875,0.9799804091453552,0.982162715634271,-2.4509429931640625,-0.3337860107421875,0.0629425048828125,2.474367882031312
1784715998.419351,0.00244140625,0.06201171875,0.9868163466453552,0.9887658548581117,-2.51007080078125,-0.209808349609375,-0.0553131103515625,2.5194313859831943
1784715998.427337,-0.0175781212747097,0.06884765625,0.9931640028953552,0.9957026296870928,-2.758026123046875,-0.514984130859375,-0.3032684326171875,2.822036231636307
1784715998.438056,0.009765625,0.0810546875,0.9951171278953552,0.9984604789515027,-2.51007080078125,-0.514984130859375,-0.2384185791015625,2.5734233034680516
1784715998.448775,0.0048828125,0.0678710862994194,0.9897460341453552,0.9920824251642764,-2.51007080078125,-0.392913818359375,-0.2384185791015625,2.5517993871880247
1784715998.459494,-0.0175781212747097,0.0610351525247097,0.9965819716453552,0.9986039787622552,-2.3899078369140625,-0.3948211669921875,0.0057220458984375,2.422307983031388
1784715998.470144,-0.011230465024709702,0.0605468712747097,0.9912108778953552,0.9931218713853341,-2.330780029296875,-0.759124755859375,0.0057220458984375,2.451293267183052
1784715998.480794,0.0004882849752902985,0.07958984375,0.9907225966453552,0.9939145059581743,-2.269744873046875,-0.881195068359375,0.6771087646484375,2.5271966319198813
1784715998.491444,0.0019531287252902985,0.06396484375,1.005859375,1.0078930490003242,-2.147674560546875,-0.942230224609375,1.0395050048828125,2.5653215138387746
1784715998.502101,0.0014648474752902985,0.06396484375,0.9936522841453552,0.9957100525762355,-1.659393310546875,-1.186370849609375,1.2874603271484375,2.412180765587801
1784715998.51276,0.0068359412252902985,0.076171875,0.9897460341453552,0.9926963769148701,-1.4743804931640625,-0.4558563232421875,1.0395050048828125,1.86069166742881
1784715998.523419,0.01513671875,0.0590820237994194,0.9902343153953552,0.9921107827139364,-1.4133453369140625,-0.1506805419921875,1.1043548583984375,1.7999581440633605
1784715998.531447,0.0034179724752902985,0.0634765625,0.9946288466453552,0.9966581656223601,-1.171112060546875,-0.270843505859375,0.7381439208984375,1.4105729725837879
1784715998.539478,0.0175781287252903,0.06591796875,0.9868163466453552,0.9891717096743592,-1.04522705078125,-0.392913818359375,0.0629425048828125,1.1184107542685453
1784715998.547509,0.0219726599752903,0.0595703087747097,0.9892577528953552,0.9912932568808646,-0.865936279296875,-0.270843505859375,-0.3604888916015625,0.976296105409028
1784715998.55554,0.0175781287252903,0.0673828125,0.9975585341453552,0.9999862314432748,-0.7419586181640625,-0.5130767822265625,-0.8487701416015625,1.2386125822072958
1784715998.566154,0.0068359375,0.0673828050494194,0.9985350966453552,1.0008294118831544,-1.0471343994140625,-0.6389617919921875,-1.4591217041015625,1.906252546081543
1784715998.576768,0.009765621274709702,0.064453125,0.9956054091453552,0.9977372917760651,-0.988006591796875,-0.698089599609375,-2.0084381103515625,2.344634248156716
1784715998.587382,0.00146484375,0.0576171875,0.9897460341453552,0.9914227646009954,-0.682830810546875,-0.942230224609375,-2.0732879638671875,2.3775152350965247
1784715998.595477,0.008789066225290298,0.06884765625,0.9897460341453552,0.9921766272003636,-0.865936279296875,-0.576019287109375,-1.6422271728515625,1.9438502890337372
1784715998.603571,-0.00390625,0.05126953125,0.9931640028953552,0.9944941227934846,-1.110076904296875,-0.698089599609375,-1.2798309326171875,1.8323665131790339
1784715998.611665,0.0058593787252902985,0.0546874962747097,0.9775390028953552,0.9790850610388702,-0.988006591796875,-0.453948974609375,-0.7266998291015625,1.3077917795273144
1784715998.619759,-0.00830078125,0.0624999925494194,0.9931640028953552,0.9951632472540186,-1.1081695556640625,-0.0896453857421875,-0.1201629638671875,1.1182643681933617
1784715998.630743,-0.0009765587747097015,0.0620117150247097,0.9956054091453552,0.9975352310504308,-0.988006591796875,0.095367431640625,0.4329681396484375,1.0829189177415062
1784715998.641727,-0.013183590024709702,0.0732421875,0.9916991591453552,0.9944875299999137,-0.865936279296875,-0.087738037109375,1.2264251708984375,1.5038824098883474
1784715998.652711,-0.0068359337747097015,0.06298828125,0.9907225966453552,0.9927464515520146,-0.316619873046875,0.095367431640625,1.5277862548828125,1.5631615180891572
1784715998.660656,-0.0009765587747097015,0.0732421875,1.0009765625,1.0036530527882341,-0.316619873046875,0.217437744140625,1.4705657958984375,1.5198983770803849
1784715998.668602,0.0073242224752902985,0.0673828125,0.9946288466453552,0.9969356199044888,-0.0705718994140625,0.0324249267578125,1.6536712646484375,1.6554940109786325
1784715998.676548,0.0024414099752902985,0.0546874962747097,0.9799804091453552,0.9815081686059274,-0.377655029296875,0.278472900390625,2.0160675048828125,2.069951366976915
1784715998.684494,0.00146484375,0.07177734375,0.9936522841453552,0.9962424376778473,-0.0095367431640625,0.3376007080078125,1.7757415771484375,1.8075738812925943
1784715998.694818,0.010742191225290298,0.06494140625,0.9770507216453552,0.9792654867735091,-0.194549560546875,0.278472900390625,1.5926361083984375,1.6284613785827002
1784715998.705142,0.007812503725290298,0.0654296875,0.9799804091453552,0.98219330150918,-0.2536773681640625,0.0934600830078125,1.3446807861328125,1.371587915822107
1784715998.715466,0.008789066225290298,0.068359375,0.9956054091453552,0.9979881675425782,-0.377655029296875,0.156402587890625,1.1043548583984375,1.1775757911575548
1784715998.723652,0.008789066225290298,0.0673828125,0.9853515028953552,0.9876918929320306,-0.316619873046875,0.217437744140625,0.6771087646484375,0.7784623277647521
1784715998.731838,0.012207034975290298,0.0605468712747097,0.9829100966453552,0.9848488175407563,-0.011444091796875,0.034332275390625,0.6771087646484375,0.6780751813289483
1784715998.740024,0.0034179724752902985,0.0620117150247097,0.9946288466453552,0.996565942582435,-0.194549560546875,0.339508056640625,0.0057220458984375,0.3913412754133403
1784715998.74821,0.013183597475290298,0.0566406212747097,0.9863280653953552,0.9880410010760281,-0.2536773681640625,-0.3337860107421875,0.4940032958984375,0.6479232704914589
1784715998.758626,-0.0024414025247097015,0.06494140625,0.9892577528953552,0.9913900586326165,-0.377655029296875,-0.392913818359375,0.1277923583984375,0.559763768634593
1784715998.769042,0.0043945349752902985,0.07275390625,0.9892577528953552,0.9919391838594998,-0.0095367431640625,-0.3337860107421875,0.3681182861328125,0.49700615994444197
1784715998.779458,0.0073242224752902985,0.078125,0.9838866591453552,0.987010697968404,-0.1316070556640625,0.0324249267578125,0.1888275146484375,0.23243842897446848
1784715998.78747,0.005859375,0.0634765550494194,0.9843749403953552,0.9864368345690928,-0.865936279296875,-0.026702880859375,0.6771087646484375,1.0995612592359003
1784715998.795482,0.0034179724752902985,0.068359375,0.9794921278953552,0.98188060134377,-0.7419586181640625,-0.1506805419921875,0.6160736083984375,0.9760911370195182
1784715998.803494,0.0048828125,0.0703125,0.9843749403953552,0.9868949856963097,-0.7419586181640625,-0.2727508544921875,0.6160736083984375,1.0022186940280124
1784715998.811506,0.009277347475290298,0.0634765625,0.9887694716453552,0.9908483290700089,-0.7419586181640625,-0.1506805419921875,0.9822845458984375,1.2401976237333645
1784715998.822208,0.0190429724752903,0.07568359375,0.9824218153953552,0.9855167499988597,-0.6198883056640625,0.2155303955078125,0.4329681396484375,0.7862418666272136
1784715998.83291,0.01611328125,0.0771484300494194,0.9926757216453552,0.9957994810381549,-0.7419586181640625,0.5207061767578125,0.3108978271484375,0.9582770854545585
1784715998.843612,0.0288085974752903,0.06787109375,0.9843749403953552,0.9871324348503973,-0.74005126953125,0.278472900390625,-0.1773834228515625,0.8103628301503704
1784715998.851637,0.014160159975290298,0.07421875,0.9921874403953552,0.9950602242378975,-0.55694580078125,0.583648681640625,-0.3604888916015625,0.8836213270156117
1784715998.859664,0.009277347475290298,0.07666015625,0.9658202528953552,0.9689022704252992,-0.0705718994140625,0.6465911865234375,-0.5435943603515625,0.8476764619138127
1784715998.867691,0.0073242224752902985,0.07470703125,0.9931640028953552,0.995996747685544,-0.011444091796875,0.705718994140625,-0.6656646728515625,0.97019571356015
1784715998.875718,0.0009765625,0.0624999925494194,1.00244140625,1.0043883590063514,0.2346038818359375,0.5817413330078125,-0.6656646728515625,0.9146427808629852
1784715998.886272,-0.0058593712747097015,0.08203125,0.9926757216453552,0.9960765766508236,0.3566741943359375,0.5207061767578125,-0.6656646728515625,0.9173117573112786
1784715998.896826,-0.0019531212747097015,0.068359375,0.9819335341453552,0.9843120868465914,0.049591064453125,0.583648681640625,-0.3604888916015625,0.6877916095901118
1784715998.90738,-0.0024414025247097015,0.08056640625,0.9975585341453552,1.0008096398958983,0.0514984130859375,-0.0896453857421875,-0.3032684326171875,0.3204061858911607
1784715998.918054,-0.0087890625,0.0825195237994194,0.9916991591453552,0.9951652835973109,0.049591064453125,0.095367431640625,0.4940032958984375,0.5055625352514191
1784715998.928728,0.0004882849752902985,0.083984375,0.9882811903953552,0.9918433973947793,-0.0095367431640625,0.1544952392578125,0.9212493896484375,0.9341628157613237
1784715998.939402,-0.0048828087747097015,0.0751953125,0.9804686903953552,0.9833600712298044,-0.4367828369140625,-0.2727508544921875,1.1653900146484375,1.274090327053463
1784715998.947408,-0.0048828087747097015,0.076171875,0.9794921278953552,0.9824616150117607,-0.55694580078125,-0.087738037109375,1.2264251708984375,1.3498167608890237
1784715998.955414,-0.0058593712747097015,0.07568359375,0.9799804091453552,0.9829160396002029,-0.9250640869140625,-0.0247955322265625,1.2874603271484375,1.5855322378613776
1784715998.96342,-0.0048828087747097015,0.068359375,0.9921874403953552,0.9945515385590671,-1.1081695556640625,-0.0896453857421875,1.2264251708984375,1.6553533638165638
1784715998.971426,0.0014648474752902985,0.06494140625,0.9804686903953552,0.9826181276922569,-1.476287841796875,-0.087738037109375,1.3446807861328125,1.9988221960914483
1784715998.982083,-0.00048827752470970154,0.0693359375,0.9711913466453552,0.9736633619700207,-1.4133453369140625,0.0934600830078125,1.2264251708984375,1.873605755837074
1784715998.99274,-0.0048828087747097015,0.0610351525247097,0.9702147841453552,0.9721449784057228,-1.4133453369140625,0.0324249267578125,1.1653900146484375,1.8321381780570645
1784715999.003397,0.0053710974752902985,0.0791015625,0.9819335341453552,0.9851291140542026,-1.5964508056640625,-0.0896453857421875,0.9822845458984375,1.8765858358202534
1784715999.014068,0.011230472475290298,0.0732421875,0.9858397841453552,0.9886205650023491,-1.781463623046875,-0.026702880859375,0.7381439208984375,1.9285181181531086
1784715999.024742,0.0,0.0727538987994194,0.9907225966453552,0.9933903529299202,-1.781463623046875,0.278472900390625,0.5512237548828125,1.885472732350795
1784715999.035416,0.01025390625,0.056640625,0.9912108778953552,0.9928808123092395,-1.7185211181640625,0.3376007080078125,0.3681182861328125,1.7896368749577651
1784715999.043409,0.0014648474752902985,0.07421875,0.9999999403953552,1.0027514395005386,-1.354217529296875,0.888824462890625,-0.5435943603515625,1.708627774295433
1784715999.051405,0.0258789099752903,0.06396484375,0.9829100966453552,0.9853291213116826,-0.9250640869140625,1.3141632080078125,-1.1539459228515625,1.9784740824800504
1784715999.059401,0.007812503725290298,0.07080078125,0.9902343153953552,0.9927929216239285,-0.988006591796875,0.949859619140625,-1.5850067138671875,2.0953845958468125
1784715999.067397,-0.00048827752470970154,0.0654296875,0.9921874403953552,0.9943425965428492,-0.865936279296875,0.705718994140625,-1.3370513916015625,1.7422948551485324
1784715999.078067,-0.0048828087747097015,0.06787109375,0.9887694716453552,0.9911081652605767,-1.22833251953125,0.095367431640625,-1.3980865478515625,1.8634757097529384
1784715999.088737,0.0039062537252902985,0.0590820275247097,0.9775390028953552,0.9793306116813884,-1.293182373046875,-0.087738037109375,-1.2798309326171875,1.8215339220554563
1784715999.099407,0.00048828125,0.07177734375,0.9799804091453552,0.9826056318804013,-1.53350830078125,0.095367431640625,-0.7915496826171875,1.7283788808111769
1784715999.110096,0.0068359375,0.0722656175494194,0.9965819716453552,0.9992220352503474,-1.1081695556640625,0.1544952392578125,-0.7915496826171875,1.3705690216495428
1784715999.120784,-0.0078124962747097015,0.080078125,0.9848632216453552,0.9881442741579926,-1.2302398681640625,0.3986358642578125,-0.6084442138671875,1.4291973435748342
1784715999.131472,0.0009765625,0.0683593675494194,0.9902343153953552,0.992591535422593,-1.110076904296875,0.583648681640625,-0.2384185791015625,1.2766205136590048
1784715999.139437,0.00048828125,0.0771484300494194,0.9736327528953552,0.9766846247321891,-0.6198883056640625,1.1348724365234375,-0.2384185791015625,1.3149297994723954
1784715999.147403,0.0034179724752902985,0.0693359375,0.9897460341453552,0.9921775883738275,-0.865936279296875,1.010894775390625,0.0057220458984375,1.3310847563261483
1784715999.155369,0.00537109375,0.0683593675494194,0.9809569716453552,0.9833506149891066,-0.804901123046875,1.071929931640625,-0.2384185791015625,1.3615223153110652
1784715999.163335,-0.0034179650247097015,0.0551757775247097,0.9765624403953552,0.9781258860194316,-1.1081695556640625,0.8869171142578125,-0.2384185791015625,1.439272437909133
1784715999.174046,0.0058593787252902985,0.06494140625,0.9882811903953552,0.9904299217279505,-1.2302398681640625,1.0089874267578125,-0.3032684326171875,1.6197276014187594
1784715999.184757,-0.010742183774709702,0.0600585900247097,0.9726561903953552,0.9745678495940707,-1.0471343994140625,0.3376007080078125,-0.3604888916015625,1.1577637623676726
1784715999.195468,-0.00048827752470970154,0.0712890625,0.9931640028953552,0.995719390940136,-1.04522705078125,-0.026702880859375,-0.6084442138671875,1.2097177327457507
1784715999.206103,0.0063476599752902985,0.07080078125,0.9868163466453552,0.9893733094334303,-1.04522705078125,-0.392913818359375,-0.5435943603515625,1.2419241864738113
1784715999.216738,-0.0058593712747097015,0.068359375,0.9902343153953552,0.9926083496367706,-0.9250640869140625,-0.2079010009765625,-0.9136199951171875,1.3166882267959772
1784715999.227373,-0.012207027524709702,0.06787109375,1.00439453125,1.0067590929774202,-0.865936279296875,-0.331878662109375,-1.2798309326171875,1.5804924239773515
1784715999.235411,-0.0048828087747097015,0.0581054650247097,0.9892577528953552,0.9909747668587913,-0.55694580078125,-0.698089599609375,-0.6084442138671875,1.0806118986385007
1784715999.24345,-0.008300777524709702,0.0693359375,0.9819335341453552,0.984413450037994,-0.1316070556640625,-0.5130767822265625,0.0057220458984375,0.5297177959723375
1784715999.251489,-0.012695308774709702,0.0693359375,0.9970702528953552,0.9995587688088664,-0.194549560546875,-0.698089599609375,0.5512237548828125,0.9105087855363432
1784715999.259528,-0.008300777524709702,0.06591796875,0.9833983778953552,0.985640122539082,0.171661376953125,-0.514984130859375,0.7381439208984375,0.9162601875743306
1784715999.270231,-0.0024414025247097015,0.0751953125,0.9775390028953552,0.9804299045061333,0.354766845703125,-0.392913818359375,0.7991790771484375,0.9586073131474206
1784715999.280934,0.0029296912252902985,0.0595703087747097,0.9926757216453552,0.9944658330592945,0.3566741943359375,-0.6389617919921875,1.4095306396484375,1.588164121442992
1784715999.291637,-0.01318359375,0.06689453125,0.9760741591453552,0.9784525791302482,0.1125335693359375,-0.4558563232421875,1.6536712646484375,1.719039686334011
1784715999.302224,0.007812503725290298,0.0732421875,0.9956054091453552,0.9983263914991595,0.2346038818359375,-0.1506805419921875,1.5926361083984375,1.616859109781081
1784715999.312811,0.0039062537252902985,0.076171875,0.9853515028953552,0.9882990426066987,0.2346038818359375,0.2803802490234375,1.2264251708984375,1.2797541815630833
1784715999.323398,-0.00439453125,0.0654296875,0.9873046278953552,0.989480057492237,0.3566741943359375,-0.2727508544921875,0.8563995361328125,0.9669693247564294
1784715999.331431,0.0068359412252902985,0.07080078125,0.9956054091453552,0.9981430816458812,-0.011444091796875,-0.453948974609375,0.6771087646484375,0.8152772031338122
1784715999.339465,-0.0078124962747097015,0.0712890625,0.9746093153953552,0.9772443313652805,-0.0095367431640625,-0.6389617919921875,0.4940032958984375,0.8077142919712168
1784715999.347499,-0.00048827752470970154,0.072265625,0.9946288466453552,0.9972507716470573,-0.1316070556640625,-0.1506805419921875,0.5512237548828125,0.5864065746414598
1784715999.355533,-0.004882805049419403,0.05712890625,0.9960936903953552,0.9977425488370784,-0.011444091796875,-0.026702880859375,-0.0553131103515625,0.06247840634978943
1784715999.366154,0.00048828125,0.0781249925494194,0.9838866591453552,0.9869836426829142,0.1125335693359375,-0.3337860107421875,0.3108978271484375,0.4698237585736695
1784715999.376775,0.01025390625,0.0751953125,0.9873046278953552,0.9902171003769539,0.1735687255859375,-0.3337860107421875,0.2498626708984375,0.45163099736091084
1784715999.387396,0.01025390625,0.0532226487994194,0.9936522841453552,0.9951294663137514,-0.0095367431640625,-0.1506805419921875,0.7381439208984375,0.7534268532276742
1784715999.395384,-0.0058593712747097015,0.06689453125,0.9790038466453552,0.9813041028597069,0.2346038818359375,-0.2727508544921875,0.5512237548828125,0.6582398027662988
1784715999.403374,0.00048828125,0.06640625,0.9809569716453552,0.983202221660055,0.476837158203125,-0.453948974609375,0.7991790771484375,1.0354373686244684
1784715999.411364,0.0048828125,0.0654296875,0.9877929091453552,0.9899695536844059,0.6008148193359375,0.0324249267578125,0.4940032958984375,0.7785043862223539
1784715999.419354,-0.004882805049419403,0.07666015625,0.9936522841453552,0.9966170192850947,0.659942626953125,0.217437744140625,0.6771087646484375,0.97019571356015
1784715999.430049,0.0048828125,0.0722656175494194,0.9980468153953552,1.0006715780207407,1.0890960693359375,0.5207061767578125,0.9212493896484375,1.5185406180554888
1784715999.440744,-0.0009765587747097015,0.0849609375,0.9868163466453552,0.9904674737589343,0.90789794921875,0.583648681640625,0.6160736083984375,1.2427675409108185
1784715999.451439,0.0068359375,0.06640625,0.9858397841453552,0.9880974648709139,0.965118408203125,0.217437744140625,0.7381439208984375,1.2343375398928838
1784715999.462126,0.01513671875,0.0732421800494194,1.0087890625,1.011557665095044,0.7228851318359375,0.2155303955078125,0.3681182861328125,0.8393612677521962
1784715999.472812,0.0068359412252902985,0.076171875,0.9819335341453552,0.9849072799571738,0.9059906005859375,0.3986358642578125,0.4329681396484375,1.0803661095079158
1784715999.483498,0.014160159975290298,0.0703125,0.9926757216453552,0.9952635058771635,0.659942626953125,0.217437744140625,0.3108978271484375,0.7612232933721715
1784715999.491536,0.0043945349752902985,0.068359375,0.9882811903953552,0.9906523241669097,0.9670257568359375,0.3376007080078125,0.1888275146484375,1.041522387046865
1784715999.499573,0.011230472475290298,0.0595703087747097,0.9770507216453552,0.9789294447850886,0.476837158203125,0.278472900390625,0.1277923583984375,0.5667907184845512
1784715999.50761,-0.0014648400247097015,0.07568359375,0.9951171278953552,0.9979921093625509,0.6618499755859375,0.1544952392578125,0.1888275146484375,0.7053864185145193
1784715999.515647,0.010742191225290298,0.07958984375,0.9985350966453552,1.0017595904871683,0.965118408203125,0.278472900390625,0.6160736083984375,1.1783664069675324
1784715999.526242,0.012207034975290298,0.0634765625,0.9916991591453552,0.9938035560105976,0.659942626953125,0.583648681640625,0.6160736083984375,1.0750426714394654
1784715999.536837,0.0009765662252902985,0.07421875,0.9892577528953552,0.9920384459267305,1.0280609130859375,0.8258819580078125,0.7991790771484375,1.5419719345467147
1784715999.547432,0.0048828125,0.07080078125,0.9916991591453552,0.9942352914341379,1.4553070068359375,0.8258819580078125,0.4940032958984375,1.7447173837235395
1784715999.555629,0.001953125,0.0722656175494194,0.9882811903953552,0.9909217151048436,1.6384124755859375,1.0089874267578125,0.7381439208984375,2.0608996859309556
1784715999.563828,0.0068359375,0.06689453125,0.9892577528953552,0.9915404732113706,1.819610595703125,1.132965087890625,0.6160736083984375,2.2302778529454943
1784715999.572027,-0.0009765587747097015,0.076171875,0.9877929091453552,0.9907259659289748,1.636505126953125,1.255035400390625,0.9212493896484375,2.258752603696372
1784715999.580226,-0.010742183774709702,0.0634765625,0.9863280653953552,0.9884268921299189,1.819610595703125,0.949859619140625,0.6771087646484375,2.1614097934525947
1784715999.590628,0.00048828125,0.0776367112994194,0.9814452528953552,0.9845112908396715,2.1877288818359375,1.5583038330078125,0.9212493896484375,2.8395719632214957
1784715999.60103,0.013183597475290298,0.07861328125,0.9921874403953552,0.9953842334041506,2.124786376953125,1.743316650390625,1.2874603271484375,3.0350328145171575
1784715999.611432,0.01513671875,0.0810546875,0.9736327528953552,0.9771180686748286,2.06756591796875,1.438140869140625,1.4095306396484375,2.886148750280596
1784715999.619431,-0.015624996274709702,0.0810546875,0.9663085341453552,0.9698279156821856,1.636505126953125,1.682281494140625,1.5277862548828125,2.8004197715129653
1784715999.62743,-0.0058593712747097015,0.09423828125,0.9780272841453552,0.9825744523533209,1.331329345703125,1.377105712890625,1.7147064208984375,2.5708123387514377
1784715999.635429,-0.0078124962747097015,0.06884765625,0.9760741591453552,0.9785304282547747,1.5163421630859375,1.6231536865234375,2.3212432861328125,3.2128012448708096
1784715999.643428,-0.015136715024709702,0.0849609375,0.9736327528953552,0.9774498547512328,0.965118408203125,1.682281494140625,2.9354095458984375,3.518260048593938
1784715999.653016,-0.0205078087747097,0.07958984375,0.9843749403953552,0.9878001501960043,0.5397796630859375,1.6803741455078125,2.5691986083984375,3.117017940751825
1784715999.662608,-0.0053710900247097015,0.0849609375,0.9775390028953552,0.9812388657664237,0.4177093505859375,1.4972686767578125,3.2405853271484375,3.5941185086884326
1784715999.6722,0.0009765625,0.0927734300494194,0.9848632216453552,0.989223649306424,0.0514984130859375,1.6803741455078125,2.7523040771484375,3.2251336543668065
1784715999.681792,0.0156250037252903,0.08447265625,0.9746093153953552,0.9783880048583736,-0.4367828369140625,1.4972686767578125,3.2405853271484375,3.5963851294810647
1784715999.691384,0.008300784975290298,0.09521484375,0.9707030653953552,0.9753969503076592,-0.865936279296875,1.377105712890625,3.0574798583984375,3.4633002856799235
1784715999.702083,0.0034179724752902985,0.08056640625,0.9995116591453552,1.0027592857308192,-1.2912750244140625,1.3141632080078125,2.3212432861328125,2.963542899870623
1784715999.712782,0.0161132849752903,0.09033203125,0.9902343153953552,0.9944765020898954,-1.1081695556640625,1.1348724365234375,1.9588470458984375,2.5205271195736745
1784715999.723481,0.0229492224752903,0.0849609375,0.9873046278953552,0.9912191765581844,-0.8029937744140625,1.4972686767578125,1.0395050048828125,1.9917788901693503
1784715999.73164,0.0170898474752903,0.09716796875,0.9824218153953552,0.9873633071987409,-1.1692047119140625,1.3141632080078125,-0.1773834228515625,1.7679167045836655
1784715999.739801,-0.0053710900247097015,0.08935546875,0.9936522841453552,0.9976763554333978,-1.171112060546875,1.194000244140625,-0.7266998291015625,1.8235220544272175
1784715999.747962,0.0253906287252903,0.07958984375,0.9936522841453552,0.9971580060564608,-1.171112060546875,1.438140869140625,-1.0967254638671875,2.1546599177006094
1784715999.756123,0.00537109375,0.08544921875,1.0029296875,1.0065775557312533,-0.8029937744140625,1.3141632080078125,-1.3370513916015625,2.039492672900004
1784715999.765573,-0.015136715024709702,0.08544921875,0.9951171278953552,0.9988937818193812,-0.55694580078125,1.438140869140625,-2.0732879638671875,2.583981572228596
1784715999.775023,-0.00927734375,0.08056640625,0.9877929091453552,0.9911164645393293,-0.194549560546875,1.743316650390625,-2.1305084228515625,2.7597225612150984
1784715999.784473,-0.014648433774709702,0.0830078125,0.9921874403953552,0.9957614124007688,-0.0705718994140625,2.1114349365234375,-1.9474029541015625,2.873241401240441
1784715999.793923,-0.010742183774709702,0.0966796875,0.9858397841453552,0.9906272944408042,0.4177093505859375,1.8024444580078125,-1.8253326416015625,2.5990625960653855
1784715999.803373,-0.0253906212747097,0.072265625,0.9882811903953552,0.9912450330239323,0.1735687255859375,1.4972686767578125,-1.5201568603515625,2.1407513804679743
1784715999.811376,-0.015136715024709702,0.08740234375,0.9926757216453552,0.9966310140562851,0.2346038818359375,1.4972686767578125,-0.7915496826171875,1.7097962954176593
1784715999.819379,-0.0268554650247097,0.072265625,0.9916991591453552,0.9946912881934468,0.2346038818359375,1.1348724365234375,-0.5435943603515625,1.2800270532919054
1784715999.827382,-0.0209960900247097,0.08544921875,0.9799804091453552,0.9839227647991527,0.0514984130859375,1.5583038330078125,0.0057220458984375,1.5591650535868466
1784715999.835385,-0.0317382775247097,0.08740234375,0.9956054091453552,0.999938307433373,0.0514984130859375,1.5583038330078125,0.4940032958984375,1.6355433894812237
1784715999.846058,-0.0249023400247097,0.0888671875,0.9916991591453552,0.9959842999779017,0.0514984130859375,1.4400482177734375,1.4095306396484375,2.0157300365303277
1784715999.856731,-0.02392578125,0.1010742112994194,0.9794921278953552,0.9849838921562085,-0.06866455078125,1.560211181640625,1.8978118896484375,2.457776173767945
1784715999.867404,-0.015136715024709702,0.07177734375,0.9912108778953552,0.9939215822566817,-0.011444091796875,1.255035400390625,2.8095245361328125,3.0771208852762038
1784715999.875456,-0.0317382775247097,0.09423828125,0.9858397841453552,0.9908421932462051,-0.377655029296875,1.621246337890625,3.0574798583984375,3.4812707584715548
1784715999.883508,-0.00927734375,0.0737304612994194,0.9809569716453552,0.9837676708705705,-0.499725341796875,1.743316650390625,3.1757354736328125,3.6570718012165164
1784715999.89156,0.0009765625,0.0771484300494194,0.9887694716453552,0.9917751267254293,-0.4367828369140625,1.8634796142578125,3.0574798583984375,3.6071482647500464
1784715999.899612,-0.00048827752470970154,0.06982421875,0.9814452528953552,0.9839260360259895,-0.5588531494140625,1.9855499267578125,2.9354095458984375,3.587667007458976
1784715999.910233,-0.015136715024709702,0.09912109375,0.9833983778953552,0.9884970819456936,-0.6198883056640625,1.8634796142578125,2.5043487548828125,3.182543082243601
1784715999.920854,-0.0063476525247097015,0.08154296875,0.9902343153953552,0.9936063344361518,-1.2302398681640625,1.4972686767578125,2.0160675048828125,2.796396217967838
1784715999.931475,-0.0073242150247097015,0.06640625,0.9956054091453552,0.9978444592642086,-1.2302398681640625,0.9517669677734375,1.6536712646484375,2.270237684844681
1784715999.942114,-0.0048828087747097015,0.06298828125,0.9887694716453552,0.9907857656699527,-1.171112060546875,0.278472900390625,0.8563995361328125,1.4773187807981087
1784715999.952752,-0.012207027524709702,0.078125,0.9873046278953552,0.9904660294071548,-1.354217529296875,0.400543212890625,0.1888275146484375,1.424779215294771
1784715999.96339,-0.01416015625,0.0751953125,0.9819335341453552,0.9849103058279899,-1.1692047119140625,-0.1506805419921875,0.1277923583984375,1.1857804058771337
1784715999.974068,-0.0053710900247097015,0.064453125,0.9868163466453552,0.9889335447525304,-1.5354156494140625,-0.9441375732421875,0.0057220458984375,1.8024787697730362
1784715999.984745,-0.0209960900247097,0.07763671875,0.9877929091453552,0.9910616162744051,-1.53350830078125,-1.186370849609375,0.0057220458984375,1.938854363581012
1784715999.995422,-0.008789058774709702,0.07373046875,0.9809569716453552,0.9837631878637594,-1.659393310546875,-0.759124755859375,-0.3604888916015625,1.860056126845208
1784716000.003413,-0.0034179650247097015,0.07861328125,0.9863280653953552,0.9894618653896399,-1.354217529296875,-1.003265380859375,-0.5435943603515625,1.770858935571059
1784716000.011404,-0.014648433774709702,0.078125,0.9833983778953552,0.9866055249613535,-1.476287841796875,-0.759124755859375,0.1277923583984375,1.6649405615999826
1784716000.019395,-0.009765621274709702,0.07275390625,0.9824218153953552,0.9851604547474591,-1.4133453369140625,-0.6961822509765625,0.3108978271484375,1.605886741609488
1784716000.027386,-0.0180664025247097,0.07861328125,0.9868163466453552,0.9901075420859909,-1.1081695556640625,-0.2727508544921875,0.5512237548828125,1.2673911869166563
1784716000.038046,-0.0063476525247097015,0.08740234375,0.9921874403953552,0.996049887939281,-1.2912750244140625,-0.1506805419921875,0.5512237548828125,1.4120706222982278
1784716000.048706,-0.014648433774709702,0.08544921875,0.9912108778953552,0.9949950502666424,-0.9250640869140625,-0.0247955322265625,0.4940032958984375,1.048998398318637
1784716000.059366,0.0029296912252902985,0.07568359375,0.9916991591453552,0.9945872569579781,-0.682830810546875,0.400543212890625,0.4329681396484375,0.9023049324787468
1784716000.067598,-0.0073242150247097015,0.08447265625,0.9936522841453552,0.9972633230831968,-0.988006591796875,-0.087738037109375,0.6160736083984375,1.1676479261981987
1784716000.07583,-0.0063476525247097015,0.0673828125,0.9829100966453552,0.9852375318675015,-0.7419586181640625,-0.2727508544921875,0.3108978271484375,0.84944280479604
1784716000.084062,-0.0229492150247097,0.08447265625,0.9799804091453552,0.9838820551432366,-0.55694580078125,-0.576019287109375,0.1888275146484375,0.8231905456321558
1784716000.092294,-0.0185546837747097,0.068359375,0.9829100966453552,0.9854590496452664,-1.1081695556640625,-0.8220672607421875,0.5512237548828125,1.4858270334167285
1784716000.102684,-0.0053710900247097015,0.0590820275247097,0.9877929091453552,0.989572819929048,-1.04522705078125,-0.698089599609375,0.4940032958984375,1.350506546865348
1784716000.113074,-0.0073242150247097015,0.0810546875,0.9916991591453552,0.9950330289699209,-1.0471343994140625,-1.0013580322265625,0.3681182861328125,1.4948977997596564
1784716000.123464,-0.0063476525247097015,0.0654296875,0.9956054091453552,0.9977732545114708,-0.682830810546875,-0.759124755859375,0.2498626708984375,1.0511706165505004
1784716000.1341,-0.008789058774709702,0.080078125,0.9868163466453552,0.9900991140608837,-0.2536773681640625,-1.0013580322265625,-0.1773834228515625,1.0481102015178723
1784716000.144738,-0.0029296837747097015,0.083984375,0.9941405653953552,0.9976860338081098,-0.0705718994140625,-0.3337860107421875,-0.4253387451171875,0.5452582342816622
1784716000.155376,0.012207034975290298,0.07763671875,0.9951171278953552,0.9982156931404431,0.0514984130859375,-0.4558563232421875,-0.9136199951171875,1.0223299709331548
1784716000.166078,-0.0029296837747097015,0.087890625,1.00244140625,1.006291268954664,-0.011444091796875,-0.209808349609375,-1.4591217041015625,1.4741732117302608
1784716000.17678,0.009277347475290298,0.07763671875,0.9770507216453552,0.9801742916145849,0.2346038818359375,-0.6389617919921875,-1.3980865478515625,1.5549781825742306
1784716000.187482,-0.0068359337747097015,0.06884765625,0.9765624403953552,0.9790101785745754,0.3566741943359375,-0.6389617919921875,-1.4591217041015625,1.6323372200349122
1784716000.195503,-0.008789058774709702,0.0791015625,0.9931640028953552,0.9963478516016441,0.1735687255859375,-0.6389617919921875,-1.2149810791015625,1.3836825129711625
1784716000.203522,-0.010742183774709702,0.08984375,0.9843749403953552,0.9885248187095108,0.7228851318359375,-0.5130767822265625,-1.3370513916015625,1.6042185393745763
1784716000.211541,-0.0224609337747097,0.09375,0.9682616591453552,0.9730489178951631,1.0280609130859375,-0.5779266357421875,-1.0318756103515625,1.5670595753045844
1784716000.21956,-0.0019531212747097015,0.0732421875,0.9868163466453552,0.9895325839602175,0.6618499755859375,-0.6389617919921875,-1.0967254638671875,1.4314762676704322
1784716000.230177,0.0170898474752903,0.07958984375,0.9775390028953552,0.9809225801746657,0.8449554443359375,-0.2727508544921875,-0.5435943603515625,1.0410751942800214
1784716000.240794,0.00146484375,0.08642578125,0.9799804091453552,0.9837851207151806,0.9059906005859375,-0.5130767822265625,-0.1773834228515625,1.0561873089147433
1784716000.251411,0.0009765662252902985,0.0947265625,0.9794921278953552,0.9840624492041293,0.8449554443359375,-0.3337860107421875,0.0057220458984375,0.9085128208723249
1784716000.259585,-0.0078124962747097015,0.06982421875,0.9941405653953552,0.9966202488343726,0.476837158203125,0.217437744140625,-0.1201629638671875,0.5376727498260843
1784716000.26776,0.01025390625,0.07568359375,1.00830078125,1.0111892080247193,0.782012939453125,0.095367431640625,0.2498626708984375,0.8264808157473149
1784716000.275935,-0.0039062462747097015,0.09326171875,0.9726561903953552,0.977124900746352,0.8449554443359375,0.1544952392578125,0.1888275146484375,0.8794738837251372
1784716000.28411,0.0073242224752902985,0.08447265625,0.9882811903953552,0.9919117829615991,0.659942626953125,-0.026702880859375,-0.2384185791015625,0.7021970760240956
1784716000.294968,-0.0009765587747097015,0.0888671875,0.9941405653953552,0.9981051019035005,0.6618499755859375,-0.1506805419921875,-0.3604888916015625,0.7685715691373761
1784716000.305826,0.0029296912252902985,0.08642578125,0.9809569716453552,0.9847611786494097,0.782012939453125,-0.392913818359375,-0.3032684326171875,0.9262274279851286
1784716000.316684,0.0019531287252902985,0.10302734375,0.9916991591453552,0.9970384498712187,0.5397796630859375,-0.0896453857421875,-0.9708404541015625,1.1144189370188222
1784716000.326923,-0.0063476525247097015,0.09521484375,0.9794921278953552,0.9841295584280976,0.8449554443359375,0.1544952392578125,-1.1539459228515625,1.438544290153075
1784716000.337163,-0.0009765550494194031,0.1010742112994194,0.9755858778953552,0.98080821519725,0.5397796630859375,0.2155303955078125,-1.5850067138671875,1.688212581126258
1784716000.347403,-0.0063476525247097015,0.076171875,0.9965819716453552,0.9995089161393877,0.60272216796875,0.278472900390625,-1.6422271728515625,1.7713642356288424
1784716000.358108,-0.0063476525247097015,0.09716796875,0.9750975966453552,0.9799475648355493,0.476837158203125,0.095367431640625,-1.5201568603515625,1.5960405704539222
1784716000.368816,-0.013183590024709702,0.087890625,0.9907225966453552,0.9947008758981494,0.5397796630859375,-0.1506805419921875,-1.2149810791015625,1.33800064760486
1784716000.379524,-0.0175781212747097,0.09423828125,0.9858397841453552,0.9904897394745001,0.41961669921875,0.095367431640625,-1.0967254638671875,1.1781255724139366
1784716000.3875,-0.0161132775247097,0.103515625,0.9892577528953552,0.9947894370143345,0.293731689453125,0.278472900390625,-0.5435943603515625,0.677731724391723
1784716000.395477,-0.0087890625,0.0922851487994194,0.9750975966453552,0.9794943181520287,-0.06866455078125,0.583648681640625,-0.3032684326171875,0.6613110813655825
1784716000.403454,-0.0029296837747097015,0.0849609375,0.9702147841453552,0.9739320670981714,-0.55694580078125,0.583648681640625,0.1888275146484375,0.8285470649739901
1784716000.411431,-0.012207027524709702,0.07861328125,0.9775390028953552,0.9807709017357346,-0.7419586181640625,0.9517669677734375,0.4329681396484375,1.2821171404997274
1784716000.41945,-0.009765621274709702,0.07958984375,0.9858397841453552,0.9890955416898769,-1.2302398681640625,0.8869171142578125,0.5512237548828125,1.6136789422716162
1784716000.427469,-0.00048827752470970154,0.09765625,0.9829100966453552,0.9877495834807449,-1.354217529296875,0.888824462890625,0.3681182861328125,1.6611517435421423
1784716000.435488,-0.0029296837747097015,0.083984375,0.9829100966453552,0.9864959282118411,-1.293182373046875,1.132965087890625,0.1277923583984375,1.7240247756929694
1784716000.443507,-0.0019531212747097015,0.0791015625,0.9804686903953552,0.9836563041623014,-1.5964508056640625,1.0089874267578125,-0.1201629638671875,1.892392649569886
1784716000.454122,-0.009765621274709702,0.095703125,0.9926757216453552,0.99732619730847,-1.5964508056640625,0.9517669677734375,-0.3032684326171875,1.8832119578189184
1784716000.464737,0.008300784975290298,0.091796875,0.9912108778953552,0.995487103758282,-1.842498779296875,1.255035400390625,-0.1201629638671875,2.2325668513685044
1784716000.475352,0.003906257450580597,0.1010742112994194,0.9902343153953552,0.9953869872685587,-1.5354156494140625,1.3141632080078125,-0.7266998291015625,2.147700816073606
1784716000.486061,0.00048828125,0.0771484300494194,0.9804686903953552,0.9834993500370258,-1.354217529296875,1.560211181640625,-0.8487701416015625,2.233511764295345
1784716000.49677,0.008789066225290298,0.09326171875,0.9902343153953552,0.9946552142606122,-1.2302398681640625,1.8634796142578125,-1.6422271728515625,2.7718146570842017
1784716000.507479,-0.0185546837747097,0.0849609375,0.9848632216453552,0.9886952020418257,-1.171112060546875,1.743316650390625,-1.7032623291015625,2.7040264354521417
1784716000.515451,-0.0161132775247097,0.0751953125,0.9921874403953552,0.9951632477201153,-0.621795654296875,1.071929931640625,-2.0732879638671875,2.4154060932203723
1784716000.523422,-0.0078124962747097015,0.0703125,0.9931640028953552,0.9956804805766846,-1.0471343994140625,0.8869171142578125,-2.3136138916015625,2.6899668506157064
1784716000.531393,-0.01416015625,0.0874023362994194,0.9897460341453552,0.9936985913857782,-0.988006591796875,0.705718994140625,-2.0084381103515625,2.346917119805786
1784716000.539364,-0.0219726525247097,0.07861328125,0.9965819716453552,0.9999192325665143,-0.5588531494140625,0.5207061767578125,-1.5850067138671875,1.759459589796769
1784716000.550056,-0.015624996274709702,0.08349609375,0.9926757216453552,0.9963035815072734,-0.499725341796875,0.278472900390625,-1.4591217041015625,1.5672615355664856
1784716000.560748,-0.0278320275247097,0.0791015625,0.9750975966453552,0.9786965831807248,-1.1081695556640625,0.4634857177734375,-0.9136199951171875,1.5091587955409378
1784716000.57144,-0.0200195275247097,0.09228515625,0.9873046278953552,0.9918103446778448,-1.293182373046875,0.583648681640625,-0.7915496826171875,1.6246591438179754
1784716000.582095,-0.0239257775247097,0.0849609375,0.9995116591453552,1.003401395503585,-1.5964508056640625,0.3986358642578125,-0.3032684326171875,1.6731818399086493
1784716000.592751,-0.0058593712747097015,0.07861328125,0.9970702528953552,1.0001817182039643,-0.9250640869140625,0.1544952392578125,-0.2384185791015625,0.967706444492484
1784716000.603407,-0.0214843712747097,0.07373046875,0.9975585341453552,1.0005102644537907,-1.171112060546875,0.400543212890625,-0.0553131103515625,1.2389503072875263
1784716000.611399,-0.0317382775247097,0.08544921875,0.9863280653953552,0.990531140263528,-0.804901123046875,0.278472900390625,0.1888275146484375,0.8723925747175943
1784716000.619391,-0.013671871274709702,0.08984375,0.9853515028953552,0.9895334272960918,-0.8640289306640625,0.1544952392578125,0.3108978271484375,0.9311671337109315
1784716000.627383,-0.020019523799419403,0.0771484300494194,0.9750975966453552,0.9783496228730267,-0.9250640869140625,0.3376007080078125,0.4329681396484375,1.075722646826845
1784716000.635375,-0.015624996274709702,0.09033203125,0.9858397841453552,0.990092973605053,-1.2912750244140625,0.3376007080078125,0.1888275146484375,1.3479693086310311
1784716000.646072,-0.011718746274709702,0.068359375,0.9833983778953552,0.9858411143849994,-1.4133453369140625,0.2155303955078125,0.0057220458984375,1.4296961686224605
1784716000.656769,-0.01904296875,0.08642578125,0.9868163466453552,0.9907767419201826,-1.0471343994140625,0.2155303955078125,0.0057220458984375,1.0691008107906697
1784716000.667466,-0.009765621274709702,0.0859375,0.9853515028953552,0.989140134421441,-0.7419586181640625,0.1544952392578125,-0.1773834228515625,0.778354834714727
1784716000.675437,-0.0009765587747097015,0.083984375,0.9794921278953552,0.9830865463020801,-0.9860992431640625,0.0324249267578125,-0.3604888916015625,1.0504262631008945
1784716000.683409,-0.0063476525247097015,0.07421875,0.9790038466453552,0.9818336148709409,-1.1081695556640625,-0.0896453857421875,-0.3032684326171875,1.1524095632663054
1784716000.691381,-0.010253902524709702,0.0849609375,0.9897460341453552,0.9934388333079817,-1.2912750244140625,0.3376007080078125,-0.1201629638671875,1.340076327903848
1784716000.699353,-0.010742183774709702,0.0751953125,0.9960936903953552,0.9989856703575182,-1.354217529296875,-0.087738037109375,-0.2384185791015625,1.3778412458159128
1784716000.710041,-0.011718746274709702,0.08056640625,0.9970702528953552,1.0003886065120386,-1.354217529296875,-0.148773193359375,-0.6084442138671875,1.492059965653438
1784716000.720729,-0.0161132775247097,0.0849609375,0.9916991591453552,0.9954623151395897,-1.659393310546875,-0.087738037109375,-0.5435943603515625,1.7483646504232313
1784716000.731417,-0.011230465024709702,0.0859375,0.9794921278953552,0.9833189746261851,-1.2302398681640625,0.1544952392578125,-0.3604888916015625,1.2912440331485686
1784716000.742087,-0.0058593712747097015,0.0654296875,0.9931640028953552,0.9953341714646432,-1.5964508056640625,0.0324249267578125,-0.5435943603515625,1.686772474101563
1784716000.752756,-0.0039062462747097015,0.07421875,0.9951171278953552,0.9978886610450196,-0.8640289306640625,0.1544952392578125,-0.6084442138671875,1.0679977216109928
1784716000.763425,-0.015624996274709702,0.07666015625,0.9853515028953552,0.9884525807154303,-0.9250640869140625,0.3376007080078125,-0.4825592041015625,1.0966226280761573
1784716000.771402,-0.014648430049419403,0.0673828050494194,0.9853515028953552,0.9877614100466651,-0.8029937744140625,0.3376007080078125,-0.6656646728515625,1.0963041076625117
1784716000.779379,-0.012695308774709702,0.0830078125,0.9902343153953552,0.9937884418664912,-0.499725341796875,0.644683837890625,-1.0967254638671875,1.3668026233388955
1784716000.787356,-0.011230465024709702,0.07421875,0.9794921278953552,0.982364176263164,-0.6809234619140625,0.1544952392578125,-0.7915496826171875,1.055498195161759
1784716000.795333,-0.0073242150247097015,0.07861328125,0.9902343153953552,0.9933769131105915,-0.865936279296875,-0.026702880859375,-0.7915496826171875,1.173503124708271
1784716000.806115,-0.012695308774709702,0.06982421875,0.9853515028953552,0.9879039308794496,-0.316619873046875,-0.209808349609375,-0.6084442138671875,0.7172670694814371
1784716000.816897,-0.010742183774709702,0.08056640625,0.9853515028953552,0.9886980957736415,-0.133514404296875,-0.087738037109375,-0.6084442138671875,0.6290694879733202
1784716000.827679,-0.015624996274709702,0.08056640625,0.9941405653953552,0.997522205311351,0.2346038818359375,0.0324249267578125,-0.5435943603515625,0.5929461913645828
1784716000.835583,-0.0263671837747097,0.07861328125,0.9907225966453552,0.9941863707941364,0.293731689453125,-0.209808349609375,-0.1201629638671875,0.3804431453451932
1784716000.843489,-0.0205078087747097,0.08544921875,1.005859375,1.0096906563305001,0.354766845703125,-0.087738037109375,0.1888275146484375,0.41135545244260086
1784716000.851395,-0.0166015587747097,0.09375,0.9995116591453552,1.0040359709797508,0.5397796630859375,-0.0896453857421875,0.5512237548828125,0.7766891320297592
1784716000.859301,-0.0234374962747097,0.083984375,0.9951171278953552,0.9989298222129863,0.7228851318359375,-0.3337860107421875,0.7381439208984375,1.085740513546383
1784716000.870001,-0.0058593712747097015,0.0888671875,0.9873046278953552,0.9913133397213421,0.6008148193359375,-0.3337860107421875,0.7991790771484375,1.0540772008978694
1784716000.880701,-0.015624996274709702,0.0869140625,0.9960936903953552,1.0000004174070511,0.659942626953125,-0.759124755859375,0.9822845458984375,1.4059436670575556
1784716000.891401,-0.0053710900247097015,0.095703125,0.9804686903953552,0.985143030015643,0.537872314453125,-0.698089599609375,0.8563995361328125,1.2288433102826557
1784716000.902091,-0.012695308774709702,0.08984375,0.9960936903953552,1.0002178314369252,0.9670257568359375,-0.6389617919921875,0.7991790771484375,1.4078700875300296
1784716000.912783,-0.0063476525247097015,0.078125,0.9833983778953552,0.9865171959802781,0.7228851318359375,-0.3948211669921875,0.7991790771484375,1.1476645263692529
1784716000.923475,-0.00048827752470970154,0.08544921875,0.9770507216453552,0.9807802608472684,0.9059906005859375,-0.0247955322265625,0.7991790771484375,1.2083546599075514
1784716000.934208,-0.0078124962747097015,0.08935546875,0.9838866591453552,0.9879667974875386,0.843048095703125,-0.209808349609375,0.3108978271484375,0.9227172341297711
1784716000.944943,-0.0078124962747097015,0.0986328125,0.9746093153953552,0.9796186933981536,0.1125335693359375,0.0324249267578125,0.0057220458984375,0.1172515326637549
1784716000.955678,0.00048828125,0.0771484300494194,0.9799804091453552,0.9830125741751053,0.171661376953125,0.095367431640625,-0.2384185791015625,0.30887860757258695
1784716000.963696,-0.014648433774709702,0.1005859375,0.9873046278953552,0.992523317458281,0.049591064453125,0.278472900390625,-0.6656646728515625,0.7232675069489426
1784716000.971713,-0.0200195275247097,0.080078125,0.9912108778953552,0.9946417908191416,0.3566741943359375,-0.2727508544921875,-0.7266998291015625,0.854226053891854
1784716000.97973,-0.009765617549419403,0.0771484300494194,0.9702147841453552,0.9733262427980816,0.1735687255859375,-0.4558563232421875,-0.6656646728515625,0.8252518080101309
1784716000.987747,-0.013183590024709702,0.0830078125,0.9687499403953552,0.9723890944462402,-0.316619873046875,-0.759124755859375,-0.6084442138671875,1.0230947660677552
1784716000.99567,-0.0219726525247097,0.07275390625,0.9790038466453552,0.9819493164517238,-1.5964508056640625,-1.1272430419921875,0.1277923583984375,1.9584848576106657
1784716001.003593,-0.0307617150247097,0.08447265625,0.9672850966453552,0.9714537410280565,-2.330780029296875,-1.674652099609375,0.7991790771484375,2.979208350727934
1784716001.011516,-0.011230465024709702,0.07177734375,0.9936522841453552,0.9963046583288461,-2.819061279296875,-2.040863037109375,0.8563995361328125,3.584082671780707
1784716001.019439,-0.0068359337747097015,0.07958984375,0.9667968153953552,0.9700914160414585,-3.490447998046875,-2.223968505859375,1.1653900146484375,4.299697318226727
1784716001.030096,-0.0014648400247097015,0.0605468712747097,0.9736327528953552,0.9755146369419795,-3.917694091796875,-2.346038818359375,0.7381439208984375,4.625697956212502
1784716001.040753,-0.010253902524709702,0.07470703125,0.9775390028953552,0.9804431575654042,-4.7092437744140625,-2.2258758544921875,0.7991790771484375,5.269742635444426
1784716001.05141,-0.0073242150247097015,0.080078125,0.9594725966453552,0.9628363380879558,-5.748748779296875,-2.223968505859375,0.4940032958984375,6.183703396742135
1784716001.062145,-0.0068359337747097015,0.0712890625,0.9697265028953552,0.9723673949903691,-6.420135498046875,-2.346038818359375,-0.3032684326171875,6.842076416757762
1784716001.07288,-0.0058593712747097015,0.072265625,0.9580077528953552,0.9607473691850441,-7.3337554931640625,-2.5920867919921875,-0.8487701416015625,7.824531572177899
1784716001.083615,-0.00439453125,0.07080078125,0.9609374403953552,0.9635521920913752,-8.615493774414062,-2.8324127197265625,-1.2149810791015625,9.15016250207673
1784716001.094219,-0.0014648400247097015,0.07275390625,0.9760741591453552,0.9787829385426802,-11.240005493164062,-3.6258697509765625,-2.5615692138671875,12.084961389050331
1784716001.104824,0.0073242224752902985,0.072265625,0.9877929091453552,0.9904598912370718,-12.094497680664062,-4.3621063232421875,-3.2329559326171875,13.257331925583765
1784716001.115429,-0.0058593712747097015,0.0585937462747097,1.01318359375,1.014893370743156,-11.119842529296875,-4.604339599609375,-4.5108795166015625,12.852971447808716
1784716001.126095,0.0009765662252902985,0.0791015625,1.0283203125,1.0313586553530403,-9.716033935546875,-4.665374755859375,-5.1212310791015625,11.932897586708107
1784716001.136763,0.0034179724752902985,0.06640625,1.02392578125,1.0260825883345488,-8.373260498046875,-4.299163818359375,-5.5484771728515625,10.926110920309085
1784716001.147431,-0.0073242150247097015,0.06640625,1.01318359375,1.015383882484332,-7.091522216796875,-4.360198974609375,-5.3043365478515625,9.87101862334289
1784716001.155425,-0.02392578125,0.0673828050494194,0.9814452528953552,0.9840465791087222,-7.091522216796875,-4.055023193359375,-4.2095184326171875,9.189828392551734
1784716001.163417,-0.0234375,0.0673828050494194,0.9790038466453552,0.9815998627592509,-7.518768310546875,-3.810882568359375,-3.2901763916015625,9.048754806345542
1784716001.171409,-0.0209960900247097,0.06640625,0.9819335341453552,0.984400371451868,-8.190155029296875,-3.871917724609375,-2.8018951416015625,9.482668540795443
1784716001.179401,-0.014648430049419403,0.0722656175494194,0.9804686903953552,0.9832373817284891,-8.188247680664062,-3.4465789794921875,-1.5201568603515625,9.013167235875063
1784716001.190064,-0.004882805049419403,0.0673828050494194,1.00390625,1.0061769441755963,-8.432388305664062,-2.9582977294921875,-0.9136199951171875,8.982839166393697
1784716001.200727,-0.015624996274709702,0.072265625,0.9892577528953552,0.9920168157490038,-7.701873779296875,-2.651214599609375,-0.2384185791015625,8.148904342564308
1784716001.21139,-0.0063476525247097015,0.06884765625,1.005859375,1.008232797889001,-7.030487060546875,-2.529144287109375,0.3108978271484375,7.478032936037434
1784716001.219399,0.00146484375,0.0722656175494194,1.01806640625,1.0206290573865713,-5.8689117431640625,-2.4089813232421875,0.4940032958984375,6.3632818043158546
1784716001.227411,0.00048828125,0.0712890625,1.00830078125,1.0108179036404472,-5.260467529296875,-2.223968505859375,0.4329681396484375,5.727653616603555
1784716001.235423,-0.00390625,0.0673828050494194,1.00439453125,1.0066598609313364,-4.467010498046875,-2.040863037109375,0.9212493896484375,4.996799492057682
1784716001.243435,-0.00439453125,0.0678710862994194,0.9775390028953552,0.9799021882014631,-3.734588623046875,-2.162933349609375,1.3446807861328125,4.52035388823025
1784716001.254079,-0.012695308774709702,0.06396484375,0.9985350966453552,1.00066228635509,-3.612518310546875,-2.346038818359375,1.2264251708984375,4.4786499507216195
1784716001.264723,0.0073242224752902985,0.064453125,0.9829100966453552,0.9850482768090683,-3.612518310546875,-2.040863037109375,1.4095306396484375,4.3820300209358996
1784716001.275367,0.0009765625,0.07080078125,0.9750975966453552,0.9776650895288604,-3.978729248046875,-1.857757568359375,1.6536712646484375,4.692140051573925
1784716001.283477,0.009765625,0.0654296875,0.9794921278953552,0.9817236067483348,-4.405975341796875,-1.857757568359375,0.8563995361328125,4.857705431662888
1784716001.291588,0.00634765625,0.0673828050494194,0.9814452528953552,0.9837761531908689,-4.4040679931640625,-2.1038055419921875,0.8563995361328125,4.955323683919918
1784716001.299699,0.0024414099752902985,0.0654296875,0.9985350966453552,1.000679441040718,-4.711151123046875,-2.040863037109375,0.6771087646484375,5.178662290552346
1784716001.318341,0.007812503725290298,0.07080078125,0.9912108778953552,0.9937669698164399,-4.5261383056640625,-2.0427703857421875,0.4940032958984375,4.9902783556855175
1784716001.328871,0.012207034975290298,0.0610351525247097,0.9892577528953552,0.9912140047488082,-4.100799560546875,-1.979827880859375,0.1888275146484375,4.557623427170993
1784716001.339401,0.008789066225290298,0.0703125,1.00146484375,1.0039685894531634,-3.7326812744140625,-1.9207000732421875,0.1277923583984375,4.199801085120457
1784716001.350065,0.0234375037252903,0.07177734375,0.9995116591453552,1.0023596462468845,-3.124237060546875,-1.186370849609375,-0.4253387451171875,3.368864207918644
1784716001.360731,0.011718753725290298,0.0605468712747097,0.9853515028953552,0.9872795131411193,-2.8781890869140625,-1.1272430419921875,-0.5435943603515625,3.138493926130339
1784716001.371397,0.009277351200580597,0.052734375,0.9858397841453552,0.9872927952515911,-2.6950836181640625,-0.5779266357421875,-0.5435943603515625,2.8094429579193454
1784716001.379401,0.015625,0.060546875,0.9936522841453552,0.9956178616741201,-2.51007080078125,-0.698089599609375,-0.4825592041015625,2.6496505240277513
1784716001.387405,0.0107421875,0.056640625,1.00732421875,1.0089725648762575,-2.330780029296875,-0.453948974609375,-0.0553131103515625,2.3752188860597268
1784716001.395409,0.0063476599752902985,0.0532226525247097,1.001953125,1.0033857723857726,-1.9016265869140625,-0.0896453857421875,-0.1773834228515625,1.9119845318270303
1784716001.403413,0.012207034975290298,0.0624999962747097,1.0029296875,1.004949361563096,-1.659393310546875,-0.026702880859375,0.2498626708984375,1.6783118176436727
1784716001.414111,0.011230472475290298,0.0493164025247097,0.9848632216453552,0.9861611412034371,-1.354217529296875,0.400543212890625,0.4329681396484375,1.4770922083601639
1784716001.424809,0.0019531287252902985,0.0556640587747097,0.9829100966453552,0.9844869528025617,-1.476287841796875,-0.026702880859375,0.7991790771484375,1.678935982411269
1784716001.435507,0.008789066225290298,0.0590820275247097,1.00244140625,1.0042194514278344,-1.2302398681640625,0.2155303955078125,0.7991790771484375,1.4827780285531318
1784716001.446151,0.0034179724752902985,0.0571289025247097,0.9785155653953552,0.9801877910688906,-1.476287841796875,0.400543212890625,1.1043548583984375,1.886653203558686
1784716001.456797,0.0,0.0546875,0.9877929091453552,0.9893055918239287,-1.8405914306640625,0.1544952392578125,1.2874603271484375,2.2514883272112405
1784716001.467443,0.0024414099752902985,0.0595703087747097,0.9731444716453552,0.9749690994406435,-2.1457672119140625,0.3376007080078125,1.1653900146484375,2.4650405781680576
1784716001.475441,0.0063476599752902985,0.0703125,0.9692382216453552,0.9718059841046784,-2.819061279296875,0.217437744140625,1.8329620361328125,3.3695898110767195
1784716001.483439,0.013183597475290298,0.0590820275247097,0.9819335341453552,0.9837977224501023,-3.490447998046875,0.583648681640625,1.3446807861328125,3.785768010225275
1784716001.491437,0.0068359412252902985,0.0551757775247097,0.9799804091453552,0.9815562637091109,-3.5495758056640625,0.3986358642578125,1.5277862548828125,3.8849105257440746
1784716001.499435,0.0209960974752903,0.0585937462747097,0.9970702528953552,0.9990110872360249,-3.978729248046875,0.583648681640625,1.3446807861328125,4.240176721486883
1784716001.510072,0.013671878725290298,0.0390624962747097,0.9916991591453552,0.992562351256935,-3.6106109619140625,0.3376007080078125,1.2874603271484375,3.8481216002515475
1784716001.520709,0.008789066225290298,0.0576171837747097,0.9809569716453552,0.9826869123840347,-3.734588623046875,0.278472900390625,0.6160736083984375,3.795292614622513
1784716001.531346,0.01513671875,0.046875,1.00390625,1.0051139958574744,-3.551483154296875,0.278472900390625,0.7991790771484375,3.6509268616144963
1784716001.53935,0.011230472475290298,0.0493164025247097,0.9956054091453552,0.9968893428006378,-2.941131591796875,0.766754150390625,0.1277923583984375,3.0421206179689695
1784716001.547357,0.009765625,0.0483398362994194,0.9902343153953552,0.9914616011684987,-2.819061279296875,0.644683837890625,0.1277923583984375,2.894659675010752
1784716001.555364,0.007812503725290298,0.0444335900247097,0.9873046278953552,0.9883348660249356,-2.5119781494140625,0.8258819580078125,-0.1773834228515625,2.6502037865792607
1784716001.563371,0.007812503725290298,0.0400390587747097,0.9843749403953552,0.985219866182357,-2.51007080078125,0.400543212890625,-0.0553131103515625,2.542429906704241
1784716001.574011,0.00146484375,0.04150390625,0.9892577528953552,0.9901290934341787,-2.635955810546875,0.461578369140625,0.0057220458984375,2.6760699482307286
1784716001.584651,0.0043945349752902985,0.0439453087747097,0.9848632216453552,0.9858529644174235,-2.7561187744140625,0.6465911865234375,0.1277923583984375,2.833831637206504
1784716001.595291,-0.0009765587747097015,0.0532226525247097,0.9770507216453552,0.9784997276834142,-2.99835205078125,1.071929931640625,0.0629425048828125,3.1848250434980137
1784716001.605997,0.0009765625,0.0478515625,0.9936522841453552,0.9948042960780223,-2.941131591796875,0.949859619140625,0.1888275146484375,3.096472859016836
1784716001.616704,0.013671878725290298,0.0556640587747097,0.9755858778953552,0.977268239970994,-3.124237060546875,0.583648681640625,0.0057220458984375,3.178291323318975
1784716001.627411,-0.0034179650247097015,0.0541992150247097,0.9975585341453552,0.9990356682523576,-3.4275054931640625,1.1920928955078125,0.1277923583984375,3.6311444840511453
1784716001.635409,0.0014648474752902985,0.0488281212747097,0.9941405653953552,0.995340039870767,-3.7937164306640625,0.8258819580078125,-0.0553131103515625,3.88296599328787
1784716001.643407,0.01611328125,0.0380859375,0.9863280653953552,0.9871946257220202,-3.734588623046875,1.071929931640625,-0.0553131103515625,3.885774762118231
1784716001.651405,0.00244140625,0.04296875,0.9799804091453552,0.9809250105129025,-4.1599273681640625,1.1920928955078125,-0.2384185791015625,4.333927156607664
1784716001.659403,0.0039062537252902985,0.0419921837747097,0.9741210341453552,0.9750335335160282,-4.283905029296875,1.438140869140625,-0.5435943603515625,4.5514378264602975
1784716001.670068,0.0068359375,0.03662109375,0.9814452528953552,0.9821520345546192,-4.6482086181640625,1.4972686767578125,-0.6084442138671875,4.92116461925053
1784716001.680733,0.0019531287252902985,0.0458984337747097,0.9829100966453552,0.9839830989514863,-4.283905029296875,1.560211181640625,-0.5435943603515625,4.591469923669055
1784716001.691398,0.008300784975290298,0.0371093712747097,0.9980468153953552,0.9987709718391001,-4.467010498046875,1.255035400390625,-0.8487701416015625,4.716959550300276
1784716001.70216,0.00048828125,0.0419921875,0.9907225966453552,0.9916122456551903,-3.8547515869140625,0.8869171142578125,-0.9708404541015625,4.07286913019557
1784716001.712921,0.00537109375,0.0322265625,1.0009765625,1.0015095998805774,-3.6716461181640625,0.6465911865234375,-0.8487701416015625,3.8235423539949642
1784716001.723682,-0.010253902524709702,0.0483398400247097,1.00146484375,1.0026832580220997,-3.2444000244140625,0.5207061767578125,-0.4825592041015625,3.321163926456332
1784716001.731607,-0.010742183774709702,0.0351562462747097,0.9995116591453552,1.0001874388992686,-2.941131591796875,0.461578369140625,-0.4253387451171875,3.0073614147990266
1784716001.739532,-0.0009765550494194031,0.0283203125,1.0078125,1.0082108057921777,-2.819061279296875,0.766754150390625,-0.2384185791015625,2.931187786961625
1784716001.747457,-0.015624996274709702,0.0253906212747097,0.9936522841453552,0.9940994346364865,-2.330780029296875,0.400543212890625,0.1277923583984375,2.368396355601596
1784716001.755382,-0.02294921875,0.02685546875,0.9931640028953552,0.9937920403636481,-2.2068023681640625,0.5207061767578125,0.1277923583984375,2.271000330584143
1784716001.766048,-0.015136715024709702,0.0361328087747097,1.0068359375,1.0075977893252808,-2.2678375244140625,0.1544952392578125,0.5512237548828125,2.338974870331218
1784716001.776714,-0.02880859375,0.0361328125,0.9819335341453552,0.9830203358487556,-2.147674560546875,0.034332275390625,0.4940032958984375,2.2040244961234503
1784716001.78738,-0.0009765587747097015,0.0361328087747097,0.9702147841453552,0.970887872470971,-1.964569091796875,-0.087738037109375,1.0395050048828125,2.224365153201205
1784716001.798062,0.0,0.037109375,0.9868163466453552,0.9875138519126587,-2.2068023681640625,-0.4558563232421875,0.9212493896484375,2.4344367146225054
1784716001.808742,0.00048828125,0.03125,0.9887694716453552,0.9892632960827031,-2.3899078369140625,-0.1506805419921875,0.7991790771484375,2.5244903034137685
1784716001.819422,-0.0014648400247097015,0.0336914025247097,0.9956054091453552,0.9961763835184361,-2.819061279296875,-0.209808349609375,0.7381439208984375,2.921640376219507
1784716001.827404,0.0039062537252902985,0.0346679650247097,0.9794921278953552,0.9801132359202643,-2.20489501953125,-0.209808349609375,0.1888275146484375,2.22288943067527
1784716001.835388,0.004394538700580597,0.03759765625,0.9897460341453552,0.9904696400356463,-2.635955810546875,-0.759124755859375,0.3108978271484375,2.7606504467317134
1784716001.843372,0.011230472475290298,0.0249023400247097,0.9956054091453552,0.9959801106298332,-2.3899078369140625,-0.5779266357421875,-0.0553131103515625,2.459414199645985
1784716001.851356,0.012695316225290298,0.0366210900247097,1.00390625,1.0046541863137388,-2.269744873046875,-0.392913818359375,0.3108978271484375,2.324388202582765
1784716001.862204,-0.0034179650247097015,0.0346679650247097,0.9873046278953552,0.9879190141643446,-2.330780029296875,-0.270843505859375,0.0057220458984375,2.3464706457666593
1784716001.873052,0.0068359412252902985,0.0361328087747097,1.00048828125,1.0011638781343264,-2.2068023681640625,0.1544952392578125,-0.3604888916015625,2.2413829909357226
1784716001.8839,-0.0068359337747097015,0.0253906212747097,0.9848632216453552,0.9852141792468052,-2.5730133056640625,0.0324249267578125,-0.3032684326171875,2.5910269371856485
1784716001.891766,-0.010253902524709702,0.0439453087747097,0.9877929091453552,0.988823120703665,-2.452850341796875,-0.576019287109375,-0.5435943603515625,2.5775507457625473
1784716001.89963,-0.013183590024709702,0.0346679650247097,0.9887694716453552,0.9894648770435104,-2.452850341796875,-0.759124755859375,-0.2384185791015625,2.5786796259078812
1784716001.907494,-0.00830078125,0.02783203125,0.9868163466453552,0.987243651252996,-2.5730133056640625,-0.8220672607421875,-0.5435943603515625,2.755301595273101
1784716001.915358,-0.010253898799419403,0.03759765625,0.9926757216453552,0.9934403930484247,-2.330780029296875,-1.003265380859375,0.0629425048828125,2.5383141508333775
1784716001.926104,-0.0053710900247097015,0.0263671837747097,0.9970702528953552,0.9974332890961032,-2.452850341796875,-1.491546630859375,0.0629425048828125,2.87143655862391
1784716001.93685,-0.0043945275247097015,0.0195312462747097,1.0009765625,1.001176737707946,-2.3288726806640625,-1.3103485107421875,0.4940032958984375,2.717480531430944
1784716001.947596,0.0,0.02734375,0.9980468153953552,0.9984213170725437,-1.964569091796875,-0.881195068359375,0.5512237548828125,2.222585002399591
1784716001.95587,0.00537109375,0.03173828125,0.9960936903953552,0.9966136699796031,-1.5964508056640625,-1.4324188232421875,0.9212493896484375,2.3343477243143504
1784716001.964144,-0.0019531212747097015,0.0307617150247097,0.9926757216453552,0.9931541603085101,-1.2302398681640625,-1.1272430419921875,1.2874603271484375,2.1075391106504506
1784716001.972418,0.0029296912252902985,0.0273437462747097,1.0126953125,1.0130686351429916,-0.865936279296875,-1.003265380859375,1.2264251708984375,1.8056870614939577
1784716001.980692,-0.00048827752470970154,0.0209960900247097,0.9863280653953552,0.9865516341265727,-0.7419586181640625,-1.0662078857421875,1.3446807861328125,1.8696171435033189
1784716001.990933,0.001953125,0.03271484375,0.9926757216453552,0.9932165745913523,-0.682830810546875,-0.942230224609375,1.1653900146484375,1.6468726721400841
1784716002.001174,0.0029296912252902985,0.0366210900247097,0.9926757216453552,0.9933553118946917,-0.5588531494140625,-1.1272430419921875,0.8563995361328125,1.521976965600437
1784716002.011415,0.00732421875,0.02734375,0.9897460341453552,0.9901507647579832,-0.55694580078125,-1.369476318359375,0.4329681396484375,1.5404919413958793
1784716002.022089,0.009765625,0.041015625,0.9829100966453552,0.9838139595539204,-0.194549560546875,-1.003265380859375,0.8563995361328125,1.3333458371436817
1784716002.032763,0.0068359375,0.0224609375,0.9897460341453552,0.9900244622540099,-0.8029937744140625,-1.1272430419921875,0.6771087646484375,1.540763497955243
1784716002.043437,0.0009765625,0.02783203125,0.9990233778953552,0.999411469425513,-0.682830810546875,-1.186370849609375,0.7381439208984375,1.5551817117604911
1784716002.051422,0.0024414099752902985,0.0390624962747097,0.9824218153953552,0.9832011302183213,-1.171112060546875,-0.759124755859375,0.2498626708984375,1.4178170571781834
1784716002.059409,0.001953125,0.02685546875,0.9794921278953552,0.9798621635250637,-0.9250640869140625,-1.0013580322265625,0.6160736083984375,1.4959973812035476
1784716002.067396,0.0068359375,0.0478515625,0.9882811903953552,0.9894625881580645,-0.865936279296875,-0.759124755859375,0.8563995361328125,1.4351084280463158
1784716002.075383,0.012207034975290298,0.0263671837747097,0.9902343153953552,0.9906605066669435,-0.865936279296875,-0.087738037109375,0.5512237548828125,1.030238434007113
1784716002.083494,0.00537109375,0.02392578125,0.9951171278953552,0.9954192030934479,-0.9860992431640625,-0.3337860107421875,0.7991790771484375,1.312437433056429
1784716002.091605,0.0244140625,0.0205078125,0.9980468153953552,0.9985559886867132,-1.04522705078125,-0.392913818359375,0.3681182861328125,1.175751644237835
1784716002.099716,0.0024414099752902985,0.0253906212747097,0.9965819716453552,0.9969083560387719,-0.6198883056640625,0.2155303955078125,0.6160736083984375,0.9001452959672053
1784716002.107827,0.0063476599752902985,0.0351562462747097,0.9843749403953552,0.9850229833448807,-0.5588531494140625,0.0324249267578125,0.2498626708984375,0.6130249365187087
1784716002.118343,0.0180664099752903,0.0327148400247097,0.9960936903953552,0.9967945104045645,-0.1316070556640625,0.2155303955078125,0.3681182861328125,0.4464133074558564
1784716002.128859,0.008300784975290298,0.0346679650247097,0.9873046278953552,0.9879479738800755,-0.3147125244140625,0.1544952392578125,0.0057220458984375,0.35063584212921595
1784716002.139375,0.014160159975290298,0.0292968712747097,0.9887694716453552,0.9893047482221278,-0.011444091796875,0.644683837890625,0.0057220458984375,0.6448107938641419
1784716002.150016,0.007812503725290298,0.0297851525247097,0.9897460341453552,0.9902249252729587,-0.011444091796875,0.766754150390625,-0.2384185791015625,0.803048138805584
1784716002.160659,0.013183597475290298,0.0336914025247097,0.9912108778953552,0.9918709201829405,-0.377655029296875,0.766754150390625,-0.3604888916015625,0.9276246489084881
1784716002.171302,0.0014648474752902985,0.0297851525247097,0.9951171278953552,0.9955638599907827,-0.4367828369140625,0.3376007080078125,-0.2384185791015625,0.6013292804536303
1784716002.182001,-0.0058593712747097015,0.0390624962747097,0.9941405653953552,0.9949249592866505,-0.682830810546875,0.278472900390625,-0.4825592041015625,0.88128795381941
1784716002.192699,0.0063476599752902985,0.0297851525247097,0.9794921278953552,0.9799654466903682,-0.7419586181640625,0.3986358642578125,-0.0553131103515625,0.8440809697637202
1784716002.203397,0.007812503725290298,0.0322265587747097,0.9853515028953552,0.9859093115307578,-0.865936279296875,0.400543212890625,0.0629425048828125,0.9561601665600711
1784716002.21407,-0.0014648400247097015,0.0356445275247097,0.9799804091453552,0.9806295327020574,-0.865936279296875,0.583648681640625,0.0057220458984375,1.04428165031883
1784716002.224742,0.00146484375,0.03662109375,0.9946288466453552,0.9953038696065276,-0.9250640869140625,0.8869171142578125,-0.0553131103515625,1.282741233701606
1784716002.235414,0.0029296912252902985,0.0361328087747097,0.9902343153953552,0.9908976548297675,-0.9250640869140625,0.8258819580078125,-0.3032684326171875,1.2766347620533651
1784716002.243411,0.009765625,0.03271484375,0.9980468153953552,0.9986305994480831,-0.682830810546875,0.766754150390625,-0.1201629638671875,1.0337354501315599
1784716002.251409,0.0039062537252902985,0.0253906212747097,0.9907225966453552,0.9910556018562214,-0.3147125244140625,0.8258819580078125,-0.4253387451171875,0.9808353733852353
1784716002.259407,0.0043945349752902985,0.0317382775247097,0.9882811903953552,0.9888004558489771,-0.194549560546875,1.010894775390625,-0.3032684326171875,1.073186619672054
1784716002.267405,-0.0034179650247097015,0.0249023400247097,0.9829100966453552,0.983231441274636,-0.1316070556640625,0.8869171142578125,-0.3032684326171875,0.9465274041917935
1784716002.278073,0.0278320349752903,0.0400390587747097,0.9946288466453552,0.9958234235935104,-0.377655029296875,0.888824462890625,-0.1773834228515625,0.981884476753028
1784716002.288741,0.0024414099752902985,0.0249023400247097,0.9912108778953552,0.9915266468832064,-0.316619873046875,1.071929931640625,-0.2384185791015625,1.1428584082099156
1784716002.299409,0.00537109375,0.0361328125,0.9921874403953552,0.9928596807532866,-0.377655029296875,1.316070556640625,-0.5435943603515625,1.4731462452233357
1784716002.310058,-0.0039062462747097015,0.0351562462747097,0.9975585341453552,0.9981854784849941,-0.377655029296875,0.644683837890625,-0.2384185791015625,0.7842729058506466
1784716002.320706,0.009765625,0.033203125,0.9916991591453552,0.9923028958896627,-0.316619873046875,0.888824462890625,-0.6656646728515625,1.1547149113628026
1784716002.331354,0.0058593787252902985,0.0346679650247097,0.9951171278953552,0.9957380671384928,-0.4367828369140625,1.0089874267578125,-0.2384185791015625,1.1250236854568247
1784716002.339364,-0.00048827752470970154,0.0400390587747097,0.9760741591453552,0.9768951472874753,-0.316619873046875,0.766754150390625,-0.5435943603515625,0.9917937788449234
1784716002.347375,-0.0053710900247097015,0.0458984337747097,0.9907225966453552,0.9917997672588656,-0.377655029296875,0.888824462890625,-0.3604888916015625,1.0308173882672695
1784716002.355386,0.0034179724752902985,0.0429687462747097,0.9765624403953552,0.9775132713591125,-0.621795654296875,0.583648681640625,-0.4825592041015625,0.9798668301082816
1784716002.363397,-0.00244140625,0.03759765625,0.9931640028953552,0.9938784034614576,-0.4367828369140625,0.4634857177734375,-0.1201629638671875,0.6481029201353764
1784716002.374065,-0.009277340024709702,0.0249023400247097,0.9941405653953552,0.9944956809062757,-0.926971435546875,0.766754150390625,-0.3032684326171875,1.2406287565920633
1784716002.384733,0.0039062537252902985,0.0341796837747097,0.9921874403953552,0.9927836755705606,-0.865936279296875,0.339508056640625,-0.3032684326171875,0.9783062416996505
1784716002.395401,0.0043945349752902985,0.0209960900247097,0.9877929091453552,0.9880257987987048,-0.6198883056640625,0.0324249267578125,-0.1201629638671875,0.6322594603955395
1784716002.40347,-0.00439453125,0.03564453125,0.9819335341453552,0.9825901027346687,-0.499725341796875,0.217437744140625,-0.3604888916015625,0.6534193376225489
1784716002.411542,0.01171875,0.0322265625,0.9829100966453552,0.9835080775059809,-0.988006591796875,0.217437744140625,-0.2384185791015625,1.0393650065649933
1784716002.419614,-0.001953125,0.0283203125,0.9775390028953552,0.9779511015275808,-0.682830810546875,-0.026702880859375,-0.3604888916015625,0.7726080511141566
1784716002.427686,0.0024414099752902985,0.0302734337747097,0.9931640028953552,0.993628289614534,-0.8029937744140625,0.2155303955078125,0.3108978271484375,0.8876428403705604
1784716002.438369,-0.00341796875,0.03271484375,0.9931640028953552,0.993708548901079,-0.6198883056640625,0.0324249267578125,-0.3032684326171875,0.690857893923488
1784716002.449052,0.015625,0.03173828125,0.9892577528953552,0.9898900751019134,-0.74005126953125,0.278472900390625,-0.1773834228515625,0.8103628301503704
1784716002.459735,0.0073242224752902985,0.0312499962747097,0.9931640028953552,0.9936825162742686,-0.5588531494140625,0.3376007080078125,-0.4253387451171875,0.7792330387985719
1784716002.470299,0.00732421875,0.02880859375,0.9926757216453552,0.9931206712168855,-0.4367828369140625,0.5207061767578125,-0.3604888916015625,0.7693285449692855
1784716002.480865,0.009765625,0.044921875,1.00244140625,1.003494950286066,-0.1316070556640625,1.0089874267578125,-0.9708404541015625,1.4063808985392414
1784716002.491431,0.0029296912252902985,0.0371093712747097,0.9912108778953552,0.9919096193631558,-0.1316070556640625,1.4972686767578125,-1.0318756103515625,1.8231569276228154
1784716002.499425,0.009277351200580597,0.02880859375,0.9936522841453552,0.9941131052885447,-0.3147125244140625,1.3141632080078125,-1.3980865478515625,1.9444060547087267
1784716002.507419,0.0029296912252902985,0.0322265587747097,0.9965819716453552,0.9971071960374566,-0.011444091796875,0.888824462890625,-1.6422271728515625,1.8673644476432283
1784716002.515413,0.0009765625,0.0385742112994194,0.9833983778953552,0.9841551163810025,-0.316619873046875,0.888824462890625,-1.5850067138671875,1.844587583403154
1784716002.523407,0.001953125,0.0283203125,0.9926757216453552,0.9930815390195762,-0.0705718994140625,0.8869171142578125,-1.4591217041015625,1.7089875681029871
1784716002.534125,-0.008789058774709702,0.0356445275247097,0.9951171278953552,0.9957940942420305,0.11444091796875,0.949859619140625,-1.2798309326171875,1.5979040133447575
1784716002.544843,-0.008789058774709702,0.0307617150247097,0.9960936903953552,0.9966073302514108,0.1125335693359375,0.7038116455078125,-1.1539459228515625,1.3563206956489475
1784716002.555561,-0.0058593712747097015,0.0375976525247097,0.9897460341453552,0.9904772222588273,0.171661376953125,0.705718994140625,-0.9136199951171875,1.1671368482342712
1784716002.566163,-0.0063476525247097015,0.0224609337747097,0.9916991591453552,0.9919737942547731,0.6618499755859375,1.0089874267578125,-0.6084442138671875,1.3514086646632535
1784716002.576767,-0.0009765587747097015,0.0205078087747097,1.00341796875,1.0036279907904904,0.4177093505859375,1.0089874267578125,-0.0553131103515625,1.093433248579465
1784716002.587371,-0.013671871274709702,0.0297851525247097,0.9804686903953552,0.9810162731681138,0.4787445068359375,0.8258819580078125,0.1888275146484375,0.9731048975710219
1784716002.59811,-0.011718746274709702,0.0371093712747097,0.9814452528953552,0.9822164826969068,0.4177093505859375,0.8869171142578125,0.5512237548828125,1.1247002698841315
1784716002.608851,0.0029296912252902985,0.0297851525247097,0.9970702528953552,0.9975193369606443,0.293731689453125,0.888824462890625,0.6771087646484375,1.1553196572315076
1784716002.619592,-0.0058593712747097015,0.0366210900247097,0.9790038466453552,0.9797060621496302,0.3566741943359375,0.8258819580078125,0.8563995361328125,1.2420618563326484
1784716002.628037,0.0048828125,0.033203125,0.9794921278953552,0.9800668946437517,0.782012939453125,0.827789306640625,0.9212493896484375,1.4647456474037743
1784716002.636483,0.00244140625,0.02880859375,0.9868163466453552,0.9872397872577948,0.476837158203125,0.583648681640625,0.5512237548828125,0.9337382325744077
1784716002.644929,-0.00830078125,0.03271484375,0.9799804091453552,0.9805614546165096,0.5397796630859375,0.8869171142578125,0.5512237548828125,1.1755133687847539
1784716002.653375,0.001953125,0.02880859375,0.9995116591453552,0.9999286507239499,0.476837158203125,0.583648681640625,-0.0553131103515625,0.7556976903503383
1784716002.660881,0.0068359375,0.04248046875,0.9892577528953552,0.9901930225619101,0.659942626953125,0.949859619140625,0.1277923583984375,1.1636530641943068
1784716002.668387,-0.00439453125,0.0419921875,1.00244140625,1.003330169326339,0.7228851318359375,0.7038116455078125,0.0057220458984375,1.0089333416986175
1784716002.675893,-0.00048827752470970154,0.0454101525247097,1.00634765625,1.007371791151175,0.782012939453125,0.583648681640625,-0.1773834228515625,0.9917937788449234
1784716002.683399,-0.0087890625,0.041015625,0.9926757216453552,0.993561582116527,0.782012939453125,0.522613525390625,-0.4253387451171875,1.0322704018285123
1784716002.694335,0.0058593787252902985,0.0405273400247097,0.9863280653953552,0.9871777196609883,0.90789794921875,0.583648681640625,-0.0553131103515625,1.0807330891358957
1784716002.705271,-0.0034179650247097015,0.0341796837747097,0.9912108778953552,0.9918058972026381,1.148223876953125,0.644683837890625,0.0057220458984375,1.3168401817426116
1784716002.716207,-0.0068359337747097015,0.0498046837747097,0.9941405653953552,0.9954108198533245,0.9670257568359375,0.1544952392578125,0.3108978271484375,1.0274556205807948
1784716002.726627,-0.008300777524709702,0.0395507775247097,0.9868163466453552,0.9876434928236046,0.782012939453125,0.217437744140625,0.7991790771484375,1.139083231112156
1784716002.737046,-0.011718746274709702,0.0502929650247097,0.9912108778953552,0.9925551449684337,0.659942626953125,0.217437744140625,1.3446807861328125,1.513595011897672
1784716002.747465,-0.0029296875,0.046875,0.9965819716453552,0.9976880649293101,0.5397796630859375,0.3376007080078125,1.5926361083984375,1.7151752378410388
1784716002.755795,-0.00341796875,0.04150390625,0.9775390028953552,0.9784256532440418,0.60272216796875,0.766754150390625,1.7757415771484375,2.0259427651628807
1784716002.764127,-0.0185546837747097,0.0590820275247097,0.9975585341453552,0.9994788598627986,0.476837158203125,0.766754150390625,2.3212432861328125,2.490673803612416
1784716002.772459,-0.00048827752470970154,0.068359375,0.9960936903953552,0.9984367193822399,0.476837158203125,1.010894775390625,2.2640228271484375,2.524892331210283
1784716002.780791,0.008300784975290298,0.06640625,0.9882811903953552,0.9905444989295175,0.6008148193359375,0.8258819580078125,2.1419525146484375,2.3729770396498275
1784716002.791025,0.00048828125,0.0434570237994194,0.9936522841453552,0.9946022386478748,0.9059906005859375,0.9517669677734375,1.8329620361328125,2.2553113211259452
1784716002.801259,-0.00390625,0.05712890625,0.9926757216453552,0.9943259320074633,0.60272216796875,0.949859619140625,1.1653900146484375,1.6197657837098574
1784716002.811493,0.00048828125,0.056640625,0.9887694716453552,0.9903905627967204,-0.0095367431640625,0.8258819580078125,0.4329681396484375,0.932541349208508
1784716002.819557,0.014648433774709702,0.064453125,0.9614257216453552,0.9636950763470828,-0.133514404296875,0.949859619140625,-0.1201629638671875,0.9666946416082327
1784716002.827621,0.01123046875,0.0517578125,0.9711913466453552,0.972634374460387,-0.865936279296875,0.888824462890625,-0.7266998291015625,1.4380358852447193
1784716002.835685,0.011718753725290298,0.0585937462747097,0.9790038466453552,0.9808257174634958,-1.659393310546875,0.522613525390625,-1.4591217041015625,2.270627050704096
1784716002.843749,-0.00048827752470970154,0.0615234337747097,0.9814452528953552,0.9833718298533877,-2.02178955078125,0.095367431640625,-1.2798309326171875,2.394722353582928
1784716002.854309,-0.0078124962747097015,0.0454101525247097,0.9711913466453552,0.9722837799990177,-2.6950836181640625,0.1544952392578125,-1.5850067138671875,3.130429806089522
1784716002.864869,0.0029296912252902985,0.0458984337747097,0.9682616591453552,0.9693533359330657,-3.124237060546875,-0.392913818359375,-1.3370513916015625,3.420956723335739
1784716002.875429,-0.0170898400247097,0.0541992150247097,0.9819335341453552,0.9835766787701671,-3.612518310546875,-0.698089599609375,-1.2149810791015625,3.8747640774238143
1784716002.883724,-0.0019531212747097015,0.0439453087747097,0.9785155653953552,0.9795038114101496,-3.124237060546875,-0.576019287109375,-0.9708404541015625,3.321925137166203
1784716002.89202,-0.0200195275247097,0.0312499962747097,0.9858397841453552,0.9865381005076502,-3.18145751953125,-0.392913818359375,-0.5435943603515625,3.2513917090756235
1784716002.900316,-0.014160152524709702,0.0439453087747097,0.9951171278953552,0.9961876320821939,-2.8781890869140625,-0.3337860107421875,-0.6656646728515625,2.9729606417981667
1784716002.908612,-0.0234374962747097,0.0390624962747097,0.9873046278953552,0.9883550086433642,-2.99835205078125,-0.026702880859375,-0.1773834228515625,3.003713192529016
1784716002.918872,-0.0185546837747097,0.0434570275247097,0.9990233778953552,1.0001402397227643,-2.941131591796875,0.217437744140625,0.5512237548828125,3.000230297958757
1784716002.929132,-0.0200195275247097,0.0346679650247097,0.9843749403953552,0.9851886482088729,-2.9392242431640625,0.3376007080078125,0.7381439208984375,3.0492408625115286
1784716002.939392,0.0,0.02978515625,0.9853515028953552,0.9858015722197709,-2.69317626953125,0.766754150390625,0.8563995361328125,2.9282299280275117
1784716002.950049,-0.0166015587747097,0.0458984337747097,0.9965819716453552,0.9977764800721979,-2.2068023681640625,0.2155303955078125,1.1043548583984375,2.477101067132809
1784716002.960709,-0.013183590024709702,0.0249023400247097,0.9960936903953552,0.9964921342539959,-2.0847320556640625,-0.1506805419921875,1.1653900146484375,2.393103895757694
1784716002.971369,-0.008789058774709702,0.0351562462747097,0.9809569716453552,0.9816260945114996,-1.5964508056640625,-0.4558563232421875,1.2264251708984375,2.0641169691077543
1784716002.982069,-0.0073242150247097015,0.0170898400247097,0.9882811903953552,0.988456077955444,-1.4133453369140625,-0.5130767822265625,1.7147064208984375,2.2805725017431517
1784716002.99277,-0.0185546875,0.03125,1.0029296875,1.0035879617637262,-1.4743804931640625,-0.1506805419921875,1.6536712646484375,2.2206150309951806
1784716003.003471,-0.0166015587747097,0.0170898400247097,0.9858397841453552,0.9861276562340096,-0.9250640869140625,0.1544952392578125,1.7147064208984375,1.9544386543767
1784716003.011453,-0.014648430049419403,0.02685546875,0.9965819716453552,0.997051362224253,-1.2302398681640625,-0.6961822509765625,1.5926361083984375,2.1294716794476614
1784716003.019433,-0.00390625,0.04150390625,0.9931640028953552,0.9940385151844955,-1.04522705078125,-0.881195068359375,1.5926361083984375,2.098926894858483
1784716003.027413,-0.011230465024709702,0.0307617150247097,0.9877929091453552,0.988335589672747,-0.8029937744140625,-0.9441375732421875,1.6536712646484375,2.06659706050293
1784716003.035393,-0.013671875,0.04248046875,0.9916991591453552,0.9927027413283596,-0.865936279296875,-1.186370849609375,1.8329620361328125,2.348844664619083
1784716003.046093,-0.02197265625,0.02783203125,0.9907225966453552,0.9913569907404178,-0.682830810546875,-0.942230224609375,1.7147064208984375,2.072262971215252
1784716003.056793,-0.00927734375,0.0263671875,0.9951171278953552,0.9955096161837999,-0.621795654296875,-0.881195068359375,1.7147064208984375,2.0256733927446673
1784716003.067493,-0.0034179650247097015,0.0297851525247097,0.9892577528953552,0.9897119477198394,-0.682830810546875,-0.942230224609375,1.4705657958984375,1.875265173799679
1784716003.075468,-0.010742183774709702,0.0341796837747097,0.9951171278953552,0.9957618909789074,-0.06866455078125,-1.186370849609375,1.2264251708984375,1.7077205020582622
1784716003.083441,-0.00927734375,0.021484375,0.9980468153953552,0.9983211373085349,-0.011444091796875,-1.491546630859375,1.5926361083984375,2.1820476834935407
1784716003.091414,-0.01416015625,0.03271484375,0.9877929091453552,0.988435937420557,0.2346038818359375,-1.4896392822265625,1.8978118896484375,2.423995491129456
1784716003.099387,-0.0058593712747097015,0.0161132775247097,0.9951171278953552,0.9952648231375526,0.3566741943359375,-1.7986297607421875,1.8329620361328125,2.5926888210961287
1784716003.11007,-0.009277340024709702,0.0244140587747097,0.9877929091453552,0.9881381212470416,0.0514984130859375,-1.6727447509765625,1.7757415771484375,2.440078940789341
1784716003.120753,-0.0009765587747097015,0.0336914025247097,0.9824218153953552,0.9829998411168884,0.2346038818359375,-1.7375946044921875,2.1419525146484375,2.7680741619294844
1784716003.131436,0.0,0.0322265625,0.9877929091453552,0.9883184621813004,-0.06866455078125,-1.857757568359375,2.1419525146484375,2.8361838054574835
1784716003.142071,0.008300784975290298,0.0356445275247097,0.9936522841453552,0.9943260517360226,0.11444091796875,-1.674652099609375,1.8978118896484375,2.5336231659271258
1784716003.152705,0.0039062537252902985,0.0468749962747097,0.9858397841453552,0.9869612981762157,-0.194549560546875,-1.247406005859375,1.7147064208984375,2.1293401289679745
1784716003.163339,-0.00048827752470970154,0.0463867150247097,0.9892577528953552,0.990344822478157,-0.2536773681640625,-1.2493133544921875,1.7147064208984375,2.1366689436366824
1784716003.171347,0.0063476599752902985,0.0385742150247097,0.9848632216453552,0.9856387919525096,0.1125335693359375,-0.9441375732421875,0.9822845458984375,1.36709271468545
1784716003.179354,0.00732421875,0.0380859375,1.00439453125,1.0051430531125702,0.293731689453125,-0.576019287109375,0.3681182861328125,0.7440346746599509
1784716003.187361,0.0200195349752903,0.0346679650247097,0.9965819716453552,0.997385720665844,0.60272216796875,-0.576019287109375,0.2498626708984375,0.8703468189126927
1784716003.195368,0.0024414099752902985,0.0356445275247097,0.9868163466453552,0.9874629080788874,0.4787445068359375,-0.6389617919921875,-0.3604888916015625,0.876025522127966
1784716003.206036,0.01025390625,0.0361328125,1.00341796875,1.0041206813640082,0.6008148193359375,-0.6389617919921875,-0.5435943603515625,1.0318650335027189
1784716003.216704,-0.0034179650247097015,0.0454101525247097,0.9946288466453552,0.9956707824458328,0.6618499755859375,-0.3337860107421875,-0.7915496826171875,1.0844396669255787
1784716003.227372,0.013183597475290298,0.0253906212747097,0.9902343153953552,0.9906475106099112,0.6008148193359375,-0.4558563232421875,-0.7266998291015625,1.0473185170662271
1784716003.235533,0.0170898474752903,0.0356445275247097,0.9980468153953552,0.9988293352470174,0.171661376953125,-0.576019287109375,-0.9136199951171875,1.0936029183105562
1784716003.243695,0.0004882849752902985,0.0493164025247097,0.9838866591453552,0.9851219741861434,0.049591064453125,-0.392913818359375,-1.0318756103515625,1.105263686895461
1784716003.251857,0.009277347475290298,0.0434570275247097,0.9770507216453552,0.9780606806763934,0.1735687255859375,-0.6389617919921875,-1.0318756103515625,1.2260365204045938
1784716003.260019,-0.005859367549419403,0.033203125,0.9892577528953552,0.9898321480743149,-0.0705718994140625,-0.3337860107421875,-0.6084442138671875,0.6975656638213725
1784716003.269522,-0.009277340024709702,0.0493164025247097,0.9858397841453552,0.9871161312630211,-0.3147125244140625,-0.1506805419921875,-0.4253387451171875,0.5501469320608768
1784716003.279025,-0.0004882737994194031,0.05224609375,0.9882811903953552,0.9896613582497285,-0.499725341796875,-0.087738037109375,-0.3032684326171875,0.5910965425477426
1784716003.288528,0.0024414099752902985,0.0419921837747097,0.9956054091453552,0.9964935698238733,-0.194549560546875,-0.087738037109375,-0.1773834228515625,0.2775110328749552
1784716003.298031,-0.005371086299419403,0.03271484375,0.9916991591453552,0.9922531591379427,-0.316619873046875,0.217437744140625,-0.2384185791015625,0.45207381636851207
1784716003.307534,-0.0024414025247097015,0.0302734337747097,0.9887694716453552,0.9892358208721691,0.049591064453125,0.278472900390625,0.1888275146484375,0.3400915468133056
1784716003.317105,-0.00048827752470970154,0.0366210900247097,0.9912108778953552,0.9918872653218307,-0.4367828369140625,-0.0247955322265625,0.4940032958984375,0.6598737162515372
1784716003.326676,0.00048828125,0.0419921875,0.9941405653953552,0.9950271584204176,-0.438690185546875,0.278472900390625,0.7381439208984375,0.9026919092948809
1784716003.336247,0.0,0.0419921875,0.9897460341453552,0.9906364398292109,-0.06866455078125,0.278472900390625,0.6160736083984375,0.679565057776685
1784716003.345818,0.011718753725290298,0.0532226525247097,0.9995116591453552,1.0009962720700516,-0.0705718994140625,0.1544952392578125,0.8563995361328125,0.8730803728344452
1784716003.355389,-0.008789058774709702,0.0395507775247097,0.9775390028953552,0.9783782569837699,0.293731689453125,0.522613525390625,0.5512237548828125,0.8144021305579398
1784716003.36503,0.00537109375,0.0385742112994194,0.9926757216453552,0.9934394328642135,0.171661376953125,0.888824462890625,-0.0553131103515625,0.9069377566002063
1784716003.374671,0.01025390625,0.05078125,0.9794921278953552,0.9808612065699801,-0.0095367431640625,1.0089874267578125,-0.1201629638671875,1.016162248221649
1784716003.384312,-0.0034179650247097015,0.0449218712747097,0.9599608778953552,0.9610174525435804,-0.194549560546875,0.766754150390625,-0.6084442138671875,0.9979808715795565
1784716003.393953,0.00146484375,0.03271484375,0.9868163466453552,0.9873595640774868,-0.6198883056640625,0.5207061767578125,-0.3604888916015625,0.8861990041638071
1784716003.403594,0.0107421875,0.04736328125,0.9702147841453552,0.9714295663491358,-0.926971435546875,0.766754150390625,-0.7266998291015625,1.4054467656504546
1784716003.413242,0.0034179724752902985,0.0458984337747097,0.9843749403953552,0.9854503397113283,-1.5354156494140625,0.8258819580078125,-0.9708404541015625,1.9955233429726031
1784716003.422891,0.0024414099752902985,0.0410156212747097,0.9785155653953552,0.9793778399536154,-1.7185211181640625,0.9517669677734375,-1.1539459228515625,2.2783253471324607
1784716003.43254,-0.00439453125,0.04150390625,0.9838866591453552,0.9847714679980957,-1.842498779296875,0.766754150390625,-1.1539459228515625,2.305277612722049
1784716003.442189,-0.00048827752470970154,0.0517578087747097,0.9790038466453552,0.980371175081409,-2.0847320556640625,1.0089874267578125,-1.1539459228515625,2.587615613674953
1784716003.451838,-0.00390625,0.04248046875,0.9965819716453552,0.9974945990945644,-1.7795562744140625,1.0089874267578125,-0.7266998291015625,2.170937309730074
1784716003.461367,-0.00048827752470970154,0.0502929650247097,0.9799804091453552,0.9812702089917005,-1.5964508056640625,0.8869171142578125,-0.4253387451171875,1.875150711427405
1784716003.470894,-0.012207027524709702,0.0317382775247097,0.9926757216453552,0.993257981657007,-1.7185211181640625,1.1920928955078125,-0.4825592041015625,2.146453747593736
1784716003.480421,-0.0029296837747097015,0.0351562462747097,0.9838866591453552,0.9845189194440888,-1.781463623046875,1.377105712890625,-0.4253387451171875,2.2914942358236816
1784716003.489948,-0.0068359337747097015,0.0375976525247097,0.9873046278953552,0.9880438966612398,-1.9016265869140625,1.2569427490234375,-0.2384185791015625,2.2919276099479737
1784716003.499475,-0.011230465024709702,0.0385742150247097,0.9946288466453552,0.9954399208332532,-2.452850341796875,0.949859619140625,0.1888275146484375,2.637112801079113
1784716003.50907,-0.016113273799419403,0.0380859375,0.9848632216453552,0.985731069601368,-1.964569091796875,0.949859619140625,0.3108978271484375,2.204182948723447
1784716003.518662,-0.015624996274709702,0.0341796837747097,0.9809569716453552,0.9816766124906664,-2.147674560546875,0.949859619140625,0.4940032958984375,2.399745522019513
1784716003.528254,-0.011718746274709702,0.0498046837747097,0.9829100966453552,0.9842408717522004,-1.964569091796875,1.071929931640625,0.5512237548828125,2.3048672679219036
1784716003.537846,-0.00732421875,0.03271484375,0.9985350966453552,0.99909771514824,-2.330780029296875,1.010894775390625,0.3108978271484375,2.559511916519793
1784716003.547438,-0.009765617549419403,0.03759765625,0.9843749403953552,0.98514109361044,-2.2678375244140625,1.0089874267578125,0.6160736083984375,2.5574771466155717
1784716003.557045,-0.014648433774709702,0.0400390587747097,0.9790038466453552,0.9799317499632405,-2.0847320556640625,0.7038116455078125,0.6160736083984375,2.284951917925363
1784716003.566651,-0.0014648400247097015,0.0356445275247097,0.9819335341453552,0.9825813674082902,-2.2678375244140625,0.7038116455078125,0.7991790771484375,2.5054191399533825
1784716003.576257,-0.00048827752470970154,0.0312499962747097,0.9956054091453552,0.9960958444856602,-2.3899078369140625,0.7686614990234375,0.4940032958984375,2.5586205708120793
1784716003.585863,-0.0078124962747097015,0.0351562462747097,0.9926757216453552,0.9933287900258893,-2.2068023681640625,0.4634857177734375,0.3681182861328125,2.284799066723337
1784716003.595469,0.0009765662252902985,0.0302734337747097,0.9990233778953552,0.999482438092611,-2.3899078369140625,0.4634857177734375,-0.0553131103515625,2.435064274244106
1784716003.603435,-0.011230465024709702,0.0410156212747097,0.9926757216453552,0.9935861778815909,-2.0236968994140625,0.5207061767578125,0.0057220458984375,2.0896212108947143
1784716003.611402,-0.0058593712747097015,0.0166015587747097,0.9897460341453552,0.989902599295478,-1.842498779296875,0.278472900390625,-0.2384185791015625,1.8786144699813343
1784716003.619369,-0.0068359337747097015,0.0390624962747097,0.9804686903953552,0.9812703304652428,-2.0847320556640625,0.2155303955078125,-0.1773834228515625,2.103336866506076
1784716003.627336,-0.015624996274709702,0.0244140587747097,0.9921874403953552,0.9926107513283977,-2.0847320556640625,0.2155303955078125,-0.3032684326171875,2.1176715603518756
1784716003.638022,-0.005859367549419403,0.02294921875,0.9873046278953552,0.9875886932791912,-2.0847320556640625,-0.5779266357421875,-0.0553131103515625,2.1640624945667244
1784716003.648708,-0.0029296837747097015,0.0356445275247097,0.9790038466453552,0.9796569027653925,-2.452850341796875,-0.026702880859375,0.0057220458984375,2.453002361374424
1784716003.659394,-0.00048827752470970154,0.0317382775247097,0.9746093153953552,0.9751260812482556,-2.99835205078125,0.095367431640625,-0.1201629638671875,3.0022739890501673
1784716003.670065,-0.0048828087747097015,0.0205078087747097,0.9956054091453552,0.9958285709708075,-3.795623779296875,0.461578369140625,-0.6656646728515625,3.881098288050045
1784716003.680737,-0.011230465024709702,0.0327148400247097,0.9965819716453552,0.9971820346912881,-3.490447998046875,0.339508056640625,-1.4591217041015625,3.7983587370038627
1784716003.691409,-0.0166015625,0.04296875,0.9975585341453552,0.9986215271063577,-3.0612945556640625,0.6465911865234375,-1.7681121826171875,3.593859375288289
1784716003.702111,-0.005371086299419403,0.02734375,1.0009765625,1.0013643731960982,-2.69317626953125,0.278472900390625,-1.6422271728515625,3.166647385212042
1784716003.712812,-0.011718746274709702,0.0170898400247097,0.9990233778953552,0.9992382604903431,-2.269744873046875,0.278472900390625,-1.9474029541015625,3.0036090309189767
1784716003.723513,-0.0078124962747097015,0.0249023400247097,0.9985350966453552,0.9988761188802631,-1.9016265869140625,0.2155303955078125,-1.8863677978515625,2.687195656482336
1784716003.731502,-0.0219726525247097,0.0336914025247097,0.9809569716453552,0.9817812833226552,-1.5964508056640625,0.1544952392578125,-1.7681121826171875,2.387204357439488
1784716003.739491,-0.0273437462747097,0.0292968712747097,0.9799804091453552,0.9807994644347643,-1.7185211181640625,-0.3337860107421875,-1.2149810791015625,2.130940392671236
1784716003.74748,-0.01318359375,0.01806640625,0.9824218153953552,0.9826763584943217,-1.842498779296875,-0.514984130859375,-1.0967254638671875,2.2051796184987196
1784716003.755469,-0.0166015587747097,0.0161132775247097,0.9877929091453552,0.9880638040249133,-2.330780029296875,-0.637054443359375,-0.7266998291015625,2.5231857938703808
1784716003.766096,-0.010742183774709702,0.0356445275247097,0.9931640028953552,0.9938614911051915,-2.2068023681640625,-0.5130767822265625,-0.3032684326171875,2.2858688104999736
1784716003.776723,-0.015136715024709702,0.0253906212747097,0.9926757216453552,0.9931157496156134,-2.1457672119140625,-0.6389617919921875,-0.1201629638671875,2.2421035295535896
1784716003.78735,-0.0205078087747097,0.015624996274709702,1.01220703125,1.0125353252313043,-1.842498779296875,-1.064300537109375,0.0629425048828125,2.1287318158759927
1784716003.795341,-0.00048827752470970154,0.0297851525247097,0.9951171278953552,0.9955629020592129,-1.4133453369140625,-0.9441375732421875,0.1888275146484375,1.7101452069554437
1784716003.803333,-0.00439453125,0.0185546875,0.9863280653953552,0.9865123622741248,-1.171112060546875,-0.576019287109375,0.3681182861328125,1.356028299876407
1784716003.811325,-0.0053710900247097015,0.0341796837747097,0.9863280653953552,0.9869347252871067,-1.171112060546875,-0.270843505859375,0.3108978271484375,1.241578479980289
1784716003.819317,0.007812503725290298,0.0219726525247097,0.9760741591453552,0.9763527010382782,-1.293182373046875,-0.392913818359375,0.2498626708984375,1.3744574467495863
1784716003.830024,-0.0048828087747097015,0.0253906212747097,0.9887694716453552,0.98910747319393,-1.0471343994140625,-0.8220672607421875,-0.0553131103515625,1.3324205686633546
1784716003.840731,-0.00390625,0.0361328125,0.9887694716453552,0.9894371667701075,-1.1081695556640625,-0.8220672607421875,0.3108978271484375,1.4143874307312228
1784716003.851438,-0.010742183774709702,0.0224609337747097,0.9985350966453552,0.9988454471492726,-0.865936279296875,-0.759124755859375,0.0629425048828125,1.1532899868125077
1784716003.862249,-0.0029296875,0.0380859375,0.9897460341453552,0.9904828791102652,-0.621795654296875,-0.576019287109375,-0.2384185791015625,0.8804950162750949
1784716003.87306,-0.0078124962747097015,0.0253906212747097,0.9897460341453552,0.9901024850252709,-0.499725341796875,-0.514984130859375,-0.0553131103515625,0.7197177310916785
1784716003.883871,-0.0068359337747097015,0.0419921837747097,0.9863280653953552,0.9872452208419574,-0.377655029296875,-0.392913818359375,-0.0553131103515625,0.547781096778386
1784716003.891754,0.00048828125,0.03173828125,0.9877929091453552,0.9883027816783312,-0.4367828369140625,-0.2727508544921875,-0.3604888916015625,0.6285893064768426
1784716003.899638,-0.0029296875,0.02685546875,0.9931640028953552,0.9935313462180019,-0.499725341796875,-0.270843505859375,-0.7266998291015625,0.9225910597423113
1784716003.907522,0.0004882849752902985,0.0244140587747097,0.9926757216453552,0.9929760183570391,-0.316619873046875,-0.209808349609375,-0.6084442138671875,0.7172670694814371
1784716003.915406,-0.00390625,0.02783203125,0.9980468153953552,0.9984424502560845,-0.316619873046875,-0.209808349609375,-0.4825592041015625,0.614109984479297
1784716003.926056,0.0029296912252902985,0.0322265587747097,0.9941405653953552,0.9946670789494,-0.1316070556640625,-0.4558563232421875,-0.1201629638671875,0.48945330975057916
1784716003.936706,-0.015136715024709702,0.0268554650247097,1.00341796875,1.0038914065544184,-0.377655029296875,-0.576019287109375,-0.4253387451171875,0.8095273858079662
1784716003.947356,-0.00390625,0.02294921875,0.9980468153953552,0.99831827147013,-0.4367828369140625,-0.2079010009765625,-0.4253387451171875,0.6441390540307402
1784716003.958081,-0.017578125,0.04296875,0.9887694716453552,0.9898587636692989,0.3566741943359375,-0.1506805419921875,-0.3032684326171875,0.4918260351611483
1784716003.968807,-0.0048828087747097015,0.0410156212747097,0.9999999403953552,1.000852638404273,0.2346038818359375,-0.1506805419921875,-0.5435943603515625,0.610932431381388
1784716003.979533,0.008789066225290298,0.0327148400247097,1.00244140625,1.0030135998118033,0.5397796630859375,0.5207061767578125,-0.1773834228515625,0.7706892278327515
1784716003.987507,-0.010742183774709702,0.0419921837747097,0.9916991591453552,0.9926459390235892,0.5397796630859375,0.3376007080078125,-0.5435943603515625,0.8371565871057629
1784716003.995482,-0.015136715024709702,0.0351562462747097,0.9916991591453552,0.9924375567477643,0.476837158203125,0.400543212890625,-0.3604888916015625,0.7195559615513581
1784716004.003457,0.008789066225290298,0.0297851525247097,1.001953125,1.0024342710089766,0.4787445068359375,0.3376007080078125,0.4940032958984375,0.7662961550415612
1784716004.011432,-0.0161132775247097,0.0336914025247097,0.9921874403953552,0.9928900569524084,0.293731689453125,0.339508056640625,0.2498626708984375,0.513785344498441
1784716004.022102,-0.0024414025247097015,0.0385742150247097,0.9799804091453552,0.9807423376298986,0.2346038818359375,0.0934600830078125,0.4329681396484375,0.5012336565305113
1784716004.032772,-0.013671875,0.03125,0.9843749403953552,0.9849657384621938,-0.06866455078125,0.278472900390625,0.9212493896484375,0.964863935854987
1784716004.043442,-0.0009765587747097015,0.0385742150247097,0.9931640028953552,0.9939133062691827,-0.0705718994140625,0.3376007080078125,1.1653900146484375,1.2153553049526589
1784716004.054093,0.00634765625,0.0478515625,0.9687499403953552,0.969951809003707,-0.194549560546875,-0.026702880859375,0.9212493896484375,0.9419463961833449
1784716004.064745,-0.0024414025247097015,0.0537109337747097,0.9799804091453552,0.9814542409923841,-0.3147125244140625,0.1544952392578125,0.8563995361328125,0.9253825789720147
1784716004.075397,0.0073242224752902985,0.0336914025247097,0.9916991591453552,0.9922983306891905,-0.804901123046875,0.461578369140625,0.4329681396484375,1.023905180517839
1784716004.083426,-0.0024414025247097015,0.0341796837747097,0.9819335341453552,0.982531259914113,-0.682830810546875,0.278472900390625,0.0629425048828125,0.7401127150677741
1784716004.091458,-0.0014648400247097015,0.0522460900247097,0.9736327528953552,0.9750346338411553,-0.804901123046875,0.644683837890625,-0.3604888916015625,1.0924446483404224
1784716004.09949,0.0039062537252902985,0.0395507775247097,0.9707030653953552,0.971516322039375,-1.110076904296875,0.766754150390625,-0.8487701416015625,1.5939239046670073
1784716004.107522,-0.0053710900247097015,0.0341796837747097,0.9892577528953552,0.9898626172629009,-1.2302398681640625,0.6465911865234375,-0.6656646728515625,1.5409995951954998
1784716004.118139,-0.0068359375,0.04296875,0.9951171278953552,0.9960678399329873,-1.2912750244140625,0.6465911865234375,-0.9136199951171875,1.708851323738626
1784716004.128756,-0.0068359337747097015,0.0410156212747097,0.9980468153953552,0.9989126372711143,-1.171112060546875,0.278472900390625,-1.0318756103515625,1.585502409285058
1784716004.139373,-0.0078124962747097015,0.0439453087747097,1.0048828125,1.0058735964917545,-1.4133453369140625,0.1544952392578125,-1.3980865478515625,1.9940059718099024
1784716004.147384,-0.0239257775247097,0.0292968712747097,0.9873046278953552,0.9880289356897574,-1.171112060546875,0.400543212890625,-1.0967254638671875,1.6537064633258798
1784716004.155395,-0.012695308774709702,0.0434570275247097,0.9941405653953552,0.9951709138990976,-1.293182373046875,0.400543212890625,-0.5435943603515625,1.4588524065024246
1784716004.163406,-0.00439453125,0.04736328125,0.9838866591453552,0.9850358117144179,-1.71661376953125,0.278472900390625,-0.3604888916015625,1.7760242765695455
1784716004.171417,-0.00048827752470970154,0.0419921837747097,0.9902343153953552,0.9911244025346253,-1.8405914306640625,0.1544952392578125,-0.1201629638671875,1.8509685927839663
1784716004.182069,-0.0063476525247097015,0.0385742150247097,0.9892577528953552,0.9900298805697304,-1.9016265869140625,0.1544952392578125,0.0629425048828125,1.9089301228522426
1784716004.192721,-0.0161132775247097,0.0424804650247097,0.9946288466453552,0.9956659932931191,-1.964569091796875,0.217437744140625,0.2498626708984375,1.992295721856839
1784716004.203373,-0.0073242150247097015,0.0205078087747097,0.9838866591453552,0.984127619971453,-1.659393310546875,-0.026702880859375,0.7991790771484375,1.842006080414974
1784716004.21404,-0.014648430049419403,0.02685546875,0.9833983778953552,0.9838740581761015,-1.71661376953125,-0.209808349609375,0.4329681396484375,1.7827629644068574
1784716004.224707,-0.0073242150247097015,0.0307617150247097,0.9829100966453552,0.9834186216074877,-1.7185211181640625,0.0324249267578125,-0.0553131103515625,1.7197167643620486
1784716004.235374,-0.0180664025247097,0.0214843712747097,0.9897460341453552,0.9901440224612342,-1.5964508056640625,-0.0896453857421875,0.0057220458984375,1.5989759885312735
1784716004.243379,-0.00732421875,0.02783203125,0.9848632216453552,0.9852836299733528,-1.476287841796875,-0.514984130859375,-0.3604888916015625,1.6045518651144886
1784716004.251385,-0.0053710900247097015,0.0297851525247097,0.9965819716453552,0.9970414385207454,-1.9016265869140625,-0.4558563232421875,-0.3604888916015625,1.9884518863845901
1784716004.259391,-0.015136715024709702,0.0312499962747097,0.9863280653953552,0.9869390735984936,-1.659393310546875,-0.576019287109375,-0.0553131103515625,1.7573969154367133
1784716004.267397,-0.0229492150247097,0.0361328087747097,0.9926757216453552,0.9935981756647537,-2.02178955078125,-0.881195068359375,-0.3604888916015625,2.2347460654663327
1784716004.278058,-0.0258789025247097,0.0366210900247097,0.9990233778953552,1.0000292652777352,-1.9626617431640625,-0.8220672607421875,0.1277923583984375,2.131705088920368
1784716004.288719,-0.013183590024709702,0.0341796837747097,1.00732421875,1.007990148517919,-1.964569091796875,-0.514984130859375,0.1888275146484375,2.0397049300741736
1784716004.29938,-0.0039062462747097015,0.0292968712747097,0.9975585341453552,0.9979962898090731,-1.9016265869140625,-0.5130767822265625,0.0629425048828125,1.9706326952122033
1784716004.307384,-0.009765621274709702,0.0312499962747097,0.9843749403953552,0.9849192621247741,-1.7795562744140625,-0.6389617919921875,0.0057220458984375,1.8908002134656081
1784716004.31539,-0.0029296837747097015,0.0312499962747097,0.9892577528953552,0.9897555491017753,-1.781463623046875,-0.698089599609375,0.4329681396484375,1.9617347270394907
1784716004.323396,-0.015624996274709702,0.0302734337747097,0.9912108778953552,0.9917961613956656,-2.02178955078125,-0.698089599609375,-0.1201629638671875,2.142288779463771
1784716004.331402,-0.0029296875,0.02880859375,0.9980468153953552,0.9984668065907402,-1.659393310546875,-0.881195068359375,0.0629425048828125,1.8799076218020725
1784716004.342082,-0.0190429650247097,0.0302734337747097,0.9863280653953552,0.9869762752447437,-1.842498779296875,-0.637054443359375,0.3108978271484375,1.9741574340563666
1784716004.352762,-0.0200195275247097,0.0395507775247097,0.9931640028953552,0.9941527961698075,-1.7185211181640625,-0.5779266357421875,-0.0553131103515625,1.8139386897171874
1784716004.363442,-0.017578125,0.0322265625,0.9887694716453552,0.9894506606531308,-2.0236968994140625,-0.7610321044921875,0.2498626708984375,2.1764536197848092
1784716004.371431,0.0,0.0322265625,0.9833983778953552,0.983926278223009,-1.964569091796875,-1.003265380859375,0.1277923583984375,2.2096162625531925
1784716004.379422,0.00537109375,0.0234375,0.9916991591453552,0.9919906185564085,-1.9016265869140625,-0.3337860107421875,0.2498626708984375,1.9467994584276294
1784716004.387413,-0.00048827752470970154,0.0273437462747097,0.9907225966453552,0.9910999860654787,-1.964569091796875,-0.514984130859375,0.1277923583984375,2.0349622252871473
1784716004.395404,0.001953125,0.02880859375,0.9848632216453552,0.985286412735295,-2.330780029296875,-0.453948974609375,0.3681182861328125,2.402939093922982
1784716004.406055,-0.013671875,0.041015625,0.9916991591453552,0.9926411355116012,-2.5730133056640625,-0.7610321044921875,0.1277923583984375,2.686242398231617
1784716004.416706,0.0039062537252902985,0.0351562462747097,0.9897460341453552,0.9903779241162199,-2.3899078369140625,-0.2727508544921875,-0.1201629638671875,2.4084209838512076
1784716004.427357,-0.0029296837747097015,0.0205078087747097,1.00048828125,1.0007027301783178,-2.330780029296875,-0.087738037109375,-0.1201629638671875,2.3355240623916282
1784716004.438039,-0.00244140625,0.0234375,0.9809569716453552,0.9812399589755575,-2.3899078369140625,0.1544952392578125,-0.8487701416015625,2.540853990525807
1784716004.44872,-0.015624996274709702,0.0273437462747097,0.9863280653953552,0.9868307218340259,-2.147674560546875,0.095367431640625,-0.8487701416015625,2.311279238498083
1784716004.459401,-0.0058593712747097015,0.0351562462747097,0.9790038466453552,0.9796524004106074,-2.20489501953125,0.095367431640625,-1.0318756103515625,2.4362726180396663
1784716004.470072,0.0,0.0166015625,0.9916991591453552,0.9918381088297857,-2.3899078369140625,0.3986358642578125,-1.1539459228515625,2.683684261250114
1784716004.480743,-0.011230465024709702,0.0253906212747097,0.9970702528953552,0.997456713949129,-2.269744873046875,-0.026702880859375,-0.8487701416015625,2.4233995926885648
1784716004.491414,-0.010742183774709702,0.0195312462747097,1.00390625,1.0041536848920865,-2.3899078369140625,0.1544952392578125,-0.6084442138671875,2.470978067341967
1784716004.499434,-0.011230465024709702,0.0180664025247097,0.9780272841453552,0.9782585991329672,-1.842498779296875,0.034332275390625,-0.1773834228515625,1.851336094702015
1784716004.507455,0.0048828125,0.021484375,1.00634765625,1.0065888065475985,-1.7185211181640625,0.0324249267578125,0.0629425048828125,1.7199790604458043
1784716004.515476,-0.00390625,0.017578125,1.00390625,1.0040677308113435,-1.5354156494140625,-0.2727508544921875,0.1888275146484375,1.5708437463287466
1784716004.523497,-0.0205078087747097,0.0263671837747097,0.9931640028953552,0.9937255834726579,-1.598358154296875,0.095367431640625,0.5512237548828125,1.693425925268699
1784716004.53148,-0.015136715024709702,0.0307617150247097,0.9946288466453552,0.9952195465484338,-1.354217529296875,-0.026702880859375,0.5512237548828125,1.4623494071008576
1784716004.539463,-0.014648433774709702,0.0263671837747097,0.9965819716453552,0.9970383298553797,-1.0471343994140625,-0.2727508544921875,0.6771087646484375,1.2764637708239905
1784716004.547446,-0.0024414025247097015,0.0263671837747097,0.9912108778953552,0.9915645179636965,-1.5964508056640625,-0.4558563232421875,0.6771087646484375,1.7930243839694577
1784716004.555429,-0.0073242150247097015,0.0214843712747097,0.9829100966453552,0.9831721519765393,-1.4133453369140625,-0.8220672607421875,0.7991790771484375,1.8198974751102648
1784716004.56608,-0.00439453125,0.02392578125,0.9936522841453552,0.9939500071435242,-1.2302398681640625,-0.6389617919921875,0.9822845458984375,1.6990130175949498
1784716004.576731,-0.0209960900247097,0.0219726525247097,0.9877929091453552,0.9882603222902058,-1.2302398681640625,-0.5130767822265625,0.6771087646484375,1.4950632751974167
1784716004.587382,-0.0078124962747097015,0.0302734337747097,0.9926757216453552,0.9931679637577325,-1.293182373046875,-0.759124755859375,1.1043548583984375,1.862307895646135
1784716004.595446,-0.0014648400247097015,0.0190429724752903,0.9873046278953552,0.9874893461807973,-1.1081695556640625,-0.8220672607421875,0.7991790771484375,1.5945286270985157
1784716004.60351,0.0034179724752902985,0.0268554650247097,0.9912108778953552,0.9915805075714307,-0.865936279296875,-0.392913818359375,0.7381439208984375,1.2037787821770154
1784716004.611574,0.00048828125,0.03125,0.9985350966453552,0.9990240938791857,-0.988006591796875,-0.087738037109375,0.8563995361328125,1.310448455330609
1784716004.619638,-0.0073242150247097015,0.0263671837747097,0.9951171278953552,0.9954933303325735,-0.5588531494140625,-0.2727508544921875,0.6771087646484375,0.9193400624360759
1784716004.630232,0.008300784975290298,0.0341796837747097,0.9916991591453552,0.9923227177001188,-0.4367828369140625,0.0324249267578125,0.2498626708984375,0.5042439655627491
1784716004.640826,-0.00341796875,0.02734375,0.9731444716453552,0.9735345529914982,-0.8029937744140625,0.2155303955078125,0.0057220458984375,0.8314355627135276
1784716004.65142,-0.00048827752470970154,0.0268554650247097,0.9873046278953552,0.9876699259774089,-1.2302398681640625,0.3376007080078125,-0.2384185791015625,1.2978088419056615
1784716004.662078,0.0034179724752902985,0.010253902524709702,0.9838866591453552,0.9839460265162091,-1.2302398681640625,0.0324249267578125,-0.5435943603515625,1.345375909440036
1784716004.672737,0.02001953125,0.02197265625,0.9916991591453552,0.9921445466784339,-1.171112060546875,0.278472900390625,-0.7915496826171875,1.4406948027468152
1784716004.683396,-0.0014648400247097015,0.0307617150247097,0.9897460341453552,0.9902250456204479,-1.4133453369140625,0.5207061767578125,-0.9136199951171875,1.7616416943772626
1784716004.691397,-0.0019531212747097015,0.0249023400247097,0.9960936903953552,0.9964068352168495,-1.7185211181640625,0.2155303955078125,-1.0318756103515625,2.016069309374562
1784716004.699398,-0.010742180049419403,0.0283203125,0.9975585341453552,0.9980182681587254,-1.04522705078125,-0.209808349609375,-0.8487701416015625,1.362692145910079
1784716004.707399,0.0034179724752902985,0.0219726525247097,0.9907225966453552,0.9909721204446312,-1.53350830078125,0.400543212890625,-1.2149810791015625,1.997063242997712
1784716004.7154,-0.01904296875,0.02197265625,0.9995116591453552,0.9999344923788732,-1.7185211181640625,0.6465911865234375,-0.9708404541015625,2.0769993219512073
1784716004.726397,-0.014648433774709702,0.0258789025247097,0.9936522841453552,0.994097156215235,-1.5354156494140625,0.8258819580078125,-0.5435943603515625,1.82621933338645
1784716004.737394,-0.006347648799419403,0.0283203125,0.9838866591453552,0.9843146299784367,-1.2302398681640625,0.9517669677734375,-0.6656646728515625,1.6918805959190948
1784716004.748391,-0.009765621274709702,0.0244140587747097,0.9931640028953552,0.993512028247198,-1.171112060546875,0.705718994140625,-0.6656646728515625,1.5207406793177398
1784716004.758719,0.0009765625,0.02734375,0.9916991591453552,0.9920765376663151,-1.1081695556640625,0.6465911865234375,-0.5435943603515625,1.3934183704819227
1784716004.769046,-0.014648433774709702,0.0209960900247097,0.9843749403953552,0.9847077920310862,-1.2302398681640625,1.0700225830078125,-0.1773834228515625,1.6400924791210942
1784716004.779373,-0.0239257775247097,0.0200195275247097,0.9799804091453552,0.9804768363511563,-1.354217529296875,0.766754150390625,-0.4253387451171875,1.6132978931040745
1784716004.787385,-0.00341796875,0.0087890625,0.9946288466453552,0.9946735508241257,-1.53350830078125,0.888824462890625,-0.1773834228515625,1.7813257739954085
1784716004.795399,-0.0166015587747097,0.0209960900247097,0.9775390028953552,0.9779053889470705,-1.7185211181640625,0.5207061767578125,0.2498626708984375,1.812975761117092
1784716004.803413,-0.010253898799419403,0.02734375,1.00048828125,1.0009143939534642,-1.476287841796875,0.400543212890625,0.4329681396484375,1.5897553482157714
1784716004.811427,-0.015136711299419403,0.017578125,0.9990233778953552,0.9992926598794386,-1.354217529296875,0.461578369140625,0.5512237548828125,1.533234272856095
1784716004.82209,-0.01171875,0.01318359375,0.9980468153953552,0.998202675796122,-1.293182373046875,0.400543212890625,0.5512237548828125,1.4617124010211442
1784716004.832753,-0.0024414025247097015,0.0253906212747097,0.9868163466453552,0.9871459598770028,-1.659393310546875,0.461578369140625,0.3108978271484375,1.750228044819262
1784716004.843416,-0.00048827752470970154,0.0170898400247097,0.9873046278953552,0.9874526466168376,-1.659393310546875,0.949859619140625,0.6160736083984375,2.0088220792610683
1784716004.854068,-0.011230465024709702,0.0190429724752903,0.9980468153953552,0.99829164269074,-1.354217529296875,0.583648681640625,0.4329681396484375,1.5368839611975917
1784716004.864723,-0.0058593712747097015,0.0219726525247097,0.9965819716453552,0.9968413895396048,-1.354217529296875,0.400543212890625,0.1277923583984375,1.4179812653602697
1784716004.875378,-0.01220703125,0.01318359375,0.9799804091453552,0.9801451020460191,-1.4133453369140625,0.2803802490234375,0.3108978271484375,1.4740473480674865
1784716004.883381,-0.0034179650247097015,0.0341796837747097,1.001953125,1.0025417686885245,-1.1692047119140625,0.3376007080078125,-0.2384185791015625,1.2401037518168512
1784716004.891386,-0.0087890625,0.0283203125,0.9824218153953552,0.9828692237955322,-1.0471343994140625,0.1544952392578125,-0.3604888916015625,1.1181732738523584
1784716004.899391,-0.011230465024709702,0.0307617150247097,0.9931640028953552,0.9937037501705717,-1.22833251953125,0.583648681640625,-0.1773834228515625,1.371463248075341
1784716004.907396,-0.014648433774709702,0.0307617150247097,0.9799804091453552,0.9805725174774231,-0.865936279296875,0.827789306640625,-0.1201629638671875,1.203960096463512
1784716004.915379,-0.0170898400247097,0.0219726525247097,0.9936522841453552,0.9940421127287936,-0.7419586181640625,0.4634857177734375,-0.4253387451171875,0.9727459327829376
1784716004.923362,-0.013183590024709702,0.0195312462747097,0.9829100966453552,0.9831925216936734,-1.04522705078125,0.461578369140625,-0.4825592041015625,1.2403296190958766
1784716004.931345,-0.010253898799419403,0.0185546875,0.9785155653953552,0.9787451816432114,-1.171112060546875,0.278472900390625,-0.6084442138671875,1.348797603793384
