timestamp,accel_x,accel_y,accel_z,accel_rms,gyro_x,gyro_y,gyro_z,gyro_rms
1782143449.238034,0.28759765625,-0.93017578125,1.42578125,1.7264969066743512,-144.78302001953125,-84.86557006835938,-110.23139953613281,200.7865765251705
1782143449.248692,-0.31591796875,-1.0,1.47412109375,1.8090984390070715,-120.79811096191406,-67.71278381347656,-76.91001892089844,158.4056681882011
1782143449.25935,-0.1455077975988388,-1.3798828125,1.7534178495407104,2.2360060935701727,-88.69171142578125,-33.962249755859375,-38.14888000488281,102.34740411823044
1782143449.267373,-0.0380859375,-1.41650390625,1.8110350370407104,2.299517723446769,-14.90020751953125,-19.374847412109375,61.63978576660156,66.30885375061277
1782143449.275398,0.22509765625,-1.4267578125,1.7866209745407104,2.2974597530855303,29.47235107421875,4.428863525390625,123.77738952636719,127.31487135417673
1782143449.283423,0.3447265625,-1.4072265625,1.7158203125,2.2456986320266195,63.89617919921875,31.284332275390625,185.0566864013672,198.2609602116102
1782143449.291448,0.39208984375,-1.416015625,1.6010740995407104,2.1730791444482955,83.85467529296875,54.050445556640625,236.8144989013672,256.97113480557744
1782143449.302081,0.4267578125,-1.35400390625,1.4970703125,2.0631694863095693,92.88787841796875,91.28189086914062,278.44049072265625,307.391685690278
1782143449.312714,0.52734375,-1.15869140625,1.37060546875,1.8706192975988118,90.38352966308594,127.17247009277344,305.1090087890625,342.6857552162032
1782143449.323347,0.82568359375,-1.01708984375,1.2978515625,1.8440834649036377,82.50999450683594,153.17344665527344,317.62506103515625,362.1542259195117
1782143449.334079,1.21435546875,-0.70947265625,1.12744140625,1.802535652622838,68.22776794433594,177.58750915527344,314.87847900390625,367.88695038891217
1782143449.344812,1.2021484375,-0.63818359375,1.0595703125,1.7248560555149823,56.38885498046875,188.38882446289062,300.8365478515625,359.4060109009915
1782143449.355545,1.10205078125,-0.62939453125,1.05419921875,1.649845263421468,44.42596435546875,193.75991821289062,276.67047119140625,340.68038077361336
1782143449.363502,1.03759765625,-0.634765625,1.04052734375,1.6006978003447636,30.141830444335938,186.49864196777344,205.6865692138672,279.27985633290814
1782143449.371461,0.8818359375,-0.57861328125,1.02978515625,1.4740710355807933,33.80584716796875,169.04067993164062,170.0420379638672,242.1402103108872
1782143449.37942,0.78466796875,-0.4829101264476776,1.03759765625,1.3876292399857593,32.03392028808594,151.46446228027344,147.82142639160156,214.05333326842518
1782143449.387379,0.701171875,-0.46142578125,1.0068359375,1.3108296437503588,35.14671325683594,144.75059509277344,135.85853576660156,201.6074601127529
1782143449.39804,0.51513671875,-0.50146484375,0.8911132216453552,1.1449522270876162,31.30340576171875,130.58853149414062,126.58500671386719,184.54547324393727
1782143449.408701,0.31103515625,-0.52001953125,0.8500975966453552,1.0439488038822309,23.855209350585938,121.55723571777344,122.19047546386719,173.99926684498573
1782143449.419362,0.20166015625,-0.57177734375,0.77734375,0.9858293235183475,14.333724975585938,113.68370056152344,123.10218811035156,168.1772522150194
1782143449.430045,0.1669921875,-0.6787109375,0.79248046875,1.0566741317541486,1.76239013671875,105.62515258789062,128.5381317138672,166.37857489082137
1782143449.440729,0.091796875,-0.70654296875,0.82080078125,1.0868962947082115,-8.49151611328125,102.45513916015625,141.7217254638672,175.0834339813017
1782143449.451413,0.0078125,-0.75927734375,0.8930663466453552,1.172233176206333,-16.427993774414062,95.92247009277344,160.8257293701172,187.97849471570245
1782143449.459404,-0.0078124962747097015,-0.8134765625,0.9565429091453552,1.255698805395274,-15.08331298828125,71.87271118164062,204.5879364013672,217.3693093890484
1782143449.467394,0.00537109375,-0.833984375,0.9682616591453552,1.277923873696367,-5.07354736328125,58.261871337890625,221.55189514160156,229.14063100086722
1782143449.475384,0.0312500037252903,-0.74169921875,0.9570311903953552,1.211198989933835,7.56072998046875,44.223785400390625,236.0210418701172,240.24745584174866
1782143449.483374,0.0327148474752903,-0.64453125,0.9428710341453552,1.1425832925884334,23.550033569335938,27.624130249023438,248.1670379638672,250.80784554094666
1782143449.494058,0.06005859375,-0.6015625,0.9228515028953552,1.1032403965073494,40.39764404296875,10.105133056640625,257.87164306640625,261.21230379919484
1782143449.504742,0.07666015625,-0.4853515625,0.8876952528953552,1.0146160755627789,54.67796325683594,-1.7337799072265625,265.6192626953125,271.19417097991624
1782143449.515426,0.1005859375,-0.36474609375,0.8222655653953552,0.9051397150515388,63.22288513183594,-5.3348541259765625,269.28521728515625,276.6588551289342
1782143449.526079,0.13720703125,-0.17626953125,0.7211913466453552,0.7549925003254496,66.45774841308594,-6.0672760009765625,269.77349853515625,277.9049921719777
1782143449.536733,0.15576171875,-0.10888671875,0.65380859375,0.6808698170791889,63.34495544433594,-6.1283111572265625,266.23345947265625,273.7341676164362
1782143449.547387,0.24169921875,-0.06201171875,0.6123046875,0.6611966393904026,54.92401123046875,-5.764007568359375,259.03131103515625,264.85296088487405
1782143449.555371,0.2939453125,0.0502929650247097,0.56103515625,0.6353689287494009,25.991439819335938,-4.8465728759765625,238.8286590576172,240.28768715808945
1782143449.563356,0.27734375,0.1513671875,0.5791015625,0.6596894730141326,9.084701538085938,-9.851455688476562,225.8892059326172,226.28635915159902
1782143449.571341,0.29150390625,0.1494140625,0.611328125,0.6935568944562359,-3.5457611083984375,-16.321182250976562,210.07728576660156,210.74017036856026
1782143449.579326,0.29248046875,0.17138671875,0.68896484375,0.7678481541864728,-8.066177368164062,-19.800186157226562,192.1367645263672,193.322649660758
1782143449.590009,0.25341796875,0.2412109225988388,0.7470703125,0.8249348022026993,-4.03594970703125,-20.534515380859375,175.34828186035156,176.59268151127253
1782143449.600692,0.15771484375,0.3486328125,0.7919921875,0.8795853767268884,5.0563812255859375,-19.433975219726562,156.5532684326172,157.83590288928085
1782143449.611375,0.11181640625,0.318359375,0.8178710341453552,0.8847421256225163,13.723373413085938,-19.128799438476562,135.6182098388672,137.64643397375562
1782143449.619376,0.07275390625,0.29638671875,0.8325194716453552,0.8866943603038686,19.70672607421875,-16.689300537109375,114.50004577636719,117.37609759986245
1782143449.627377,0.0380859412252903,0.306640625,0.7841796278953552,0.8428622073776382,21.84295654296875,-13.576507568359375,96.06361389160156,99.44674063138744
1782143449.635378,0.03515625,0.29931640625,0.71435546875,0.775325743605557,18.423080444335938,-9.119033813476562,86.11869812011719,88.53810951592358
1782143449.643379,0.004394538700580597,0.3271484375,0.673828125,0.7490592461014669,9.511947631835938,-5.5179595947265625,82.88383483886719,83.61013756379329
1782143449.654084,-0.0395507775247097,0.26708984375,0.62939453125,0.6848640190611679,-4.15802001953125,-3.139495849609375,83.49418640136719,83.65658806991107
1782143449.664789,-0.1142578125,0.16748046875,0.68505859375,0.7144297250260045,-16.91436767578125,-6.252288818359375,81.96449279785156,83.9247581405437
1782143449.675494,-0.0175781212747097,0.0512695275247097,0.69482421875,0.6969348963581198,-28.207778930664062,3.1490325927734375,86.11869812011719,90.67538455598321
1782143449.683466,-0.16650390625,0.1513671875,0.64892578125,0.6868334920627356,-43.70880126953125,4.367828369140625,84.22660827636719,94.99294065783127
1782143449.691439,-0.13720703125,0.146484375,0.73388671875,0.7608371425615476,-65.86456298828125,-1.308441162109375,86.72523498535156,108.90876484092736
1782143449.699412,-0.13916015625,0.1865234375,0.8422850966453552,0.8738425063220582,-79.71763610839844,-0.4520416259765625,92.64564514160156,122.22242597840302
1782143449.707385,-0.14306640625,0.0634765625,0.8818358778953552,0.8956181028360125,-80.39093017578125,1.07574462890625,93.38188171386719,123.22351526172527
1782143449.718045,-0.150390625,-0.025390625,0.8837890028953552,0.8968528449888239,-76.30157470703125,1.132965087890625,90.69633483886719,118.52864238599446
1782143449.728705,-0.07080078125,-0.0517578162252903,0.8808593153953552,0.8852145252337397,-70.01686096191406,-3.8700103759765625,83.30726623535156,108.89186565982749
1782143449.739365,1.1689453125,0.36962890625,1.7861326932907104,2.1664091649532,-65.37818908691406,-10.095596313476562,73.17924499511719,98.64801351909908
1782143449.747406,-0.0541992150247097,-0.19140625,0.8403319716453552,0.8635576008684813,7.3146820068359375,5.5904388427734375,87.82768249511719,88.308886256022
1782143449.755446,-0.32177734375,-0.142578125,1.42529296875,1.4681039566214342,41.61643981933594,-22.058486938476562,85.02006530761719,97.19524892793291
1782143449.763486,-0.43603515625,-0.0703125,1.27734375,1.3515463591036285,44.05975341796875,-27.187347412109375,78.61137390136719,94.12843267164016
1782143449.771526,-0.3911132514476776,0.0458984337747097,0.8842772841453552,0.9679992546156381,51.32484436035156,-23.340225219726562,88.56010437011719,104.98522680819393
1782143449.782229,-0.515625,0.26611328125,0.72412109375,0.9279206741399493,37.16087341308594,-12.048721313476562,95.08705139160156,102.79907363620694
1782143449.792932,-0.0751953125,0.14306640625,1.029296875,1.0419090116243492,22.33123779296875,24.265289306640625,101.43852233886719,106.6642501534321
1782143449.803635,-0.29443359375,0.328125,0.8105468153953552,0.9226826630543635,26.60369873046875,46.482086181640625,101.61781311035156,114.86740644442769
1782143449.811573,-0.08154296875,0.28515625,0.74267578125,0.7997066079018754,37.40882873535156,37.08457946777344,104.24232482910156,116.79532861989127
1782143449.819511,-0.09521484375,0.0522460900247097,0.8974608778953552,0.9040085993760837,52.05345153808594,30.004501342773438,104.85649108886719,120.84997162319087
1782143449.827449,0.1181640625,-0.349609375,1.05419921875,1.1169267897080386,72.19505310058594,31.225204467773438,100.95024108886719,127.97691300445987
1782143449.835387,0.0185546912252903,0.357421875,0.8408203125,0.9138235448967044,89.71214294433594,28.173446655273438,95.02983093261719,133.68874468400213
1782143449.846056,-0.1083984375,-0.162109375,1.13916015625,1.1557316004604428,90.93475341796875,14.621734619140625,84.83695983886719,125.22074212030896
1782143449.856725,-0.15576171875,-0.1904296875,1.06396484375,1.0920377134720503,70.12176513671875,-16.872406005859375,61.33460998535156,94.67668357294151
1782143449.867394,-0.1850585788488388,-0.09228515625,0.8598632216453552,0.8843800018136819,43.87474060058594,-38.72108459472656,42.41752624511719,72.2742124669365
1782143449.875421,-0.4394530951976776,0.1943359225988388,0.3676757514476776,0.6050379590519717,5.3615570068359375,-33.16688537597656,42.90580749511719,54.494925414104145
1782143449.883448,-0.40380859375,0.1157226487994194,0.4267577826976776,0.5988115871662342,-50.97198486328125,-20.961761474609375,42.29545593261719,69.47261530681678
1782143449.891475,-0.3603515625,0.04248046875,0.71533203125,0.8020958507271199,-111.58180236816406,-11.438369750976562,36.86332702636719,118.06879266656779
1782143449.899502,-0.3935546875,0.0786132737994194,0.7822265625,0.879172186747995,-149.60479736328125,-3.627777099609375,28.741836547851562,152.38388802277066
1782143449.910125,-0.302734375,0.0087890625,0.740234375,0.7997951483710751,-176.76734924316406,-4.6634674072265625,19.834518432617188,177.93777510176648
1782143449.920748,-0.1923827975988388,-0.14111328125,0.8842772841453552,0.9158986921120603,-196.90704345703125,-6.374359130859375,10.736465454101562,197.30252889348753
1782143449.931371,-0.19970703125,-0.29541015625,0.9956054091453552,1.0575349589804717,-190.31333923339844,-0.0858306884765625,3.9653778076171875,190.3546655016126
1782143449.942062,-0.26416015625,-0.41650390625,1.08056640625,1.1878046347727278,-155.28106689453125,-14.553070068359375,-26.674270629882812,158.22616186318461
1782143449.952754,-0.06494140625,-0.435546875,1.14892578125,1.2304263153025117,-129.58526611328125,-14.430999755859375,-37.90473937988281,135.78425613840645
1782143449.963446,-0.0283203087747097,-0.3173828125,1.11083984375,1.1556379398505525,-104.86602783203125,-12.477874755859375,-46.75483703613281,115.49283933632682
1782143449.971451,-0.21875,-0.2626953125,0.9189452528953552,0.9804696668068732,-85.76393127441406,-19.617080688476562,-51.51939392089844,101.95356645236755
1782143449.979459,-0.283203125,-0.0810546875,0.81640625,0.867924557444108,-74.77760314941406,-25.171279907226562,-46.32759094238281,91.49605973736769
1782143449.987467,-0.3115234375,-0.20263671875,0.7734375,0.8580874421082231,-70.62530517578125,-26.760101318359375,-34.54780578613281,83.05171664919061
1782143449.995475,-0.2387695163488388,-0.20166015625,0.7412109375,0.8044074554763039,-71.41876220703125,-28.957366943359375,-31.072616577148438,83.0943812566609
1782143450.006114,-0.17333984375,-0.0908203125,0.7548827528953552,0.7798352397864192,-72.33619689941406,-30.542373657226562,-26.674270629882812,82.92694787657796
1782143450.016753,-0.1215820237994194,-0.04541015625,0.716796875,0.7284518040416796,-73.12965393066406,-31.702041625976562,-20.509719848632812,82.30197042321188
1782143450.027392,-0.0454101525247097,-0.06298828125,0.72021484375,0.7243887262271435,-71.29859924316406,-32.73963928222656,-18.251419067382812,80.55115475485657
1782143450.038111,-0.0219726525247097,-0.09912109375,0.7211913466453552,0.7283026480532038,-72.09205627441406,-23.828506469726562,-15.626907348632812,77.51943325214549
1782143450.048832,-0.083984375,-0.158203125,0.70703125,0.7293660209253436,-76.30157470703125,-21.450042724609375,-11.907577514648438,80.14876816225936
1782143450.059553,-0.13525390625,-0.23779296875,0.73486328125,0.7841321044775165,-80.02662658691406,-19.250869750976562,-10.377883911132812,82.96118022016921
1782143450.067511,-0.12744140625,-0.2783203125,0.75,0.8100638915400903,-81.73370361328125,-18.398284912109375,-14.348983764648438,84.9987560445975
1782143450.07547,-0.11962890625,-0.283203125,0.75341796875,0.813728284414222,-83.44459533691406,-18.335342407226562,-18.312454223632812,87.37580472776332
1782143450.083429,-0.1088867112994194,-0.25634765625,0.74169921875,0.7922677374832523,-87.83912658691406,-19.311904907226562,-18.621444702148438,91.84454275291944
1782143450.091388,-0.1416015625,-0.19580078125,0.7138671875,0.7536546356453412,-92.96417236328125,-21.022796630859375,-14.654159545898438,96.4315286271507
1782143450.102065,-0.20068359375,-0.20703125,0.72265625,0.7780539177595857,-98.39439392089844,-24.988174438476562,-9.462356567382812,101.9578432914161
1782143450.112742,-0.2490234375,-0.228515625,0.7763671875,0.8467455775615939,-102.66876220703125,-30.300140380859375,-4.0340423583984375,107.12257809618413
1782143450.123419,-0.30078125,-0.21923828125,0.73779296875,0.8263614518199376,-104.01153564453125,-35.671234130859375,2.2563934326171875,109.9814884554439
1782143450.131427,-0.189453125,-0.22802734375,0.787109375,0.8410886542349961,-96.68731689453125,-40.187835693359375,15.619277954101562,105.8652975709578
1782143450.139437,-0.16455078125,-0.25341796875,0.76171875,0.8194590170331423,-88.32740783691406,-40.43006896972656,23.004531860351562,99.82750091131864
1782143450.147447,-0.345703125,-0.37158203125,0.8383788466453552,0.9800321153334913,-76.24244689941406,-45.19081115722656,26.731491088867188,92.57263493113001
1782143450.155457,-0.36376953125,-0.6123046875,0.8320311903953552,1.0952265537280537,-66.11061096191406,-48.12049865722656,24.469375610351562,85.35189286441258
1782143450.166093,-0.32763671875,-0.75732421875,0.75830078125,1.1206720602490832,-60.43243408203125,-38.356781005859375,23.252487182617188,75.25955021383189
1782143450.176729,-0.3154296875,-0.79833984375,0.8232421278953552,1.189356967027475,-44.38018798828125,-36.46087646484375,21.356582641601562,61.2788725466399
1782143450.187365,-0.1987304538488388,-0.595703125,0.734375,0.9662622040868261,-38.94805908203125,-42.32025146484375,16.595840454101562,59.86131397390973
1782143450.198027,-0.1474609375,-0.32763671875,0.4331054389476776,0.5627351675590446,-48.28643798828125,-37.563323974609375,10.858535766601562,62.13285121907862
1782143450.208691,-0.2075195163488388,-0.36279296875,0.4355468451976776,0.6036423959611719,-66.47491455078125,-23.15521240234375,6.6509246826171875,70.70581959828462
1782143450.219355,-0.0517578087747097,-0.41259765625,0.4238280951976776,0.5937558008062273,-79.59747314453125,-14.064788818359375,0.9746551513671875,80.83641486461103
1782143450.23003,-0.0322265625,-0.6943359375,0.70263671875,0.9883518118414804,-73.49205017089844,-1.2454986572265625,-6.8378448486328125,73.81997580195336
1782143450.240707,-0.28271484375,-0.4667968451976776,0.75,0.9275381272826964,-64.27955627441406,1.1348724365234375,-24.110794067382812,68.66206871950835
1782143450.251384,-0.2309570163488388,-0.46923828125,0.75,0.9143444143161875,-47.55401611328125,11.264801025390625,-12.575149536132812,50.46201122131336
1782143450.259391,-0.32421875,-0.478515625,0.62744140625,0.8530988919801037,-34.61647033691406,15.905380249023438,-7.2040557861328125,38.770859665761726
1782143450.267399,-0.1171874925494194,-0.6845703125,0.6552734375,0.9548574234195565,-28.879165649414062,16.759872436523438,-5.5561065673828125,33.84922233793488
1782143450.275407,-0.1157226487994194,-0.85107421875,0.6728515625,1.091076662029194,-24.484634399414062,20.544052124023438,-12.758255004882812,34.414073721621214
1782143450.283415,0.57177734375,-0.2900390625,2.16943359375,2.2621879025166596,-27.16827392578125,26.401519775390625,-27.040481567382812,46.54398992300292
1782143450.294052,-0.39892578125,0.0878906175494194,0.8081054091453552,0.905483788860476,75.97923278808594,-63.62342834472656,-27.776718139648438,102.91904838275654
1782143450.304689,-0.0522460900247097,-0.50732421875,0.70751953125,0.8721762459236021,79.21409606933594,-23.523330688476562,-40.65132141113281,92.09098780680242
1782143450.315326,-0.0205078087747097,-0.28466796875,0.36865234375,0.4662198764589077,59.50164794921875,-15.285491943359375,-27.040481567382812,67.12138270342203
1782143450.326049,0.0703125,-0.36376953125,0.4946288764476776,0.6180047288961361,10.42938232421875,-34.267425537109375,-34.18540954589844,49.51434836920371
1782143450.33677,-0.0571289025247097,-0.58544921875,0.826171875,1.0141866032834779,0.7228851318359375,-24.255752563476562,-41.87583923339844,48.39886369364327
1782143450.347491,-0.0908203125,-0.66748046875,0.9614257216453552,1.1739326742052159,2.92205810546875,-12.966156005859375,-43.52378845214844,45.50801892378296
1782143450.358132,-0.36181640625,-0.33544921875,0.66455078125,0.8276865536250034,4.81414794921875,-9.670257568359375,-41.01753234863281,42.416127379647925
1782143450.368774,-0.1791992038488388,-0.4624023139476776,0.7700194716453552,0.915892046759451,4.5070648193359375,-16.321182250976562,-28.688430786132812,33.31247040262882
1782143450.379416,-0.09814453125,-0.54443359375,0.73193359375,0.9174786497121403,0.7228851318359375,-16.199111938476562,-27.776718139648438,32.163331001601776
1782143450.387416,0.0029296912252902985,-0.55517578125,0.66259765625,0.8644445530195771,-11.11602783203125,-4.909515380859375,-27.959823608398438,30.48640930398565
1782143450.395417,0.06884765625,-0.5390625,0.58056640625,0.7952268423182207,-19.540786743164062,-1.3675689697265625,-31.312942504882812,36.935253616874924
1782143450.403418,0.09521484375,-0.650390625,0.4926757514476776,0.8214640756738918,-30.893325805664062,0.3414154052734375,-34.49058532714844,46.30458530235612
1782143450.411419,0.251953125,-0.63525390625,0.50439453125,0.8493772693909678,-42.67311096191406,3.9424896240234375,-32.84263610839844,53.9923732591191
1782143450.422109,0.02587890625,-0.5771484375,0.4306640326976776,0.7205841697933796,-58.84552001953125,6.015777587890625,-41.69273376464844,72.36897715959427
1782143450.432799,-0.0004882737994194031,-0.5478515625,0.61865234375,0.8263608747831438,-67.75665283203125,7.480621337890625,-47.97554016113281,83.35811989454764
1782143450.443489,-0.0205078087747097,-0.59228515625,0.8574218153953552,1.0423024733975708,-63.85040283203125,12.302398681640625,-49.86763000488281,81.94512479359945
1782143450.451473,-0.1245117112994194,-0.65478515625,0.9355468153953552,1.1486925658732356,-51.39923095703125,12.119293212890625,-52.73628234863281,74.6315863888004
1782143450.459458,-0.08154296875,-0.59765625,0.81591796875,1.0146745195607072,-37.48321533203125,9.92584228515625,-54.32701110839844,66.74532127924223
1782143450.467443,-0.412109375,-0.630859375,1.03515625,1.280377346684306,-27.597427368164062,9.191513061523438,-54.32701110839844,61.624070343278156
1782143450.475428,0.09228515625,-0.69677734375,1.4345703125,1.5975002968180445,-3.1833648681640625,28.661727905273438,-58.53462219238281,65.25281950693613
1782143450.486092,-0.0498046800494194,-0.7392578125,1.0283203125,1.2674483360662903,29.840469360351562,25.121688842773438,-33.51402282714844,51.42706085338568
1782143450.496756,0.0458984375,-0.74267578125,0.7753905653953552,1.074664836832567,51.14173889160156,15.295028686523438,-31.866073608398438,62.16801433690957
1782143450.50742,-0.02294921875,-0.70654296875,0.8300780653953552,1.0903023562213348,55.90248107910156,26.098251342773438,-30.519485473632812,68.83055359014024
1782143450.518083,-0.0893554612994194,-0.63671875,0.8818358778953552,1.0913430627484038,67.80052185058594,24.816513061523438,-21.608352661132812,75.36372461915899
1782143450.528745,-0.080078125,-0.7470703125,0.77099609375,1.0765507579766604,70.79315185546875,20.359039306640625,-19.598007202148438,76.22494812996764
1782143450.539407,-0.10986328125,-0.48046875,0.53173828125,0.7250281098276695,55.28831481933594,22.802352905273438,-15.325546264648438,61.73829785383229
1782143450.547407,-0.2099609225988388,-0.548828125,0.58837890625,0.8315561539243862,28.799057006835938,42.63877868652344,1.2149810791015625,51.467730777487034
1782143450.55541,-0.20166015625,-0.7177734375,0.71533203125,1.0332305846864929,7.6198577880859375,40.80772399902344,19.041061401367188,45.67159500150792
1782143450.563413,-0.0600585900247097,-0.6376953125,0.9848632216453552,1.1748267579391851,3.77655029296875,34.15679931640625,32.77397155761719,47.487708760436874
1782143450.571416,-0.0463867150247097,-0.66162109375,1.14892578125,1.3266215171806361,10.67352294921875,27.561187744140625,37.89710998535156,48.05969316648932
1782143450.582127,-0.1166992112994194,-0.6904296875,1.037109375,1.25136234361281,25.38299560546875,18.28765869140625,35.03227233886719,46.968021371409414
1782143450.592838,-0.0966796800494194,-0.62744140625,0.9833983778953552,1.1705135832012594,32.40013122558594,9.252548217773438,34.84916687011719,48.47517491973272
1782143450.603549,-0.0581054612994194,-0.59228515625,0.9433593153953552,1.1153944364618726,37.09983825683594,-3.3206939697265625,29.413223266601562,47.461170550829415
1782143450.614161,-0.0625,-0.5078125,0.8500975966453552,0.9921923749850424,33.86688232421875,-20.534515380859375,18.003463745117188,43.5058242895245
1782143450.624775,-0.1044921800494194,-0.49755859375,0.8178710341453552,0.963014121599445,28.19061279296875,-32.802581787109375,15.989303588867188,46.11266475492448
1782143450.635389,-0.0947265625,-0.42041015625,0.77880859375,0.8900902464469927,24.10125732421875,-35.366058349609375,23.740768432617188,48.94131969580853
1782143450.643397,-0.0180664025247097,-0.3173828125,0.59765625,0.6769425660531752,22.695541381835938,-32.55653381347656,22.092819213867188,45.42145036631139
1782143450.651405,-0.126953125,-0.3193359375,0.52099609375,0.624122957941004,6.34002685546875,-20.839691162109375,25.388717651367188,33.45258812470282
1782143450.659413,-0.0356445275247097,-0.33935546875,0.5009765625,0.6061436980513023,-6.9675445556640625,-13.208389282226562,23.557662963867188,27.892144214548317
1782143450.667421,-0.1059570237994194,-0.3310546875,0.59765625,0.6913878001326144,-26.67999267578125,-4.299163818359375,21.539688110351562,34.55811022912063
1782143450.678074,-0.1230468675494194,-0.40673828125,0.6357421875,0.764686007466603,-41.87583923339844,5.9566497802734375,23.797988891601562,48.53258558320435
1782143450.688727,-0.1259765625,-0.53857421875,0.76171875,0.9413542040608581,-53.23028564453125,9.43756103515625,27.093887329101562,60.46990655435759
1782143450.69938,-0.0844726487994194,-0.6513671875,0.8793944716453552,1.0976108044781918,-55.42755126953125,9.616851806640625,20.563125610351562,59.89607176830964
1782143450.710103,-0.0791015625,-0.76220703125,1.00048828125,1.2602354607752708,-43.95484924316406,16.149520874023438,12.994766235351562,48.59732241555323
1782143450.720829,-0.1259765475988388,-0.77490234375,1.05517578125,1.3151956745027387,-33.39385986328125,22.37701416015625,16.290664672851562,43.37356792766297
1782143450.731555,-0.1230468675494194,-0.87548828125,1.08203125,1.3972873320102654,-19.906997680664062,26.891708374023438,8.600234985351562,34.545861948064804
1782143450.73953,-0.1079101487994194,-0.66259765625,1.09619140625,1.2854243865036397,-4.21905517578125,20.481109619140625,1.5201568603515625,20.966333839935277
1782143450.747504,-0.123046875,-0.57861328125,0.9428710341453552,1.113076659406929,10.061264038085938,16.515731811523438,-2.1991729736328125,19.463678816765487
1782143450.755478,-0.1059570237994194,-0.6328125,0.8798827528953552,1.088977598434141,16.59393310546875,18.466949462890625,-0.3070831298828125,24.829038209773383
1782143450.763452,-0.2275390475988388,-0.63134765625,0.8056640625,1.0485554171518827,25.136947631835938,17.492294311523438,5.7353973388671875,31.156721251782933
1782143450.774196,-0.2021484225988388,-0.68359375,0.8115234375,1.080154937687218,28.49578857421875,5.710601806640625,5.6743621826171875,29.611135162977103
1782143450.784942,-0.208984375,-0.6845703125,0.8295897841453552,1.0956870865848631,28.982162475585938,0.2193450927734375,8.359909057617188,30.164580777504852
1782143450.795688,-0.13232421875,-0.693359375,0.80712890625,1.072247169766612,30.385971069335938,-3.6869049072265625,11.529922485351562,32.70840286745391
1782143450.803628,-0.0615234337747097,-0.5947265625,0.8222655653953552,1.0166638958286267,31.850814819335938,-4.6634674072265625,13.483047485351562,34.9000702349743
1782143450.811568,-0.07861328125,-0.56494140625,0.802734375,0.9847442903065038,32.33909606933594,-4.1141510009765625,12.994766235351562,35.09426338523162
1782143450.819508,-0.0224609337747097,-0.576171875,0.8588866591453552,1.034487707198552,33.74481201171875,-4.787445068359375,11.899948120117188,36.10042566577681
1782143450.827448,-0.0410156212747097,-0.5419921875,0.8481444716453552,1.0073662974718602,34.59930419921875,-5.092620849609375,8.298873901367188,35.94326009447037
1782143450.838127,-0.0419921837747097,-0.52978515625,0.8579100966453552,1.0091805533238583,33.80775451660156,-6.1893463134765625,3.1681060791015625,34.515346867319465
1782143450.848806,-0.0341796800494194,-0.5068359375,0.9165038466453552,1.047869371145811,37.83416748046875,-4.421234130859375,0.7915496826171875,38.099843714641224
1782143450.859485,-0.019531242549419403,-0.46533203125,0.8925780653953552,1.00678248473426,40.51971435546875,-2.651214599609375,-2.9926300048828125,40.71648345139947
1782143450.870125,-0.0458984337747097,-0.46044921875,0.9663085341453552,1.0713880400828646,47.17063903808594,-3.0765533447265625,-7.0819854736328125,47.7984192834145
1782143450.880767,-0.0732421800494194,-0.36669921875,0.7587890625,0.8459276419055478,54.67796325683594,-2.7713775634765625,-13.372421264648438,56.35762459503118
1782143450.891409,-0.1186523362994194,-0.23779296875,0.8784179091453552,0.9177373785585649,52.11639404296875,-0.453948974609375,-22.890090942382812,56.92346494253572
1782143450.90208,-0.0522460900247097,-0.29345703125,0.767578125,0.8234214358950398,40.88401794433594,-9.668350219726562,-25.758743286132812,49.279740004640466
1782143450.912751,0.18505859375,-0.4633788764476776,0.9902343153953552,1.1088420381844961,39.36195373535156,12.365341186523438,-44.06929016113281,60.368596139294205
1782143450.923422,0.03173828125,-0.828125,1.0244140625,1.3176579622836337,40.27366638183594,39.89219665527344,-19.716262817382812,60.017385625354784
1782143450.931413,-0.2587890625,-0.44677734375,0.8955077528953552,1.0336904320219005,43.75457763671875,59.665679931640625,0.6084442138671875,73.9920714011577
1782143450.939405,-0.19140625,-0.46435546875,0.8090819716453552,0.9523003679189829,45.09925842285156,59.05723571777344,-8.180618286132812,74.75709141251559
1782143450.947397,-0.1684570163488388,-0.435546875,0.72509765625,0.8624647574125344,43.57147216796875,30.06744384765625,-20.204544067382812,56.66346236673904
1782143450.955389,-0.2353515625,-0.4912109375,0.8115234375,0.9773683198787634,41.43333435058594,8.275985717773438,-19.838333129882812,46.67732422044392
1782143450.966085,-0.2724609375,-0.39892578125,0.8618163466453552,0.9879798362084364,36.36932373046875,11.081695556640625,-16.359329223632812,41.390329035523656
1782143450.976781,-0.2465820163488388,-0.3720703125,0.9028319716453552,1.0071467506056633,31.240463256835938,17.553329467773438,-13.063430786132812,38.14104277297623
1782143450.987477,-0.22314453125,-0.3994140625,0.8671874403953552,0.9804790318660486,31.362533569335938,10.290145874023438,-9.523391723632812,34.35390230990016
1782143450.99813,-0.2124023288488388,-0.35791015625,0.8085936903953552,0.9094163982436699,30.263900756835938,-10.889053344726562,-8.058547973632812,33.157433061189415
1782143451.008786,-0.2094726413488388,-0.31884765625,0.7846679091453552,0.8724943226246924,26.48162841796875,-11.013031005859375,-5.3730010986328125,29.179318641964542
1782143451.019442,-0.15673828125,-0.30322265625,0.75244140625,0.8262438731464139,22.14813232421875,-8.388519287109375,-3.4809112548828125,23.937914789005312
1782143451.030086,-0.1572265625,-0.31787109375,0.77734375,0.854415314622491,19.643783569335938,-8.264541625976562,-3.3626556396484375,21.575178658756716
1782143451.040731,-0.1513671875,-0.2861328125,0.7607421278953552,0.8267482065269772,16.89910888671875,-9.91058349609375,-4.3392181396484375,20.06560142287483
1782143451.051376,-0.1215820163488388,-0.2890625,0.763671875,0.825550754509809,14.459609985351562,-11.072158813476562,-5.1288604736328125,18.920312668592935
1782143451.059381,-0.0981445237994194,-0.27099609375,0.74853515625,0.8021072936470441,8.291244506835938,-9.119033813476562,-7.3871612548828125,14.369121913642038
1782143451.067384,-0.1088867112994194,-0.2509765625,0.751953125,0.8001743891297604,5.30242919921875,-7.717132568359375,-10.076522827148438,13.755224562921686
1782143451.075387,-0.0791015550494194,-0.27197265625,0.7607421278953552,0.8117602890716384,1.94549560546875,-5.397796630859375,-12.086868286132812,13.379594410345113
1782143451.08339,-0.0673828050494194,-0.25244140625,0.78662109375,0.8288786709393914,-0.3757476806640625,-3.5648345947265625,-14.654159545898438,15.086206415263248
1782143451.094044,-0.0644531175494194,-0.24169921875,0.8276366591453552,0.8646127203942147,-1.96075439453125,-2.101898193359375,-18.007278442382812,18.23525735251427
1782143451.104698,-0.03759765625,-0.22705078125,0.8520507216453552,0.8825848816278801,-3.24249267578125,-0.942230224609375,-21.669387817382812,21.93088974320926
1782143451.115352,-0.0307617150247097,-0.2392578125,0.83642578125,0.8705163246563613,-3.7288665771484375,1.6841888427734375,-25.270462036132812,25.59955447909059
1782143451.12603,-0.0493163987994194,-0.265625,0.8051757216453552,0.8492918759429304,-4.89044189453125,4.85992431640625,-29.176712036132812,29.980257028991605
1782143451.136708,-0.0791015550494194,-0.29736328125,0.7841796278953552,0.8423892602906928,-6.66046142578125,8.823394775390625,-32.16743469238281,34.014083795619484
1782143451.147386,-0.12255859375,-0.3232421875,0.79296875,0.8650465647341333,-8.615493774414062,11.754989624023438,-33.57124328613281,36.598290804552384
1782143451.155381,-0.1162109225988388,-0.36279296875,0.78662109375,0.8740117057786801,-13.37432861328125,10.593414306640625,-33.63227844238281,37.712375233524334
1782143451.163378,-0.13134765625,-0.40673828125,0.75,0.8632428605187373,-15.69366455078125,8.823394775390625,-32.65571594238281,37.2899341123638
1782143451.171375,-0.138671875,-0.43896484375,0.71923828125,0.8539459749773001,-17.70782470703125,7.175445556640625,-31.072616577148438,36.47686356777046
1782143451.179372,-0.14453125,-0.4580078125,0.71484375,0.8611980175613854,-19.906997680664062,3.7593841552734375,-28.810501098632812,35.22025694737629
1782143451.190059,-0.14501953125,-0.48291015625,0.70654296875,0.8680068260926481,-21.79718017578125,-1.857757568359375,-26.311874389648438,34.21816857599052
1782143451.200746,-0.14111328125,-0.52587890625,0.6728515625,0.8655580901028708,-22.836685180664062,-7.7152252197265625,-24.175643920898438,34.139429538613264
1782143451.211433,-0.1435546875,-0.544921875,0.62353515625,0.8404426745688549,-24.05548095703125,-13.02337646484375,-21.486282348632812,34.78411746450252
1782143451.222089,-0.08837890625,-0.57373046875,0.59619140625,0.8321187864291933,-26.800155639648438,-17.602920532226562,-18.861770629882812,37.200504631894084
1782143451.232744,-0.0917968600988388,-0.57421875,0.625,0.8536854434600418,-29.79278564453125,-23.03314208984375,-15.932083129882812,40.88969288035086
1782143451.243399,-0.0600585900247097,-0.58154296875,0.705078125,0.9159336335629538,-33.15162658691406,-28.894424438476562,-13.612747192382812,46.03504094831181
1782143451.251393,-0.0468749962747097,-0.5771484375,0.8173827528953552,1.0017046215902345,-40.23170471191406,-42.81044006347656,-8.546829223632812,59.36642259925312
1782143451.259385,-0.0449218712747097,-0.60498046875,0.8920897841453552,1.0788157975596657,-43.22052001953125,-50.37689208984375,-5.7392120361328125,66.62419351996807
1782143451.267377,-0.0068359337747097015,-0.61767578125,0.8911132216453552,1.0842752761750745,-46.82159423828125,-57.09075927734375,-2.6264190673828125,73.8817606652371
1782143451.275369,0.008300784975290298,-0.669921875,0.9184569716453552,1.136849783568031,-49.44610595703125,-62.587738037109375,0.1201629638671875,79.76312923935265
1782143451.286048,0.05078125,-0.6787109375,0.9643554091453552,1.1803425889044235,-51.21612548828125,-66.86019897460938,2.8629302978515625,84.27083770110562
1782143451.296727,0.08544921875,-0.69140625,0.9995116591453552,1.218346308851284,-50.48370361328125,-68.99642944335938,4.3277740478515625,85.60281090393792
1782143451.307406,0.13818359375,-0.67529296875,1.02490234375,1.2351275697065047,-48.04229736328125,-68.99642944335938,5.6133270263671875,84.26196681884036
1782143451.315404,0.18701171875,-0.63330078125,1.00732421875,1.2044689054359135,-44.38018798828125,-65.75775146484375,5.7926177978515625,79.5439336752925
1782143451.323401,0.19775390625,-0.619140625,0.9892577528953552,1.1836691356228277,-40.17066955566406,-61.18202209472656,5.4302215576171875,73.39216461118158
1782143451.331398,0.17431640625,-0.5927734375,0.9594725966453552,1.1412073525029804,-36.68975830078125,-54.95452880859375,4.6977996826171875,66.24355004528596
1782143451.339395,0.1845703125,-0.58251953125,0.9262694716453552,1.1096712750387985,-32.78541564941406,-49.09706115722656,4.2705535888671875,59.1915747512826
1782143451.350056,0.18359375,-0.57373046875,0.9140624403953552,1.0947070205094465,-29.67071533203125,-44.582366943359375,3.4160614013671875,53.66198157061187
1782143451.360717,0.171875,-0.5859375,0.9541015028953552,1.1327724605402558,-25.27618408203125,-41.957855224609375,3.2939910888671875,49.093762069040366
1782143451.371378,0.16748046875,-0.60498046875,0.9492186903953552,1.1380101920358898,-20.14923095703125,-39.821624755859375,2.7446746826171875,44.71338217435199
1782143451.37938,0.14599609375,-0.59521484375,0.9165038466453552,1.1025311199808958,-8.67462158203125,-34.755706787109375,4.6329498291015625,36.120249694346455
1782143451.387382,0.12744140625,-0.59423828125,0.8647460341453552,1.056951347271979,-4.5223236083984375,-33.53309631347656,6.7691802978515625,34.5071262363703
1782143451.395384,0.1240234375,-0.5859375,0.8242186903953552,1.0188429793410763,-1.3523101806640625,-32.67860412597656,8.970260620117188,33.914384647813456
1782143451.411384,0.1220703125,-0.5751953125,0.7407225966453552,0.9457382163669067,1.2722015380859375,-32.06825256347656,11.594772338867188,34.123746347940596
1782143451.419382,0.1328125,-0.56494140625,0.6923828125,0.9034334019159286,3.0422210693359375,-30.969619750976562,14.459609985351562,34.314031787058596
1782143451.42738,0.10791015625,-0.56396484375,0.6484375,0.8661247821267507,3.3473968505859375,-29.870986938476562,17.881393432617188,34.97463591584614
1782143451.435378,0.095703125,-0.55517578125,0.64501953125,0.8564049462230372,2.8591156005859375,-28.833389282226562,21.051406860351562,35.81480992994362
1782143451.446088,0.0888671875,-0.55078125,0.6494140625,0.8561518480611232,1.82342529296875,-27.797698974609375,24.595260620117188,37.161321196285854
1782143451.456798,0.0751953125,-0.552734375,0.681640625,0.8807971196473136,0.6008148193359375,-27.795791625976562,28.013229370117188,39.46781005204924
1782143451.467508,0.0751953125,-0.55322265625,0.724609375,0.914750451625015,-0.49591064453125,-27.91595458984375,31.183242797851562,41.85619523343395
1782143451.478146,0.0888671875,-0.55517578125,0.71923828125,0.9129190710660842,-1.2302398681640625,-30.054092407226562,36.86332702636719,47.57800794493426
1782143451.488784,0.06494140625,-0.56005859375,0.72705078125,0.9200466581620687,-2.57110595703125,-30.788421630859375,39.48783874511719,50.13807835490137
1782143451.499422,0.06103515625,-0.5166015625,0.7949218153953552,0.9500016617182049,-4.6482086181640625,-31.763076782226562,42.11235046386719,52.95232715965531
1782143451.510099,0.06591796875,-0.5283203125,0.9482421278953552,1.0874882364052196,-5.1937103271484375,-34.32655334472656,43.94340515136719,56.002765536961576
1782143451.520778,0.06494140625,-0.51416015625,0.9819335341453552,1.1103024443816827,-6.1702728271484375,-37.80555725097656,45.71342468261719,59.641006212434306
1782143451.531457,0.04931640625,-0.5068359375,0.9667968153953552,1.092708038647799,-7.0896148681640625,-41.77284240722656,47.48344421386719,63.63890693726061
1782143451.53948,0.0332031287252903,-0.529296875,0.8608397841453552,1.011089888985809,-7.51495361328125,-49.88861083984375,48.64311218261719,70.08209744399653
1782143451.547502,0.0424804724752903,-0.55615234375,0.7451171875,0.930757564088658,-8.73565673828125,-48.183441162109375,48.82621765136719,69.15168277786316
1782143451.555524,0.0458984375,-0.54296875,0.708984375,0.8941926940182662,-10.690689086914062,-45.49598693847656,48.64311218261719,67.45611924406691
1782143451.563546,0.04443359375,-0.53857421875,0.77392578125,0.9439267176212016,-11.29913330078125,-43.605804443359375,47.48344421386719,65.45085231616744
1782143451.574192,0.0458984412252903,-0.5556640625,0.8300780653953552,0.9999494046757621,-9.408950805664062,-42.50526428222656,46.07582092285156,63.38932970682067
1782143451.584838,0.0483398400247097,-0.5703125,0.8647460341453552,1.0370047209921391,-6.2961578369140625,-40.79627990722656,44.67582702636719,60.82686559626423
1782143451.595484,0.0532226525247097,-0.5556640625,0.8369140028953552,1.0059921716087539,-3.3664703369140625,-38.41590881347656,42.78373718261719,57.59829285496167
1782143451.603471,0.0478515662252903,-0.5107421875,0.8247069716453552,0.9712306335587605,-1.77764892578125,-36.27777099609375,41.62406921386719,55.243097687124305
1782143451.611457,0.0302734412252903,-0.5302734375,0.8642577528953552,1.0144199639209672,-1.65557861328125,-34.389495849609375,40.52162170410156,53.1731153014883
1782143451.619443,0.01953125,-0.5263671875,0.8642577528953552,1.0121192366727112,-0.7419586181640625,-33.83827209472656,39.42680358886719,51.96202461589549
1782143451.627429,0.03662109375,-0.51318359375,0.8720702528953552,1.012524089287055,0.66375732421875,-33.046722412109375,38.14506530761719,50.473482575416234
1782143451.638087,0.0273437537252903,-0.5,0.8403319716453552,0.978215468819196,1.82342529296875,-31.154632568359375,36.86332702636719,48.2994916093473
1782143451.648745,0.03173828125,-0.498046875,0.8559569716453552,0.9908180183576887,3.4084320068359375,-28.284072875976562,35.21537780761719,45.29601551275778
1782143451.659403,0.02587890625,-0.501953125,0.8310546875,0.9712252833929338,5.6667327880859375,-25.232315063476562,33.13636779785156,42.03332552616565
1782143451.670058,0.001953125,-0.5029296875,0.80126953125,0.9460311553937893,10.79559326171875,-18.520355224609375,29.661178588867188,36.59691116472614
1782143451.680712,-0.02294921875,-0.474609375,0.7753905653953552,0.909401591368332,11.953353881835938,-16.504287719726562,28.623580932617188,35.13664138141273
1782143451.691366,-0.0322265587747097,-0.4775390326976776,0.75634765625,0.895066397512029,12.80975341796875,-15.895843505859375,27.765274047851562,34.46270544145124
1782143451.699372,-0.0493164025247097,-0.4658203125,0.7744140028953552,0.9050622735348016,11.892318725585938,-15.710830688476562,27.276992797851562,33.64954355837453
1782143451.707381,-0.0678710862994194,-0.47265625,0.7822265625,0.9164544779202577,10.793685913085938,-15.039443969726562,26.788711547851562,32.56261041290901
1782143451.71539,-0.0625,-0.5126953125,0.7358397841453552,0.8990121920144107,10.30731201171875,-14.064788818359375,26.731491088867188,31.9160082285701
1782143451.723399,-0.06689453125,-0.52685546875,0.689453125,0.8702856857579614,9.267807006835938,-11.621475219726562,26.117324829101562,30.05104971922746
1782143451.734059,-0.0791015625,-0.509765625,0.6884765625,0.860301125614397,7.8029632568359375,-8.020401000976562,25.999069213867188,28.304852371836425
1782143451.744719,-0.07421875,-0.55517578125,0.70751953125,0.9023926296453945,5.42449951171875,-5.702972412109375,25.571823120117188,26.755695224988596
1782143451.755379,-0.0878906175494194,-0.56298828125,0.71728515625,0.9160668975869799,3.47137451171875,-3.566741943359375,26.182174682617188,26.651048013205973
1782143451.766049,-0.0507812462747097,-0.5751953125,0.73486328125,0.9345867667716583,0.5435943603515625,-5.8231353759765625,26.853561401367188,27.483052239017294
1782143451.77672,-0.0249023400247097,-0.59033203125,0.75390625,0.9578552434723734,-0.9860992431640625,-8.630752563476562,27.582168579101562,28.917785272307828
1782143451.787391,-0.012695308774709702,-0.580078125,0.77099609375,0.9649283800086718,-2.5119781494140625,-12.353897094726562,27.341842651367188,30.108224245583614
1782143451.798056,-0.013183590024709702,-0.62255859375,0.75439453125,0.9781943152962117,-3.1223297119140625,-15.344619750976562,27.463912963867188,31.614439951054543
1782143451.808721,-0.0244140587747097,-0.6376953125,0.7265625,0.9670286574122701,-4.3430328369140625,-17.602920532226562,27.158737182617188,32.65458238656362
1782143451.819386,-0.0185546875,-0.6396484375,0.70947265625,0.9554296677363775,-5.6247711181640625,-18.335342407226562,27.158737182617188,33.247854617650844
1782143451.827386,-0.0175781212747097,-0.6328125,0.72314453125,0.9610924323812879,-8.18634033203125,-21.022796630859375,27.524948120117188,35.589280903517235
1782143451.835389,0.0009765662252902985,-0.63916015625,0.7646483778953552,0.9966011242403425,-9.65118408203125,-21.38519287109375,26.605606079101562,35.47294889286001
1782143451.843392,0.02490234375,-0.64697265625,0.7954100966453552,1.0256076084472059,-10.62774658203125,-20.290374755859375,26.182174682617188,34.78727606835828
1782143451.851395,0.0458984412252903,-0.6630859375,0.7807616591453552,1.0253674442893987,-11.789321899414062,-18.457412719726562,24.164199829101562,32.6124630859903
1782143451.862058,0.07861328125,-0.63037109375,0.7861328125,1.0107188346486984,-14.169692993164062,-16.016006469726562,22.516250610351562,31.05276484158863
1782143451.872721,0.0849609375,-0.66552734375,0.7895507216453552,1.0361155091159049,-16.24298095703125,-13.81683349609375,20.444869995117188,29.54203830724111
1782143451.883384,0.0849609375,-0.68994140625,0.7993163466453552,1.0593130448425452,-17.52471923828125,-12.84027099609375,17.881393432617188,28.137742886126393
1782143451.894044,0.09326171875,-0.6650390625,0.8867186903953552,1.1123150357392175,-19.11163330078125,-11.196136474609375,15.256881713867188,26.895732728679178
1782143451.904706,0.08203125,-0.65869140625,0.9179686903953552,1.1328150825224426,-19.598007202148438,-9.119033813476562,13.849258422851562,25.671786514571124
1782143451.915368,0.056640625,-0.70849609375,0.9101561903953552,1.1547983227275598,-20.27130126953125,-7.534027099609375,11.960983276367188,24.71340406409613
1782143451.923385,0.0307617224752903,-0.7216796875,0.8466796278953552,1.1129394625103208,-22.16339111328125,-4.970550537109375,10.801315307617188,25.151355642525473
1782143451.931402,0.014160159975290298,-0.7080078125,0.8710936903953552,1.1226218375473371,-24.911880493164062,-3.6869049072265625,11.224746704101562,27.57154322978419
1782143451.939419,0.0146484375,-0.705078125,0.9082030653953552,1.1498619687024294,-26.67999267578125,-4.604339599609375,12.327194213867188,29.74864147342989
1782143451.947436,-0.0024414025247097015,-0.73583984375,0.9306640028953552,1.1864239218683674,-26.74102783203125,-6.557464599609375,13.364791870117188,30.605564415971003
1782143451.958089,-0.011718746274709702,-0.7529296875,0.9287108778953552,1.1956355372998329,-24.667739868164062,-7.9593658447265625,14.585494995117188,29.741983106480966
1782143451.968742,-0.012207027524709702,-0.7529296875,0.8764647841453552,1.1555269982509282,-22.043228149414062,-7.7152252197265625,16.172409057617188,28.40731282900802
1782143451.979395,-0.013671875,-0.7587890625,0.8671874403953552,1.1523722568315728,-19.47784423828125,-7.411956787109375,18.125534057617188,27.61989327384455
1782143451.987384,-0.00927734375,-0.77001953125,0.8369140028953552,1.1372955622246366,-16.611099243164062,-9.119033813476562,19.468307495117188,27.16800310074354
1782143451.995372,-0.012207027524709702,-0.78759765625,0.7885741591453552,1.1145888408392066,-14.71710205078125,-10.280609130859375,20.380020141601562,27.159330585393747
1782143452.00336,-0.0058593712747097015,-0.78759765625,0.7651366591453552,1.0980794632130881,-13.06915283203125,-10.280609130859375,22.027969360351562,27.599367999812728
1782143452.011348,0.0034179724752902985,-0.775390625,0.751953125,1.0801276804484727,-12.643814086914062,-9.790420532226562,23.981094360351562,28.823796689235362
1782143452.022036,0.0190429724752903,-0.77587890625,0.7260741591453552,1.062795557265378,-13.132095336914062,-10.278701782226562,25.205612182617188,30.222946973553846
1782143452.032724,0.0234375037252903,-0.77392578125,0.7309569716453552,1.0648044542831536,-13.803482055664062,-12.842178344726562,25.754928588867188,31.918239426955427
1782143452.043412,0.04931640625,-0.75927734375,0.76806640625,1.0811383801656755,-13.74053955078125,-15.224456787109375,26.117324829101562,33.206944572452755
1782143452.054085,0.0751953125,-0.76708984375,0.79736328125,1.1089947545827883,-8.794784545898438,-19.433975219726562,24.469375610351562,32.46194650371706
1782143452.064759,0.1162109375,-0.7568359375,0.7954100966453552,1.1040755590680857,-6.2961578369140625,-21.387100219726562,22.092819213867188,31.386976919298576
1782143452.075433,0.140625,-0.74267578125,0.7954100966453552,1.0972784188735651,-4.70733642578125,-21.633148193359375,19.163131713867188,29.28101320078179
1782143452.086089,0.14404296875,-0.71435546875,0.7846679091453552,1.0708668639106773,-3.9768218994140625,-20.593643188476562,15.928268432617188,26.336723172320728
1782143452.096746,0.13232421875,-0.71533203125,0.7651366591453552,1.0557668876073754,-3.7288665771484375,-18.945693969726562,12.754440307617188,23.141294551197394
1782143452.107403,0.10693359375,-0.6904296875,0.75341796875,1.0275050279628872,-3.7937164306640625,-17.786026000976562,10.496139526367188,20.997712975956986
1782143452.118119,0.08349609375,-0.6728515625,0.7509765028953552,1.0117640687092706,-5.19561767578125,-17.238616943359375,6.8950653076171875,19.279685753379738
1782143452.128837,0.068359375,-0.6611328125,0.75341796875,1.0046931051569563,-5.37872314453125,-16.689300537109375,5.9185028076171875,18.5065418316672
1782143452.139555,0.0463867224752903,-0.65771484375,0.7602538466453552,1.006343110002819,-5.25665283203125,-15.895843505859375,5.6133270263671875,17.6584166918843
1782143452.147608,0.04541015625,-0.62158203125,0.76220703125,0.9845739496606966,-4.0340423583984375,-14.551162719726562,5.4874420166015625,16.066171109846838
1782143452.155661,0.0273437537252903,-0.62939453125,0.76904296875,0.9941389463344699,-2.32696533203125,-13.149261474609375,5.4874420166015625,14.437100292984248
1782143452.163714,0.0009765662252902985,-0.61328125,0.74853515625,0.9676878243655682,-1.28936767578125,-11.501312255859375,5.3691864013671875,12.758166608990374
1782143452.171767,0.00634765625,-0.63134765625,0.72216796875,0.9592532152047953,0.2346038818359375,-10.644912719726562,5.3043365478515625,11.895595487609802
1782143452.182322,0.005859375,-0.6162109375,0.7260741591453552,0.9523307914525573,0.7228851318359375,-9.241104125976562,6.2808990478515625,11.196886229227891
1782143452.192877,-0.00341796875,-0.62548828125,0.7001953125,0.9388933635607548,1.82342529296875,-8.388519287109375,7.0781707763671875,11.126213963818179
1782143452.203432,-0.00439453125,-0.61767578125,0.72705078125,0.9540154721826792,2.0656585693359375,-7.7152252197265625,8.298873901367188,11.517940508049572
1782143452.214096,0.008300784975290298,-0.61181640625,0.71630859375,0.9420648700954587,1.7032623291015625,-6.6165924072265625,10.858535766601562,12.829193140633205
1782143452.224761,-0.0014648400247097015,-0.615234375,0.7314453125,0.9557864443044592,1.21307373046875,-6.252288818359375,12.327194213867188,13.8752434403918
1782143452.235426,-0.004882805049419403,-0.62109375,0.7265625,0.9558631463135625,0.9059906005859375,-4.7245025634765625,14.036178588867188,14.837656581118878
1782143452.243419,0.0009765625,-0.63525390625,0.75390625,0.9858616093901125,0.66375732421875,-3.322601318359375,15.314102172851562,15.68445021882356
1782143452.25141,-0.0004882737994194031,-0.6357421875,0.7504882216453552,0.983565421416896,0.2346038818359375,-1.2454986572265625,16.477584838867188,16.52625511144589
1782143452.259401,0.0009765662252902985,-0.63818359375,0.75341796875,0.9873793033321254,-0.12969970703125,0.461578369140625,17.755508422851562,17.761980631641713
1782143452.267392,0.010742191225290298,-0.63427734375,0.75341796875,0.9849171432675199,-0.31280517578125,1.682281494140625,18.980026245117188,19.05700171508784
1782143452.278084,0.0146484375,-0.63525390625,0.73974609375,0.9751853082083728,-0.31280517578125,2.170562744140625,19.651412963867188,19.773396804309932
1782143452.288776,0.0234375037252903,-0.62255859375,0.75439453125,0.9783862366227142,-0.5588531494140625,3.0269622802734375,20.563125610351562,20.792232981474225
1782143452.299468,0.0356445349752903,-0.62451171875,0.736328125,0.9661596800714152,-0.92315673828125,3.757476806640625,20.380020141601562,20.744061108856233
1782143452.307499,0.03173828125,-0.62109375,0.751953125,0.9758064700456911,-1.1043548583984375,3.8204193115234375,19.220352172851562,19.62745885277993
1782143452.315532,0.02490234375,-0.64013671875,0.7456054091453552,0.9830170759264929,-1.10626220703125,3.70025634765625,18.426895141601562,18.827272178110544
1782143452.323565,0.0312500037252903,-0.6376953125,0.74365234375,0.9801278909826877,-1.2302398681640625,3.6373138427734375,17.084121704101562,17.510304295602793
1782143452.331598,0.0214843787252903,-0.6279296875,0.734375,0.9664698192898004,-1.2302398681640625,3.6373138427734375,16.290664672851562,16.73706358975031
1782143452.339629,0.0209960974752903,-0.638671875,0.7358397841453552,0.9745782615861542,-1.59454345703125,3.391265869140625,14.825820922851562,15.29209662106614
1782143452.34766,0.0234375037252903,-0.62890625,0.7456054091453552,0.9757047781049082,-1.96075439453125,3.391265869140625,13.608932495117188,14.161507181353553
1782143452.355691,0.0180664099752903,-0.64990234375,0.7412109375,0.9859478208560366,-2.6950836181640625,3.4542083740234375,12.327194213867188,13.082612445015354
1782143452.363722,0.005859375,-0.642578125,0.74658203125,0.9850511196832793,-3.2405853271484375,3.8204193115234375,11.224746704101562,12.291945962687514
1782143452.374291,0.0048828125,-0.638671875,0.7578125,0.9910627583206705,-3.12042236328125,4.062652587890625,10.065078735351562,11.293714699955297
1782143452.38486,-0.0063476525247097015,-0.65625,0.7509765028953552,0.9973314710233062,-2.81524658203125,4.062652587890625,9.336471557617188,10.564111913158046
1782143452.395429,-0.00048827752470970154,-0.6376953125,0.75146484375,0.9855734175552959,-2.4509429931640625,3.8204193115234375,8.417129516601562,9.5629908799939
1782143452.403444,-0.020019523799419403,-0.64453125,0.78125,1.013001913156988,-1.8405914306640625,3.5152435302734375,7.4405670166015625,8.432481925287615
1782143452.411459,-0.0234375,-0.634765625,0.74755859375,0.9809793913112386,-1.5926361083984375,3.1490325927734375,6.8340301513671875,7.691349956536872
1782143452.419474,-0.009277340024709702,-0.64404296875,0.7626953125,0.9982893139484766,-1.47247314453125,2.780914306640625,6.3457489013671875,7.083091885712561
1782143452.427489,-0.0336914025247097,-0.63916015625,0.73974609375,0.9782050394268015,-2.0236968994140625,3.2100677490234375,6.0405731201171875,7.133611127157184
1782143452.438121,-0.0205078087747097,-0.64404296875,0.7373046875,0.9791987122267504,-2.3899078369140625,3.0269622802734375,5.7353973388671875,6.911507993905978
1782143452.448753,-0.029785148799419403,-0.650390625,0.73193359375,0.979602932741978,-3.24249267578125,2.658843994140625,5.7926177978515625,7.151058039874897
1782143452.459385,-0.0449218675494194,-0.6298828125,0.73779296875,0.9711378874310157,-3.3664703369140625,1.5621185302734375,6.2808990478515625,7.2954115498201055
1782143452.467374,-0.0356445275247097,-0.65673828125,0.732421875,0.9843868677406152,-3.8547515869140625,1.0738372802734375,6.5898895263671875,7.709661488745501
1782143452.475362,-0.0498046800494194,-0.6611328125,0.740234375,0.9937424373803434,-3.97491455078125,0.644683837890625,6.9522857666015625,8.034291525538551
1782143452.48335,-0.0478515625,-0.6494140625,0.7412109375,0.9866215335558384,-4.58526611328125,0.58746337890625,7.6236724853515625,8.91572547328975
1782143452.491338,-0.033203125,-0.67041015625,0.732421875,0.993475731002741,-4.70733642578125,0.278472900390625,8.359909057617188,9.598158304246125
1782143452.50202,-0.0454101487994194,-0.66064453125,0.75390625,1.0034380459567895,-4.7702789306640625,0.5855560302734375,8.481979370117188,9.748969739209402
1782143452.512702,-0.0395507737994194,-0.67626953125,0.7407225966453552,1.0037802089034558,-4.89044189453125,0.89263916015625,9.088516235351562,10.359264160850412
1782143452.523384,-0.0214843712747097,-0.669921875,0.748046875,1.0044058064397332,-4.70733642578125,1.438140869140625,9.214401245117188,10.446648060071553
1782143452.531437,-0.033203125,-0.673828125,0.75439453125,1.012056272314286,-4.7702789306640625,1.3790130615234375,9.336471557617188,10.574825731253656
1782143452.53949,-0.0234375,-0.6748046875,0.740234375,1.0019269497372867,-4.52423095703125,0.949859619140625,9.275436401367188,10.36361999903708
1782143452.547543,-0.010253898799419403,-0.66943359375,0.74169921875,0.9991817702380228,-4.4651031494140625,0.5245208740234375,9.576797485351562,10.579570802146451
1782143452.555596,0.00048828125,-0.66796875,0.740234375,0.997060389006996,-4.3430328369140625,0.0362396240234375,9.153366088867188,10.131503259126307
1782143452.563539,0.0034179724752902985,-0.65185546875,0.734375,0.981954110587722,-3.8547515869140625,-0.4520416259765625,8.111953735351562,8.992621688524219
1782143452.571482,-0.00390625,-0.67578125,0.748046875,1.0081020205504454,-3.5457611083984375,-0.0858306884765625,7.3833465576171875,8.19106800941079
1782143452.579425,0.013183597475290298,-0.67724609375,0.72802734375,0.994414346230838,-3.12042236328125,-0.38909912109375,6.4640045166015625,7.188309136504013
1782143452.587368,-0.0009765550494194031,-0.66552734375,0.7255859375,0.9845824250089218,-2.75421142578125,-0.514984130859375,5.6133270263671875,6.273781119698492
1782143452.598038,-0.0024414025247097015,-0.6728515625,0.72705078125,0.9906250673797905,-2.6950836181640625,-0.8182525634765625,4.5108795166015625,5.317992758534728
1782143452.608708,-0.014160152524709702,-0.658203125,0.72314453125,0.9779416530427932,-2.75421142578125,-0.820159912109375,4.0874481201171875,4.996556313500807
1782143452.619378,-0.013671875,-0.66552734375,0.7177734375,0.9789342536787201,-3.0002593994140625,-0.8182525634765625,3.9653778076171875,5.0393764374723276
1782143452.627372,-0.01220703125,-0.66455078125,0.71435546875,0.975746118724003,-3.0002593994140625,-1.2454986572265625,3.5381317138671875,4.80324883735981
1782143452.635366,-0.014648433774709702,-0.66845703125,0.7158203125,0.9795142158372246,-3.24249267578125,-1.491546630859375,3.7822723388671875,5.200389807493556
1782143452.64336,-0.024414055049419403,-0.6611328125,0.72509765625,0.9815596023407643,-3.6716461181640625,-1.4896392822265625,4.0264129638671875,5.649071761252413
1782143452.651354,-0.010742180049419403,-0.65966796875,0.71923828125,0.9760025249160061,-4.09698486328125,-1.674652099609375,4.4536590576171875,6.278918985476512
1782143452.662055,-0.0244140587747097,-0.6572265625,0.70703125,0.9656272516856511,-4.1599273681640625,-1.4286041259765625,4.5108795166015625,6.300312648627304
1782143452.672756,-0.00927734375,-0.67041015625,0.7255859375,0.9879325884937489,-4.2819976806640625,-2.0389556884765625,4.6329498291015625,6.630012711583254
1782143452.683457,-0.013183590024709702,-0.68310546875,0.72265625,0.9945043711046017,-4.6482086181640625,-2.2220611572265625,4.2705535888671875,6.691862752613515
1782143452.694131,-0.001953125,-0.685546875,0.72216796875,0.9957433944586488,-4.3430328369140625,-1.7337799072265625,4.0874481201171875,6.210890364824184
1782143452.704805,0.009277347475290298,-0.677734375,0.7314453125,0.9972071988363505,-4.6482086181640625,-0.7572174072265625,3.9043426513671875,6.117443346616832
1782143452.715479,0.008789066225290298,-0.677734375,0.7314453125,0.9972027757281745,-4.6482086181640625,-0.1468658447265625,3.1681060791015625,5.627104856208224
1782143452.723476,0.008789066225290298,-0.701171875,0.7421875,1.0210590243136672,-5.19561767578125,0.461578369140625,2.6226043701171875,5.838283249886635
1782143452.731475,-0.01416015625,-0.69482421875,0.7460936903953552,1.0196259117119044,-4.8313140869140625,1.3790130615234375,2.4394989013671875,5.5851971961640015
1782143452.739474,-0.009765617549419403,-0.68994140625,0.74658203125,1.0166116469575415,-4.5223236083984375,1.1959075927734375,2.0732879638671875,5.1166521056885985
1782143452.747473,-0.011718746274709702,-0.6943359375,0.7553710341453552,1.0260726691341497,-4.3430328369140625,1.3790130615234375,2.0732879638671875,5.006209566876181
1782143452.758116,-0.0195312462747097,-0.68701171875,0.75390625,1.0201672436762195,-3.8547515869140625,1.3179779052734375,2.1915435791015625,4.625909512161552
1782143452.768759,-0.0253906212747097,-0.6884765625,0.7421875,1.012663293457792,-3.2405853271484375,1.1959075927734375,1.8863677978515625,3.9357301357885626
1782143452.779402,-0.02685546875,-0.70947265625,0.72998046875,1.0183045472375554,-2.44903564453125,1.255035400390625,1.7032623291015625,3.236354740468778
1782143452.790048,-0.00048827752470970154,-0.69384765625,0.73388671875,1.00995768448792,-1.3523101806640625,1.0738372802734375,1.7681121826171875,2.4714550409732396
1782143452.800697,-0.0170898400247097,-0.6923828125,0.72412109375,1.0020166565936799,-1.16729736328125,1.621246337890625,1.6460418701171875,2.588527894504135
1782143452.811346,-0.017578125,-0.68603515625,0.724609375,0.9980039941940955,-1.4095306396484375,1.9893646240234375,1.7032623291015625,2.974130258270496
1782143452.819362,-0.015136715024709702,-0.697265625,0.7265625,1.0071253836313678,-1.8978118896484375,1.8672943115234375,1.7032623291015625,3.1606297752307593
1782143452.827378,-0.010253898799419403,-0.67919921875,0.7236328125,0.9925024778396572,-2.08282470703125,1.804351806640625,1.5850067138671875,3.179007783153599
1782143452.835394,-0.0229492150247097,-0.68310546875,0.7260741591453552,0.9971677052958756,-1.96075439453125,1.499176025390625,1.3408660888671875,2.8089158796684583
1782143452.84341,-0.02734375,-0.68017578125,0.73681640625,1.0031376727958508,-1.8405914306640625,1.3790130615234375,1.0967254638671875,2.54799147988782
1782143452.854079,-0.0263671837747097,-0.69970703125,0.7353515625,1.0153950356546408,-1.2302398681640625,1.5010833740234375,0.9136199951171875,2.145097416078777
1782143452.864748,-0.0185546837747097,-0.6875,0.7509765028953552,1.0183153903339166,-1.0471343994140625,1.3790130615234375,0.6694793701171875,1.8564401690603982
1782143452.875417,-0.0478515587747097,-0.677734375,0.73681640625,1.0022534965032426,-0.5588531494140625,1.8672943115234375,1.0967254638671875,2.2364953904608216
1782143452.886119,-0.0571289025247097,-0.70361328125,0.75146484375,1.0310357765117957,-0.2536773681640625,1.1348724365234375,1.4629364013671875,1.8688152848113335
1782143452.896824,-0.0371093712747097,-0.70263671875,0.7490234375,1.0276728924597005,0.17547607421875,0.89263916015625,1.7681121826171875,1.9884207837344172
1782143452.907529,-0.0478515625,-0.6865234375,0.73291015625,1.0053663508417752,0.4177093505859375,1.0738372802734375,2.0084381103515625,2.3154764626712434
1782143452.915644,-0.02392578125,-0.68359375,0.7314453125,1.0014415126335177,0.4177093505859375,0.9517669677734375,2.0084381103515625,2.261451990563612
1782143452.923759,-0.030273430049419403,-0.68505859375,0.72802734375,1.0001227778054878,0.4177093505859375,1.0128021240234375,2.7446746826171875,2.955247596630961
1782143452.931874,-0.0385742112994194,-0.66552734375,0.73193359375,0.9900209092317661,0.9670257568359375,0.8907318115234375,2.8057098388671875,3.0984753790146664
1782143452.939989,-0.046875,-0.65576171875,0.7255859375,0.979130047593632,1.70135498046875,0.827789306640625,2.8629302978515625,3.43164884510505
1782143452.951017,-0.0273437462747097,-0.66357421875,0.72509765625,0.9832827850365589,2.3708343505859375,0.5245208740234375,2.7446746826171875,3.664589578466368
1782143452.962045,-0.0419921837747097,-0.6669921875,0.720703125,0.9828809266991448,3.10516357421875,0.09918212890625,3.0498504638671875,4.353557828868274
1782143452.973073,-0.029296867549419403,-0.6650390625,0.7119140625,0.9746573210540929,3.0422210693359375,0.4024505615234375,3.1681060791015625,4.410665666044333
1782143452.980773,-0.015624992549419403,-0.66064453125,0.72216796875,0.9788880999129587,2.79998779296875,0.58746337890625,2.7446746826171875,3.9646291094791852
1782143452.988473,-0.017578125,-0.66064453125,0.71435546875,0.9731720931480106,2.4318695068359375,1.0128021240234375,2.5615692138671875,3.6744243464979673
1782143452.996173,-0.0380859337747097,-0.6572265625,0.724609375,0.9790076808406298,1.82342529296875,1.194000244140625,2.2563934326171875,3.137168740250358
1782143453.003873,-0.009765617549419403,-0.6640625,0.71533203125,0.9761015757207968,0.7228851318359375,1.3179779052734375,2.5615692138671875,2.970061533041122
1782143453.014379,-0.0405273400247097,-0.6689453125,0.71923828125,0.9830737518724906,0.11444091796875,1.438140869140625,2.1915435791015625,2.6237776472672696
1782143453.024885,-0.0312499962747097,-0.67578125,0.71875,0.9870452991726022,-0.86212158203125,1.438140869140625,2.6798248291015625,3.161164958740027
1782143453.035391,-0.020507805049419403,-0.666015625,0.71240234375,0.9754560380624945,-0.9212493896484375,1.1959075927734375,2.6798248291015625,3.0757692571208906
1782143453.046085,-0.0390624925494194,-0.65673828125,0.7309569716453552,0.9834272432571339,-1.35040283203125,1.132965087890625,3.0498504638671875,3.5226106158768005
1782143453.056777,-0.0366210900247097,-0.6689453125,0.732421875,0.9926080486923508,-1.41143798828125,0.766754150390625,3.2939910888671875,3.664757347416212
1782143453.067469,-0.01806640625,-0.671875,0.7421875,1.001291513903938,-1.1692047119140625,0.8907318115234375,3.0498504638671875,3.3855620907572748
1782143453.075564,-0.0166015625,-0.67041015625,0.7358397841453552,0.9955830339111218,-0.7419586181640625,0.5245208740234375,2.8629302978515625,3.003663534537561
1782143453.083657,-0.0214843712747097,-0.6806640625,0.74853515625,1.0119634500960424,-0.86212158203125,0.461578369140625,2.3746490478515625,2.5681250579994965
1782143453.09175,-0.01416015625,-0.66552734375,0.7412109375,0.9962533860286669,-0.49591064453125,0.09918212890625,2.1343231201171875,2.193421902671837
1782143453.099843,-0.0283203125,-0.6845703125,0.7451171875,1.0122441286391122,-0.31280517578125,0.278472900390625,1.8291473388671875,1.8764792089262325
1782143453.11041,-0.015624992549419403,-0.67529296875,0.728515625,0.9934786106930025,-0.31280517578125,-0.08392333984375,1.2149810791015625,1.2574057529456693
1782143453.120977,-0.00830078125,-0.673828125,0.74267578125,1.0028362583521169,-0.4329681396484375,0.0362396240234375,0.6694793701171875,0.7981086062137753
1782143453.131544,-0.02197265625,-0.650390625,0.728515625,0.9768448078275852,-0.3757476806640625,0.5855560302734375,0.5435943603515625,0.8829252588526583
1782143453.142214,-0.0234375,-0.669921875,0.724609375,0.9871187270777798,-0.6809234619140625,0.5855560302734375,-0.1239776611328125,0.9065887083096618
1782143453.152887,-0.0200195275247097,-0.65771484375,0.73388671875,0.9856872288556047,-0.6809234619140625,1.1959075927734375,-0.0629425048828125,1.3776115164875447
1782143453.16356,-0.0185546875,-0.65966796875,0.744140625,0.9946111678431749,-0.1926422119140625,1.1959075927734375,-0.1850128173828125,1.2253716721306342
1782143453.171609,-0.033203125,-0.66943359375,0.74365234375,1.0011306569652503,0.4787445068359375,1.6841888427734375,-0.2498626708984375,1.7686491215774305
1782143453.179658,-0.0346679612994194,-0.67626953125,0.73974609375,1.0028791700180717,0.84686279296875,2.292633056640625,-0.3070831298828125,2.463258608261583
1782143453.187707,-0.0341796800494194,-0.65576171875,0.7456054091453552,0.9935386798977921,1.2149810791015625,2.1724700927734375,-0.1239776611328125,2.4922230612506957
1782143453.195756,-0.0341796800494194,-0.669921875,0.72705078125,0.9892251551836071,1.09100341796875,2.414703369140625,-0.3070831298828125,2.6674671258737574
1782143453.206322,-0.0224609375,-0.65966796875,0.72021484375,0.9769215648484615,1.0890960693359375,2.6607513427734375,-0.0019073486328125,2.87501853807805
1782143453.216888,-0.01318359375,-0.671875,0.7236328125,0.9875395030558652,1.02996826171875,2.780914306640625,-0.1850128173828125,2.971287388258224
1782143453.227454,-0.012695308774709702,-0.6533203125,0.72265625,0.9742795580602343,0.96893310546875,3.086090087890625,-0.7953643798828125,3.330974015244858
1782143453.238108,-0.0161132775247097,-0.65966796875,0.736328125,0.9887368580028535,1.33514404296875,3.635406494140625,-0.7953643798828125,3.9536558385753735
1782143453.248764,-0.010253898799419403,-0.6611328125,0.7373046875,0.9903635395218372,1.51824951171875,3.574371337890625,-1.1615753173828125,4.0534515241854345
1782143453.25942,-0.014648430049419403,-0.65576171875,0.734375,0.9846545835499202,2.00653076171875,3.879547119140625,-1.7147064208984375,4.692256350331499
1782143453.270083,-0.024902336299419403,-0.66064453125,0.7255859375,0.9816039301680977,1.7604827880859375,4.6138763427734375,-2.6874542236328125,5.6222384116713755
1782143453.280748,-0.020019523799419403,-0.66943359375,0.7119140625,0.9774271073381633,1.45721435546875,4.428863525390625,-2.8743743896484375,5.477256059030517
1782143453.291413,-0.0263671837747097,-0.6591796875,0.7158203125,0.9734535472124002,1.0890960693359375,4.4307708740234375,-3.2978057861328125,5.629687716862141
1782143453.302075,-0.0283203125,-0.65869140625,0.7255859375,0.980383272738501,0.7839202880859375,4.1866302490234375,-3.8509368896484375,5.7421353857398705
1782143453.312738,-0.015624996274709702,-0.64794921875,0.72802734375,0.9747338835984931,0.9059906005859375,3.6983489990234375,-4.0340423583984375,5.547260768729063
1782143453.323401,-0.0483398362994194,-0.6728515625,0.73388671875,0.9968227931231246,0.54168701171875,2.964019775390625,-4.2743682861328125,5.2296330935419775
1782143453.331429,-0.0332031212747097,-0.6630859375,0.7275390625,0.9849357822904069,0.6008148193359375,2.7828216552734375,-4.8274993896484375,5.6044469101998375
1782143453.339457,-0.0351562462747097,-0.6689453125,0.72314453125,0.9857290732471234,0.4787445068359375,3.0269622802734375,-4.8274993896484375,5.718080736233075
1782143453.347485,-0.029296867549419403,-0.67431640625,0.7216796875,0.9881206877382038,0.35858154296875,2.780914306640625,-4.0912628173828125,4.959888763342935
1782143453.355513,-0.03662109375,-0.67041015625,0.7197265625,0.9842749650776769,-0.1926422119140625,1.9893646240234375,-4.2133331298828125,4.66335273086812
1782143453.366152,-0.0444335862994194,-0.65625,0.7333984375,0.9851455091603825,-0.00762939453125,1.438140869140625,-3.5457611083984375,3.8263205831430778
1782143453.376791,-0.0502929612994194,-0.67041015625,0.72998046875,0.9923964149047919,-0.2536773681640625,1.8062591552734375,-2.8743743896484375,3.4042550543392873
1782143453.38743,-0.0380859375,-0.65869140625,0.7309569716453552,0.9846943696903142,-0.9212493896484375,1.8672943115234375,-2.2602081298828125,3.073113937712653
1782143453.395425,-0.0454101525247097,-0.666015625,0.73388671875,0.9920829656102859,-0.80108642578125,1.74713134765625,-1.9550323486328125,2.7415978719963388
1782143453.403421,-0.0449218712747097,-0.67236328125,0.73828125,0.9995746898524646,-0.61798095703125,1.74713134765625,-1.6498565673828125,2.4812083955509663
1782143453.411417,-0.0327148400247097,-0.66845703125,0.72998046875,0.9903416320350648,-0.49591064453125,1.56402587890625,-1.2836456298828125,2.0832307650294313
1782143453.419413,-0.0356445275247097,-0.66259765625,0.7460936903953552,0.9984798351785644,-0.19073486328125,1.132965087890625,-0.7953643798828125,1.3973525593909004
1782143453.430074,-0.0209960900247097,-0.67578125,0.74267578125,1.0043348294782901,-0.12969970703125,1.804351806640625,-0.9212493896484375,2.030075834558625
1782143453.440735,-0.0185546875,-0.66552734375,0.74365234375,0.9981431410734742,0.17547607421875,1.438140869140625,-0.7953643798828125,1.6527690428193975
1782143453.451396,-0.01904296875,-0.6640625,0.73681640625,0.9920887334730843,-0.0705718994140625,1.0128021240234375,-0.9212493896484375,1.370929966606943
1782143453.462084,-0.020996086299419403,-0.6650390625,0.72412109375,0.9833967402348188,-0.2536773681640625,1.1348724365234375,-0.7953643798828125,1.4088620056931267
1782143453.472774,-0.015136711299419403,-0.6806640625,0.73681640625,1.0032103979361113,0.0553131103515625,1.5010833740234375,-0.9212493896484375,1.7621042176539872
1782143453.483464,-0.029296867549419403,-0.6669921875,0.740234375,0.996836904696994,0.17547607421875,1.682281494140625,-0.8563995361328125,1.8958594472269652
1782143453.491464,-0.0356445275247097,-0.6533203125,0.7260741591453552,0.9773851071334124,0.17547607421875,1.74713134765625,-0.7381439208984375,1.904761467099145
1782143453.499464,-0.0273437462747097,-0.6669921875,0.72314453125,0.9841566296698677,0.0553131103515625,1.5010833740234375,-0.6122589111328125,1.6220887183529415
1782143453.507464,-0.02880859375,-0.6474609375,0.72705078125,0.9739807180732413,0.4787445068359375,1.1959075927734375,-0.6732940673828125,1.4535185497445962
1782143453.515464,-0.0249023400247097,-0.65771484375,0.72265625,0.977466622392732,0.96893310546875,1.316070556640625,-0.1239776611328125,1.6389763675506865
1782143453.526085,-0.02880859375,-0.64697265625,0.7421875,0.985010577692079,0.66375732421875,1.682281494140625,-0.1850128173828125,1.8179313940789885
1782143453.536706,-0.0415039025247097,-0.65966796875,0.7236328125,0.9800657377167062,0.7839202880859375,1.8672943115234375,-0.2498626708984375,2.0405269952218297
1782143453.547327,-0.033203125,-0.65673828125,0.72509765625,0.9788637436682456,0.29754638671875,1.804351806640625,-0.0019073486328125,1.828721666179815
1782143453.558078,-0.0322265625,-0.66064453125,0.73193359375,0.9865173762589733,-0.2536773681640625,1.7452239990234375,0.3643035888671875,1.8007987446540263
1782143453.568832,-0.02685546875,-0.64990234375,0.728515625,0.9766418424799677,-0.2536773681640625,1.3790130615234375,0.3643035888671875,1.4487050548101232
1782143453.579586,-0.02880859375,-0.65869140625,0.732421875,0.9854674559415804,-0.5588531494140625,1.6841888427734375,0.1201629638671875,1.7785522310626398
1782143453.587542,-0.0351562425494194,-0.65625,0.740234375,0.9898721906498001,-0.4978179931640625,1.6841888427734375,0.1201629638671875,1.760327796271414
1782143453.595501,-0.02880859375,-0.671875,0.73974609375,0.9997350818678098,-0.3757476806640625,1.8672943115234375,0.1201629638671875,1.9085108077392587
1782143453.60346,-0.03271484375,-0.66064453125,0.7392578125,0.9919796222777988,-0.4978179931640625,1.8672943115234375,0.3032684326171875,1.956165264589822
1782143453.611419,-0.0380859375,-0.650390625,0.732421875,0.9802552252865884,-0.61798095703125,1.74713134765625,0.1201629638671875,1.8570965368288614
1782143453.622063,-0.02294921875,-0.6708984375,0.73193359375,0.9931556603780531,-0.80108642578125,1.804351806640625,-0.1850128173828125,1.9828400455644908
1782143453.632707,-0.025390617549419403,-0.66455078125,0.720703125,0.9806556065736288,-0.92315673828125,1.926422119140625,0.0553131103515625,2.136909002443739
1782143453.643351,-0.029296867549419403,-0.67041015625,0.7373046875,0.9969585178235001,-1.04522705078125,1.255035400390625,-0.1850128173828125,1.6437284406234662
1782143453.651375,-0.0224609375,-0.6796875,0.73193359375,0.999102786018245,-0.80108642578125,1.132965087890625,-0.3681182861328125,1.435569721238
1782143453.6594,-0.029296867549419403,-0.6689453125,0.72802734375,0.9891258518568865,-0.6160736083984375,1.1959075927734375,-0.2498626708984375,1.3682737356708745
1782143453.667425,-0.0297851525247097,-0.67333984375,0.72998046875,0.9935518030020701,-0.7419586181640625,1.0738372802734375,-0.1239776611328125,1.3111062336946389
1782143453.67545,-0.0419921837747097,-0.67431640625,0.72802734375,0.9932219150239108,-0.6809234619140625,1.3790130615234375,0.1811981201171875,1.5486014799073642
1782143453.686077,-0.0405273400247097,-0.67236328125,0.73291015625,0.9954256096751501,-0.80108642578125,1.38092041015625,0.4253387451171875,1.652148204264662
1782143453.696704,-0.0336913987994194,-0.67041015625,0.73828125,0.9978196691074863,-0.49591064453125,1.07574462890625,0.2384185791015625,1.2083034771285124
1782143453.707331,-0.0395507737994194,-0.67138671875,0.75,1.0073849263424703,-0.8640289306640625,1.3790130615234375,0.5435943603515625,1.7157266231782824
1782143453.715498,-0.0336913987994194,-0.6650390625,0.74267578125,0.9974865317683433,-0.92315673828125,1.316070556640625,0.3032684326171875,1.6359192570883585
1782143453.723665,-0.03759765625,-0.67041015625,0.716796875,0.9821716353919046,-1.2302398681640625,1.3790130615234375,0.7266998291015625,1.985764285782382
1782143453.731832,-0.0390624962747097,-0.66748046875,0.71923828125,0.9820182075671436,-1.16729736328125,1.132965087890625,0.5435943603515625,1.7151349373470282
1782143453.739999,-0.0327148400247097,-0.6728515625,0.7314453125,0.9943901302279485,-1.28936767578125,0.766754150390625,0.3032684326171875,1.5304746560178242
1782143453.750477,-0.0449218712747097,-0.65234375,0.734375,0.9832990304621906,-1.4743804931640625,0.8907318115234375,0.3032684326171875,1.749049096196163
1782143453.760955,-0.0297851525247097,-0.66796875,0.7392578125,0.996780577474184,-1.3523101806640625,1.0738372802734375,0.1201629638671875,1.7309848257908182
1782143453.771433,-0.020019523799419403,-0.66552734375,0.7333984375,0.9905557504449346,-1.47247314453125,1.74713134765625,-0.0019073486328125,2.284873901401935
1782143453.779414,-0.033203125,-0.67431640625,0.7265625,0.9918155723993906,-1.89971923828125,2.109527587890625,-0.4329681396484375,2.8716722024489774
1782143453.787396,-0.0532226487994194,-0.66796875,0.7421875,0.9999285906893746,-2.0809173583984375,1.3790130615234375,-0.7953643798828125,2.6200188115970744
1782143453.795378,-0.03759765625,-0.685546875,0.73486328125,1.0056898844610476,-2.44903564453125,1.07574462890625,-0.3070831298828125,2.6924528117432
1782143453.80336,-0.0307617150247097,-0.66943359375,0.724609375,0.9869885338190065,-2.2068023681640625,0.6465911865234375,-0.5512237548828125,2.364720804359662
1782143453.814036,-0.0380859375,-0.6767578125,0.72021484375,0.9890202710626693,-2.02178955078125,0.278472900390625,-0.4329681396484375,2.086298529417793
1782143453.824712,-0.0449218712747097,-0.67724609375,0.71484375,0.9857392317101505,-1.77764892578125,0.89263916015625,-0.2498626708984375,2.0048121427914856
1782143453.835388,-0.0449218712747097,-0.68212890625,0.7333984375,1.0025921839851357,-1.96075439453125,0.766754150390625,-0.5512237548828125,2.1763081929639387
1782143453.84338,-0.03759765625,-0.67919921875,0.73486328125,1.001373658848494,-1.9626617431640625,0.4024505615234375,-0.4901885986328125,2.062593618428004
1782143453.851372,-0.0361328087747097,-0.6611328125,0.720703125,0.9786803206455494,-1.4095306396484375,0.2193450927734375,-0.2498626708984375,1.4482127772326905
1782143453.859364,-0.0312499962747097,-0.6640625,0.72412109375,0.9830091172451635,-1.5354156494140625,-0.3910064697265625,-0.3681182861328125,1.6266217594815937
1782143453.867356,-0.0371093712747097,-0.67919921875,0.73193359375,0.999207420832534,-1.16729736328125,-0.209808349609375,-0.7953643798828125,1.4280081143591374
1782143453.878069,-0.0390624925494194,-0.6640625,0.7216796875,0.9814919528862787,-1.22833251953125,-0.209808349609375,-1.0395050048828125,1.6227726203261548
1782143453.888782,-0.024414055049419403,-0.67333984375,0.72509765625,0.9898228136209397,-0.9860992431640625,-0.4520416259765625,-1.2264251708984375,1.6373307695140689
1782143453.899495,-0.0458984337747097,-0.67333984375,0.7216796875,0.9880864247394271,-1.35040283203125,-0.514984130859375,-1.4667510986328125,2.059163725674957
1782143453.907479,-0.02880859375,-0.6865234375,0.7197265625,0.9950631588390434,-1.4095306396484375,-0.4520416259765625,-1.5277862548828125,2.1272632879669873
1782143453.915465,-0.0385742112994194,-0.68359375,0.72509765625,0.9972737818250703,-1.4095306396484375,-0.5741119384765625,-1.3446807861328125,2.0308982147325376
1782143453.923451,-0.0317382775247097,-0.673828125,0.7099609375,0.9793345664670118,-0.98419189453125,-0.331878662109375,-1.8329620361328125,2.1067811840646065
1782143453.931437,-0.030273430049419403,-0.68603515625,0.71240234375,0.9894836105557343,-1.22833251953125,-0.209808349609375,-1.4095306396484375,1.8813816588378691
1782143453.93942,-0.0234375,-0.67431640625,0.71875,0.9858263004425095,-0.9860992431640625,-0.2689361572265625,-1.8978118896484375,2.155552908773872
1782143453.947403,-0.0400390587747097,-0.66650390625,0.7265625,0.9867743661447248,-0.98419189453125,-0.38909912109375,-1.8978118896484375,2.1729523188022126
1782143453.955386,-0.03271484375,-0.67578125,0.7260741591453552,0.9924385338305763,-0.9212493896484375,-0.0858306884765625,-2.0809173583984375,2.277341519732144
1782143453.963369,-0.030273430049419403,-0.67578125,0.724609375,0.9912898288373638,-0.49591064453125,-0.026702880859375,-2.2602081298828125,2.3141264445993333
1782143453.974118,-0.0356445275247097,-0.6669921875,0.72509765625,0.9858578607627664,-0.5588531494140625,0.0362396240234375,-2.0809173583984375,2.1549587479678833
1782143453.984867,-0.0317382775247097,-0.67236328125,0.73486328125,0.9965459057981316,-0.61798095703125,0.034332275390625,-2.2602081298828125,2.3434205680532716
1782143453.995616,-0.025390617549419403,-0.6845703125,0.73291015625,1.003214081515151,-0.61798095703125,-0.026702880859375,-1.8978118896484375,1.9960720116244361
1782143454.006194,-0.0424804650247097,-0.6884765625,0.72216796875,0.9986646795141164,-0.3147125244140625,0.2193450927734375,-2.1381378173828125,2.1722775073340417
1782143454.016773,-0.0375976525247097,-0.6826171875,0.71435546875,0.9887788144366824,-0.3147125244140625,-0.2689361572265625,-2.1991729736328125,2.237796326220027
1782143454.027352,-0.0439453050494194,-0.6748046875,0.7119140625,0.9818931655190971,-0.0705718994140625,0.0362396240234375,-1.7719268798828125,1.7737019397259246
1782143454.035366,-0.04736328125,-0.6904296875,0.7265625,1.0034089396643644,-0.86212158203125,0.156402587890625,-1.5277862548828125,1.761205902872177
1782143454.04338,-0.0444335862994194,-0.6845703125,0.73974609375,1.0088781589300857,-0.7419586181640625,-0.2689361572265625,-1.4095306396484375,1.6154274579316301
1782143454.051394,-0.0522460900247097,-0.68359375,0.7275390625,0.9996715242645013,-0.80108642578125,-0.453948974609375,-1.3446807861328125,1.6297164016216563
1782143454.059408,-0.0356445237994194,-0.6904296875,0.7216796875,0.9993924438419237,-0.61798095703125,-0.637054443359375,-1.1615753173828125,1.461846792591537
1782143454.070073,-0.0371093712747097,-0.68359375,0.7358397841453552,1.0050560722698758,-0.5588531494140625,-0.3299713134765625,-0.8563995361328125,1.0745315611074255
1782143454.080738,-0.0419921875,-0.67578125,0.744140625,1.0060759968501327,-0.80108642578125,0.034332275390625,-0.9212493896484375,1.2213183879038645
1782143454.091403,-0.0434570237994194,-0.67138671875,0.72900390625,0.9920157934020777,-0.37384033203125,0.644683837890625,-0.6732940673828125,1.0043399553256418
1782143454.102053,-0.0351562462747097,-0.68896484375,0.72021484375,0.9973053387671335,-0.31280517578125,0.644683837890625,-0.9212493896484375,1.1671181460163076
1782143454.112706,-0.0463867150247097,-0.6669921875,0.73193359375,0.9913410569408536,-0.4978179931640625,0.8907318115234375,-0.5512237548828125,1.1597730563885444
1782143454.123359,-0.046875,-0.685546875,0.7255859375,0.9993231390021046,-0.00762939453125,0.644683837890625,-0.6122589111328125,0.8891211575256975
1782143454.134075,-0.0405273400247097,-0.673828125,0.7211913466453552,0.9878278016975606,0.29754638671875,0.278472900390625,-0.0629425048828125,0.41236242241779714
1782143454.144791,-0.0439453050494194,-0.666015625,0.7211913466453552,0.9826621805362045,0.3604888916015625,0.2193450927734375,0.1811981201171875,0.4592355271817651
1782143454.155507,-0.0424804650247097,-0.66796875,0.72265625,0.9849969017968232,0.1125335693359375,0.0362396240234375,0.4253387451171875,0.4414636595176438
1782143454.166138,-0.0273437462747097,-0.68212890625,0.7358397841453552,1.0037468371722225,-0.1926422119140625,-0.2689361572265625,0.7915496826171875,0.8578977669433014
1782143454.176769,-0.0361328087747097,-0.6787109375,0.72802734375,0.9959808882703318,-0.2536773681640625,0.1583099365234375,1.0318756103515625,1.074328403403312
1782143454.1874,-0.024414055049419403,-0.68994140625,0.7309569716453552,1.005441835482855,-0.31280517578125,0.034332275390625,1.1577606201171875,1.199764742198724
1782143454.195401,-0.0327148400247097,-0.68359375,0.73388671875,1.0034741609800157,-0.61798095703125,-0.453948974609375,1.6460418701171875,1.81588104593364
1782143454.203403,-0.0400390587747097,-0.681640625,0.7211913466453552,0.9931535764191237,-0.49591064453125,-0.331878662109375,1.4629364013671875,1.5799537107675292
1782143454.211405,-0.0302734337747097,-0.693359375,0.7353515625,1.0111407538835004,-0.5588531494140625,-0.5130767822265625,1.4629364013671875,1.6479525301158273
1782143454.219407,-0.0195312462747097,-0.6826171875,0.71826171875,0.9910840483395733,-0.6809234619140625,-0.8792877197265625,1.0967254638671875,1.5619252216868986
1782143454.230073,-0.0273437462747097,-0.67138671875,0.71728515625,0.9828559416063039,-0.67901611328125,-0.820159912109375,1.5201568603515625,1.8559639122571197
1782143454.240739,-0.0302734337747097,-0.681640625,0.72265625,0.9938724657152772,-0.8640289306640625,-0.7572174072265625,1.1577606201171875,1.6310529875897766
1782143454.251405,-0.0249023400247097,-0.67822265625,0.71826171875,0.9881831786724645,-0.86212158203125,-1.186370849609375,1.3408660888671875,1.9871213559521028
1782143454.262069,-0.015136711299419403,-0.6806640625,0.716796875,0.9886002458110819,-0.61798095703125,-0.942230224609375,0.9136199951171875,1.4506549399835313
1782143454.272734,-0.0180664025247097,-0.6669921875,0.71484375,0.9778581492222083,-0.7419586181640625,-1.1234283447265625,0.7266998291015625,1.529930220114378
1782143454.283399,-0.020019523799419403,-0.6806640625,0.7138671875,0.9865651061644738,-0.80108642578125,-0.87738037109375,0.6694793701171875,1.3637222606396402
1782143454.29142,-0.0209960900247097,-0.67333984375,0.7236328125,0.9886717495226918,-0.4329681396484375,0.0362396240234375,0.4863739013671875,0.6521765805601483
1782143454.299439,-0.0219726525247097,-0.6669921875,0.72216796875,0.9833046072980172,-0.49591064453125,0.278472900390625,0.1811981201171875,0.5969148032553468
1782143454.307458,-0.02734375,-0.6748046875,0.73291015625,0.996627485106865,-0.3757476806640625,0.5245208740234375,-0.0629425048828125,0.6482825199954538
1782143454.315477,-0.0263671837747097,-0.67919921875,0.72900390625,0.9967213765434042,-0.2536773681640625,0.2193450927734375,-0.0019073486328125,0.33536266163847206
1782143454.326232,-0.02783203125,-0.66552734375,0.7275390625,0.9864148998802738,-0.0705718994140625,0.4634857177734375,-0.0629425048828125,0.47303399717968475
1782143454.336987,-0.0390624925494194,-0.66357421875,0.7275390625,0.9854794313313826,-0.43487548828125,0.949859619140625,0.3032684326171875,1.0878059241445206
1782143454.347742,-0.0263671837747097,-0.6669921875,0.7314453125,0.9902454502518389,-0.1277923583984375,0.7076263427734375,0.4253387451171875,0.8354513606128181
1782143454.35832,-0.02783203125,-0.6787109375,0.7236328125,0.9925057208763535,-0.31280517578125,0.644683837890625,0.3643035888671875,0.8038541121960111
1782143454.368897,-0.0356445237994194,-0.68017578125,0.7255859375,0.9951806761456379,-0.31280517578125,0.58746337890625,0.1811981201171875,0.68977754260739
1782143454.379474,-0.0439453050494194,-0.67333984375,0.716796875,0.9844366384013379,-0.3757476806640625,0.1583099365234375,0.4253387451171875,0.5892040424372026
1782143454.387456,-0.02783203125,-0.6611328125,0.72412109375,0.9809294450373877,-0.1926422119140625,0.2193450927734375,0.7915496826171875,0.8436671094610129
1782143454.395438,-0.0341796800494194,-0.68310546875,0.7294921875,0.9999800915958142,-0.5588531494140625,0.4024505615234375,0.3032684326171875,0.7524991955494917
1782143454.40342,-0.0351562462747097,-0.67822265625,0.708984375,0.9817743004871712,-0.6809234619140625,0.0972747802734375,0.2384185791015625,0.7279852764466361
1782143454.411402,-0.029785148799419403,-0.673828125,0.72705078125,0.9917329961467726,-0.61798095703125,0.034332275390625,0.4253387451171875,0.7509941520974854
1782143454.422064,-0.0346679650247097,-0.6884765625,0.7265625,1.0015462601982101,-0.7419586181640625,-0.2689361572265625,0.3032684326171875,0.8454590409675687
1782143454.432726,-0.0317382775247097,-0.6826171875,0.72412109375,0.9956530024784448,-0.7419586181640625,-0.0858306884765625,0.3643035888671875,0.8310154047993326
1782143454.443388,-0.0219726525247097,-0.6826171875,0.7158203125,0.9893673442746023,-0.61798095703125,-0.08392333984375,0.1811981201171875,0.6494431067905733
1782143454.451407,-0.0283203087747097,-0.6875,0.7451171875,1.014227742174806,-0.61798095703125,-0.148773193359375,0.2384185791015625,0.6788794776515296
1782143454.459428,-0.037109375,-0.6796875,0.7412109375,1.0063527499037153,-0.19073486328125,0.278472900390625,-0.0019073486328125,0.337536045929455
1782143454.467449,-0.019531242549419403,-0.69140625,0.736328125,1.0102490681216203,0.17547607421875,0.034332275390625,-0.2498626708984375,0.3072489415201017
1782143454.47547,-0.0283203125,-0.67529296875,0.736328125,0.9995007460774112,0.35858154296875,-0.026702880859375,-0.0629425048828125,0.3650418136665475
1782143454.48611,-0.030761711299419403,-0.68017578125,0.72900390625,0.997512943078372,0.54168701171875,-0.148773193359375,-0.7381439208984375,0.9275854298588643
1782143454.49675,-0.0219726525247097,-0.67626953125,0.7216796875,0.9892648016108548,0.66375732421875,0.156402587890625,-0.6122589111328125,0.9164586893114477
1782143454.50739,-0.025390617549419403,-0.6796875,0.7119140625,0.9846021600123802,0.2346038818359375,0.1583099365234375,-0.6122589111328125,0.6745087038994253
1782143454.518417,-0.0366210900247097,-0.6689453125,0.7216796875,0.9847083358540326,0.6618499755859375,0.7076263427734375,-0.7953643798828125,1.2535489332117784
1782143454.529446,-0.02392578125,-0.6826171875,0.720703125,0.9929509867378141,0.2346038818359375,0.4634857177734375,-1.1043548583984375,1.2204333841798503
1782143454.540475,-0.0087890625,-0.66650390625,0.73779296875,0.9943053702978156,0.6008148193359375,0.5855560302734375,-1.4095306396484375,1.6403142795912604
1782143454.548209,-0.015624996274709702,-0.68408203125,0.7309569716453552,1.001254443378235,0.2346038818359375,0.5855560302734375,-1.8329620361328125,1.9384696726712602
1782143454.555944,-0.0263671837747097,-0.67529296875,0.72509765625,0.9912025187229101,0.35858154296875,0.766754150390625,-1.7147064208984375,1.9122527970876204
1782143454.563679,-0.033203125,-0.693359375,0.7353515625,1.0112327085697672,0.48065185546875,0.766754150390625,-1.8329620361328125,2.044183934779585
1782143454.571414,-0.0390624925494194,-0.67724609375,0.7255859375,0.9933091676419589,0.4177093505859375,0.5855560302734375,-2.0160675048828125,2.140533847058
1782143454.582058,-0.024414055049419403,-0.68115234375,0.728515625,0.9976470204181511,0.5435943603515625,0.7076263427734375,-1.5926361083984375,1.8255737846955007
1782143454.592702,-0.01708984375,-0.67578125,0.724609375,0.9909748265969487,0.90789794921875,0.766754150390625,-1.5277862548828125,1.9355416435576145
1782143454.603346,-0.0400390587747097,-0.69287109375,0.73291015625,1.0093714756799328,0.41961669921875,0.766754150390625,-1.3446807861328125,1.6037944126350006
1782143454.611364,-0.0498046800494194,-0.68408203125,0.72021484375,0.9945643029949285,1.15203857421875,0.949859619140625,-1.3446807861328125,2.009376169152183
1782143454.619381,-0.0346679612994194,-0.68603515625,0.7309569716453552,1.003067394320326,1.0890960693359375,0.8907318115234375,-1.2836456298828125,1.904541811412933
1782143454.627398,-0.02294921875,-0.68017578125,0.7358397841453552,1.002310305230554,1.5773773193359375,0.5245208740234375,-1.1043548583984375,1.9957056416490815
1782143454.635415,-0.0190429650247097,-0.66796875,0.7255859375,0.9864176793788971,2.18963623046875,0.156402587890625,-1.3446807861328125,2.574322242431013
1782143454.64614,-0.017578125,-0.669921875,0.724609375,0.9869969885566632,1.7032623291015625,0.5245208740234375,-1.2836456298828125,2.1963539815202906
1782143454.656865,-0.0366210900247097,-0.66943359375,0.72998046875,0.9911376924686638,1.27410888671875,0.644683837890625,-1.2264251708984375,1.8823095935223673
1782143454.66759,-0.0234375,-0.6669921875,0.7158203125,0.9786861674611953,0.90789794921875,0.766754150390625,-1.4667510986328125,1.8877365808495166
1782143454.678295,-0.0400390587747097,-0.66845703125,0.7236328125,0.9859423797473097,0.96893310546875,1.132965087890625,-1.2264251708984375,1.9304299917545804
1782143454.689,-0.0390624925494194,-0.67578125,0.728515625,0.9944552237506104,0.9670257568359375,1.0128021240234375,-0.9784698486328125,1.7083062376207678
1782143454.699705,-0.02880859375,-0.6650390625,0.73193359375,0.9893602353968556,0.84686279296875,1.010894775390625,-0.4329681396484375,1.3880008094297074
1782143454.707682,-0.0356445275247097,-0.662109375,0.73779296875,0.9919666433617054,1.45721435546875,0.766754150390625,0.1811981201171875,1.656568249019477
1782143454.715658,-0.0473632775247097,-0.681640625,0.72998046875,0.9998743453378245,1.45721435546875,0.949859619140625,0.1811981201171875,1.7488681289886268
1782143454.723634,-0.0473632775247097,-0.66748046875,0.73388671875,0.9931581808444433,1.15203857421875,0.949859619140625,-0.0019073486328125,1.493127526549809
1782143454.73161,-0.0415039025247097,-0.67626953125,0.73193359375,0.9973915171494419,0.9059906005859375,0.8907318115234375,0.4863739013671875,1.3604343792851719
1782143454.742309,-0.02783203125,-0.67041015625,0.724609375,0.9875642490008136,0.6008148193359375,0.8296966552734375,0.6694793701171875,1.2237555368283777
1782143454.753008,-0.0278320275247097,-0.6669921875,0.71435546875,0.9777305025799305,0.66375732421875,0.58746337890625,1.0318756103515625,1.3603140380987004
1782143454.763707,-0.0205078087747097,-0.66748046875,0.7177734375,0.9803822999034745,-0.0705718994140625,0.3414154052734375,0.7266998291015625,0.806000938933184
1782143454.774299,-0.0346679650247097,-0.662109375,0.71044921875,0.9717658075299472,-0.12969970703125,0.58746337890625,0.8525848388671875,1.0434731156221173
1782143454.784893,-0.0234375,-0.6689453125,0.71630859375,0.9803750042723831,-0.12969970703125,0.58746337890625,0.4253387451171875,0.7367823855507162
1782143454.795487,-0.0278320275247097,-0.677734375,0.72265625,0.9911259054614804,-0.1926422119140625,1.0128021240234375,0.6694793701171875,1.2292606685524576
1782143454.806121,-0.0283203087747097,-0.67236328125,0.7255859375,0.9896208236289874,0.2956390380859375,0.7076263427734375,0.1811981201171875,0.7880166499264413
1782143454.816755,-0.0302734337747097,-0.6767578125,0.7333984375,0.9983941534783436,0.1125335693359375,0.8296966552734375,0.2384185791015625,0.8705766840779873
1782143454.827389,-0.0434570237994194,-0.66357421875,0.73388671875,0.9903580022723185,0.54168701171875,0.949859619140625,-0.0019073486328125,1.093463192209765
1782143454.835377,-0.033203125,-0.681640625,0.71875,0.9911296341347867,0.4177093505859375,1.0738372802734375,-0.0019073486328125,1.1522201369750427
1782143454.843367,-0.0273437462747097,-0.66650390625,0.72998046875,0.9888612755403633,0.60272216796875,0.949859619140625,0.1201629638671875,1.1313471817794352
1782143454.851357,-0.0283203125,-0.67919921875,0.73974609375,1.0046581020770657,0.7228851318359375,0.4634857177734375,-0.2498626708984375,0.8943228045386745
1782143454.859347,-0.0307617150247097,-0.6611328125,0.7177734375,0.9763409171267934,0.7228851318359375,0.6465911865234375,-0.2498626708984375,1.0015360356111749
1782143454.870056,-0.0249023400247097,-0.6728515625,0.71826171875,0.9845045699838583,0.5435943603515625,1.0128021240234375,-0.3681182861328125,1.206968948903728
1782143454.880765,-0.0351562462747097,-0.66845703125,0.72705078125,0.9882679812661781,0.4177093505859375,1.3790130615234375,-0.5512237548828125,1.542726726729746
1782143454.891474,-0.0429687462747097,-0.6630859375,0.72802734375,0.9856739252482816,0.2346038818359375,1.1348724365234375,-0.2498626708984375,1.1854981159249622
1782143454.902099,-0.0522460900247097,-0.66650390625,0.72802734375,0.9884234538987121,0.2956390380859375,1.0738372802734375,-0.1239776611328125,1.1206691776815287
1782143454.912725,-0.0615234337747097,-0.66845703125,0.72705078125,0.9895568574100378,0.17547607421875,1.438140869140625,0.3032684326171875,1.4802069971250178
1782143454.923351,-0.0541992112994194,-0.66357421875,0.73486328125,0.9916109824042231,-0.0705718994140625,2.1114349365234375,1.6460418701171875,2.678169472295868
1782143454.931366,-0.0546874925494194,-0.67041015625,0.7333984375,0.9951450987529072,-0.2536773681640625,3.3321380615234375,2.6226043701171875,4.248005408462846
1782143454.939382,-0.0742187425494194,-0.68359375,0.7456054091453552,1.0142663668541376,-0.49591064453125,3.391265869140625,3.6563873291015625,5.011564612271498
1782143454.947398,-0.0537109300494194,-0.66845703125,0.7407225966453552,0.999194491485704,-0.3147125244140625,3.3321380615234375,4.4536590576171875,5.571110036211083
1782143454.955414,-0.0478515625,-0.66162109375,0.73876953125,0.9928809918776683,-0.0705718994140625,3.9424896240234375,4.8160552978515625,6.224354862994516
1782143454.966082,-0.0463867150247097,-0.67138671875,0.7275390625,0.9910726214097805,0.2346038818359375,4.3087005615234375,5.3043365478515625,6.837830483648941
1782143454.97675,-0.0483398362994194,-0.6728515625,0.73681640625,0.9989816722299318,0.17547607421875,4.428863525390625,5.0640106201171875,6.7297717301419935
1782143454.987418,-0.04150390625,-0.669921875,0.7265625,0.9891465812728538,0.7839202880859375,4.4918060302734375,5.0640106201171875,6.814327258969385
1782143454.998078,-0.04248046875,-0.67919921875,0.71826171875,0.9894524069390777,0.7228851318359375,3.5152435302734375,4.3277740478515625,5.622199587369361
1782143455.008737,-0.04296875,-0.67431640625,0.7333984375,0.9972071988016928,0.35858154296875,3.452301025390625,3.9653778076171875,5.26983721285714
1782143455.019396,-0.0512695275247097,-0.68310546875,0.7421875,1.0100019460600134,0.0553131103515625,2.8438568115234375,3.7822723388671875,4.732458679162965
1782143455.030069,-0.0410156212747097,-0.6767578125,0.7358397841453552,1.0005716395638138,0.35858154296875,2.109527587890625,3.0498504638671875,3.725624138178781
1782143455.04074,-0.0336913987994194,-0.68115234375,0.7431640625,1.0086607207285727,0.2956390380859375,1.3790130615234375,2.3746490478515625,2.7618902159852325
1782143455.051411,-0.0366210900247097,-0.6787109375,0.73681640625,1.0024410493569644,0.35858154296875,0.89263916015625,1.7032623291015625,1.9561410876873846
1782143455.059392,-0.029296867549419403,-0.6796875,0.72998046875,0.9978501334674099,0.35858154296875,0.58746337890625,0.6694793701171875,0.9601544519119327
1782143455.067376,-0.0473632775247097,-0.673828125,0.73779296875,1.00031299443516,0.35858154296875,0.339508056640625,0.0553131103515625,0.4968963510215259
1782143455.07536,-0.0395507737994194,-0.67578125,0.72998046875,0.9955481135114289,0.2346038818359375,-0.1468658447265625,-0.1850128173828125,0.3329238656444792
1782143455.083344,-0.0336913987994194,-0.66650390625,0.72314453125,0.9840226524203355,-0.1926422119140625,-0.4520416259765625,-0.8563995361328125,0.9873564801606224
1782143455.094043,-0.0395507775247097,-0.66845703125,0.73193359375,0.992031175059616,-0.0705718994140625,-0.2689361572265625,-0.8563995361328125,0.900403917772016
1782143455.104742,-0.0556640587747097,-0.67919921875,0.7358397841453552,1.002930832171874,-0.0095367431640625,-0.2689361572265625,-1.2264251708984375,1.2556019695537393
1782143455.115441,-0.0410156212747097,-0.65673828125,0.73291015625,0.9849592622957327,0.4787445068359375,-0.0858306884765625,-1.1043548583984375,1.2067157342051105
1782143455.126189,-0.0405273400247097,-0.6787109375,0.72021484375,0.9904546547568164,0.60272216796875,-0.514984130859375,-1.6498565673828125,1.8304396629591846
1782143455.136939,-0.0527343712747097,-0.67724609375,0.734375,1.000374842765637,0.54168701171875,-0.209808349609375,-1.6498565673828125,1.7491343731019626
1782143455.147689,-0.0512695275247097,-0.6689453125,0.720703125,0.9846468351409531,0.66375732421875,0.09918212890625,-1.5926361083984375,1.728265215157364
1782143455.155603,-0.0541992112994194,-0.6708984375,0.724609375,0.9889898959460157,0.2956390380859375,0.2193450927734375,-1.2836456298828125,1.3353878888478092
1782143455.163517,-0.0546874962747097,-0.681640625,0.724609375,0.9963349889655977,-0.1926422119140625,0.0362396240234375,-0.9212493896484375,0.9418730116571561
1782143455.171431,-0.0493164025247097,-0.68310546875,0.7236328125,0.9963481501567595,-0.00762939453125,0.339508056640625,-0.9784698486328125,1.0357254331473793
1782143455.179345,-0.0605468712747097,-0.6669921875,0.71337890625,0.9784957668225437,-0.1926422119140625,0.4024505615234375,-0.9212493896484375,1.0236102354945906
1782143455.190022,-0.04296875,-0.67138671875,0.736328125,0.9973893659230931,-0.55694580078125,0.766754150390625,-0.9212493896484375,1.3216659903609291
1782143455.200699,-0.0366210900247097,-0.66796875,0.73291015625,0.9923107639976299,-0.3757476806640625,0.8907318115234375,-0.7381439208984375,1.216324762365531
1782143455.211376,-0.0517578087747097,-0.673828125,0.73828125,1.0008908116831414,0.1125335693359375,1.3179779052734375,-0.7953643798828125,1.543481149804822
1782143455.222044,-0.0478515625,-0.68115234375,0.736328125,1.0042098361875496,0.0553131103515625,0.5245208740234375,-0.6122589111328125,0.8081105504351568
1782143455.232711,-0.0629882737994194,-0.67431640625,0.73779296875,1.0015031717928227,-0.0095367431640625,0.5245208740234375,-0.3070831298828125,0.6078759292940562
1782143455.243378,-0.0458984337747097,-0.68359375,0.73779296875,1.0068493164316954,0.6008148193359375,0.4024505615234375,-0.4329681396484375,0.8428560443841132
1782143455.251382,-0.0502929650247097,-0.6689453125,0.7265625,0.9888934623370453,0.35858154296875,0.461578369140625,-0.3070831298828125,0.6602540136000635
1782143455.259388,-0.0449218675494194,-0.68603515625,0.72705078125,1.000632324238691,0.54168701171875,-0.026702880859375,-0.0629425048828125,0.545985001105252
1782143455.267394,-0.0507812462747097,-0.6669921875,0.73828125,0.9962512319996449,0.66375732421875,-0.148773193359375,0.1811981201171875,0.7039460258076492
1782143455.2754,-0.0463867150247097,-0.6845703125,0.7314453125,1.0028960490825327,0.5435943603515625,-0.0858306884765625,0.1811981201171875,0.5793914863237013
1782143455.286073,-0.0356445275247097,-0.67138671875,0.72998046875,0.9924223613022941,0.9059906005859375,-0.0247955322265625,0.2384185791015625,0.9371644496187819
1782143455.296746,-0.03759765625,-0.6708984375,0.7294921875,0.9918049953589515,1.0318756103515625,0.0362396240234375,0.3032684326171875,1.0761283974553666
1782143455.307419,-0.0356445237994194,-0.68017578125,0.728515625,0.9973187260575607,0.9670257568359375,0.2193450927734375,0.5435943603515625,1.13081648056346
1782143455.318073,-0.0537109300494194,-0.6552734375,0.73291015625,0.9845940478360812,0.7839202880859375,0.0362396240234375,0.4253387451171875,0.8926126688099173
1782143455.328728,-0.025390617549419403,-0.66015625,0.72509765625,0.9809268927768504,0.84686279296875,0.58746337890625,0.1201629638671875,1.037655506204312
1782143455.339383,-0.0449218712747097,-0.6728515625,0.72802734375,0.9923562933368204,1.2149810791015625,1.0738372802734375,-0.0019073486328125,1.6215144664968788
1782143455.347564,-0.02880859375,-0.66357421875,0.73828125,0.9930860400615286,1.64031982421875,1.621246337890625,-0.6732940673828125,2.4025847987161004
1782143455.355745,-0.0488281175494194,-0.68115234375,0.7373046875,1.0049730855445884,1.7032623291015625,1.8672943115234375,-0.4329681396484375,2.5642449215187884
1782143455.363926,-0.0556640587747097,-0.6669921875,0.73046875,0.9907379372729561,1.7032623291015625,1.6841888427734375,-0.3070831298828125,2.4149316074203084
1782143455.372107,-0.0419921837747097,-0.66796875,0.72802734375,0.9889233578606647,1.51824951171875,1.74713134765625,-0.1239776611328125,2.31795599316668
1782143455.382715,-0.06689453125,-0.671875,0.7236328125,0.9897147777328665,1.3942718505859375,2.0503997802734375,-0.3070831298828125,2.498486201871109
1782143455.393323,-0.0585937425494194,-0.66162109375,0.7265625,0.9844129035964247,1.51824951171875,1.499176025390625,0.3643035888671875,2.164561720025966
1782143455.403931,-0.0605468712747097,-0.666015625,0.7314453125,0.9910877769115708,0.7839202880859375,1.0738372802734375,0.7266998291015625,1.5151733116030102
1782143455.414514,-0.0561523400247097,-0.68115234375,0.72802734375,0.9985716869279088,0.9059906005859375,0.3414154052734375,1.2149810791015625,1.5535644402093176
1782143455.425097,-0.04296875,-0.669921875,0.7294921875,0.991362942470422,0.5435943603515625,0.2193450927734375,1.1577606201171875,1.2976967102616646
1782143455.43568,-0.0434570237994194,-0.6767578125,0.73486328125,0.9999568449822247,0.60272216796875,0.278472900390625,1.0318756103515625,1.2270242227647044
1782143455.443913,-0.0498046800494194,-0.67138671875,0.740234375,1.00059360491678,0.7228851318359375,-0.1468658447265625,0.9136199951171875,1.1742376189062576
1782143455.452147,-0.0327148400247097,-0.67333984375,0.744140625,1.0040926629123965,0.66375732421875,0.09918212890625,0.5435943603515625,0.8636583287124806
1782143455.460381,-0.0415039025247097,-0.67578125,0.72998046875,0.9956276194103962,0.78582763671875,-0.209808349609375,0.1811981201171875,0.8332930918535135
1782143455.468615,-0.0361328087747097,-0.66796875,0.7294921875,0.9897710252730413,0.9670257568359375,0.0362396240234375,0.1201629638671875,0.9751365353727779
1782143455.478979,-0.0385742112994194,-0.68603515625,0.7197265625,0.9950570486943955,0.9059906005859375,0.3414154052734375,-0.4901885986328125,1.0852042708806917
1782143455.489343,-0.0346679612994194,-0.673828125,0.73828125,1.0001526951837085,1.02996826171875,0.156402587890625,-0.3681182861328125,1.104901562236287
1782143455.499707,-0.0581054612994194,-0.6669921875,0.7490234375,1.0046347260289035,0.96893310546875,0.156402587890625,-0.3681182861328125,1.0482386202375678
1782143455.51028,-0.0468749962747097,-0.673828125,0.73974609375,1.001731446314407,0.9670257568359375,-0.2689361572265625,-0.7381439208984375,1.2459221159475526
1782143455.520852,-0.0488281175494194,-0.68212890625,0.73046875,1.0006341112173838,1.09100341796875,0.278472900390625,-1.1043548583984375,1.5771605078557145
1782143455.531424,-0.0405273400247097,-0.66796875,0.72509765625,0.9867073159581234,0.54168701171875,0.09918212890625,-0.7953643798828125,0.9674018865732773
1782143455.542154,-0.0410156212747097,-0.66259765625,0.72412109375,0.9823794041358155,0.6008148193359375,0.3414154052734375,-0.3070831298828125,0.7562029983743288
1782143455.552885,-0.0576171875,-0.66943359375,0.72216796875,0.9864013644683137,0.6008148193359375,0.4024505615234375,-0.3681182861328125,0.8114530018365602
1782143455.563616,-0.0478515625,-0.666015625,0.72314453125,0.984278719598577,0.35858154296875,0.156402587890625,-0.2498626708984375,0.46419160566002815
1782143455.571587,-0.0493163987994194,-0.654296875,0.73291015625,0.9837142903097974,0.48065185546875,-0.209808349609375,-0.4901885986328125,0.7178653160314701
1782143455.579558,-0.0629882737994194,-0.66796875,0.7412109375,0.9997716876779528,0.4787445068359375,0.0362396240234375,-0.1239776611328125,0.4958629585227229
1782143455.587529,-0.0439453050494194,-0.66845703125,0.7309569716453552,0.9914958834308888,0.7228851318359375,0.4634857177734375,0.1811981201171875,0.8776187572878226
1782143455.5955,-0.0493163987994194,-0.65966796875,0.73779296875,0.9909250228560347,0.35858154296875,0.949859619140625,0.3032684326171875,1.0596158555126987
1782143455.603551,-0.05712890625,-0.66552734375,0.7490234375,1.0036067293180972,0.48065185546875,1.255035400390625,0.3032684326171875,1.3777197845067386
1782143455.611602,-0.04736328125,-0.6591796875,0.74853515625,0.9985319328722423,-0.0095367431640625,1.8672943115234375,0.3643035888671875,1.9025236135668535
1782143455.619653,-0.0683593675494194,-0.685546875,0.751953125,1.0198436268130953,0.29754638671875,2.902984619140625,0.2384185791015625,2.92791683114074
1782143455.627704,-0.0576171837747097,-0.68701171875,0.75244140625,1.0205258014403336,0.11444091796875,3.879547119140625,0.2384185791015625,3.8885506287302807
1782143455.638271,-0.07080078125,-0.6826171875,0.75732421875,1.0220170975092924,0.11444091796875,4.062652587890625,0.3643035888671875,4.080558770372194
1782143455.648838,-0.0654296875,-0.67919921875,0.76416015625,1.0244673577801209,0.54168701171875,3.574371337890625,-0.0019073486328125,3.615184492910094
1782143455.659405,-0.0566406212747097,-0.67333984375,0.75830078125,1.0156843899578352,0.96893310546875,3.452301025390625,-0.6732940673828125,3.648361088757439
1782143455.667409,-0.0400390587747097,-0.6826171875,0.75732421875,1.0203476482078413,1.76239013671875,4.062652587890625,-0.8563995361328125,4.510497224185647
1782143455.675414,-0.0581054612994194,-0.68115234375,0.76904296875,1.0289663978054628,1.88446044921875,3.879547119140625,-1.1615753173828125,4.466691645083086
1782143455.683419,-0.0590820275247097,-0.67724609375,0.75341796875,1.0147864766104446,1.82342529296875,3.70025634765625,-1.7719268798828125,4.489599281122958
1782143455.691424,-0.0439453050494194,-0.65673828125,0.75830078125,1.0041197312768289,2.18963623046875,2.964019775390625,-2.5043487548828125,4.45552272317976
1782143455.702096,-0.0502929650247097,-0.66796875,0.7578125,1.0114303824108652,2.55584716796875,2.414703369140625,-2.9315948486328125,4.57792479880168
1782143455.712768,-0.0468749962747097,-0.67333984375,0.74658203125,1.0064633822660438,2.7370452880859375,2.2335052490234375,-2.9315948486328125,4.590665633977182
1782143455.72344,-0.0732421800494194,-0.68115234375,0.734375,1.004310496290619,2.73895263671875,1.621246337890625,-3.4809112548828125,4.716677262510356
1782143455.734088,-0.0576171875,-0.67919921875,0.73046875,0.9991075586605193,2.98309326171875,0.461578369140625,-3.2978057861328125,4.4707295827438935
1782143455.744739,-0.0693359300494194,-0.67578125,0.73681640625,1.0021906932148918,2.8591156005859375,-1.1844635009765625,-3.3626556396484375,4.5700053340799265
1782143455.75539,-0.0673828050494194,-0.658203125,0.72216796875,0.9794377832535329,2.98309326171875,-1.979827880859375,-3.1757354736328125,4.785797701995954
1782143455.766072,-0.0483398362994194,-0.671875,0.72265625,0.9879194355120853,2.9850006103515625,-2.8934478759765625,-2.9315948486328125,5.086896658211461
1782143455.776756,-0.05224609375,-0.669921875,0.7109375,0.9782418421954253,2.9201507568359375,-3.6869049072265625,-2.3860931396484375,5.273896918660635
1782143455.78744,-0.0385742112994194,-0.6591796875,0.7255859375,0.9810610495212435,3.2253265380859375,-4.2362213134765625,-2.4433135986328125,5.858163845036987
1782143455.798107,-0.0283203125,-0.6640625,0.71240234375,0.9743193231106734,3.1032562255859375,-4.8465728759765625,-3.0574798583984375,6.51672087236378
1782143455.808772,-0.0258789025247097,-0.654296875,0.69384765625,0.9540433367066022,2.8591156005859375,-4.6634674072265625,-2.9315948486328125,6.206183902553063
1782143455.819437,-0.010742183774709702,-0.6474609375,0.71484375,0.9645323462770397,2.67791748046875,-4.421234130859375,-3.2367706298828125,6.098789829347124
1782143455.827431,-0.0205078087747097,-0.64794921875,0.72265625,0.9708196619164333,2.18963623046875,-5.092620849609375,-4.0912628173828125,6.889682531187969
1782143455.835426,0.00048828125,-0.65673828125,0.7177734375,0.9728844309877457,1.94549560546875,-4.604339599609375,-4.5795440673828125,6.77916810269006
1782143455.843421,-0.010742183774709702,-0.6484375,0.69775390625,0.9526001782519429,1.27410888671875,-3.932952880859375,-5.1937103271484375,6.638230093978671
1782143455.851416,-0.0087890625,-0.65869140625,0.68701171875,0.9518070802358325,-0.1926422119140625,-2.7103424072265625,-5.0678253173828125,5.750297421327702
1782143455.862073,-0.0268554650247097,-0.6494140625,0.6962890625,0.9525115742769619,-1.1692047119140625,-1.9168853759765625,-5.2509307861328125,5.7108461127710495
1782143455.87273,-0.0268554650247097,-0.67333984375,0.71826171875,0.9848896678332411,-1.2302398681640625,-1.6727447509765625,-4.5223236083984375,4.976241147112732
1782143455.883387,-0.0468749962747097,-0.6572265625,0.7309569716453552,0.9840945656430936,-1.3523101806640625,-2.2830963134765625,-3.9691925048828125,4.77449062646015
1782143455.891384,-0.0336914025247097,-0.6630859375,0.76171875,1.010462035514397,-0.92315673828125,-2.468109130859375,-3.8509368896484375,4.666207879351356
1782143455.899383,-0.02783203125,-0.68408203125,0.7509765028953552,1.0162226898389763,-0.98419189453125,-0.38909912109375,-3.2978057861328125,3.463459948425562
1782143455.907382,-0.0434570237994194,-0.67919921875,0.75146484375,1.0138537878117957,-1.2302398681640625,1.3790130615234375,-2.5691986083984375,3.164798357947792
1782143455.915381,-0.0507812462747097,-0.67236328125,0.763671875,1.0187471961249734,-1.47247314453125,2.54058837890625,-1.7147064208984375,3.40043888083135
1782143455.926069,-0.0517578087747097,-0.68896484375,0.7470703125,1.017578241960523,-1.89971923828125,2.109527587890625,-0.8563995361328125,2.9652082547193928
1782143455.936757,-0.0415039025247097,-0.6943359375,0.7456054091453552,1.019682496748668,-2.1457672119140625,1.6841888427734375,0.1811981201171875,2.733796214896418
1782143455.947445,-0.0317382775247097,-0.6923828125,0.73876953125,1.013006267309828,-2.26593017578125,2.54058837890625,0.9136199951171875,3.524731247631153
1782143455.958095,-0.0185546837747097,-0.70263671875,0.7529296875,1.0300222080832013,-2.8781890869140625,4.4307708740234375,1.2798309326171875,5.436328740446939
1782143455.968743,-0.0253906212747097,-0.697265625,0.7407225966453552,1.01759225657254,-3.73077392578125,5.34820556640625,1.0967254638671875,6.612471822920892
1782143455.979391,-0.0004882737994194031,-0.7041015625,0.74267578125,1.023389742366779,-4.89044189453125,6.381988525390625,0.2384185791015625,8.043820167113683
1782143455.990081,0.0166015625,-0.70068359375,0.70458984375,0.9938208884620537,-6.4792633056640625,7.2994232177734375,-0.3681182861328125,9.767187075554562
1782143456.000773,0.03369140625,-0.6943359375,0.7211913466453552,1.0016758275186874,-7.6999664306640625,9.069442749023438,-2.1991729736328125,12.098786574657984
1782143456.011465,0.014160159975290298,-0.68408203125,0.7358397841453552,1.004802927713059,-8.67462158203125,10.349273681640625,-3.4198760986328125,13.930257637924061
1782143456.022109,0.0214843787252903,-0.6826171875,0.7490234375,1.0136389461361173,-8.55255126953125,10.593414306640625,-6.9637298583984375,15.292484867765893
1782143456.032755,0.0048828125,-0.6943359375,0.7119140625,0.9944585805085941,-7.9441070556640625,10.656356811523438,-8.363723754882812,15.704096677438807
1782143456.043401,-0.00048827752470970154,-0.693359375,0.68994140625,0.9781444706041942,-8.18634033203125,10.593414306640625,-9.401321411132812,16.359139310471196
1782143456.051423,-0.0302734337747097,-0.70361328125,0.666015625,0.9693115820457547,-9.34600830078125,10.654449462890625,-10.076522827148438,17.389694557455744
1782143456.059445,-0.0532226487994194,-0.69775390625,0.6845703125,0.9789431427762839,-10.38360595703125,10.593414306640625,-10.438919067382812,18.138652944427864
1782143456.067467,-0.0654296800494194,-0.70458984375,0.693359375,0.9906942585113782,-11.78741455078125,10.105133056640625,-10.377883911132812,18.675045658774973
1782143456.075489,-0.0620117150247097,-0.7060546875,0.7041015625,0.9990583991218781,-12.643814086914062,9.191513061523438,-9.950637817382812,18.53011440864118
1782143456.083466,-0.0629882737994194,-0.71923828125,0.69873046875,1.0047365305448386,-12.51983642578125,8.640289306640625,-9.099960327148438,17.725974765480256
1782143456.091443,-0.0561523400247097,-0.71728515625,0.71923828125,1.0173272756995615,-12.58087158203125,7.78961181640625,-8.058547973632812,16.849230767521668
1782143456.09942,-0.0546874925494194,-0.71435546875,0.7353515625,1.0266627382181388,-11.419296264648438,6.4449310302734375,-7.4520111083984375,15.082106375585902
1782143456.107397,-0.02392578125,-0.7177734375,0.71826171875,1.0157120887390745,-10.99395751953125,4.917144775390625,-7.2650909423828125,14.065097265376512
1782143456.118051,-0.00048827752470970154,-0.7119140625,0.69677734375,0.9961528685716368,-10.62774658203125,3.818511962890625,-7.5092315673828125,13.561658812814686
1782143456.128705,0.01171875,-0.7158203125,0.7109375,1.0089440905200893,-10.385513305664062,4.6749114990234375,-8.123397827148438,13.989398714882165
1782143456.139359,-0.00341796875,-0.7080078125,0.72314453125,1.0120398994843007,-10.44464111328125,5.893707275390625,-8.913040161132812,14.942175154481486
1782143456.147404,0.01123046875,-0.70947265625,0.74365234375,1.0278600983400628,-10.62774658203125,7.175445556640625,-9.157180786132812,15.757219814996253
1782143456.155449,-0.011230465024709702,-0.708984375,0.7265625,1.0152231448036741,-9.225845336914062,7.1163177490234375,-9.950637817382812,15.322316843690903
1782143456.163494,-0.0009765587747097015,-0.70849609375,0.7041015625,0.9988626926865327,-7.51495361328125,6.259918212890625,-10.499954223632812,14.349569420029063
1782143456.171539,-0.0058593712747097015,-0.69677734375,0.716796875,0.9996653234982227,-6.66046142578125,6.198883056640625,-10.931015014648438,14.222341115466744
1782143456.182298,-0.00341796875,-0.70166015625,0.70947265625,0.9978427267588721,-5.86700439453125,5.893707275390625,-10.931015014648438,13.734795785300594
1782143456.193057,-0.00927734375,-0.69091796875,0.70849609375,0.9896567200336137,-5.68389892578125,5.893707275390625,-11.293411254882812,13.949323647345896
1782143456.203816,-0.0063476525247097015,-0.69775390625,0.693359375,0.9836910232792098,-5.19561767578125,5.83648681640625,-11.781692504882812,14.137443180101073
1782143456.214332,-0.014648430049419403,-0.689453125,0.67626953125,0.9658678310060197,-5.1364898681640625,5.4683685302734375,-11.964797973632812,14.122428017111108
1782143456.224849,-0.0004882737994194031,-0.69921875,0.65966796875,0.9612850398074531,-5.8078765869140625,5.3462982177734375,-12.025833129882812,14.38523540127095
1782143456.235366,-0.005859367549419403,-0.71044921875,0.666015625,0.9738322429221088,-6.2961578369140625,5.7735443115234375,-11.907577514648438,14.654890640732194
1782143456.243371,-0.0273437462747097,-0.70751953125,0.708984375,1.0019932193157277,-6.90460205078125,6.381988525390625,-11.964797973632812,15.217085712044803
1782143456.251378,-0.0317382775247097,-0.6884765625,0.6923828125,0.9769346213628946,-6.72149658203125,7.358551025390625,-11.964797973632812,15.571871436837098
1782143456.259385,-0.05224609375,-0.708984375,0.67626953125,0.9811875341663128,-7.69805908203125,8.46099853515625,-12.147903442382812,16.685927240876254
1782143456.267392,-0.0454101525247097,-0.67724609375,0.65380859375,0.9424383431892527,-8.676528930664062,9.557723999023438,-11.907577514648438,17.561965852190923
1782143456.278063,-0.0395507737994194,-0.68994140625,0.6357421875,0.9390162601007745,-11.362075805664062,10.412216186523438,-11.781692504882812,19.398950765651456
1782143456.288734,-0.0390624962747097,-0.677734375,0.6494140625,0.9394617534762159,-14.780044555664062,11.571884155273438,-11.598587036132812,22.06548076079992
1782143456.299405,-0.0624999962747097,-0.68798828125,0.68310546875,0.9715282837405327,-17.461776733398438,12.182235717773438,-10.866165161132812,23.903850298214856
1782143456.310118,-0.0776367112994194,-0.6904296875,0.71728515625,0.9986083354846003,-16.48712158203125,10.959625244140625,-8.913040161132812,21.71130692672948
1782143456.320834,-0.07958984375,-0.70849609375,0.728515625,1.0193312876372915,-14.04571533203125,9.372711181640625,-8.058547973632812,18.710158458074332
1782143456.33155,-0.07666015625,-0.697265625,0.71337890625,1.000482681132143,-12.338638305664062,7.7266693115234375,-6.5326690673828125,15.956791000435484
1782143456.339521,-0.0722656175494194,-0.69970703125,0.68505859375,0.9818948650090878,-10.44464111328125,6.81304931640625,-5.0106048583984375,13.439283091743945
1782143456.347493,-0.08056640625,-0.71435546875,0.681640625,0.9906707945626856,-9.347915649414062,5.9566497802734375,-4.0340423583984375,11.795706903053532
1782143456.355465,-0.08642578125,-0.70166015625,0.68408203125,0.9837502813278242,-8.85772705078125,4.062652587890625,-2.2602081298828125,10.003650101159309
1782143456.363437,-0.0834960862994194,-0.7080078125,0.68701171875,0.9900665435657263,-7.9441070556640625,1.5010833740234375,-0.3681182861328125,8.093058709796098
1782143456.371448,-0.0966796800494194,-0.71533203125,0.708984375,1.0117834350595238,-7.51495361328125,-1.36566162109375,1.3980865478515625,7.764934350551898
1782143456.379459,-0.08837890625,-0.7119140625,0.73828125,1.029413263736563,-6.05010986328125,-4.299163818359375,3.0498504638671875,8.024227485983577
1782143456.38747,-0.0712890625,-0.71923828125,0.7460936903953552,1.038769286461312,-3.9157867431640625,-6.4945220947265625,4.7588348388671875,8.953139788948176
