timestamp,accel_x,accel_y,accel_z,accel_rms,gyro_x,gyro_y,gyro_z,gyro_rms
1785342492.28821,-0.0244140587747097,-0.13623046875,0.9843749403953552,0.9940567439336946,-0.00762939453125,0.05340576171875,-0.1087188720703125,0.12136793724008968
1785342492.298891,-0.0224609337747097,-0.1396484375,0.9970702528953552,1.0070527636876982,0.17547607421875,-0.00762939453125,-0.2307891845703125,0.29002363351762817
1785342492.309572,-0.0283203087747097,-0.1416015625,0.9833983778953552,0.9939443706962439,0.35858154296875,-0.31280517578125,0.1926422119140625,0.5133603244939472
1785342492.317578,-0.0219726525247097,-0.15283203125,0.9804686903953552,0.9925519029655605,-0.00762939453125,-0.00762939453125,0.2574920654296875,0.2577180224219358
1785342492.325585,-0.0273437462747097,-0.15576171875,0.9755858778953552,0.988320392705291,0.29754638671875,-0.00762939453125,0.3757476806640625,0.47935204123349645
1785342492.333592,-0.0234374962747097,-0.1455078125,0.9833983778953552,0.9943813199056879,0.48065185546875,0.05340576171875,0.1354217529296875,0.5022125373951365
1785342492.341599,-0.0288085900247097,-0.15087890625,0.9702147841453552,0.9822988886202745,0.1125335693359375,0.1163482666015625,0.5626678466796875,0.5854876848028752
1785342492.352258,-0.0214843712747097,-0.15283203125,0.9926757216453552,1.0046015609828591,0.05340576171875,0.301361083984375,0.7457733154296875,0.8061318231728516
1785342492.362917,-0.0336913987994194,-0.150390625,0.9887694716453552,1.000708508257418,0.2346038818359375,0.2384185791015625,0.4405975341796875,0.5531804292981807
1785342492.373576,-0.0249023400247097,-0.13623046875,0.9794921278953552,0.9892338933556218,0.4177093505859375,0.2994537353515625,0.9288787841796875,1.061588167267356
1785342492.384225,-0.0302734337747097,-0.13720703125,0.9716796278953552,0.9817858979858115,0.29754638671875,0.17547607421875,0.8640289306640625,0.9305222715749965
1785342492.394874,-0.0263671837747097,-0.14013671875,0.9882811903953552,0.998515517962283,0.2346038818359375,0.1773834228515625,1.1119842529296875,1.1502229517961384
1785342492.405523,-0.0053710900247097015,-0.14208984375,0.9750975966453552,0.9854104197178457,0.41961669921875,0.48065185546875,1.1119842529296875,1.2820348510053798
1785342492.413534,-0.0273437462747097,-0.14208984375,0.9809569716453552,0.9915713712975286,0.2956390380859375,0.5435943603515625,0.7457733154296875,0.9690588771862063
1785342492.421544,-0.0175781212747097,-0.14990234375,0.9814452528953552,0.9929826219225185,-0.3147125244140625,0.4215240478515625,0.8640289306640625,1.0115693199008764
1785342492.429554,-0.01904296875,-0.1357421875,0.9790038466453552,0.9885530374605608,-0.0705718994140625,0.6046295166015625,0.7457733154296875,0.9626708073582245
1785342492.437564,-0.0263671837747097,-0.13330078125,0.9809569716453552,0.9903236374446971,-0.2536773681640625,0.7266998291015625,0.7457733154296875,1.0717381614656976
1785342492.448231,-0.0205078087747097,-0.13720703125,0.9755858778953552,0.985400499692399,-0.1926422119140625,0.7266998291015625,0.3757476806640625,0.840470096405461
1785342492.458898,-0.0263671837747097,-0.13427734375,0.9853515028953552,0.994808131090061,-0.0095367431640625,0.7266998291015625,0.0095367431640625,0.7268249724360017
1785342492.469565,-0.0244140587747097,-0.14794921875,0.9926757216453552,1.0039373017966395,0.1125335693359375,0.7877349853515625,0.0743865966796875,0.7992018375478744
1785342492.480232,-0.0288085900247097,-0.13671875,0.9790038466453552,0.9889239016259929,-0.0705718994140625,0.5435943603515625,-0.2307891845703125,0.5947595054369141
1785342492.490901,-0.011718746274709702,-0.1455078125,0.9755858778953552,0.9864469867466964,-0.2536773681640625,0.7266998291015625,-0.1087188720703125,0.7773446094745409
1785342492.50157,-0.0302734337747097,-0.1328125,0.9936522841453552,1.0029459121687687,-0.31280517578125,0.606536865234375,-0.1087188720703125,0.6910527042332749
1785342492.509569,-0.0278320275247097,-0.14306640625,0.9838866591453552,0.9946233339298021,-0.00762939453125,0.54168701171875,-0.5359649658203125,0.762063954607795
1785342492.517569,-0.0322265587747097,-0.14404296875,0.9887694716453552,0.9997259604484662,0.2346038818359375,0.4825592041015625,-0.2956390380859375,0.612621259569077
1785342492.525569,-0.0317382775247097,-0.15234375,0.9750975966453552,0.987436711596164,0.2346038818359375,0.4825592041015625,-0.2956390380859375,0.612621259569077
1785342492.533569,-0.0268554650247097,-0.1357421875,0.9702147841453552,0.9800325937657364,-0.00762939453125,0.05340576171875,-0.5970001220703125,0.5994326724475747
1785342492.544236,-0.0322265587747097,-0.14697265625,0.9726561903953552,0.9842253692574917,-0.00762939453125,0.35858154296875,-0.2956390380859375,0.4648025080172668
1785342492.554903,-0.0375976525247097,-0.15185546875,0.9912108778953552,1.003480279488706,-0.2536773681640625,0.0553131103515625,-0.1087188720703125,0.28148097704756253
1785342492.56557,-0.0317382775247097,-0.14013671875,0.9877929091453552,0.9981885841663869,-0.31280517578125,-0.25177001953125,-0.1697540283203125,0.43594913792927514
1785342492.576243,-0.0273437462747097,-0.142578125,0.9892577528953552,0.9998535412011196,-0.00762939453125,-0.31280517578125,0.2574920654296875,0.4052251835901844
1785342492.586916,-0.0346679650247097,-0.1455078125,0.9853515028953552,0.9966403441340436,0.05340576171875,-0.12969970703125,0.1926422119140625,0.23829647752305225
1785342492.597589,-0.0336913987994194,-0.14013671875,0.9887694716453552,0.9992189341445212,0.05340576171875,-0.12969970703125,0.1926422119140625,0.23829647752305225
1785342492.60559,-0.0209960900247097,-0.1376953125,0.9780272841453552,0.9878958464400677,0.2346038818359375,-0.3108978271484375,0.3757476806640625,0.5411864372122905
1785342492.613594,-0.0214843712747097,-0.1416015625,0.9736327528953552,0.9841104197304786,-0.00762939453125,-0.31280517578125,0.3757476806640625,0.4889699430239802
1785342492.621598,-0.015624996274709702,-0.1484375,0.9760741591453552,0.9874201719967781,0.05340576171875,-0.61798095703125,0.3757476806640625,0.7252164905477825
1785342492.629602,-0.0307617150247097,-0.1328125,0.9731444716453552,0.982647243908733,0.0553131103515625,-0.3719329833984375,-0.1697540283203125,0.41256528507304147
1785342492.640369,-0.014648430049419403,-0.14892578125,0.9785155653953552,0.9898920024653332,-0.2536773681640625,-0.1277923583984375,0.0095367431640625,0.28420774699831336
1785342492.651136,-0.0224609337747097,-0.14306640625,0.9843749403953552,0.9949706093255625,-0.31280517578125,-0.370025634765625,-0.0476837158203125,0.4868673177916903
1785342492.661903,-0.0273437462747097,-0.1455078125,0.9843749403953552,0.9954467475647454,-0.1277923583984375,-0.2498626708984375,0.1926422119140625,0.3404016201264003
1785342492.672448,-0.0195312462747097,-0.1455078125,0.9731444716453552,0.984156570761734,0.17547607421875,-0.43487548828125,0.0095367431640625,0.46904103487995286
1785342492.682995,-0.0180664025247097,-0.14013671875,0.9956054091453552,1.0055818343435265,-0.25177001953125,-0.19073486328125,0.0095367431640625,0.3160045573656501
1785342492.693542,-0.014648433774709702,-0.1376953125,0.9819335341453552,0.9916491522588582,0.1125335693359375,-0.3719329833984375,0.0095367431640625,0.3887015536852483
1785342492.701565,-0.0273437462747097,-0.13818359375,0.9711913466453552,0.9813536660352471,0.11444091796875,-0.00762939453125,0.0095367431640625,0.115090750439038
1785342492.709587,-0.0258789025247097,-0.150390625,0.9873046278953552,0.9990282708449045,0.17547607421875,-0.25177001953125,-0.1087188720703125,0.3255760871167157
1785342492.717609,-0.0268554650247097,-0.1455078125,0.9775390028953552,0.9886739814933302,-0.19073486328125,-0.19073486328125,-0.0476837158203125,0.27392209274950163
1785342492.725631,-0.0307617150247097,-0.14501953125,0.9814452528953552,0.9925783253658418,0.2346038818359375,0.0553131103515625,0.3757476806640625,0.4464133074558564
1785342492.733676,-0.0332031212747097,-0.142578125,0.9819335341453552,0.9927861977636908,0.17547607421875,0.05340576171875,0.0743865966796875,0.19793280115627793
1785342492.741721,-0.0312499962747097,-0.14013671875,0.9902343153953552,1.0005892571858315,0.2956390380859375,-0.0667572021484375,0.0743865966796875,0.31207744334484067
1785342492.749766,-0.014160152524709702,-0.1474609375,0.9833983778953552,0.9944936438485255,0.54168701171875,-0.12969970703125,0.0743865966796875,0.5619432341743851
1785342492.757811,-0.0390624962747097,-0.146484375,0.9780272841453552,0.9897074917707209,0.23651123046875,-0.19073486328125,0.4405975341796875,0.5352042015287064
1785342492.769276,-0.0205078087747097,-0.15380859375,0.9711913466453552,0.9835091690121202,0.35858154296875,0.118255615234375,0.0743865966796875,0.38483565226976635
1785342492.780741,-0.0361328087747097,-0.134765625,0.9770507216453552,0.9869627481416408,0.1125335693359375,0.0553131103515625,0.3757476806640625,0.3961182448823491
1785342492.792206,-0.015136715024709702,-0.126953125,0.9809569716453552,0.9892536562018011,-0.00762939453125,0.05340576171875,0.4405975341796875,0.4438880153494733
1785342492.802194,-0.0175781212747097,-0.14697265625,0.9697265028953552,0.9809584305414702,-0.19073486328125,0.17547607421875,0.3757476806640625,0.4564624411915658
1785342492.812182,-0.0253906212747097,-0.14599609375,0.9765624403953552,0.9877417390339979,-0.31280517578125,0.35858154296875,0.3757476806640625,0.60631190032673
1785342492.82217,-0.0229492150247097,-0.1435546875,0.9868163466453552,0.9974673512350962,-0.1926422119140625,0.6046295166015625,0.3757476806640625,0.7374782665824153
1785342492.832675,-0.0317382775247097,-0.1416015625,0.9790038466453552,0.9897003852222546,-0.12969970703125,0.66375732421875,0.0743865966796875,0.680388980821716
1785342492.84318,-0.0317382775247097,-0.14208984375,0.9946288466453552,1.0052280261394448,-0.00762939453125,0.301361083984375,0.3185272216796875,0.4385616279978582
1785342492.853685,-0.0214843712747097,-0.1474609375,0.9731444716453552,0.9844879222171118,-0.0095367431640625,0.4215240478515625,0.4978179931640625,0.6523773652612713
1785342492.861659,-0.012207027524709702,-0.1328125,0.9765624403953552,0.9856279073099395,-0.06866455078125,0.48065185546875,0.0743865966796875,0.49119689785780357
1785342492.869632,-0.010742183774709702,-0.13818359375,0.9760741591453552,0.9858655406520845,-0.19073486328125,0.48065185546875,0.1354217529296875,0.5345512561046121
1785342492.877605,-0.0385742150247097,-0.1474609375,0.9794921278953552,0.9912807507271199,-0.12969970703125,0.48065185546875,0.1354217529296875,0.5159333981591941
1785342492.885578,-0.0263671837747097,-0.1298828125,0.9819335341453552,0.9908371404233427,-0.0705718994140625,0.4215240478515625,0.1354217529296875,0.44833242919804966
1785342492.897572,-0.0209960900247097,-0.134765625,0.9887694716453552,0.9981320942319214,-0.2536773681640625,0.3604888916015625,-0.0476837158203125,0.4433713847793977
1785342492.909569,-0.0205078087747097,-0.15625,0.9790038466453552,0.9916063556004178,-0.0705718994140625,0.3604888916015625,-0.1697540283203125,0.40465919498511965
1785342492.921566,-0.0351562462747097,-0.1318359375,0.9775390028953552,0.9870152877490183,-0.0705718994140625,0.5435943603515625,0.0743865966796875,0.5531804292981807
1785342492.933563,-0.0292968712747097,-0.1416015625,0.9794921278953552,0.9901081444861967,0.17547607421875,0.23651123046875,0.0095367431640625,0.2946529555786667
1785342492.941558,-0.0424804650247097,-0.1533203125,0.9887694716453552,1.0014872820918137,0.2346038818359375,0.4215240478515625,-0.1697540283203125,0.5114077965974222
1785342492.949553,-0.0283203087747097,-0.146484375,0.9843749403953552,0.9956172634534792,0.35858154296875,0.66375732421875,0.0095367431640625,0.7544835703195011
1785342492.957548,-0.0356445275247097,-0.134765625,0.9912108778953552,1.0009651894457574,0.17547607421875,0.96893310546875,-0.4138946533203125,1.0681441848101227
1785342492.965543,-0.0292968712747097,-0.1318359375,0.9721679091453552,0.9815036753140777,-0.00762939453125,0.48065185546875,-0.4787445068359375,0.6784399138111279
1785342492.97621,-0.02392578125,-0.138671875,0.9702147841453552,0.9803667983457297,-0.0705718994140625,0.3604888916015625,-0.5970001220703125,0.7009577588606889
1785342492.986877,-0.0297851525247097,-0.13330078125,0.9643554091453552,0.9739802917619463,-0.37384033203125,0.48065185546875,-0.4787445068359375,0.7745831800680754
1785342492.997544,-0.012695308774709702,-0.14794921875,0.9794921278953552,0.9906840923334701,-0.37384033203125,-0.00762939453125,-0.3528594970703125,0.5141251075242899
1785342493.005547,-0.0200195275247097,-0.126953125,0.9799804091453552,0.9883721362615784,-0.4978179931640625,-0.0667572021484375,-0.5970001220703125,0.7801848653418945
1785342493.013551,-0.0278320275247097,-0.13818359375,0.9858397841453552,0.9958661593515274,-0.55694580078125,-0.19073486328125,-0.4138946533203125,0.7196368508671068
1785342493.021555,-0.0263671837747097,-0.14892578125,0.9804686903953552,0.9920650026821404,-0.2536773681640625,-0.1277923583984375,-0.2307891845703125,0.3659873518283245
1785342493.029559,-0.0307617150247097,-0.140625,0.9853515028953552,0.9958108545273027,-0.12969970703125,-0.19073486328125,0.0095367431640625,0.23085222880684195
1785342493.040198,-0.0366210900247097,-0.14013671875,0.9907225966453552,1.0012545468962075,-0.1926422119140625,-0.0667572021484375,-0.1697540283203125,0.2652997851126219
1785342493.050837,-0.0219726525247097,-0.14599609375,0.9824218153953552,0.9934537131713465,-0.19073486328125,-0.12969970703125,0.1354217529296875,0.26747121946381175
1785342493.061476,-0.0214843712747097,-0.1357421875,0.9833983778953552,0.9929551295620415,0.11444091796875,-0.31280517578125,-0.3528594970703125,0.48523564004902064
1785342493.072268,-0.0224609375,-0.154296875,0.9760741591453552,0.9884496868831801,-0.25177001953125,-0.67901611328125,-0.4138946533203125,0.8341221786270181
1785342493.08306,-0.0234374962747097,-0.14208984375,0.9902343153953552,1.0006512076218337,-0.06866455078125,-0.49591064453125,-0.0476837158203125,0.5029074712587028
1785342493.093852,-0.0268554650247097,-0.138671875,0.9843749403953552,0.9944572027976207,-0.00762939453125,-0.67901611328125,-0.1087188720703125,0.6877069745907263
1785342493.101767,-0.0185546837747097,-0.146484375,0.9936522841453552,1.004562994638167,-0.3757476806640625,-0.6160736083984375,-0.0476837158203125,0.7231920541902586
1785342493.109682,-0.011230465024709702,-0.138671875,0.9750975966453552,0.9849727586305292,-0.19073486328125,-0.67901611328125,0.1354217529296875,0.7181794492555755
1785342493.117597,-0.0224609337747097,-0.142578125,0.9858397841453552,0.9963498859729488,-0.12969970703125,-0.49591064453125,0.1926422119140625,0.547595108793472
1785342493.125512,-0.01806640625,-0.134765625,0.9736327528953552,0.9830813324578076,0.0553131103515625,-0.0667572021484375,-0.1697540283203125,0.19061084530116573
1785342493.136275,-0.0312499962747097,-0.14013671875,0.9741210341453552,0.9846454444994921,-0.06866455078125,-0.19073486328125,0.3185272216796875,0.377563504004146
1785342493.147038,-0.0185546875,-0.1396484375,0.9926757216453552,1.0026220877621541,0.17547607421875,0.118255615234375,0.0743865966796875,0.22429803593271008
1785342493.157801,-0.0043945275247097015,-0.1416015625,0.9711913466453552,0.9814697887217035,-0.0705718994140625,0.2994537353515625,0.1926422119140625,0.3629930500905696
1785342493.168616,-0.010742183774709702,-0.14404296875,0.9780272841453552,0.9886359996941758,-0.12969970703125,0.35858154296875,-0.0476837158203125,0.3842869679240683
1785342493.179432,-0.009765621274709702,-0.13818359375,0.9863280653953552,0.9960085971150501,-0.19073486328125,0.48065185546875,-0.0476837158203125,0.5193069718296699
1785342493.190248,-0.015624996274709702,-0.12939453125,0.9824218153953552,0.991029620440629,-0.3757476806640625,0.4215240478515625,-0.3528594970703125,0.6658668538937064
1785342493.198079,-0.012695308774709702,-0.1455078125,0.9965819716453552,1.0072285344309722,-0.31280517578125,-0.00762939453125,-0.4138946533203125,0.5188584293461886
1785342493.205913,-0.0087890625,-0.13818359375,0.9921874403953552,1.0018023108775407,0.1125335693359375,0.2384185791015625,-0.4787445068359375,0.5465377625689548
1785342493.213747,-0.0253906212747097,-0.14501953125,0.9755858778953552,0.9866322279560588,0.35858154296875,0.23651123046875,-0.4138946533203125,0.5965124216165438
1785342493.221581,-0.0302734337747097,-0.13330078125,0.9755858778953552,0.9851159242562385,0.17547607421875,-0.00762939453125,-0.4138946533203125,0.4496207783580285
1785342493.23226,-0.0253906212747097,-0.14501953125,0.9790038466453552,0.9900120604513298,0.11444091796875,-0.00762939453125,-0.4138946533203125,0.42949239273075057
1785342493.242939,-0.0317382775247097,-0.13525390625,0.9731444716453552,0.9830112410903737,0.0553131103515625,0.2384185791015625,-0.3528594970703125,0.42943309573236904
1785342493.253618,-0.0258789025247097,-0.14306640625,0.9887694716453552,0.999401211851881,-0.194549560546875,0.00762939453125,-0.0934600830078125,0.2159688085944886
1785342493.264269,-0.0209960900247097,-0.14306640625,0.9750975966453552,0.9857606988398167,-0.3185272216796875,0.1926422119140625,-0.2117156982421875,0.4282454315509978
1785342493.274918,-0.0361328087747097,-0.12890625,0.9799804091453552,0.9890824047912843,-0.4978179931640625,0.3757476806640625,-0.3948211669921875,0.7381685632342992
1785342493.285567,-0.0234374962747097,-0.15234375,0.9868163466453552,0.9987814758004753,-0.377655029296875,0.43487548828125,-0.1506805419921875,0.5953525318633813
1785342493.29623,-0.0249023400247097,-0.1416015625,0.9770507216453552,0.9875723982113195,-0.072479248046875,0.255584716796875,-0.1506805419921875,0.3054200625247769
1785342493.306894,-0.0253906212747097,-0.15087890625,0.9760741591453552,0.9879928603746204,-0.194549560546875,0.255584716796875,-0.0286102294921875,0.3224773235449535
1785342493.317558,-0.02783203125,-0.14892578125,0.9721679091453552,0.9839024107382172,-0.194549560546875,0.12969970703125,-0.1506805419921875,0.27816572622814917
1785342493.325579,-0.0292968712747097,-0.14697265625,0.9809569716453552,0.9923385755735257,-0.0095367431640625,0.0705718994140625,-0.1506805419921875,0.16666123782135192
1785342493.333599,-0.0312499962747097,-0.14453125,0.9697265028953552,0.9809359484244561,0.0476837158203125,-0.2956390380859375,0.0324249267578125,0.3012101483517118
1785342493.341619,-0.0346679650247097,-0.1474609375,0.9794921278953552,0.9911364308188375,-0.011444091796875,-0.35858154296875,-0.1506805419921875,0.38912249476220745
1785342493.349639,-0.0185546875,-0.14013671875,0.9746093153953552,0.9848075416169609,-0.255584716796875,-0.232696533203125,-0.1506805419921875,0.3770621298406288
1785342493.360259,-0.0307617150247097,-0.14111328125,0.9858397841453552,0.996363046916215,-0.377655029296875,-0.232696533203125,-0.2117156982421875,0.4915226694671911
1785342493.370879,-0.0278320275247097,-0.1455078125,0.9877929091453552,0.99884031587262,-0.194549560546875,-0.415802001953125,-0.1506805419921875,0.48316194187070255
1785342493.381499,-0.0302734337747097,-0.14208984375,0.9804686903953552,0.9911734748947805,0.110626220703125,-0.17547607421875,-0.3948211669921875,0.44599749689359647
1785342493.392187,-0.0332031212747097,-0.13671875,0.9877929091453552,0.9977621436102843,-0.0743865966796875,-0.1125335693359375,-0.3948211669921875,0.4172300611151425
1785342493.402876,-0.0234374962747097,-0.15283203125,0.9912108778953552,1.0031978620719388,-0.072479248046875,-0.05340576171875,-0.4558563232421875,0.4646616018373867
1785342493.413565,-0.0283203125,-0.1396484375,0.9809569716453552,0.9912518884803778,-0.194549560546875,0.00762939453125,-0.0286102294921875,0.19678994995042629
1785342493.421567,-0.0307617150247097,-0.14501953125,0.9726561903953552,0.9838887194544089,-0.194549560546875,-0.232696533203125,-0.0286102294921875,0.3046567795164435
1785342493.429567,-0.0249023400247097,-0.14794921875,0.9785155653953552,0.9899504076409249,-0.0743865966796875,-0.2956390380859375,-0.2117156982421875,0.3711594583034924
1785342493.437567,-0.0190429650247097,-0.1474609375,0.9638671278953552,0.9752677595627532,-0.1354217529296875,-0.2956390380859375,-0.2117156982421875,0.38802709813762326
1785342493.445567,-0.0170898400247097,-0.146484375,0.9672850966453552,0.978463179145452,-0.2574920654296875,-0.2956390380859375,0.1544952392578125,0.421394569913939
1785342493.456247,-0.0214843712747097,-0.1357421875,0.9858397841453552,0.9953730957184423,-0.072479248046875,0.072479248046875,-0.3948211669921875,0.40790959378268327
1785342493.466927,-0.0302734337747097,-0.15185546875,0.9838866591453552,0.9959967481001142,-0.1926422119140625,-0.1125335693359375,-0.3948211669921875,0.45349595361337197
1785342493.477607,-0.0224609337747097,-0.1474609375,0.9838866591453552,0.9951292276275575,-0.3185272216796875,-0.1125335693359375,-0.5168914794921875,0.6174950985636157
1785342493.488272,-0.02392578125,-0.15087890625,0.9902343153953552,1.0019485449593342,-0.072479248046875,0.072479248046875,-0.5168914794921875,0.5269566247486631
1785342493.498939,-0.0302734337747097,-0.138671875,0.9746093153953552,0.98489069818124,0.232696533203125,0.12969970703125,-0.3948211669921875,0.4762913441096929
1785342493.509606,-0.0434570275247097,-0.14697265625,0.9755858778953552,0.9875511531436308,-0.011444091796875,0.12969970703125,-0.5168914794921875,0.5330382564250618
1785342493.517589,-0.0195312462747097,-0.1484375,0.9804686903953552,0.9918336623813876,-0.0095367431640625,-0.1125335693359375,-0.5168914794921875,0.5290855840686703
1785342493.525575,-0.0263671837747097,-0.150390625,0.9775390028953552,0.989391262671015,0.0476837158203125,0.0095367431640625,-0.4558563232421875,0.4584426612614661
1785342493.533561,-0.009765617549419403,-0.15478515625,0.9780272841453552,0.9902480398436534,-0.194549560546875,-0.17547607421875,-0.1506805419921875,0.3022350242233117
1785342493.541547,-0.0268554650247097,-0.1416015625,0.9604491591453552,0.9712027624585685,0.110626220703125,-0.17547607421875,-0.3948211669921875,0.44599749689359647
1785342493.552562,-0.02392578125,-0.1533203125,0.9707030653953552,0.9830279764083318,-0.255584716796875,-0.17547607421875,-0.3948211669921875,0.5019951732720503
1785342493.563577,-0.0263671837747097,-0.14501953125,0.9941405653953552,1.0050081375734108,0.2307891845703125,0.0705718994140625,-0.0934600830078125,0.25880268124068095
1785342493.574592,-0.0371093712747097,-0.1455078125,0.9809569716453552,0.992384103638589,-0.1354217529296875,0.3757476806640625,-0.1506805419921875,0.4268840550149783
1785342493.584924,-0.02880859375,-0.1396484375,0.9775390028953552,0.9878836588139766,-0.377655029296875,0.49591064453125,-0.2765655517578125,0.6819378218956085
1785342493.595258,-0.0219726525247097,-0.16015625,0.9721679091453552,0.9855167504639816,-0.2574920654296875,0.0705718994140625,-0.2117156982421875,0.34074344253166783
1785342493.605592,-0.0415039025247097,-0.1435546875,0.9838866591453552,0.9951700760534411,-0.1354217529296875,0.1926422119140625,-0.3337860107421875,0.4084888908463431
1785342493.616263,-0.01904296875,-0.1435546875,0.9770507216453552,0.9877239976986211,-0.3185272216796875,-0.1125335693359375,-0.1506805419921875,0.36990271817536896
1785342493.626934,-0.0244140587747097,-0.15087890625,0.9741210341453552,0.9860386806720453,-0.2574920654296875,0.0095367431640625,-0.0286102294921875,0.25925211370598195
1785342493.637605,-0.0195312462747097,-0.1328125,0.9843749403953552,0.9934861111337453,-0.377655029296875,-0.110626220703125,-0.2765655517578125,0.48098855108971494
1785342493.645674,-0.0258789025247097,-0.14990234375,0.9848632216453552,0.9965420189873052,-0.072479248046875,0.31280517578125,-0.4558563232421875,0.5575888331314257
1785342493.653744,-0.0249023400247097,-0.1474609375,0.9936522841453552,1.0048431302518652,-0.1926422119140625,0.1926422119140625,-0.0934600830078125,0.28802227472560576
1785342493.661814,-0.0273437462747097,-0.14501953125,0.9746093153953552,0.9857188557391546,-0.2574920654296875,0.0705718994140625,-0.1506805419921875,0.30657329055417465
1785342493.669884,-0.0224609337747097,-0.1396484375,0.9936522841453552,1.0036687907021444,-0.377655029296875,0.00762939453125,0.0934600830078125,0.38912249476220745
1785342493.680435,-0.0161132775247097,-0.146484375,0.9765624403953552,0.9876191117139546,-0.499725341796875,-0.232696533203125,-0.1506805419921875,0.5714697888198605
1785342493.690986,-0.0253906212747097,-0.15380859375,0.9829100966453552,0.995195470873662,-0.6237030029296875,-0.1735687255859375,0.0324249267578125,0.6482151758793416
1785342493.701537,-0.0302734337747097,-0.1494140625,0.9697265028953552,0.9816366605230884,-0.3185272216796875,-0.2346038818359375,-0.0934600830078125,0.40648906435388704
1785342493.712304,-0.0322265587747097,-0.138671875,0.9731444716453552,0.9835032296339413,0.0476837158203125,-0.2956390380859375,-0.0286102294921875,0.3008234080426694
1785342493.723071,-0.0234375,-0.1435546875,0.9843749403953552,0.9950634592767598,-0.377655029296875,0.00762939453125,0.1544952392578125,0.40810575561668533
1785342493.733838,-0.0361328087747097,-0.14599609375,0.9809569716453552,0.9924197798713178,-0.194549560546875,0.00762939453125,0.0934600830078125,0.2159688085944886
1785342493.741764,-0.0214843712747097,-0.1376953125,0.9721679091453552,0.982105911226276,-0.377655029296875,-0.415802001953125,0.0934600830078125,0.5694290237573751
1785342493.749691,-0.0439453087747097,-0.13623046875,0.9907225966453552,1.001010087003555,0.049591064453125,-0.54168701171875,0.3376007080078125,0.640201788802374
1785342493.757618,-0.0244140587747097,-0.150390625,0.9863280653953552,0.9980262716683813,0.110626220703125,-0.232696533203125,-0.0934600830078125,0.27408141926740814
1785342493.765545,-0.0185546875,-0.13427734375,0.9897460341453552,0.9989854321156225,0.0476837158203125,-0.2346038818359375,-0.0286102294921875,0.2411042582753745
1785342493.776233,-0.0034179650247097015,-0.13720703125,0.9755858778953552,0.9851930049783136,-0.011444091796875,-0.35858154296875,-0.0286102294921875,0.3599030917156734
1785342493.786921,-0.0234375,-0.13037109375,0.9707030653953552,0.9796991271098289,0.0476837158203125,0.0095367431640625,0.0934600830078125,0.10535403808320218
1785342493.797609,-0.0273437462747097,-0.14404296875,0.9755858778953552,0.9865413637833439,0.110626220703125,0.12969970703125,-0.1506805419921875,0.22751879141316653
1785342493.805606,-0.0034179650247097015,-0.140625,0.9731444716453552,0.9832584786330743,0.0476837158203125,-0.1125335693359375,-0.2765655517578125,0.30236740135309204
1785342493.813602,-0.0209960900247097,-0.154296875,0.9843749403953552,0.9966154648155178,0.1697540283203125,0.1316070556640625,-0.3337860107421875,0.39692562048666097
1785342493.821598,-0.0273437462747097,-0.1513671875,0.9873046278953552,0.9992147587859087,0.293731689453125,0.31280517578125,-0.0286102294921875,0.430051076752659
1785342493.829594,-0.0209960900247097,-0.1474609375,0.9833983778953552,0.9946144647711095,0.110626220703125,-0.05340576171875,-0.5817413330078125,0.5945698568053405
1785342493.840293,-0.0253906212747097,-0.15771484375,0.9804686903953552,0.9933969541091746,0.1697540283203125,-0.1735687255859375,-0.2765655517578125,0.36800956108721306
1785342493.850992,-0.0175781212747097,-0.1513671875,0.9760741591453552,0.9878976566175874,0.110626220703125,0.12969970703125,-0.6389617919921875,0.6613110813655825
1785342493.861691,-0.010253902524709702,-0.142578125,0.9794921278953552,0.98986791687299,0.110626220703125,0.12969970703125,-0.0934600830078125,0.19440926373729162
1785342493.872336,-0.033203125,-0.14404296875,0.9863280653953552,0.9973434097353946,-0.194549560546875,0.80108642578125,-0.2765655517578125,0.8695271689251944
1785342493.882983,-0.0273437462747097,-0.13623046875,0.9765624403953552,0.9863978006195635,-0.560760498046875,0.31280517578125,-0.2117156982421875,0.6761086828665159
1785342493.89363,-0.0302734337747097,-0.1484375,0.9731444716453552,0.9848656430664435,-0.3185272216796875,-0.0514984130859375,-0.3337860107421875,0.4642464630651852
1785342493.904286,-0.0249023400247097,-0.1298828125,0.9794921278953552,0.9883797347834421,-0.621795654296875,-0.05340576171875,-0.3948211669921875,0.738488838773012
1785342493.914945,-0.0297851525247097,-0.1435546875,0.9824218153953552,0.9933014280563822,-0.7457733154296875,-0.2956390380859375,-0.1506805419921875,0.816262766872547
1785342493.925604,-0.0249023400247097,-0.15625,0.9819335341453552,0.9945992431717882,-0.6237030029296875,-0.3566741943359375,-0.2117156982421875,0.7490296747465196
1785342493.933604,-0.0307617150247097,-0.14404296875,0.9790038466453552,0.9900218137515845,-0.499725341796875,-0.17547607421875,-0.3948211669921875,0.660606557462383
1785342493.941606,-0.0185546837747097,-0.14306640625,0.9814452528953552,0.9919914603050256,-0.072479248046875,-0.17547607421875,-0.2765655517578125,0.33546027848281523
1785342493.949608,-0.0219726525247097,-0.150390625,0.9775390028953552,0.9892839024913462,-0.0095367431640625,-0.1125335693359375,-0.3337860107421875,0.35237459423864154
1785342493.95761,-0.01318359375,-0.138671875,0.9794921278953552,0.9893475247197779,0.293731689453125,0.072479248046875,-0.3337860107421875,0.45049378214755775
1785342493.965647,-0.0278320275247097,-0.138671875,0.9746093153953552,0.9848186778933241,0.415802001953125,0.00762939453125,0.0934600830078125,0.4262444129897391
1785342493.973684,-0.0244140587747097,-0.142578125,0.9794921278953552,0.9901158500919686,0.110626220703125,-0.05340576171875,-0.2117156982421875,0.24477310508712638
1785342493.981721,-0.0214843712747097,-0.1396484375,0.9809569716453552,0.9910801403140349,0.110626220703125,-0.29754638671875,-0.1506805419921875,0.351392428335472
1785342493.989758,-0.0214843712747097,-0.14990234375,0.9804686903953552,0.9920943219857654,-0.0743865966796875,-0.2956390380859375,-0.1506805419921875,0.34005945412681043
1785342494.000442,-0.0205078087747097,-0.14306640625,0.9726561903953552,0.9833354623588206,-0.011444091796875,-0.17547607421875,-0.1506805419921875,0.23157600392816813
1785342494.011126,-0.0175781212747097,-0.1474609375,0.9804686903953552,0.9916514363835259,0.293731689453125,-0.35858154296875,-0.0934600830078125,0.4728570772047974
1785342494.02181,-0.012695308774709702,-0.15234375,0.9829100966453552,0.994727121936629,0.1697540283203125,-0.3566741943359375,-0.2765655517578125,0.4822047443309396
1785342494.029752,-0.0249023400247097,-0.1435546875,0.9785155653953552,0.9893031823272987,0.1697540283203125,0.2536773681640625,-0.1506805419921875,0.3404016201264003
1785342494.037694,-0.0268554650247097,-0.1552734375,0.9824218153953552,0.9949792358433743,0.110626220703125,-0.05340576171875,-0.3948211669921875,0.4134901328893946
1785342494.045636,-0.0332031212747097,-0.15234375,0.9814452528953552,0.9937534150166596,0.1697540283203125,0.0705718994140625,-0.1506805419921875,0.2377003341456242
1785342494.053578,-0.0356445275247097,-0.14013671875,0.9814452528953552,0.9920401285811498,0.0476837158203125,0.0095367431640625,-0.0934600830078125,0.10535403808320218
1785342494.064278,-0.0214843712747097,-0.13623046875,0.9799804091453552,0.989637267453895,-0.011444091796875,-0.05340576171875,-0.1506805419921875,0.1602740414317758
1785342494.074978,-0.0273437462747097,-0.1552734375,0.9780272841453552,0.9906537686730624,-0.011444091796875,-0.05340576171875,0.0324249267578125,0.0635178596700543
1785342494.085678,-0.0283203125,-0.14990234375,0.9819335341453552,0.993713348124613,-0.1354217529296875,0.3757476806640625,-0.2117156982421875,0.4520496737894505
1785342494.096302,-0.0087890625,-0.13427734375,0.9765624403953552,0.9857899637626244,-0.3185272216796875,0.3757476806640625,0.0324249267578125,0.4936570533788133
1785342494.106924,-0.0175781212747097,-0.1435546875,0.9780272841453552,0.9886628885436686,-0.2574920654296875,0.1926422119140625,-0.1506805419921875,0.3551306960901133
1785342494.117546,-0.0302734337747097,-0.13134765625,0.9873046278953552,0.9964633038192956,0.110626220703125,-0.17547607421875,-0.2117156982421875,0.296400995633378
1785342494.125564,-0.0356445275247097,-0.1455078125,0.9833983778953552,0.9947438994475969,0.0476837158203125,0.0095367431640625,-0.0934600830078125,0.10535403808320218
1785342494.133582,-0.0253906212747097,-0.150390625,0.9765624403953552,0.9884008416262797,0.2307891845703125,-0.1125335693359375,-0.1506805419921875,0.2977113999785285
1785342494.1416,-0.02880859375,-0.13427734375,0.9760741591453552,0.9856881374297453,0.2307891845703125,0.0705718994140625,-0.2117156982421875,0.3210413954363445
1785342494.149618,-0.0317382775247097,-0.14306640625,0.9853515028953552,0.9961891884153635,0.598907470703125,0.43487548828125,-0.1506805419921875,0.7553220998401473
1785342494.160246,-0.024414055049419403,-0.14501953125,0.9809569716453552,0.9919189940451549,0.1697540283203125,0.2536773681640625,-0.5168914794921875,0.6002877966619355
1785342494.170874,-0.0229492150247097,-0.15283203125,0.9790038466453552,0.9911270493698845,0.232696533203125,0.12969970703125,-0.3948211669921875,0.4762913441096929
1785342494.181502,-0.015136715024709702,-0.1513671875,0.9770507216453552,0.9888221570439797,0.293731689453125,-0.05340576171875,-0.4558563232421875,0.5449178545557419
1785342494.192203,-0.0263671837747097,-0.13623046875,0.9790038466453552,0.9887884003883016,-0.072479248046875,0.072479248046875,-0.6389617919921875,0.6471310952355391
1785342494.202904,-0.0273437462747097,-0.146484375,0.9755858778953552,0.9869007841360383,-0.194549560546875,-0.48065185546875,-0.4558563232421875,0.6904206870556676
1785342494.213605,-0.0209960900247097,-0.1376953125,0.9853515028953552,0.9951474358801984,0.0476837158203125,-0.4177093505859375,-0.0286102294921875,0.421394569913939
1785342494.221603,-0.0253906212747097,-0.15087890625,0.9765624403953552,0.9884752541115249,-0.1354217529296875,-0.3566741943359375,-0.0286102294921875,0.38258865286797916
1785342494.229604,-0.0229492150247097,-0.13720703125,0.9765624403953552,0.9864211250199484,-0.1354217529296875,-0.1735687255859375,0.3376007080078125,0.4030377050791304
1785342494.237605,-0.0351562462747097,-0.13916015625,0.9667968153953552,0.9773932642484564,0.049591064453125,-0.35858154296875,0.0324249267578125,0.3634437680119072
1785342494.245606,-0.0263671837747097,-0.14599609375,0.9838866591453552,0.9950090682072583,-0.4405975341796875,0.0095367431640625,0.2765655517578125,0.520293802590903
1785342494.256246,-0.0268554650247097,-0.15087890625,0.9877929091453552,0.9996101698716023,0.2307891845703125,0.2536773681640625,0.3376007080078125,0.48123808336482615
1785342494.266886,-0.0312499962747097,-0.140625,0.9741210341453552,0.9847150562759694,-0.0743865966796875,-0.1125335693359375,0.1544952392578125,0.20509985116133428
1785342494.277526,-0.009765617549419403,-0.14453125,0.9692382216453552,0.9800037652024275,0.1697540283203125,-0.2956390380859375,0.1544952392578125,0.3742828474892759
1785342494.285536,-0.0063476525247097015,-0.15478515625,0.9799804091453552,0.9921493534728575,-0.072479248046875,-0.05340576171875,0.2117156982421875,0.23006293413841641
1785342494.293547,-0.012695308774709702,-0.15087890625,0.9790038466453552,0.9906432995596769,-0.0743865966796875,-0.1125335693359375,-0.0934600830078125,0.1641095887171129
1785342494.301558,-0.0209960900247097,-0.150390625,0.9814452528953552,0.9931228324407028,0.232696533203125,-0.05340576171875,-0.2765655517578125,0.365360584038038
1785342494.309569,-0.02880859375,-0.1484375,0.9833983778953552,0.9949552734305791,-0.011444091796875,-0.17547607421875,0.0324249267578125,0.178813298542164
1785342494.320497,-0.02392578125,-0.1484375,0.9755858778953552,0.9871038139747631,0.1697540283203125,-0.1735687255859375,-0.2117156982421875,0.3221274119268289
1785342494.331425,-0.02294921875,-0.154296875,0.9702147841453552,0.982675388747586,0.232696533203125,-0.05340576171875,-0.2765655517578125,0.365360584038038
1785342494.342353,-0.012207027524709702,-0.1396484375,0.9794921278953552,0.9894723473782131,0.232696533203125,0.12969970703125,-0.2117156982421875,0.3402840393714083
1785342494.35015,-0.0161132775247097,-0.13134765625,0.9633788466453552,0.9724251367990707,0.2307891845703125,0.2536773681640625,-0.3337860107421875,0.4785696979547063
1785342494.35795,-0.014648430049419403,-0.14404296875,0.9809569716453552,0.9915843552461144,0.354766845703125,-0.05340576171875,-0.3337860107421875,0.49002529645120213
1785342494.36575,-0.0219726525247097,-0.13623046875,0.9741210341453552,0.9838461908445002,0.0476837158203125,0.0095367431640625,-0.3337860107421875,0.33730963103918826
1785342494.37355,-0.0166015587747097,-0.1484375,0.9790038466453552,0.9903321841212687,0.0476837158203125,-0.1735687255859375,-0.4558563232421875,0.4901069543434826
1785342494.384229,-0.0341796800494194,-0.14501953125,0.9858397841453552,0.9970351021784594,0.3528594970703125,-0.1735687255859375,-0.2117156982421875,0.44660884905744686
1785342494.394908,-0.0297851525247097,-0.150390625,0.9926757216453552,1.0044449132445927,0.110626220703125,0.00762939453125,-0.1506805419921875,0.1870855261719339
1785342494.405587,-0.0234375,-0.1396484375,0.9814452528953552,0.9916076779317863,0.232696533203125,0.12969970703125,0.0934600830078125,0.2823198145447328
1785342494.416235,-0.015624996274709702,-0.14013671875,0.9824218153953552,0.9924893268017075,0.2307891845703125,-0.1125335693359375,0.0934600830078125,0.2732439186110886
1785342494.426885,-0.0263671837747097,-0.1474609375,0.9809569716453552,0.9923288450348576,0.293731689453125,0.00762939453125,0.2765655517578125,0.4035158205932003
1785342494.437535,-0.0190429650247097,-0.13720703125,0.9843749403953552,0.9940736528143828,0.1697540283203125,-0.2956390380859375,0.0324249267578125,0.3424474366185289
1785342494.448219,-0.0278320275247097,-0.1416015625,0.9736327528953552,0.984269455875354,0.1697540283203125,-0.2346038818359375,0.2765655517578125,0.4004296641391185
1785342494.458903,-0.01904296875,-0.14794921875,0.9804686903953552,0.9917512081329328,0.232696533203125,-0.05340576171875,-0.2117156982421875,0.3190977731537623
1785342494.469587,-0.0273437462747097,-0.14501953125,0.9702147841453552,0.9813740735716038,0.2307891845703125,-0.2956390380859375,0.2765655517578125,0.4659984903131248
1785342494.480227,-0.0170898400247097,-0.140625,0.9819335341453552,0.992099248430447,0.293731689453125,-0.232696533203125,0.4596710205078125,0.5930627530442575
1785342494.490867,-0.0185546837747097,-0.142578125,0.9824218153953552,0.9928874162679274,-0.072479248046875,-0.17547607421875,0.2117156982421875,0.2843741037838039
1785342494.501507,-0.0205078087747097,-0.13330078125,0.9790038466453552,0.9882500696933962,0.110626220703125,-0.110626220703125,-0.0286102294921875,0.15904359982630134
1785342494.509528,-0.0161132775247097,-0.14013671875,0.9770507216453552,0.9871808599858054,0.0476837158203125,-0.4787445068359375,0.1544952392578125,0.5053106158921916
1785342494.517549,-0.0278320275247097,-0.138671875,0.9838866591453552,0.9940007387906511,-0.194549560546875,0.00762939453125,0.0934600830078125,0.2159688085944886
1785342494.52557,-0.0229492150247097,-0.1416015625,0.9833983778953552,0.9938058354728592,0.0476837158203125,-0.1735687255859375,0.1544952392578125,0.23721007189680526
1785342494.533591,-0.01904296875,-0.15478515625,0.9819335341453552,0.9942406875265857,-0.1354217529296875,0.3147125244140625,-0.1506805419921875,0.3742828474892759
1785342494.54424,-0.0283203087747097,-0.14111328125,0.9721679091453552,0.9827641841287706,0.1697540283203125,-0.0514984130859375,0.0934600830078125,0.20050761530966976
1785342494.554889,-0.02294921875,-0.14990234375,0.9863280653953552,0.9979180486841205,0.0476837158203125,-0.2956390380859375,-0.1506805419921875,0.33523246162904646
1785342494.565538,-0.0249023400247097,-0.15576171875,0.9907225966453552,1.0032014269678724,-0.133514404296875,-0.05340576171875,-0.0286102294921875,0.1466179278639039
1785342494.573534,-0.0224609337747097,-0.14794921875,0.9804686903953552,0.991822724946525,-0.255584716796875,-0.17547607421875,0.0934600830078125,0.32380578623488226
1785342494.581529,-0.0332031212747097,-0.15283203125,0.9863280653953552,0.9986506544457517,-0.194549560546875,0.072479248046875,0.2117156982421875,0.2965237086450249
1785342494.589524,-0.0268554650247097,-0.138671875,0.9848632216453552,0.9949405360459374,-0.011444091796875,0.255584716796875,0.2117156982421875,0.3320813930038404
1785342494.597519,-0.0200195275247097,-0.14599609375,0.9858397841453552,0.9967927171063862,-0.0095367431640625,0.0705718994140625,0.1544952392578125,0.17011796322086206
1785342494.608251,-0.0180664025247097,-0.13623046875,0.9873046278953552,0.9968227343814021,0.2307891845703125,0.1926422119140625,-0.3948211669921875,0.49624431828570603
1785342494.618983,-0.014648433774709702,-0.1416015625,0.9741210341453552,0.9844680636155293,-0.011444091796875,0.31280517578125,0.0934600830078125,0.32666930120294624
1785342494.629715,-0.0253906212747097,-0.1494140625,0.9736327528953552,0.9853577945254492,0.232696533203125,0.12969970703125,-0.0934600830078125,0.2823198145447328
1785342494.640338,-0.0170898400247097,-0.1416015625,0.9731444716453552,0.983541167327748,0.1697540283203125,0.0095367431640625,-0.0934600830078125,0.1940158929494642
1785342494.650962,-0.0229492150247097,-0.1435546875,0.9682616591453552,0.9791145261635071,0.232696533203125,0.12969970703125,-0.1506805419921875,0.3060626019359512
1785342494.661586,-0.0229492150247097,-0.1435546875,0.9829100966453552,0.9936029754690022,0.720977783203125,0.31280517578125,-0.3948211669921875,0.879511111796266
1785342494.669612,-0.0229492150247097,-0.14697265625,0.9838866591453552,0.9950681314360537,0.293731689453125,0.12969970703125,-0.5817413330078125,0.6644721949959124
1785342494.677637,-0.0356445275247097,-0.138671875,0.9755858778953552,0.986036625286975,0.354766845703125,-0.05340576171875,-0.6389617919921875,0.7327918270701252
1785342494.685662,-0.024902336299419403,-0.14453125,0.9692382216453552,0.9802714618298253,0.5359649658203125,-0.2956390380859375,-0.5817413330078125,0.8444429311426875
1785342494.693687,-0.0205078087747097,-0.14306640625,0.9750975966453552,0.9857504196304346,0.293731689453125,0.19073486328125,-0.6389617919921875,0.7286496175019731
1785342494.704323,-0.0263671837747097,-0.15185546875,0.9907225966453552,1.002639803355725,0.2307891845703125,0.1926422119140625,-0.8831024169921875,0.932868987812981
1785342494.714959,-0.0307617150247097,-0.1455078125,0.9765624403953552,0.9878223557911252,0.5359649658203125,0.0095367431640625,-0.2117156982421875,0.5763444551126722
1785342494.725595,-0.0278320275247097,-0.15283203125,0.9873046278953552,0.99945118930127,0.7190704345703125,-0.2346038818359375,-0.3337860107421875,0.8267492801404863
1785342494.736475,-0.0312499962747097,-0.14453125,0.9848632216453552,0.9959023093875222,0.720977783203125,0.12969970703125,0.1544952392578125,0.7486653169673436
1785342494.747356,-0.0302734337747097,-0.1416015625,0.9887694716453552,0.9993160417769686,0.782012939453125,0.560760498046875,-0.2117156982421875,0.9853020402516546
1785342494.758237,-0.0253906212747097,-0.15087890625,0.9843749403953552,0.9961943340926364,0.354766845703125,-0.05340576171875,0.2117156982421875,0.4165755958731642
1785342494.766259,-0.0234374962747097,-0.1318359375,0.9887694716453552,0.9977951186019933,0.110626220703125,0.12969970703125,0.1544952392578125,0.23006293413841641
1785342494.774283,-0.0302734337747097,-0.126953125,0.9760741591453552,0.984761057765329,0.232696533203125,-0.17547607421875,0.1544952392578125,0.3298610436855284
1785342494.782307,-0.013671875,-0.14453125,0.9692382216453552,0.9800504745628303,0.0476837158203125,-0.2956390380859375,-0.2117156982421875,0.36674202714849535
1785342494.790331,-0.01904296875,-0.14453125,0.9829100966453552,0.9936620023794598,0.110626220703125,-0.110626220703125,-0.4558563232421875,0.48195571254421166
1785342494.800935,-0.0283203125,-0.1396484375,0.9765624403953552,0.9869032000086031,0.1697540283203125,-0.1735687255859375,-0.4558563232421875,0.5164760595345981
1785342494.811539,-0.0185546837747097,-0.15185546875,0.9667968153953552,0.9788260529521383,0.4138946533203125,-0.2956390380859375,-0.0934600830078125,0.5171518268394178
1785342494.822143,-0.0161132775247097,-0.1533203125,0.9794921278953552,0.991550091799026,0.4787445068359375,0.0705718994140625,-0.3948211669921875,0.6245481964729114
1785342494.832648,-0.0249023400247097,-0.1435546875,0.9848632216453552,0.9955820610033093,0.1697540283203125,-0.2956390380859375,-0.8220672607421875,0.8899513762872192
1785342494.843155,-0.012207027524709702,-0.1396484375,0.9838866591453552,0.9938227486133475,0.598907470703125,-0.17547607421875,-1.1272430419921875,1.288471531236542
1785342494.853662,-0.0195312462747097,-0.1474609375,0.9707030653953552,0.9820339295754305,0.6580352783203125,-0.3566741943359375,-1.2531280517578125,1.4596427037195137
1785342494.864307,-0.02880859375,-0.13916015625,0.9829100966453552,0.9931302745605727,0.6580352783203125,-0.1735687255859375,-0.9479522705078125,1.1669404599963678
1785342494.874951,-0.0205078087747097,-0.13525390625,0.9902343153953552,0.9996390292316181,0.8411407470703125,-0.1125335693359375,-0.9479522705078125,1.2723187760032493
1785342494.885595,-0.0244140587747097,-0.140625,0.9833983778953552,0.9937020713161822,0.6580352783203125,-0.1735687255859375,-0.8220672607421875,1.0672071547735151
1785342494.893579,-0.0292968712747097,-0.1357421875,0.9809569716453552,0.9907375173845988,0.6580352783203125,-0.3566741943359375,-0.6389617919921875,0.9841235085319061
1785342494.901564,-0.0307617150247097,-0.14306640625,0.9926757216453552,1.0034038907900837,0.720977783203125,-0.17547607421875,-0.0934600830078125,0.7478874270981856
1785342494.909549,-0.013671875,-0.13916015625,0.9760741591453552,0.9860391642347947,0.782012939453125,0.00762939453125,-0.0286102294921875,0.7825733130925345
1785342494.917534,-0.0263671837747097,-0.1455078125,0.9819335341453552,0.9930061517220988,0.720977783203125,0.12969970703125,-0.0934600830078125,0.738488838773012
1785342494.928245,-0.0292968712747097,-0.13818359375,0.9702147841453552,0.9804436442867943,0.537872314453125,0.12969970703125,-0.1506805419921875,0.5734398542081051
1785342494.938956,-0.009765617549419403,-0.14404296875,0.9648436903953552,0.9755855118994762,0.537872314453125,0.12969970703125,-0.0286102294921875,0.5540281453958356
1785342494.949667,-0.0332031212747097,-0.15087890625,0.9780272841453552,0.9901536548164223,0.2307891845703125,0.0095367431640625,-0.1506805419921875,0.27578836617933405
1785342494.960297,-0.009765621274709702,-0.1416015625,0.9667968153953552,0.9771604024518815,0.1697540283203125,0.0095367431640625,-0.0286102294921875,0.17241207855816362
1785342494.970927,-0.0229492150247097,-0.138671875,0.9833983778953552,0.993392633873174,-0.2574920654296875,-0.2956390380859375,-0.0286102294921875,0.3930943268876066
1785342494.981557,-0.0336913987994194,-0.14453125,0.9785155653953552,0.9897055644486473,-0.072479248046875,0.12969970703125,-0.2117156982421875,0.2586480084663509
1785342494.989625,-0.012207027524709702,-0.14599609375,0.9868163466453552,0.997632383655289,-0.194549560546875,-0.05340576171875,0.0934600830078125,0.22234318970809358
1785342494.997691,-0.0229492150247097,-0.138671875,0.9892577528953552,0.9991934032257387,-0.255584716796875,-0.17547607421875,-0.2765655517578125,0.4154562606369849
1785342495.005757,-0.0258789025247097,-0.14697265625,0.9814452528953552,0.9927262783425711,0.293731689453125,-0.415802001953125,-0.3948211669921875,0.6442463535964223
1785342495.013823,-0.0258789025247097,-0.1357421875,0.9868163466453552,0.9964447606714857,0.1697540283203125,-0.3566741943359375,-0.3337860107421875,0.5171518268394178
1785342495.024409,-0.0195312462747097,-0.140625,0.9858397841453552,0.996010512098042,0.110626220703125,-0.29754638671875,-0.2765655517578125,0.4210231791428397
1785342495.034995,-0.0200195275247097,-0.1376953125,0.9853515028953552,0.9951273108627461,0.293731689453125,-0.17547607421875,-0.5168914794921875,0.6198765680228878
1785342495.045581,-0.0234374962747097,-0.14697265625,0.9921874403953552,1.0032876929351293,0.354766845703125,0.43487548828125,-0.2765655517578125,0.6256714069997955
1785342495.053568,-0.0239257775247097,-0.146484375,0.9794921278953552,0.9906739844965514,0.1697540283203125,0.4367828369140625,-0.1506805419921875,0.4922400862269644
1785342495.061555,-0.0205078087747097,-0.13818359375,0.9824218153953552,0.9923043379765658,0.0476837158203125,0.3147125244140625,-0.0934600830078125,0.331741611639739
1785342495.069542,-0.010742183774709702,-0.138671875,0.9838866591453552,0.9936690804651586,0.293731689453125,0.12969970703125,-0.3337860107421875,0.46315593525308824
1785342495.077529,-0.0239257775247097,-0.14697265625,0.9760741591453552,0.9873672916734961,-0.072479248046875,-0.05340576171875,-0.2765655517578125,0.29085034158704987
1785342495.088223,-0.0332031212747097,-0.13232421875,0.9804686903953552,0.9899146422675865,-0.377655029296875,-0.110626220703125,-0.2765655517578125,0.48098855108971494
1785342495.098917,-0.0278320275247097,-0.1376953125,0.9785155653953552,0.9885480931960774,-0.560760498046875,0.00762939453125,-0.2117156982421875,0.5994448103978128
1785342495.109611,-0.03271484375,-0.13916015625,0.9804686903953552,0.9908353359336224,-0.438690185546875,-0.35858154296875,-0.3948211669921875,0.6905892815256214
1785342495.120269,-0.0209960900247097,-0.13427734375,0.9829100966453552,0.9922618096693346,-0.377655029296875,-0.05340576171875,-0.3337860107421875,0.5068417874496608
1785342495.130929,-0.0268554650247097,-0.1435546875,0.9931640028953552,1.0038445601546293,-0.560760498046875,-0.415802001953125,-0.6389617919921875,0.9463698075403046
1785342495.141589,-0.0166015587747097,-0.13525390625,0.9838866591453552,0.9932785052309561,-0.1354217529296875,0.0705718994140625,-0.5168914794921875,0.5389770363615507
1785342495.149586,-0.01904296875,-0.14013671875,0.9916991591453552,1.0017325775127983,-0.560760498046875,-0.35858154296875,-0.5168914794921875,0.8427394975312663
1785342495.157585,-0.014648433774709702,-0.13720703125,0.9775390028953552,0.9872298862059109,-0.3185272216796875,-0.1735687255859375,-0.5817413330078125,0.6855717847039898
1785342495.165584,-0.013183590024709702,-0.14794921875,0.9584960341453552,0.9699368153890484,-0.2574920654296875,0.0705718994140625,-0.5817413330078125,0.6400824441240844
1785342495.173583,-0.0322265587747097,-0.14501953125,0.9785155653953552,0.9897282087802799,-0.438690185546875,0.12969970703125,-0.5817413330078125,0.7400635590466877
1785342495.184255,-0.010742183774709702,-0.1396484375,0.9912108778953552,1.0010574833976926,-0.377655029296875,0.00762939453125,-0.3948211669921875,0.5464112761640354
1785342495.194927,-0.0302734337747097,-0.1474609375,0.9794921278953552,0.9909924507733959,-0.1354217529296875,-0.1125335693359375,-0.1506805419921875,0.23174874569044587
1785342495.205599,-0.0253906212747097,-0.1357421875,0.9863280653953552,0.9959486320601806,-0.011444091796875,-0.17547607421875,-0.2765655517578125,0.32773666911009947
1785342495.216243,-0.0224609337747097,-0.1416015625,0.9750975966453552,0.9855814624027895,0.1087188720703125,0.3757476806640625,-0.3337860107421875,0.5142170880434128
1785342495.226889,-0.0283203087747097,-0.1474609375,0.9799804091453552,0.991417354238956,0.415802001953125,0.43487548828125,-0.3948211669921875,0.7196469613922892
1785342495.237535,-0.0312499962747097,-0.13330078125,0.9799804091453552,0.989498490578802,0.476837158203125,0.12969970703125,0.1544952392578125,0.5177494262677197
1785342495.245552,-0.029296867549419403,-0.138671875,0.9716796278953552,0.9819620637433403,0.1697540283203125,0.2536773681640625,-0.0934600830078125,0.3192231576271464
1785342495.253569,-0.0458984337747097,-0.15185546875,0.9785155653953552,0.9912918144185623,0.2307891845703125,0.0095367431640625,0.0324249267578125,0.23325088008420583
1785342495.261586,-0.0234374962747097,-0.14794921875,0.9741210341453552,0.9855709394684782,0.415802001953125,0.49591064453125,0.0934600830078125,0.6538757216042308
1785342495.269603,-0.0185546875,-0.14501953125,0.9882811903953552,0.9990368622635767,0.2307891845703125,0.2536773681640625,0.3948211669921875,0.5229719005246342
1785342495.280266,-0.0161132775247097,-0.130859375,0.9833983778953552,0.9921976533862569,0.598907470703125,-0.17547607421875,0.2765655517578125,0.6826203304226603
1785342495.290929,-0.0014648400247097015,-0.1259765625,0.9760741591453552,0.9841712270773448,0.476837158203125,-0.54168701171875,0.0324249267578125,0.7223917704288102
1785342495.301592,-0.0185546837747097,-0.13720703125,0.9809569716453552,0.9906798806547169,0.293731689453125,0.00762939453125,-0.3948211669921875,0.49215878225931653
1785342495.312244,-0.015136715024709702,-0.13720703125,0.9843749403953552,0.994006495373414,0.598907470703125,0.072479248046875,-0.4558563232421875,0.7561404547445804
1785342495.322897,-0.02392578125,-0.14453125,0.9829100966453552,0.9937675700697658,0.415802001953125,-0.232696533203125,-1.0700225830078125,1.1713186199918837
1785342495.33355,-0.024414055049419403,-0.1435546875,0.9882811903953552,0.998951302955474,0.537872314453125,-0.35858154296875,-1.3713836669921875,1.516107025148934
1785342495.341558,-0.0263671837747097,-0.1474609375,0.9824218153953552,0.993776926595347,0.110626220703125,-0.54168701171875,-1.4362335205078125,1.5389703391560576
1785342495.349568,-0.010253902524709702,-0.14794921875,0.9794921278953552,0.990655814324376,0.598907470703125,-0.35858154296875,-1.3713836669921875,1.538819041835265
1785342495.357578,-0.0229492150247097,-0.150390625,0.9858397841453552,0.9975089405924649,0.3528594970703125,-0.4177093505859375,-1.7986297607421875,1.8799095569912767
1785342495.365588,-0.024902336299419403,-0.14453125,0.9843749403953552,0.9952403889805171,0.415802001953125,-0.05340576171875,-1.1272430419921875,1.202672173093228
1785342495.376239,-0.0380859337747097,-0.13134765625,0.9799804091453552,0.9894768049138684,0.293731689453125,-0.05340576171875,-1.1272430419921875,1.1661077808219733
1785342495.38689,-0.0341796800494194,-0.14453125,0.9848632216453552,0.9959985432240909,-0.255584716796875,-0.05340576171875,-0.5817413330078125,0.63765092438936
1785342495.397541,-0.0302734337747097,-0.1396484375,0.9799804091453552,0.9903432582682637,0.110626220703125,0.072479248046875,-0.1506805419921875,0.20048947064510977
1785342495.408213,-0.0312499962747097,-0.15380859375,0.9746093153953552,0.9871661275762681,0.1697540283203125,-0.3566741943359375,0.6999969482421875,0.8037590674975551
1785342495.418888,-0.0249023400247097,-0.14697265625,0.9775390028953552,0.988839517012509,0.415802001953125,0.00762939453125,0.7648468017578125,0.8705975779016931
1785342495.429563,-0.0185546875,-0.14453125,0.9775390028953552,0.9883400532389803,-0.072479248046875,-0.17547607421875,1.0700225830078125,1.086735212536787
1785342495.43756,-0.012695308774709702,-0.1357421875,0.9775390028953552,0.9870003113038089,-0.072479248046875,0.12969970703125,0.8258819580078125,0.83914019327181
1785342495.445559,-0.014160152524709702,-0.1474609375,0.9804686903953552,0.9915967380207968,0.110626220703125,-0.110626220703125,1.1310577392578125,1.1418265765645441
1785342495.453558,-0.024414055049419403,-0.1435546875,0.9897460341453552,1.0004005230374668,0.1697540283203125,0.3757476806640625,1.0089874267578125,1.0899809067184378
1785342495.469612,-0.0268554650247097,-0.1220703125,0.9780272841453552,0.9859816153094745,0.3528594970703125,0.1926422119140625,0.4596710205078125,0.6106703640906035
1785342495.477665,-0.0224609337747097,-0.14404296875,0.9721679091453552,0.9830377988482422,0.415802001953125,0.12969970703125,0.4596710205078125,0.6332541084958805
1785342495.485718,-0.0175781212747097,-0.1572265625,0.9868163466453552,0.9994176726022013,0.347137451171875,0.1068115234375,0.2079010009765625,0.41849245841735566
1785342495.493771,-0.0224609337747097,-0.14697265625,0.9902343153953552,1.0013338377472922,0.3490447998046875,0.0438690185546875,0.2079010009765625,0.40863136109053416
1785342495.501756,-0.0263671837747097,-0.1396484375,0.9785155653953552,0.9887818901038754,0.347137451171875,-0.3814697265625,-0.0362396240234375,0.5170462964175786
1785342495.509741,-0.013671875,-0.1494140625,0.9902343153953552,1.001536560303855,0.1659393310546875,0.0438690185546875,0.0858306884765625,0.1919042976699308
1785342495.517726,-0.015136715024709702,-0.13818359375,0.9760741591453552,0.985923217027937,0.0438690185546875,-0.0782012939453125,-0.0972747802734375,0.13229631907546874
1785342495.533934,-0.01904296875,-0.1298828125,0.9863280653953552,0.9950252420055824,-0.1392364501953125,0.0438690185546875,-0.3414154052734375,0.371316251745017
1785342495.542158,-0.00927734375,-0.1337890625,0.9853515028953552,0.9944361048402355,-0.0782012939453125,-0.0782012939453125,-0.5245208740234375,0.5360531988858505
1785342495.550382,-0.01708984375,-0.125,0.9916991591453552,0.9996920951017888,0.1049041748046875,0.0438690185546875,-0.4024505615234375,0.4182054891449108
1785342495.558606,-0.0019531212747097015,-0.14306640625,0.9716796278953552,0.982157375651611,0.469207763671875,-0.0762939453125,-0.5855560302734375,0.7542231474642606
1785342495.569413,-0.0190429650247097,-0.1318359375,0.9916991591453552,1.0006051025169924,0.347137451171875,-0.1983642578125,-0.7076263427734375,0.8127655441580434
1785342495.58022,-0.0317382775247097,-0.1337890625,0.9707030653953552,0.980393427493679,0.2880096435546875,0.2269744873046875,-0.6465911865234375,0.7433351432278112
1785342495.591027,-0.0224609337747097,-0.146484375,0.9750975966453552,0.9862948284609021,0.347137451171875,-0.1373291015625,-0.1583099365234375,0.4054944243070725
1785342495.599414,-0.0283203125,-0.14453125,0.9716796278953552,0.9827780123677555,0.164031982421875,0.1068115234375,0.0858306884765625,0.21373371255057225
1785342495.607802,-0.0229492150247097,-0.13525390625,0.9711913466453552,0.9808327673079406,-0.3833770751953125,-0.0782012939453125,0.3299713134765625,0.5118344379557528
1785342495.61619,-0.0410156212747097,-0.1474609375,0.9794921278953552,0.9913787560190607,-0.2613067626953125,0.1049041748046875,0.6351470947265625,0.6947646666759542
1785342495.624578,-0.012695308774709702,-0.14306640625,0.9838866591453552,0.9943149025868936,-0.0782012939453125,0.1697540283203125,0.4520416259765625,0.4891559098296054
1785342495.634253,-0.0175781212747097,-0.14111328125,0.9824218153953552,0.9926603507027947,-0.2002716064453125,-0.0782012939453125,1.1234283447265625,1.1438161585053654
1785342495.643928,-0.013671871274709702,-0.15625,0.9916991591453552,1.004025998076622,0.0438690185546875,0.2269744873046875,0.7572174072265625,0.791719717124119
1785342495.653603,-0.0166015587747097,-0.146484375,0.9833983778953552,0.9943870742925547,0.2269744873046875,0.4100799560546875,0.9403228759765625,1.050661743535889
1785342495.664263,-0.0214843712747097,-0.13818359375,0.9960936903953552,1.005862278761945,0.1049041748046875,0.4100799560546875,0.9403228759765625,1.0312020012267726
1785342495.674923,-0.0258789025247097,-0.14990234375,0.9804686903953552,0.992199215431664,-0.0782012939453125,0.7762908935546875,0.5741119384765625,0.9686833908413898
1785342495.685583,-0.0200195275247097,-0.14208984375,0.9858397841453552,0.996228078897083,0.225067138671875,1.1444091796875,0.2689361572265625,1.1969353550324897
1785342495.696249,-0.0263671837747097,-0.13916015625,0.9711913466453552,0.9814649302275412,-0.0782012939453125,0.8983612060546875,0.3299713134765625,0.9602340166002253
1785342495.706915,-0.024414055049419403,-0.13427734375,0.9638671278953552,0.9734815310861078,-0.446319580078125,0.8392333984375,0.0858306884765625,0.9544007395734929
1785342495.717581,-0.0278320275247097,-0.13525390625,0.9848632216453552,0.9944967603072863,-0.507354736328125,0.7171630859375,-0.1583099365234375,0.8926330468384162
1785342495.728243,-0.0307617150247097,-0.13525390625,0.9804686903953552,0.9902316673954273,-0.751495361328125,0.4730224609375,-0.3414154052734375,0.9513464172461488
1785342495.738903,-0.008300777524709702,-0.13671875,0.9790038466453552,0.9885390489280024,-0.507354736328125,0.8392333984375,-0.5245208740234375,1.112134736807482
1785342495.749563,-0.0273437462747097,-0.1513671875,0.9765624403953552,0.9886019957004576,-0.812530517578125,0.4730224609375,-0.4634857177734375,1.0482247378912133
1785342495.75758,-0.0380859375,-0.14404296875,0.9785155653953552,0.9897937296237833,-0.263214111328125,0.6561279296875,-0.7076263427734375,1.0002602508873228
1785342495.765599,-0.0439453050494194,-0.14453125,0.9780272841453552,0.9896251010333097,-0.3223419189453125,0.5321502685546875,-0.8296966552734375,1.037055813736224
1785342495.773618,-0.0292968712747097,-0.14599609375,0.9775390028953552,0.9888152851965786,0.041961669921875,0.3509521484375,-0.5245208740234375,0.6324953276679918
1785342495.781637,-0.0346679650247097,-0.140625,0.9731444716453552,0.983863517525613,0.164031982421875,-0.0762939453125,-0.8907318115234375,0.9089171675177126
1785342495.79226,-0.0405273400247097,-0.140625,0.9887694716453552,0.9995413568093685,0.3490447998046875,-0.2613067626953125,-0.5855560302734375,0.7300612036607517
1785342495.802883,-0.0351562462747097,-0.138671875,0.9721679091453552,0.9826374174334067,0.1068115234375,-0.5035400390625,-0.5855560302734375,0.7796391069383901
1785342495.813506,-0.0273437462747097,-0.13720703125,0.9804686903953552,0.9904000720569224,-0.0782012939453125,-0.6237030029296875,-0.3414154052734375,0.7153218556679619
1785342495.824192,-0.0166015587747097,-0.14794921875,0.9755858778953552,0.9868801286029304,-0.2613067626953125,-0.6237030029296875,-0.0362396240234375,0.6772000963106652
1785342495.834877,-0.0283203087747097,-0.13720703125,0.9741210341453552,0.9841440943672576,-0.1983642578125,-0.6256103515625,-0.0972747802734375,0.6634749985017554
1785342495.845562,-0.0336913987994194,-0.13916015625,0.9848632216453552,0.9952166722831034,-0.324249267578125,-0.5035400390625,0.3910064697265625,0.7152455647063068
1785342495.85623,-0.0297851525247097,-0.1318359375,0.9765624403953552,0.9858712236993004,-0.5664825439453125,-0.2002716064453125,0.5741119384765625,0.831032915620227
1785342495.866898,-0.0317382775247097,-0.1484375,0.9809569716453552,0.9926316486421898,-0.0782012939453125,-0.0171661376953125,0.5741119384765625,0.5796676949420347
1785342495.877566,-0.0078124962747097015,-0.146484375,0.9814452528953552,0.9923474651794152,-0.141143798828125,0.2899169921875,0.2689361572265625,0.4198810438332165
1785342495.885588,-0.0200195275247097,-0.14111328125,0.9838866591453552,0.9941562742706312,-0.507354736328125,-0.0152587890625,0.4520416259765625,0.6796935270647864
1785342495.89361,-0.0253906212747097,-0.14013671875,0.9838866591453552,0.994140805738775,0.164031982421875,-0.0152587890625,0.4520416259765625,0.48112467564700795
1785342495.901632,-0.0068359337747097015,-0.13818359375,0.9848632216453552,0.9945335594749457,0.041961669921875,-0.0152587890625,0.2689361572265625,0.2726174408398637
1785342495.909654,-0.00390625,-0.134765625,0.9892577528953552,0.9984026913697052,0.225067138671875,0.1678466796875,0.3910064697265625,0.48136657981219727
1785342495.917645,-0.0175781212747097,-0.13818359375,0.9897460341453552,0.9995003291823731,-0.019073486328125,0.2899169921875,0.3299713134765625,0.4396552376092021
1785342495.925636,-0.010742183774709702,-0.1435546875,0.9873046278953552,0.9977443415419894,0.0438690185546875,0.2269744873046875,0.1468658447265625,0.273882246637901
1785342495.933627,-0.0185546837747097,-0.14306640625,0.9785155653953552,0.9890930111007059,0.347137451171875,-0.0152587890625,0.0247955322265625,0.34835622438555375
1785342495.941618,-0.0273437462747097,-0.13818359375,0.9726561903953552,0.9828033632199303,0.164031982421875,0.1678466796875,0.0858306884765625,0.24989178902822967
1785342495.949609,-0.0263671837747097,-0.13525390625,0.9780272841453552,0.9876873068278403,0.164031982421875,0.2899169921875,0.0858306884765625,0.3439843901991164
1785342495.9576,-0.0258789025247097,-0.134765625,0.9814452528953552,0.990992570965268,0.225067138671875,0.4730224609375,0.0858306884765625,0.53082235497921
1785342495.967213,-0.013183590024709702,-0.142578125,0.9760741591453552,0.9865207007081845,0.1049041748046875,0.2880096435546875,-0.3414154052734375,0.45882340789237874
1785342495.976826,-0.024902336299419403,-0.1396484375,0.9887694716453552,0.998892827337946,-0.019073486328125,0.2288818359375,-0.5855560302734375,0.6289885192055708
1785342495.986439,-0.02880859375,-0.138671875,0.9887694716453552,0.9988617982722651,0.1049041748046875,0.2880096435546875,-0.6465911865234375,0.7155659320857424
1785342495.996052,-0.0351562462747097,-0.13916015625,0.9775390028953552,0.9880202492465919,-0.019073486328125,0.3509521484375,-0.4024505615234375,0.5343198132618108
1785342496.005665,-0.015136715024709702,-0.1455078125,0.9775390028953552,0.9884250835657297,-0.263214111328125,-0.0152587890625,-0.6465911865234375,0.6982797874317251
1785342496.01369,-0.0307617150247097,-0.14013671875,0.9829100966453552,0.9933261504363305,0.0438690185546875,0.2269744873046875,-0.5245208740234375,0.5732050732176819
1785342496.021715,-0.0224609337747097,-0.14501953125,0.9746093153953552,0.9855954929104559,-0.2613067626953125,0.0438690185546875,-0.2193450927734375,0.3439738140368301
1785342496.02974,-0.0263671837747097,-0.14990234375,0.9790038466453552,0.9907645899951989,-0.2613067626953125,-0.0782012939453125,-0.1583099365234375,0.3153707383494549
1785342496.037765,-0.0161132775247097,-0.12841796875,0.9868163466453552,0.995267458735063,0.041961669921875,-0.1373291015625,-0.2193450927734375,0.26216852137963426
1785342496.04579,-0.0200195275247097,-0.13623046875,0.9809569716453552,0.9905736228659552,-0.263214111328125,-0.0152587890625,0.1468658447265625,0.301801384014645
1785342496.053815,-0.0273437462747097,-0.14306640625,0.9667968153953552,0.9777073996427695,-0.2613067626953125,0.2269744873046875,0.0858306884765625,0.3566027891112054
1785342496.063384,-0.0219726525247097,-0.134765625,0.9721679091453552,0.9817102498765427,-0.3814697265625,-0.0152587890625,0.3910064697265625,0.5464778516054897
1785342496.072953,-0.0249023400247097,-0.130859375,0.9794921278953552,0.9885085387456538,-0.3223419189453125,0.0438690185546875,0.3910064697265625,0.5086402096436411
1785342496.082522,-0.02392578125,-0.13525390625,0.9790038466453552,0.9885922283280952,-0.6275177001953125,0.0438690185546875,0.2689361572265625,0.6841268972282525
1785342496.092091,-0.02392578125,-0.13916015625,0.9892577528953552,0.9992841906882721,-0.1392364501953125,0.0438690185546875,0.5741119384765625,0.5923814630398723
1785342496.10166,-0.0205078087747097,-0.14306640625,0.9716796278953552,0.9823695160604721,-0.2613067626953125,-0.1354217529296875,0.4520416259765625,0.5394088495866453
1785342496.111235,-0.0322265587747097,-0.1474609375,0.9794921278953552,0.9910540387828555,-0.0782012939453125,-0.2613067626953125,0.7572174072265625,0.8048446237702923
1785342496.120811,-0.0263671837747097,-0.14501953125,0.9873046278953552,0.9982466233790951,0.225067138671875,-0.3204345703125,0.4520416259765625,0.5980594973552681
1785342496.130387,-0.0249023400247097,-0.13525390625,0.9863280653953552,0.9958698701542958,0.0438690185546875,-0.0782012939453125,0.3299713134765625,0.3419371300124053
1785342496.139963,-0.0273437462747097,-0.1396484375,0.9741210341453552,0.9844598294094805,0.041961669921875,-0.1373291015625,0.2689361572265625,0.3048716460125247
1785342496.149539,-0.01318359375,-0.1396484375,0.9853515028953552,0.9952854251411962,0.2269744873046875,0.0438690185546875,0.3910064697265625,0.4542333849952098
1785342496.159153,-0.0224609337747097,-0.14111328125,0.9721679091453552,0.982612790097516,0.1068115234375,0.1678466796875,0.1468658447265625,0.2472868491618683
1785342496.168767,-0.0405273400247097,-0.1455078125,0.9672850966453552,0.9790073784094928,-0.141143798828125,-0.3814697265625,0.1468658447265625,0.43244687601895043
1785342496.178381,-0.02880859375,-0.12890625,0.9873046278953552,0.9961009911783548,-0.2613067626953125,-0.2002716064453125,-0.2193450927734375,0.39560360248900467
1785342496.187995,-0.0234375,-0.1435546875,0.9711913466453552,0.9820233686161909,-0.4444122314453125,-0.2613067626953125,-0.0362396240234375,0.5168140536381208
1785342496.197609,-0.0166015587747097,-0.14990234375,0.9819335341453552,0.9934484334351134,-0.507354736328125,-0.1373291015625,-0.4634857177734375,0.7007760849162186
1785342496.207206,-0.0180664025247097,-0.15087890625,0.9750975966453552,0.9868668411872642,-0.324249267578125,-0.0152587890625,-0.3414154052734375,0.47109966793304997
1785342496.2168,-0.0288085900247097,-0.1416015625,0.9829100966453552,0.9934753119474257,-0.6275177001953125,-0.0782012939453125,-0.4024505615234375,0.7495734526406771
1785342496.226394,-0.0273437462747097,-0.14599609375,0.9892577528953552,1.000346660670271,-0.1392364501953125,0.0438690185546875,-0.4024505615234375,0.4281094887087571
1785342496.235988,-0.0292968712747097,-0.14794921875,0.9941405653953552,1.0055161568865112,-0.3223419189453125,0.0438690185546875,-0.4634857177734375,0.5662577276101903
1785342496.245582,-0.0336914025247097,-0.14697265625,0.9843749403953552,0.9958564633357669,-0.0782012939453125,0.1049041748046875,-0.1583099365234375,0.20538345665663632
1785342496.255173,-0.0214843712747097,-0.1484375,0.9770507216453552,0.9884955145487656,-0.2613067626953125,-0.0782012939453125,0.0247955322265625,0.273882246637901
1785342496.264767,-0.0278320275247097,-0.1318359375,0.9799804091453552,0.9892001508700542,-0.2002716064453125,0.2269744873046875,-0.0362396240234375,0.30485971295789804
1785342496.274361,-0.0346679650247097,-0.13818359375,0.9848632216453552,0.9951141335195113,-0.324249267578125,0.2899169921875,-0.1583099365234375,0.4628730775126722
1785342496.283955,-0.0327148400247097,-0.13818359375,0.9819335341453552,0.9921483920355336,-0.2002716064453125,0.0438690185546875,-0.1583099365234375,0.2590274949483017
1785342496.293549,-0.0224609337747097,-0.14990234375,0.9848632216453552,0.9964591168519876,-0.324249267578125,-0.1373291015625,-0.1583099365234375,0.3860814754206277
1785342496.3032,-0.0244140587747097,-0.14111328125,0.9912108778953552,1.0015028751177288,-0.3833770751953125,-0.0782012939453125,0.3299713134765625,0.5118344379557528
1785342496.312854,-0.0214843712747097,-0.138671875,0.9775390028953552,0.9875596029135307,-0.0782012939453125,-0.1354217529296875,0.3299713134765625,0.3651514223698415
1785342496.322508,-0.0200195275247097,-0.14404296875,0.9770507216453552,0.9878143909643833,-0.3833770751953125,-0.0782012939453125,0.5130767822265625,0.645245076401205
1785342496.332162,-0.02294921875,-0.1396484375,0.9848632216453552,0.9949793556084945,-0.019073486328125,-0.0762939453125,0.3299713134765625,0.3392132540003468
1785342496.341816,-0.0170898400247097,-0.14892578125,0.9819335341453552,0.9933098290222344,-0.2002716064453125,0.0438690185546875,0.6351470947265625,0.6674166907387997
1785342496.35195,-0.014160152524709702,-0.1416015625,0.9672850966453552,0.9776972796393466,-0.1392364501953125,-0.2613067626953125,0.6351470947265625,0.7007708935400279
1785342496.362087,-0.01904296875,-0.140625,0.9902343153953552,1.0003509507519455,0.041961669921875,-0.0152587890625,0.2079010009765625,0.2126415730597921
1785342496.372224,-0.012695308774709702,-0.15234375,0.9804686903953552,0.9923147897086542,0.1049041748046875,0.0438690185546875,0.2689361572265625,0.29198635814742147
1785342496.382361,-0.0224609337747097,-0.14306640625,0.9877929091453552,0.9983523032983727,-0.1392364501953125,-0.0782012939453125,-0.1583099365234375,0.22486499825399175
1785342496.392498,-0.0229492150247097,-0.14306640625,0.9770507216453552,0.9877361873168613,-0.2613067626953125,-0.2002716064453125,-0.2193450927734375,0.39560360248900467
1785342496.401519,-0.012207027524709702,-0.13671875,0.9711913466453552,0.980843341171958,-0.1983642578125,-0.0152587890625,-0.2803802490234375,0.3437939694985976
1785342496.41054,-0.0336913987994194,-0.14990234375,0.9809569716453552,0.9929161108746453,-0.1392364501953125,-0.0782012939453125,-0.2193450927734375,0.2713199240039345
1785342496.419561,-0.0205078087747097,-0.12939453125,0.9873046278953552,0.9959588059762979,-0.0782012939453125,-0.3185272216796875,-0.4024505615234375,0.5191738512254177
1785342496.428582,-0.01904296875,-0.15771484375,0.9843749403953552,0.9971111421884019,-0.3833770751953125,0.0438690185546875,-0.3414154052734375,0.5152348508518124
1785342496.437603,-0.0361328087747097,-0.140625,0.9687499403953552,0.9795700166455453,-0.2613067626953125,-0.1354217529296875,-0.0362396240234375,0.29653597715321794
1785342496.447219,-0.0268554650247097,-0.1416015625,0.9814452528953552,0.9919712712246068,-0.3833770751953125,-0.5664825439453125,-0.2193450927734375,0.7183263353823617
1785342496.456838,-0.0283203087747097,-0.13134765625,0.9848632216453552,0.9939868268951713,-0.3814697265625,-0.3204345703125,-0.1583099365234375,0.5227422903659888
1785342496.466457,-0.0161132775247097,-0.14599609375,0.9853515028953552,0.9962389679996373,-0.324249267578125,0.1068115234375,-0.0972747802734375,0.3549770019891932
1785342496.476076,-0.0327148400247097,-0.1318359375,0.9936522841453552,1.0028937316394135,-0.1983642578125,-0.1983642578125,0.0858306884765625,0.2933660931998936
1785342496.485695,-0.0307617150247097,-0.14990234375,0.9946288466453552,1.0063317238128162,0.2899169921875,-0.0152587890625,0.1468658447265625,0.32535253087988664
1785342496.495313,-0.0258789025247097,-0.13427734375,0.9809569716453552,0.9904426802496272,0.164031982421875,-0.0152587890625,-0.2803802490234375,0.3251959500721819
1785342496.504933,-0.0175781212747097,-0.14697265625,0.9702147841453552,0.9814411237598246,0.2899169921875,0.1678466796875,0.2079010009765625,0.3942679247012389
1785342496.514553,-0.0185546875,-0.14013671875,0.9897460341453552,0.9997898721614947,-0.019073486328125,0.2288818359375,0.2689361572265625,0.35366276219955667
1785342496.524173,-0.0170898400247097,-0.1376953125,0.9721679091453552,0.9820196053483833,-0.2002716064453125,-0.3833770751953125,0.3910064697265625,0.5830718287668576
1785342496.533793,-0.0317382775247097,-0.14404296875,0.9833983778953552,0.9943983430968522,-0.019073486328125,-0.1983642578125,0.2079010009765625,0.2879843795508183
1785342496.543346,-0.01416015625,-0.13525390625,0.9863280653953552,0.9956591694789197,0.530242919921875,-0.1373291015625,0.3299713134765625,0.6394512522316985
1785342496.552901,-0.0341796800494194,-0.1396484375,0.9799804091453552,0.9904703624708666,0.2880096435546875,-0.2613067626953125,0.2689361572265625,0.47281860758074323
1785342496.562456,-0.0200195275247097,-0.14990234375,0.9775390028953552,0.9891683356869553,-0.019073486328125,-0.1983642578125,0.1468658447265625,0.2475515158617695
1785342496.572011,-0.0166015587747097,-0.14599609375,0.9931640028953552,1.0039747047566159,-0.019073486328125,0.1678466796875,0.3299713134765625,0.3706984940356182
1785342496.581566,-0.029296867549419403,-0.13525390625,0.9746093153953552,0.984385718740116,-0.141143798828125,0.5950927734375,0.2079010009765625,0.6459719863525248
1785342496.589575,-0.0317382775247097,-0.13330078125,0.9726561903953552,0.982260902844301,-0.507354736328125,0.4119873046875,-0.2803802490234375,0.7111648555297829
1785342496.597585,-0.0170898400247097,-0.1396484375,0.9697265028953552,0.9798791962001832,-0.0782012939453125,0.4100799560546875,-0.1583099365234375,0.4464784975053003
1785342496.605595,-0.0180664025247097,-0.1484375,0.9667968153953552,0.9782924759830444,-0.507354736328125,0.1678466796875,-0.5245208740234375,0.7488013646108094
1785342496.613605,-0.0166015587747097,-0.14013671875,0.9829100966453552,0.9929885043559912,-0.8716583251953125,-0.2002716064453125,-0.2803802490234375,0.9372886621916047
1785342496.624266,-0.0205078087747097,-0.150390625,0.9775390028953552,0.9892524513440824,-0.8697509765625,-0.0152587890625,-0.5855560302734375,1.0486064354488118
1785342496.634927,-0.0288085900247097,-0.1416015625,0.9819335341453552,0.992509144965849,-0.5664825439453125,-0.2002716064453125,-0.2803802490234375,0.663041682690752
1785342496.645588,-0.0263671837747097,-0.134765625,0.9843749403953552,0.9939069500412043,-0.3833770751953125,-0.2613067626953125,-0.1583099365234375,0.49022570517841213
1785342496.656248,-0.01904296875,-0.1552734375,1.00146484375,1.0136095443113644,0.164031982421875,-0.1983642578125,0.0858306884765625,0.27133333211958127
1785342496.666906,-0.0239257775247097,-0.14697265625,0.9863280653953552,0.9975051163286767,0.041961669921875,-0.1983642578125,-0.0972747802734375,0.22488117617395614
1785342496.677564,-0.0268554650247097,-0.1416015625,0.9799804091453552,0.9905219941085774,0.2899169921875,-0.3204345703125,0.1468658447265625,0.4563986772084799
1785342496.688227,-0.0219726525247097,-0.1396484375,0.9809569716453552,0.9910908453692776,0.0438690185546875,-0.3833770751953125,0.2079010009765625,0.43832099970377925
1785342496.69889,-0.0258789025247097,-0.15283203125,0.9819335341453552,0.9940929598639515,0.225067138671875,-0.5035400390625,0.2079010009765625,0.5894324507999756
1785342496.709553,-0.0244140587747097,-0.1484375,0.9785155653953552,0.990011338012397,0.0438690185546875,-0.2613067626953125,0.6351470947265625,0.6881987699486601
1785342496.720235,-0.015624996274709702,-0.14306640625,0.9877929091453552,0.9982219034181321,-0.3833770751953125,-0.6237030029296875,0.7572174072265625,1.0532623697140897
1785342496.730918,-0.009765621274709702,-0.140625,0.9853515028953552,0.9953835151548454,-0.3833770751953125,-0.7495880126953125,0.7572174072265625,1.132359647977946
1785342496.741601,-0.017578125,-0.1494140625,0.9775390028953552,0.9890480548147875,-0.2002716064453125,-0.4444122314453125,1.0013580322265625,1.1137005237096018
1785342496.749605,-0.0214843712747097,-0.14599609375,0.9809569716453552,0.9919944646110453,-0.0171661376953125,-0.4444122314453125,0.6961822509765625,0.8261153880157238
1785342496.757609,-0.0170898400247097,-0.14501953125,0.9726561903953552,0.9835561965594266,-0.019073486328125,-0.1983642578125,0.8182525634765625,0.8421694807425516
1785342496.765613,-0.010742183774709702,-0.1416015625,0.9760741591453552,0.9863504251360179,0.1068115234375,-0.3204345703125,0.7572174072265625,0.8291352225043355
1785342496.773617,-0.0253906212747097,-0.14208984375,0.9750975966453552,0.9857228466101224,-0.0782012939453125,-0.3185272216796875,0.8182525634765625,0.881539727387069
1785342496.784256,-0.014648433774709702,-0.15576171875,0.9907225966453552,1.0029992787353943,0.2269744873046875,0.0438690185546875,0.5130767822265625,0.5627518930542488
1785342496.794895,-0.0253906212747097,-0.146484375,0.9858397841453552,0.99698667783056,0.041961669921875,0.1678466796875,0.3910064697265625,0.42757379362255105
1785342496.805534,-0.0209960900247097,-0.14892578125,0.9794921278953552,0.9909715196342523,0.1068115234375,0.6561279296875,0.1468658447265625,0.6807952247205405
1785342496.81354,-0.0268554650247097,-0.13427734375,0.9799804091453552,0.9895015024520917,-0.2002716064453125,0.1049041748046875,-0.1583099365234375,0.2759993446399708
1785342496.821547,-0.0175781212747097,-0.1328125,0.9809569716453552,0.9900629933107411,-0.0171661376953125,0.0438690185546875,0.0858306884765625,0.09790849889915923
1785342496.829554,-0.014648433774709702,-0.1416015625,0.9750975966453552,0.9854343722937826,-0.2613067626953125,0.0438690185546875,-0.0972747802734375,0.2822553770905019
1785342496.837561,-0.015624996274709702,-0.1357421875,0.9824218153953552,0.9918783722516462,0.0438690185546875,0.0438690185546875,-0.3414154052734375,0.3470064272256763
1785342496.847194,-0.010742183774709702,-0.13525390625,0.9785155653953552,0.9878773837825852,0.164031982421875,0.3509521484375,-0.3414154052734375,0.5163703910064683
1785342496.856827,-0.0219726525247097,-0.13232421875,0.9858397841453552,0.9949234022428712,0.041961669921875,0.4730224609375,-0.7686614990234375,0.9035217376327805
1785342496.86646,-0.0375976525247097,-0.1357421875,0.9794921278953552,0.9895677609702253,0.1049041748046875,0.2880096435546875,-0.5855560302734375,0.6609313922500106
1785342496.876093,-0.0170898400247097,-0.15234375,0.9892577528953552,1.0010652238788942,0.1049041748046875,0.4100799560546875,-0.4024505615234375,0.5840692687685228
1785342496.885726,-0.0292968712747097,-0.13232421875,0.9794921278953552,0.9888239651946426,0.0438690185546875,0.4100799560546875,-0.4024505615234375,0.5762434516914671
1785342496.895573,-0.0322265587747097,-0.1279296875,0.9829100966453552,0.9917241623161599,0.1049041748046875,0.2269744873046875,-0.2803802490234375,0.375679900741473
1785342496.90542,-0.0185546837747097,-0.1416015625,0.9814452528953552,0.9917812577495345,0.1659393310546875,0.0438690185546875,-0.3414154052734375,0.3821319554000349
1785342496.915267,-0.0283203087747097,-0.13671875,0.9755858778953552,0.9855261851617685,-0.3833770751953125,0.0438690185546875,0.0247955322265625,0.38667465781023497
1785342496.925114,-0.0214843712747097,-0.13818359375,0.9697265028953552,0.979758018190405,-0.2002716064453125,-0.0782012939453125,0.0858306884765625,0.23149744233418224
1785342496.934961,-0.0263671837747097,-0.13134765625,0.9809569716453552,0.9900626320603175,0.041961669921875,0.1678466796875,0.0247955322265625,0.1747801706234123
1785342496.944313,-0.014648433774709702,-0.15283203125,0.9780272841453552,0.9900048358067715,-0.324249267578125,0.2899169921875,0.4520416259765625,0.6273205572110099
1785342496.953664,-0.0229492150247097,-0.13037109375,0.9716796278953552,0.9806551829377529,-0.507354736328125,0.3509521484375,0.0247955322265625,0.6174067195827049
1785342496.963015,-0.0170898400247097,-0.14013671875,0.9829100966453552,0.9929967878404584,-0.141143798828125,0.1068115234375,0.3910064697265625,0.4292043019992962
1785342496.972366,-0.0263671837747097,-0.138671875,0.9848632216453552,0.9949274760734538,-0.4444122314453125,0.5321502685546875,0.0247955322265625,0.6937585734240886
1785342496.981717,-0.013183590024709702,-0.13330078125,0.9755858778953552,0.984738904723811,-0.019073486328125,0.5950927734375,-0.0362396240234375,0.5965002239962739
1785342496.991295,-0.01416015625,-0.14501953125,0.9736327528953552,0.9844754501660171,0.1049041748046875,0.5931854248046875,-0.0972747802734375,0.6101935897478894
1785342497.000871,-0.013671875,-0.14501953125,0.9809569716453552,0.9917127431013537,-0.1392364501953125,0.7152557373046875,-0.4024505615234375,0.8324325878296657
1785342497.010447,-0.0166015587747097,-0.13916015625,0.9794921278953552,0.9894675282444824,0.1659393310546875,0.5321502685546875,-0.8296966552734375,0.9995580571860909
1785342497.020023,-0.0219726525247097,-0.14111328125,0.9794921278953552,0.9898487683545826,-0.3833770751953125,0.8983612060546875,-1.0128021240234375,1.4070532970558476
1785342497.029599,-0.014648433774709702,-0.14697265625,0.9838866591453552,0.9949113007406445,-0.2002716064453125,1.0242462158203125,-1.0738372802734375,1.4974363196728833
1785342497.03921,-0.01806640625,-0.12890625,0.9853515028953552,0.9939118676130132,0.041961669921875,1.3275146484375,-1.2569427490234375,1.8286500479537817
1785342497.048823,-0.013671871274709702,-0.13232421875,0.9741210341453552,0.9831624525460512,0.0438690185546875,1.3866424560546875,-1.4400482177734375,1.9996101273085165
1785342497.058436,-0.02392578125,-0.15283203125,0.9882811903953552,1.0003148424739503,-0.507354736328125,1.6326904296875,-1.5621185302734375,2.3158802150135873
1785342497.068049,-0.0273437462747097,-0.1435546875,0.9736327528953552,0.9845386565666917,-0.1392364501953125,1.6918182373046875,-1.6841888427734375,2.3912607125243084
1785342497.077662,-0.0205078087747097,-0.14599609375,0.9721679091453552,0.9832832110755529,-0.141143798828125,1.3275146484375,-1.1959075927734375,1.792320195784484
1785342497.087244,-0.0400390587747097,-0.13232421875,0.9833983778953552,0.9930685750453382,-0.3833770751953125,1.2035369873046875,-1.2569427490234375,1.7819608121163473
1785342497.096829,-0.0249023400247097,-0.13671875,0.9858397841453552,0.9955863715138076,-0.6866455078125,1.2664794921875,-0.9517669677734375,1.726647826997514
1785342497.106414,-0.0385742112994194,-0.150390625,0.9858397841453552,0.9979906762435325,-0.507354736328125,1.1444091796875,-0.3414154052734375,1.297553728361806
1785342497.115999,-0.0366210900247097,-0.150390625,0.9936522841453552,1.0056357720913522,-0.2613067626953125,1.0242462158203125,-0.5245208740234375,1.1800354580006676
1785342497.125584,-0.0332031212747097,-0.14599609375,0.9726561903953552,0.9841124790221123,-0.263214111328125,0.9613037109375,0.0858306884765625,1.0003766291496536
1785342497.135186,-0.0327148400247097,-0.1474609375,0.9829100966453552,0.9944482122934319,0.347137451171875,0.5950927734375,0.1468658447265625,0.7044213194891877
1785342497.144788,-0.0341796837747097,-0.14208984375,0.9926757216453552,1.0033757336232352,0.1659393310546875,0.5321502685546875,0.2079010009765625,0.594930749012656
1785342497.15439,-0.0224609337747097,-0.13916015625,0.9877929091453552,0.997800017033173,0.1068115234375,0.1678466796875,0.3910064697265625,0.43871091710736704
1785342497.163992,-0.015136715024709702,-0.140625,0.9731444716453552,0.9833690423542205,0.5950927734375,0.1678466796875,0.3910064697265625,0.7315695293324368
1785342497.173594,-0.0224609337747097,-0.1552734375,0.9873046278953552,0.9996923337720882,0.1049041748046875,0.2880096435546875,0.6961822509765625,0.7606734958224481
1785342497.183527,-0.0312499962747097,-0.14697265625,0.9716796278953552,0.9832287746090459,0.164031982421875,-0.0762939453125,0.7572174072265625,0.7785277510503494
1785342497.193464,-0.0371093712747097,-0.150390625,0.9633788466453552,0.9757526570233,0.2269744873046875,-0.0782012939453125,0.3910064697265625,0.45882340789237874
1785342497.203401,-0.0263671837747097,-0.146484375,0.9794921278953552,0.990735953273283,0.1049041748046875,0.2269744873046875,0.4520416259765625,0.5165887488072235
1785342497.213338,-0.0253906212747097,-0.15087890625,0.9687499403953552,0.9807576535596938,-0.019073486328125,0.1068115234375,0.4520416259765625,0.46488077077384393
1785342497.223275,-0.0322265587747097,-0.13525390625,0.9794921278953552,0.9893113760870813,0.164031982421875,-0.0152587890625,0.3910064697265625,0.42429397976984473
1785342497.232541,-0.0390624925494194,-0.14404296875,0.9721679091453552,0.9835571659758972,0.2269744873046875,-0.1354217529296875,0.3910064697265625,0.47195606619875574
1785342497.241808,-0.0166015587747097,-0.1484375,0.9804686903953552,0.9917802962378226,0.347137451171875,-0.0152587890625,0.0858306884765625,0.3579163976882318
1785342497.251075,-0.0327148400247097,-0.15283203125,0.9794921278953552,0.9918834201370714,0.4100799560546875,0.1049041748046875,0.3299713134765625,0.5367043170747882
1785342497.260342,-0.033203125,-0.1337890625,0.9819335341453552,0.9915621141580502,0.1659393310546875,-0.2613067626953125,0.2689361572265625,0.41005334102403296
1785342497.269609,-0.0312499962747097,-0.14306640625,0.9653319716453552,0.9763761438836819,-0.0782012939453125,-0.0171661376953125,0.4520416259765625,0.4590770635455773
1785342497.277592,-0.01806640625,-0.1396484375,0.9736327528953552,0.9837625824565444,0.1049041748046875,0.0438690185546875,0.5130767822265625,0.5255256046477349
1785342497.285575,-0.0273437462747097,-0.1494140625,0.9902343153953552,1.001816471176032,0.164031982421875,-0.1373291015625,0.4520416259765625,0.5001073934753896
1785342497.293558,-0.0258789025247097,-0.1298828125,0.9746093153953552,0.9835662561486117,-0.263214111328125,0.1678466796875,0.2689361572265625,0.4120446977551867
1785342497.301541,-0.009765617549419403,-0.1494140625,0.9790038466453552,0.9903880356230469,0.1068115234375,-0.0152587890625,0.5130767822265625,0.5242988810236552
1785342497.312216,-0.0249023400247097,-0.14697265625,0.9814452528953552,0.9927013008225156,-0.2613067626953125,0.3528594970703125,0.6961822509765625,0.8230800541124853
1785342497.322891,-0.01416015625,-0.1376953125,0.9746093153953552,0.984390078558749,-0.5664825439453125,-0.0782012939453125,0.3299713134765625,0.66022646318284
1785342497.333566,-0.03271484375,-0.13916015625,0.9755858778953552,0.9860038616749746,-0.263214111328125,-0.0152587890625,0.5130767822265625,0.5768555135437919
1785342497.344225,-0.0312499962747097,-0.14306640625,1.00146484375,1.0121148117341585,-0.263214111328125,-0.3204345703125,0.6961822509765625,0.8103269147871152
1785342497.354885,-0.0234374962747097,-0.146484375,0.9829100966453552,0.9940418735838794,-0.019073486328125,-0.1373291015625,0.6961822509765625,0.7098540741528966
1785342497.365545,-0.0380859375,-0.14990234375,0.9819335341453552,0.9940395951752549,-0.019073486328125,-0.0762939453125,0.5130767822265625,0.5190687318959015
1785342497.373559,-0.014648430049419403,-0.14892578125,0.9609374403953552,0.9725195263733333,0.0438690185546875,0.1049041748046875,0.6351470947265625,0.645245076401205
1785342497.381572,-0.0317382775247097,-0.140625,0.9697265028953552,0.9803837000393728,-0.3833770751953125,-0.2002716064453125,0.6351470947265625,0.7684390217011962
1785342497.389585,-0.0209960900247097,-0.1435546875,0.9838866591453552,0.9945258881214489,0.2269744873046875,0.1049041748046875,0.6961822509765625,0.7397242934725556
1785342497.397598,-0.0268554650247097,-0.13623046875,0.9814452528953552,0.9912188159273239,-0.1983642578125,-0.1373291015625,0.5130767822265625,0.5669704096100879
1785342497.408247,-0.0307617150247097,-0.158203125,0.9912108778953552,1.0042278209296474,0.164031982421875,-0.1373291015625,0.8182525634765625,0.8457558932866975
1785342497.418896,-0.0253906212747097,-0.1328125,0.9887694716453552,0.9979724003512325,0.164031982421875,-0.0152587890625,1.1844635009765625,1.1958650036883591
1785342497.429545,-0.015624996274709702,-0.1572265625,0.9858397841453552,0.9984209595495838,0.469207763671875,0.1678466796875,0.8792877197265625,1.0106806258329177
1785342497.440273,-0.0229492150247097,-0.13330078125,0.9838866591453552,0.9931408373419749,0.347137451171875,0.1678466796875,0.6351470947265625,0.7430267490661538
1785342497.451001,-0.0278320275247097,-0.1357421875,0.9858397841453552,0.9955303326504833,0.713348388671875,0.4730224609375,0.6351470947265625,1.0658461446717917
1785342497.461729,-0.0200195275247097,-0.1533203125,0.9785155653953552,0.9906566566820222,0.6542205810546875,0.5321502685546875,0.7572174072265625,1.1333872589743
1785342497.469702,-0.0209960900247097,-0.15185546875,0.9799804091453552,0.9918984431353371,-0.019073486328125,0.7171630859375,0.3910064697265625,0.8170512524194161
1785342497.477675,-0.02880859375,-0.14306640625,0.9887694716453552,0.9994813653735509,-0.141143798828125,0.4730224609375,0.3299713134765625,0.5937616425944428
1785342497.485648,-0.0268554650247097,-0.13232421875,0.9731444716453552,0.9824668328057741,-0.5664825439453125,0.5321502685546875,-0.1583099365234375,0.7931887649983664
1785342497.493621,-0.0351562462747097,-0.13525390625,0.9731444716453552,0.9831275316569714,-0.507354736328125,0.2288818359375,-0.2803802490234375,0.6232245240193511
1785342497.503216,-0.0244140587747097,-0.13818359375,0.9780272841453552,0.9880425701255282,-0.6275177001953125,0.4100799560546875,0.0858306884765625,0.7545269653899649
1785342497.512808,-0.0278320275247097,-0.138671875,0.9902343153953552,1.000284214640349,-0.324249267578125,0.4119873046875,0.0858306884765625,0.5312607964389827
1785342497.5224,-0.0346679650247097,-0.14599609375,0.9750975966453552,0.9865759221533643,-0.2613067626953125,0.5931854248046875,-0.2193450927734375,0.6842970423396625
1785342497.531992,-0.0332031212747097,-0.15283203125,0.9863280653953552,0.9986506544457517,-0.0782012939453125,0.4100799560546875,0.1468658447265625,0.44255009781919874
1785342497.541584,-0.0268554650247097,-0.138671875,0.9780272841453552,0.9881743132921683,-0.1392364501953125,0.4100799560546875,-0.0972747802734375,0.44386342752929275
1785342497.552251,-0.024902336299419403,-0.1494140625,0.9838866591453552,0.9954786017138347,0.041961669921875,0.3509521484375,0.1468658447265625,0.3827502692131988
1785342497.562918,-0.0249023400247097,-0.1376953125,0.9926757216453552,1.002489508158218,-0.1983642578125,0.1678466796875,0.0247955322265625,0.26102816912743476
1785342497.573585,-0.0327148400247097,-0.1484375,0.9804686903953552,0.9921808328171208,-0.019073486328125,0.1068115234375,0.0858306884765625,0.13834524387961264
1785342497.584235,-0.0268554650247097,-0.146484375,0.9887694716453552,0.9999219750453877,-0.019073486328125,-0.1373291015625,0.1468658447265625,0.20197191974113476
1785342497.594888,-0.02392578125,-0.1435546875,0.9658202528953552,0.976723682632142,-0.0782012939453125,-0.6885528564453125,0.0858306884765625,0.6982745774966185
1785342497.605541,-0.029296867549419403,-0.1396484375,0.9658202528953552,0.9763036174506614,-0.019073486328125,-0.6256103515625,0.0858306884765625,0.6317586698631248
1785342497.616223,-0.0249023400247097,-0.138671875,0.9687499403953552,0.978941501046271,-0.141143798828125,-0.6866455078125,0.3299713134765625,0.7747804160303537
1785342497.626905,-0.0283203125,-0.13427734375,0.9838866591453552,0.993410994095023,-0.019073486328125,-0.3204345703125,0.5130767822265625,0.6052188828779461
1785342497.637587,-0.0380859337747097,-0.14111328125,0.9746093153953552,0.985508403897215,-0.0171661376953125,-0.4444122314453125,0.8792877197265625,0.9853648064567327
1785342497.645645,-0.0234375,-0.1396484375,0.9853515028953552,0.9954740512743547,0.041961669921875,-0.0152587890625,0.6351470947265625,0.6367145705305315
1785342497.653705,-0.0219726525247097,-0.13720703125,0.9848632216453552,0.9946175808988489,-0.1983642578125,-0.1983642578125,0.5130767822265625,0.5847602431894386
1785342497.661765,-0.011230465024709702,-0.15380859375,0.9858397841453552,0.9978292874333687,0.0438690185546875,-0.0782012939453125,1.0013580322265625,1.005364531833268
1785342497.669825,-0.0405273400247097,-0.15380859375,0.9794921278953552,0.9923227183783518,0.1049041748046875,-0.3833770751953125,0.3910064697265625,0.5575562097625619
1785342497.677822,-0.009765621274709702,-0.1533203125,0.9794921278953552,0.9914672532126059,0.041961669921875,-0.1983642578125,0.2689361572265625,0.3368023414169306
1785342497.685819,-0.0390624962747097,-0.14111328125,0.9848632216453552,0.99568790396892,0.2269744873046875,-0.1354217529296875,0.1468658447265625,0.30236740135309204
1785342497.693816,-0.0234374962747097,-0.1416015625,0.9667968153953552,0.9773926544601556,-0.0782012939453125,-0.2613067626953125,0.1468658447265625,0.30978418770536414
1785342497.701813,-0.0190429650247097,-0.142578125,0.9765624403953552,0.9870994662324459,0.1049041748046875,-0.2002716064453125,0.0247955322265625,0.22743882838696886
1785342497.712396,-0.0268554650247097,-0.1396484375,0.9736327528953552,0.9839632308213924,0.347137451171875,-0.3204345703125,0.0858306884765625,0.480155840266286
1785342497.722979,-0.0224609337747097,-0.1328125,0.9853515028953552,0.9945155795463524,0.301361083984375,-0.49591064453125,0.0057220458984375,0.5803262979642584
1785342497.733562,-0.0375976525247097,-0.14013671875,0.9853515028953552,0.9959766401254201,0.0591278076171875,-0.0667572021484375,-0.4215240478515625,0.4308539713052078
1785342497.744222,-0.0224609337747097,-0.14013671875,0.9746093153953552,0.984888882637758,0.179290771484375,-0.00762939453125,0.0667572021484375,0.19146778433737408
1785342497.754881,-0.0214843712747097,-0.13671875,0.9765624403953552,0.9863203307250459,-0.064849853515625,0.301361083984375,-0.1773834228515625,0.3556527592241789
1785342497.76554,-0.010253902524709702,-0.126953125,0.9804686903953552,0.9887067772144756,0.423431396484375,0.54168701171875,0.0057220458984375,0.6875694204971313
1785342497.773582,-0.0229492150247097,-0.1376953125,0.9687499403953552,0.9787559004014879,-0.186920166015625,0.35858154296875,-0.1773834228515625,0.441570775894074
1785342497.781626,-0.0166015587747097,-0.134765625,0.9707030653953552,0.9801539810679392,0.1811981201171875,0.1773834228515625,-0.1163482666015625,0.27898845240928377
1785342497.78967,-0.0283203087747097,-0.13330078125,0.9902343153953552,0.9995674752398975,0.118255615234375,0.17547607421875,-0.2384185791015625,0.3187783901372438
1785342497.797714,-0.0175781212747097,-0.14404296875,0.9814452528953552,0.9921149891140087,0.1811981201171875,0.3604888916015625,-0.0553131103515625,0.40724015013120934
1785342497.808823,-0.0268554650247097,-0.13427734375,0.9755858778953552,0.9851494435846269,-0.0019073486328125,-0.0667572021484375,0.0057220458984375,0.06702912670442802
1785342497.819932,-0.0346679650247097,-0.14990234375,0.9804686903953552,0.9924673462166302,-0.064849853515625,-0.19073486328125,0.0057220458984375,0.20153916091216362
1785342497.831041,-0.0371093712747097,-0.13427734375,0.9951171278953552,1.0048211824556947,0.118255615234375,0.118255615234375,0.1277923583984375,0.21047486295031953
1785342497.841229,-0.0263671837747097,-0.130859375,0.9819335341453552,0.9909656249763599,-0.064849853515625,0.05340576171875,0.0667572021484375,0.10730425399044193
1785342497.851418,-0.0195312462747097,-0.13623046875,0.9667968153953552,0.9765430315431516,0.118255615234375,0.301361083984375,0.1277923583984375,0.34804278521430776
1785342497.861607,-0.0307617150247097,-0.142578125,0.9814452528953552,0.9922245659479536,-0.1239776611328125,-0.0057220458984375,0.2498626708984375,0.27898845240928377
1785342497.870416,-0.0283203125,-0.134765625,0.9819335341453552,0.9915428781756872,-0.186920166015625,-0.00762939453125,0.0057220458984375,0.1871632921635172
1785342497.879223,-0.0288085900247097,-0.146484375,0.9809569716453552,0.9922520784548545,-0.064849853515625,0.118255615234375,-0.1773834228515625,0.22283350901063959
1785342497.88803,-0.0366210900247097,-0.14501953125,0.9863280653953552,0.9976045415218957,-0.2460479736328125,0.1163482666015625,-0.3604888916015625,0.45169543437821524
1785342497.896837,-0.0327148400247097,-0.150390625,0.9853515028953552,0.9972989447020729,0.1811981201171875,0.1773834228515625,-0.2384185791015625,0.34805323773432556
1785342497.90641,-0.0234374962747097,-0.146484375,0.9829100966453552,0.9940418735838794,0.2422332763671875,-0.3108978271484375,-0.2994537353515625,0.49498177615060296
1785342497.915983,-0.0327148400247097,-0.13232421875,0.9804686903953552,0.9898983849220198,0.1201629638671875,-0.0667572021484375,-0.6046295166015625,0.6200584764922366
1785342497.925556,-0.0317382775247097,-0.14453125,0.9726561903953552,0.9838478872270873,0.3032684326171875,0.0553131103515625,-0.6656646728515625,0.7335807652068227
1785342497.933823,-0.0195312462747097,-0.14306640625,0.9780272841453552,0.988628764861246,0.5474090576171875,0.1163482666015625,-0.6046295166015625,0.8238752623112098
1785342497.942091,-0.0361328087747097,-0.1455078125,0.9746093153953552,0.986073740155313,0.3032684326171875,0.1163482666015625,-0.6656646728515625,0.7406875981450287
1785342497.950359,-0.0253906212747097,-0.1416015625,0.9936522841453552,1.004012224994516,0.3032684326171875,0.0553131103515625,-0.2384185791015625,0.3897110484187711
1785342497.958627,-0.0209960900247097,-0.14111328125,0.9716796278953552,0.9820972931478446,0.0591278076171875,-0.2498626708984375,-0.4825592041015625,0.5466176336391367
1785342497.969022,-0.0361328087747097,-0.1416015625,0.9819335341453552,0.9927487334928101,0.1811981201171875,-0.0667572021484375,-0.4825592041015625,0.5197621265885227
1785342497.979417,-0.0253906212747097,-0.134765625,0.9760741591453552,0.9856608044767067,-0.003814697265625,-0.00762939453125,-0.1773834228515625,0.17758839567572557
1785342497.989812,-0.0292968712747097,-0.14794921875,0.9750975966453552,0.9866927591599981,0.06103515625,-0.19073486328125,-0.0553131103515625,0.20776096492397983
1785342498.000411,-0.0283203087747097,-0.1416015625,0.9755858778953552,0.9862154163976485,0.1811981201171875,-0.2498626708984375,-0.2994537353515625,0.43004261725846105
1785342498.01101,-0.02880859375,-0.1494140625,0.9765624403953552,0.988346445907273,-0.003814697265625,-0.19073486328125,0.0667572021484375,0.2021159667736145
1785342498.021609,-0.0302734337747097,-0.15478515625,0.9741210341453552,0.9868063206892551,0.0591278076171875,-0.1277923583984375,0.0667572021484375,0.15583166731231873
1785342498.032327,-0.0258789025247097,-0.1396484375,0.9624022841453552,0.9728255548762439,-0.064849853515625,-0.19073486328125,0.1277923583984375,0.23857111819528753
1785342498.043046,-0.0234375,-0.14990234375,0.9775390028953552,0.989243413548778,0.2422332763671875,-0.3719329833984375,-0.0553131103515625,0.4472925714742072
1785342498.053765,-0.0292968712747097,-0.14599609375,0.9770507216453552,0.9883325749586801,-0.0019073486328125,-0.3719329833984375,-0.0553131103515625,0.37602835304699245
1785342498.06171,-0.012207027524709702,-0.14990234375,0.9858397841453552,0.9972461101385619,0.2422332763671875,-0.3719329833984375,-0.3604888916015625,0.5718070874756344
1785342498.069655,-0.0258789025247097,-0.1513671875,0.9746093153953552,0.9866331946082832,0.0591278076171875,-0.4940032958984375,-0.1163482666015625,0.5109523198237998
1785342498.0776,-0.0185546875,-0.1298828125,0.9750975966453552,0.9838847210901696,-0.1239776611328125,-0.3719329833984375,0.1888275146484375,0.43515564443993
1785342498.085545,-0.0234374962747097,-0.1455078125,0.9868163466453552,0.9977616657983248,0.0591278076171875,-0.0667572021484375,0.0667572021484375,0.11139634514197418
1785342498.096288,-0.0180664025247097,-0.1435546875,0.9819335341453552,0.9925360490594762,0.3643035888671875,-0.1277923583984375,0.1888275146484375,0.4297718255247235
1785342498.107031,-0.0180664025247097,-0.1357421875,0.9770507216453552,0.9866004505549242,0.244140625,-0.19073486328125,0.4940032958984375,0.5831155024562689
1785342498.117774,-0.0224609337747097,-0.130859375,0.9833983778953552,0.9923210363680891,0.2422332763671875,-0.0667572021484375,0.1888275146484375,0.3143076749087993
1785342498.125753,-0.0351562462747097,-0.140625,0.9814452528953552,0.9920917985287228,0.0591278076171875,-0.0667572021484375,0.1277923583984375,0.15583166731231873
1785342498.133732,-0.0253906212747097,-0.1337890625,0.9780272841453552,0.987462184301801,0.118255615234375,0.118255615234375,-0.1163482666015625,0.20372947800971108
1785342498.141711,-0.0302734337747097,-0.134765625,0.9731444716453552,0.9828979688492951,0.423431396484375,-0.00762939453125,-0.1163482666015625,0.43919161459528083
1785342498.14969,-0.0195312462747097,-0.1357421875,0.9863280653953552,0.9958164809014122,-0.186920166015625,0.17547607421875,-0.2384185791015625,0.35010629806865956
1785342498.159376,-0.0244140587747097,-0.146484375,0.9941405653953552,1.005171220315023,0.3032684326171875,0.1163482666015625,-0.2384185791015625,0.4029293737419523
1785342498.169063,-0.0346679650247097,-0.1318359375,0.9799804091453552,0.989416082608402,-0.186920166015625,0.17547607421875,0.0667572021484375,0.26492928325351356
1785342498.17875,-0.0224609337747097,-0.13671875,0.9736327528953552,0.9834415324045361,-0.1850128173828125,-0.2498626708984375,-0.3604888916015625,0.4760392188386897
1785342498.188437,-0.013183590024709702,-0.1552734375,0.9804686903953552,0.9927751509201814,-0.3070831298828125,0.1773834228515625,-0.1773834228515625,0.3965221381760377
1785342498.198124,-0.01904296875,-0.1298828125,0.9770507216453552,0.9858297481357686,-0.2460479736328125,0.2384185791015625,-0.1773834228515625,0.38580811667480175
1785342498.207605,-0.0307617150247097,-0.15478515625,0.9653319716453552,0.9781464835019892,-0.553131103515625,0.17547607421875,-0.2384185791015625,0.6273669493689042
1785342498.217086,-0.02880859375,-0.12353515625,0.9921874403953552,1.00026335871202,-0.3070831298828125,0.2384185791015625,-0.3604888916015625,0.5301845985008952
1785342498.226567,-0.02880859375,-0.14892578125,0.9814452528953552,0.993097985007322,-0.1850128173828125,0.4215240478515625,-0.3604888916015625,0.5846918046981806
1785342498.236048,-0.0234375,-0.1435546875,0.9858397841453552,0.9965125913470603,-0.1239776611328125,0.2384185791015625,-0.1163482666015625,0.2928323726331479
1785342498.245529,-0.0405273400247097,-0.14697265625,0.9794921278953552,0.9912861623081551,-0.003814697265625,0.17547607421875,-0.2994537353515625,0.3471007694524117
1785342498.255133,-0.0400390587747097,-0.13671875,0.9804686903953552,0.9907643492146405,-0.3070831298828125,0.0553131103515625,-0.1773834228515625,0.35892125534429503
1785342498.264741,-0.0380859337747097,-0.14794921875,0.9892577528953552,1.0009847208343365,-0.1850128173828125,0.5435943603515625,-0.0553131103515625,0.5768744329390187
1785342498.274349,-0.0346679612994194,-0.13916015625,0.9750975966453552,0.9855875098699913,-0.1850128173828125,0.2994537353515625,0.0057220458984375,0.3520440654537346
1785342498.283957,-0.0161132775247097,-0.1416015625,0.9873046278953552,0.9975375022918264,-0.064849853515625,0.54168701171875,0.1277923583984375,0.5603224152493116
1785342498.293565,-0.029296867549419403,-0.14013671875,0.9853515028953552,0.9956978410383142,-0.0019073486328125,0.2384185791015625,0.0667572021484375,0.24759559947281465
1785342498.303168,-0.0283203087747097,-0.14599609375,0.9975585341453552,1.0085831291101313,0.2422332763671875,0.2384185791015625,0.0667572021484375,0.3463768223756861
1785342498.312771,-0.0205078087747097,-0.1455078125,0.9824218153953552,0.9933507522944656,0.3643035888671875,0.3604888916015625,-0.0553131103515625,0.5154889775799285
1785342498.322374,-0.0200195275247097,-0.1513671875,0.9882811903953552,1.0000062590920284,0.1811981201171875,0.1773834228515625,-0.2994537353515625,0.3923903376136351
1785342498.331977,-0.0283203125,-0.14501953125,0.9785155653953552,0.9896087187697262,0.3032684326171875,0.5435943603515625,0.0057220458984375,0.6224944277962444
1785342498.34158,-0.0205078087747097,-0.138671875,0.9882811903953552,0.9981734170102989,0.3643035888671875,0.7266998291015625,-0.2384185791015625,0.8471441231210667
1785342498.351184,-0.0249023400247097,-0.15283203125,0.9804686903953552,0.9926210803525635,-0.2460479736328125,0.6656646728515625,-0.3604888916015625,0.7959907681496777
1785342498.360791,-0.0253906212747097,-0.13037109375,0.9726561903953552,0.9816829276546947,-0.3681182861328125,0.6046295166015625,-0.6046295166015625,0.9309483214856975
1785342498.370398,-0.0400390587747097,-0.14013671875,0.9750975966453552,0.9859293834515376,-0.4901885986328125,0.2994537353515625,-0.4215240478515625,0.7124885436010677
1785342498.380005,-0.0278320275247097,-0.13623046875,0.9790038466453552,0.9888285463711002,-0.7953643798828125,0.4215240478515625,-0.6046295166015625,1.0843725706828702
1785342498.389612,-0.0478515625,-0.13916015625,0.9799804091453552,0.9909676702243689,-0.6122589111328125,0.2384185791015625,-0.4825592041015625,0.8152102664867995
1785342498.397602,-0.0312499962747097,-0.154296875,0.9692382216453552,0.9819403333197928,-0.492095947265625,0.17547607421875,-0.4825592041015625,0.711205778520964
1785342498.405594,-0.0375976525247097,-0.15185546875,0.9931640028953552,1.005409570031923,-0.553131103515625,0.17547607421875,-0.2384185791015625,0.6273669493689042
1785342498.413586,-0.0268554650247097,-0.1474609375,0.9833983778953552,0.9947554039749109,-0.2460479736328125,0.1163482666015625,0.1277923583984375,0.3006782521816903
1785342498.421578,-0.0322265587747097,-0.14794921875,0.9814452528953552,0.9930570511556841,-0.064849853515625,0.05340576171875,-0.3604888916015625,0.3701485105385148
1785342498.432241,-0.0351562462747097,-0.15625,0.9892577528953552,1.0021381770073905,-0.1239776611328125,0.1163482666015625,-0.1163482666015625,0.20602014159382334
1785342498.442904,-0.0346679650247097,-0.14990234375,0.9858397841453552,0.997773852365584,0.0591278076171875,0.2994537353515625,0.1888275146484375,0.35892125534429503
1785342498.453567,-0.0322265587747097,-0.1337890625,0.9863280653953552,0.9958820798275431,0.118255615234375,0.118255615234375,0.0667572021484375,0.18007027824604602
1785342498.462232,-0.0229492150247097,-0.14208984375,0.9736327528953552,0.9842138627746195,0.2422332763671875,-0.3719329833984375,0.0667572021484375,0.44885145466839244
1785342498.470896,-0.0258789025247097,-0.14404296875,0.9873046278953552,0.9980924419640611,-0.064849853515625,-0.67901611328125,0.4329681396484375,0.8079169484218054
1785342498.47956,-0.014160152524709702,-0.15673828125,0.9902343153953552,1.0026621555216069,-0.0019073486328125,-0.5550384521484375,0.0057220458984375,0.5550712234942505
1785342498.488224,-0.0410156212747097,-0.13232421875,0.9873046278953552,0.9969766337883421,0.1811981201171875,-0.7991790771484375,0.1277923583984375,0.8293677368639714
1785342498.498008,-0.0346679650247097,-0.14013671875,0.9882811903953552,0.9987691820587135,-0.003814697265625,-0.31280517578125,0.0057220458984375,0.3128807627835737
1785342498.507792,-0.0346679650247097,-0.14501953125,0.9819335341453552,0.9931898095138268,0.179290771484375,-0.49591064453125,0.0667572021484375,0.5315346386996331
1785342498.517576,-0.02392578125,-0.15966796875,0.9838866591453552,0.9970452654204734,0.3643035888671875,-0.3108978271484375,0.3108978271484375,0.5709921389237791
1785342498.52829,-0.029296867549419403,-0.12939453125,0.9829100966453552,0.9918233256245776,0.0591278076171875,-0.3108978271484375,-0.2384185791015625,0.3962284384292007
1785342498.539004,-0.0161132775247097,-0.138671875,0.9741210341453552,0.9840738365554793,0.0591278076171875,-0.2498626708984375,0.2498626708984375,0.35827197246033204
1785342498.549718,-0.0400390587747097,-0.1435546875,0.9799804091453552,0.9912480400179792,-0.064849853515625,0.118255615234375,0.2498626708984375,0.2839388109152383
1785342498.557664,-0.0185546837747097,-0.14306640625,0.9853515028953552,0.9958563436286404,-0.0019073486328125,0.4215240478515625,0.0057220458984375,0.4215671983269539
1785342498.565613,-0.0258789025247097,-0.1396484375,0.9814452528953552,0.9916683861669195,0.1811981201171875,0.0553131103515625,-0.0553131103515625,0.19736220278343816
1785342498.573562,-0.0297851525247097,-0.1474609375,0.9780272841453552,0.9895298135640171,0.2422332763671875,0.1163482666015625,0.1277923583984375,0.2975647260442763
1785342498.581511,-0.0317382775247097,-0.13720703125,0.9882811903953552,0.9982648941908827,0.2422332763671875,0.2994537353515625,-0.0553131103515625,0.38911314546330866
1785342498.592196,-0.0312499962747097,-0.14208984375,0.9868163466453552,0.9974831266595714,0.0591278076171875,-0.0667572021484375,0.4329681396484375,0.44205659323544916
1785342498.602881,-0.0351562462747097,-0.14697265625,0.9824218153953552,0.9939766328752473,-0.1239776611328125,-0.0667572021484375,0.0667572021484375,0.15583166731231873
1785342498.613566,-0.0258789025247097,-0.15185546875,0.9912108778953552,1.0031095680150033,-0.1850128173828125,-0.0667572021484375,-0.0553131103515625,0.20431790624264287
1785342498.621547,-0.02880859375,-0.14892578125,0.9912108778953552,1.0027501323125598,0.2422332763671875,-0.0667572021484375,0.1277923583984375,0.2818942551442017
1785342498.629528,-0.0161132775247097,-0.14306640625,0.9790038466453552,0.9895333071990455,0.301361083984375,0.301361083984375,0.0057220458984375,0.4262273427288996
1785342498.637509,-0.0175781212747097,-0.1435546875,0.9819335341453552,0.9925272813026141,-0.003814697265625,-0.00762939453125,-0.0553131103515625,0.05596695232819065
1785342498.64549,-0.0317382775247097,-0.140625,0.9672850966453552,0.9779688988293287,-0.064849853515625,0.301361083984375,-0.2384185791015625,0.38970171323981057
1785342498.653588,-0.0317382775247097,-0.1337890625,0.9677733778953552,0.9774927838443874,-0.0629425048828125,0.4215240478515625,-0.1163482666015625,0.44179316538316604
1785342498.661686,-0.0434570237994194,-0.14453125,0.9838866591453552,0.9953947725341309,0.0591278076171875,-0.1277923583984375,-0.1163482666015625,0.18265788688101617
1785342498.669784,-0.0380859375,-0.13916015625,0.9833983778953552,0.993925780614425,-0.244140625,-0.00762939453125,0.1277923583984375,0.27566961983747645
1785342498.677882,-0.0302734337747097,-0.126953125,0.9877929091453552,0.9963776433148334,-0.1850128173828125,0.1163482666015625,0.2498626708984375,0.33196086523205576
1785342498.687514,-0.0336913987994194,-0.14990234375,0.9877929091453552,0.9996702728263198,-0.42724609375,-0.19073486328125,0.0667572021484375,0.47262621249168807
1785342498.697146,-0.0292968712747097,-0.14111328125,0.9697265028953552,0.9803778634941142,-0.42724609375,-0.19073486328125,0.3108978271484375,0.5617619350055418
1785342498.706778,-0.0307617150247097,-0.1328125,0.9731444716453552,0.982647243908733,-0.4291534423828125,-0.1277923583984375,0.1277923583984375,0.4656548623595456
1785342498.71641,-0.0273437462747097,-0.13623046875,0.9697265028953552,0.9796304974294318,-0.186920166015625,0.17547607421875,0.0057220458984375,0.2564444245753783
1785342498.726042,-0.0205078087747097,-0.13525390625,0.9853515028953552,0.9948023791863181,-0.4901885986328125,-0.1277923583984375,0.0667572021484375,0.5109523198237998
1785342498.735553,-0.0214843712747097,-0.154296875,0.9716796278953552,0.9840886154766202,-0.2460479736328125,0.0553131103515625,0.1277923583984375,0.28271899895587493
1785342498.745062,-0.0229492150247097,-0.15283203125,0.9814452528953552,0.9935386659194896,-0.186920166015625,-0.12969970703125,-0.1163482666015625,0.25553489313299105
1785342498.754571,-0.0244140587747097,-0.13818359375,0.9814452528953552,0.9914260114997728,-0.2460479736328125,0.0553131103515625,0.0057220458984375,0.2522536170500656
1785342498.76408,-0.0380859337747097,-0.1513671875,0.9824218153953552,0.9947437796577856,-0.064849853515625,0.17547607421875,0.0057220458984375,0.1871632921635172
1785342498.773589,-0.015136715024709702,-0.15087890625,0.9736327528953552,0.985370134519777,-0.1239776611328125,-0.3108978271484375,-0.1773834228515625,0.37880443250854184
1785342498.784238,-0.0214843712747097,-0.15234375,0.9824218153953552,0.9943957058122473,-0.064849853515625,0.118255615234375,-0.1163482666015625,0.17812022113349968
1785342498.794887,-0.0346679650247097,-0.150390625,1.0009765625,1.0128046635759342,0.3643035888671875,0.0553131103515625,-0.1773834228515625,0.4089517376669442
1785342498.805536,-0.0283203087747097,-0.1455078125,0.9838866591453552,0.9949912167611523,0.118255615234375,0.05340576171875,-0.2994537353515625,0.32635732799375605
1785342498.813577,-0.0410156212747097,-0.13671875,0.9702147841453552,0.9806584650959431,0.06103515625,-0.19073486328125,-0.1773834228515625,0.2675256194683329
1785342498.821618,-0.0341796837747097,-0.1552734375,0.9746093153953552,0.9874924854556659,0.423431396484375,0.05340576171875,-0.1163482666015625,0.442360986135369
1785342498.829659,-0.0317382775247097,-0.140625,0.9838866591453552,0.994392109245364,0.118255615234375,0.05340576171875,-0.4825592041015625,0.49969986129911415
1785342498.8377,-0.02783203125,-0.154296875,0.9804686903953552,0.9929254757754227,0.118255615234375,0.118255615234375,-0.1773834228515625,0.24379019621686454
1785342498.84835,-0.013671871274709702,-0.13671875,0.9721679091453552,0.9818296085562741,0.118255615234375,0.118255615234375,-0.1773834228515625,0.24379019621686454
1785342498.859,-0.029296867549419403,-0.154296875,0.9814452528953552,0.9939318973218445,-0.125885009765625,-0.19073486328125,-0.1163482666015625,0.2564444245753783
1785342498.86965,-0.0249023400247097,-0.14599609375,0.9892577528953552,1.0002829037789922,-0.1239776611328125,0.1773834228515625,-0.2384185791015625,0.3219918601817548
1785342498.880346,-0.029296867549419403,-0.138671875,0.9799804091453552,0.9901766497312091,0.301361083984375,-0.12969970703125,-0.2994537353515625,0.4441993432685749
1785342498.891044,-0.0292968712747097,-0.1513671875,0.9858397841453552,0.9978228360394984,0.1811981201171875,-0.3719329833984375,-0.0553131103515625,0.41740441187226235
1785342498.901742,-0.0219726525247097,-0.1396484375,0.9692382216453552,0.9794933454870501,0.0591278076171875,-0.2498626708984375,0.0667572021484375,0.2652997851126219
1785342498.909699,-0.015624996274709702,-0.14453125,0.9838866591453552,0.9945684394647538,0.0591278076171875,-0.4329681396484375,0.0057220458984375,0.43702431213092463
1785342498.917656,-0.0229492150247097,-0.15185546875,0.9785155653953552,0.9904945540388015,-0.003814697265625,-0.31280517578125,-0.1773834228515625,0.35961995024373067
1785342498.925613,-0.0351562462747097,-0.1318359375,0.9824218153953552,0.9918514502854434,-0.0019073486328125,-0.2498626708984375,-0.2384185791015625,0.34536706726049604
1785342498.93357,-0.0302734337747097,-0.15380859375,0.9750975966453552,0.9876177840072606,0.244140625,-0.19073486328125,-0.1163482666015625,0.33094010332308776
1785342498.944237,-0.0249023400247097,-0.14208984375,0.9765624403953552,0.9871594857096483,0.0591278076171875,-0.3108978271484375,-0.0553131103515625,0.3212679516167135
1785342498.954904,-0.0341796837747097,-0.140625,0.9780272841453552,0.9886763929318221,0.118255615234375,-0.19073486328125,-0.1163482666015625,0.2527866644951152
1785342498.965571,-0.0312499962747097,-0.140625,0.9843749403953552,0.9948597771397377,-0.064849853515625,-0.064849853515625,-0.2384185791015625,0.2554494585290876
1785342498.97628,-0.0366210900247097,-0.146484375,0.9750975966453552,0.9867188552659194,0.2422332763671875,-0.2498626708984375,-0.0553131103515625,0.35237459423864154
1785342498.98699,-0.0273437462747097,-0.130859375,0.9760741591453552,0.9851865917870779,0.301361083984375,-0.12969970703125,-0.2384185791015625,0.4055661916445176
1785342498.9977,-0.024414055049419403,-0.14404296875,0.9843749403953552,0.9951574981924362,-0.064849853515625,-0.12969970703125,-0.1163482666015625,0.18591513291332248
1785342499.005672,-0.033203125,-0.1494140625,0.9819335341453552,0.993790961451002,-0.003814697265625,-0.00762939453125,-0.1773834228515625,0.17758839567572557
1785342499.013645,-0.0229492150247097,-0.140625,0.9741210341453552,0.9844865901878332,0.2422332763671875,0.0553131103515625,-0.1773834228515625,0.3052890090699018
1785342499.021618,-0.033203125,-0.1435546875,0.9814452528953552,0.992444043885506,-0.064849853515625,0.23651123046875,-0.1773834228515625,0.3026680431452525
1785342499.029591,-0.0249023400247097,-0.134765625,0.9794921278953552,0.9890332293858067,0.118255615234375,-0.19073486328125,-0.1163482666015625,0.2527866644951152
1785342499.04023,-0.0297851525247097,-0.14208984375,0.9741210341453552,0.9848799257636618,-0.064849853515625,0.118255615234375,0.3108978271484375,0.33889135864031456
1785342499.050869,-0.0395507775247097,-0.13671875,0.9887694716453552,0.9989601336701113,0.1811981201171875,0.0553131103515625,0.0057220458984375,0.18953902162887373
1785342499.061508,-0.0263671837747097,-0.1328125,0.9799804091453552,0.9892906503374815,-0.2460479736328125,0.0553131103515625,-0.0553131103515625,0.2581834341748933
1785342499.069587,-0.0185546875,-0.1298828125,0.9799804091453552,0.9887241393431389,-0.186920166015625,0.17547607421875,0.4329681396484375,0.5031822841050367
1785342499.077666,-0.0346679650247097,-0.14306640625,0.9833983778953552,0.994355185053842,-0.370025634765625,0.54168701171875,0.0667572021484375,0.6593938982786998
1785342499.085745,-0.0371093712747097,-0.134765625,0.9736327528953552,0.9836155837666627,-0.1239776611328125,0.2994537353515625,0.1888275146484375,0.375098427568381
1785342499.093824,-0.0317382775247097,-0.138671875,0.9707030653953552,0.9810716835910567,-0.3070831298828125,0.1163482666015625,0.4329681396484375,0.5434136341227016
1785342499.104774,-0.0249023400247097,-0.12158203125,0.9799804091453552,0.9878076326746418,-0.186920166015625,0.35858154296875,-0.0553131103515625,0.4081414112754579
1785342499.115724,-0.0322265587747097,-0.138671875,0.9858397841453552,0.996066523887956,-0.1239776611328125,-0.0667572021484375,-0.0553131103515625,0.15128292922671072
1785342499.126674,-0.029785148799419403,-0.13916015625,0.9702147841453552,0.980596467233462,-0.0019073486328125,0.0553131103515625,0.0057220458984375,0.0556409917671769
1785342499.136993,-0.0297851525247097,-0.14208984375,0.9843749403953552,0.9950229657079172,0.3643035888671875,0.0553131103515625,-0.0553131103515625,0.37260728014229816
