timestamp,accel_x,accel_y,accel_z,accel_rms,gyro_x,gyro_y,gyro_z,gyro_rms
1784904933.669858,0.0390625,-0.15087890625,0.9794921278953552,0.9918140712181982,0.2422332763671875,0.6885528564453125,-0.0057220458984375,0.7299415991076582
1784904933.680534,0.0512695349752903,-0.15234375,0.9858397841453552,0.9988579795868908,-0.06103515625,0.751495361328125,0.1163482666015625,0.7628941522500611
1784904933.69121,0.0390625,-0.14794921875,0.9760741591453552,0.9879957562592552,0.3681182861328125,0.8716583251953125,-0.0057220458984375,0.9462198741713895
1784904933.699189,0.03515625,-0.14990234375,0.9731444716453552,0.985249631956147,0.1201629638671875,0.6885528564453125,0.1163482666015625,0.7085768082187945
1784904933.707169,0.0527343787252903,-0.158203125,0.9790038466453552,0.9931050675561525,0.2422332763671875,0.5092620849609375,-0.0667572021484375,0.5678744186851796
1784904933.715149,0.0332031287252903,-0.15380859375,0.9790038466453552,0.9915684862957792,0.06103515625,0.812530517578125,-0.4329681396484375,0.9227093487360288
1784904933.723129,0.0317382849752903,-0.15771484375,0.9726561903953552,0.985870861414752,0.0,0.629425048828125,-0.1888275146484375,0.6571390434151614
1784904933.733801,0.0336914025247097,-0.15576171875,0.9897460341453552,1.0024939080804904,0.0591278076171875,0.6885528564453125,-0.0667572021484375,0.6943037215738525
1784904933.744473,0.0288085974752903,-0.14892578125,0.9848632216453552,0.9964759851391725,0.0,0.446319580078125,0.2994537353515625,0.5374697267540912
1784904933.755145,0.0410156287252903,-0.146484375,0.9726561903953552,0.9844795674026338,-0.1201629638671875,0.3833770751953125,0.1773834228515625,0.4391833311650108
1784904933.763152,0.0341796837747097,-0.16162109375,0.9746093153953552,0.9885104685248853,-0.48828125,-0.164031982421875,1.0929107666015625,1.2082131492880004
1784904933.771158,0.010742191225290298,-0.16162109375,0.9746093153953552,0.9879777782281695,-0.6103515625,-0.347137451171875,1.4591217041015625,1.619280577056535
1784904933.779164,0.015136722475290298,-0.16162109375,0.9765624403953552,0.9899619681094683,-0.9174346923828125,-0.7762908935546875,2.8629302978515625,3.1049450649826187
1784904933.78717,0.0219726599752903,-0.16015625,0.9731444716453552,0.9864800985799814,-1.1005401611328125,-1.3866424560546875,3.0460357666015625,3.523109399183565
1784904933.797818,0.02490234375,-0.1630859375,0.9765624403953552,0.9903995909356126,-1.1005401611328125,-1.5087127685546875,4.0836334228515625,4.490374683308349
1784904933.808466,0.0439453125,-0.17333984375,0.9692382216453552,0.9855965818834032,-0.8544921875,-1.628875732421875,4.3277740478515625,4.702448432405074
1784904933.819114,0.0327148474752903,-0.1533203125,0.9770507216453552,0.9895481252259228,-0.9765625,-1.567840576171875,4.6939849853515625,5.044332803394629
1784904933.829762,0.048828125,-0.16845703125,0.9848632216453552,1.0003586969273808,-1.15966796875,-1.628875732421875,4.8160552978515625,5.214638489999259
1784904933.840411,0.0288085974752903,-0.15185546875,0.9775390028953552,0.9896830406041223,-1.1005401611328125,-1.5087127685546875,4.8770904541015625,5.222395442874349
1784904933.85106,0.0361328125,-0.15478515625,0.9794921278953552,0.9923048187646113,-0.5512237548828125,-1.5697479248046875,4.5108795166015625,4.807909128578792
1784904933.859076,0.05078125,-0.1494140625,0.9833983778953552,0.9959797523401428,-0.0629425048828125,-1.2645721435546875,3.9005279541015625,4.100880732952757
1784904933.867094,0.0527343787252903,-0.1572265625,0.9741210341453552,0.9881360715101565,-0.1220703125,-1.201629638671875,3.6563873291015625,3.850712044563058
1784904933.875112,0.0585937462747097,-0.16259765625,0.9638671278953552,0.9792400447069857,-0.2460479736328125,-1.0814666748046875,3.1070709228515625,3.2990907070996975
1784904933.88313,0.0576171875,-0.16845703125,0.9829100966453552,0.9989042845840412,-0.1220703125,-0.896453857421875,2.3136138916015625,2.4842181705905246
1784904933.893835,0.064453125,-0.150390625,0.9785155653953552,0.992100930919404,-0.2460479736328125,-0.8983612060546875,1.4591217041015625,1.7310772973074002
1784904933.90454,0.06396484375,-0.14697265625,0.9824218153953552,0.9954120183551372,-0.5512237548828125,-0.7762908935546875,0.4825592041015625,1.0673980348614924
1784904933.915245,0.0595703125,-0.1484375,0.9770507216453552,0.990055769239949,-0.48828125,-0.713348388671875,-0.1888275146484375,0.8848391565762835
1784904933.925891,0.05810546875,-0.14990234375,0.9775390028953552,0.9906712170755976,-0.2460479736328125,-0.4100799560546875,-1.1043548583984375,1.2034553705704505
1784904933.936538,0.05517578125,-0.15283203125,0.9760741591453552,0.9895063217402207,0.0,0.080108642578125,-1.7757415771484375,1.7775476205799186
1784904933.947185,0.05078125,-0.14404296875,0.9843749403953552,0.996153168682525,0.244140625,0.324249267578125,-2.5691986083984375,2.6010620372641653
1784904933.955163,0.0307617224752903,-0.15625,0.9804686903953552,0.9933172700176061,0.3032684326171875,0.6885528564453125,-2.7523040771484375,2.8532883680814662
1784904933.963141,0.0327148474752903,-0.15380859375,0.9799804091453552,0.9925164719365527,0.18310546875,0.751495361328125,-2.9354095458984375,3.0356057209287766
1784904933.971119,0.03564453125,-0.169921875,0.9716796278953552,0.9870690327826134,0.48828125,0.751495361328125,-2.8743743896484375,3.010845726546958
1784904933.979097,0.0322265662252903,-0.15576171875,0.9780272841453552,0.9908772038609862,0.3662109375,0.751495361328125,-2.4471282958984375,2.5859800125733976
1784904933.987477,0.041015625,-0.15869140625,0.9750975966453552,0.9887773090515837,0.6084442138671875,0.6885528564453125,-2.0198822021484375,2.2190614024995976
1784904933.995857,0.03515625,-0.15625,0.9819335341453552,0.9949087847100607,0.48828125,0.446319580078125,-1.8978118896484375,2.0098034021151543
1784904934.004237,0.0239257849752903,-0.15771484375,0.9707030653953552,0.9837229570838072,0.30517578125,0.629425048828125,-1.4095306396484375,1.5735579981880454
1784904934.012617,0.01025390625,-0.162109375,0.9702147841453552,0.9837181097400274,0.30517578125,0.507354736328125,-0.7381439208984375,0.9462544762881959
1784904934.022784,0.0190429724752903,-0.16162109375,0.9726561903953552,0.9861764940719518,0.2422332763671875,-0.1049041748046875,-0.6160736083984375,0.6702451320495405
1784904934.032951,0.03466796875,-0.15771484375,0.9838866591453552,0.9970500479116112,0.2422332763671875,-0.1049041748046875,-0.1888275146484375,0.32455766261073016
1784904934.043118,0.0288085974752903,-0.14794921875,0.9658202528953552,0.9775109551918467,0.0591278076171875,-0.6504058837890625,-0.1277923583984375,0.6654733639794168
1784904934.051161,0.0390625,-0.13525390625,0.9741210341453552,0.9842414781071513,0.3662109375,-0.957489013671875,0.4825592041015625,1.1330309119834738
1784904934.059204,0.03515625,-0.15771484375,0.9760741591453552,0.989358730696031,0.3032684326171875,-1.2645721435546875,0.3604888916015625,1.3494690398244436
1784904934.067247,0.0371093787252903,-0.15380859375,0.9711913466453552,0.9839953360151399,0.244140625,-1.018524169921875,0.2384185791015625,1.0741692363641975
1784904934.07529,0.0468750037252903,-0.16552734375,0.9750975966453552,0.9901575079181718,0.48828125,-0.652313232421875,0.2994537353515625,0.8681034914745138
1784904934.085934,0.0566406287252903,-0.14794921875,0.9750975966453552,0.9878828144748139,0.3662109375,-0.713348388671875,0.2384185791015625,0.8365523254562128
1784904934.096578,0.0620117224752903,-0.14306640625,0.9916991591453552,1.003882798224597,0.0591278076171875,-0.4100799560546875,-0.4940032958984375,0.644748729622594
1784904934.107222,0.04443359375,-0.15478515625,0.9677733778953552,0.9810800679923444,-0.1220703125,0.507354736328125,-0.6771087646484375,0.8548603797300247
1784904934.115261,0.0576171912252903,-0.15673828125,0.9809569716453552,0.9950694497136982,-0.42724609375,0.812530517578125,-1.1653900146484375,1.4835359627803753
1784904934.1233,0.04931640625,-0.16064453125,0.9780272841453552,0.992358877563297,-0.18310546875,1.117706298828125,-1.6536712646484375,2.0043511754805308
1784904934.131339,0.0468750037252903,-0.15576171875,0.9682616591453552,0.9818297304385909,-0.30517578125,0.995635986328125,-1.3484954833984375,1.7037791357682226
1784904934.139378,0.0361328125,-0.14453125,0.9829100966453552,0.9941363691431393,-0.5512237548828125,1.1768341064453125,-1.5316009521484375,2.008628292806323
1784904934.150676,0.0463867224752903,-0.16015625,0.9838866591453552,0.9979151820071035,-0.7343292236328125,1.2378692626953125,-1.8367767333984375,2.3335184782985627
1784904934.161974,0.03857421875,-0.15478515625,0.9794921278953552,0.992396716820688,-0.79345703125,0.812530517578125,-1.7757415771484375,2.1078515249536576
1784904934.173272,0.03076171875,-0.1552734375,0.9819335341453552,0.9946102700116805,-0.48828125,0.385284423828125,-1.8367767333984375,1.9392295982425514
1784904934.183228,0.0419921912252903,-0.15625,0.9868163466453552,0.9999919542828268,-0.4291534423828125,0.2002716064453125,-2.0809173583984375,2.1341270922653917
1784904934.193186,0.0263671912252903,-0.1669921875,0.9829100966453552,0.9973434100381512,-0.244140625,-0.041961669921875,-1.9588470458984375,1.9744485751072522
1784904934.203144,0.0263671875,-0.15869140625,0.9628905653953552,0.9762358485128733,0.1201629638671875,0.2002716064453125,-1.7757415771484375,1.7910348972164538
1784904934.211136,0.0234375037252903,-0.1572265625,0.9770507216453552,0.9898977832100387,0.0,0.141143798828125,-2.0809173583984375,2.0856985938604757
1784904934.219128,0.0366210974752903,-0.1484375,0.9716796278953552,0.9836341268242987,0.30517578125,0.019073486328125,-1.4095306396484375,1.4423150416777848
1784904934.22712,0.03466796875,-0.162109375,0.9790038466453552,0.992940002853417,0.3662109375,-0.225067138671875,-1.1653900146484375,1.2421350787643264
1784904934.235112,0.0375976599752903,-0.15380859375,0.9829100966453552,0.9955817021391824,0.0,-0.164031982421875,-0.7991790771484375,0.8158392541481921
1784904934.245771,0.0302734375,-0.1552734375,0.9907225966453552,1.0032734347698278,0.1201629638671875,-0.2880096435546875,-0.0057220458984375,0.31212406904163764
1784904934.25643,0.0341796837747097,-0.162109375,0.9770507216453552,0.99099738289944,0.2422332763671875,-0.2880096435546875,0.3604888916015625,0.5211321866169882
1784904934.267089,0.0390624962747097,-0.15625,0.9726561903953552,0.9859006064657924,0.4253387451171875,-0.5931854248046875,0.9098052978515625,1.1664165963742765
1784904934.275115,0.0468750037252903,-0.15478515625,0.9760741591453552,0.9893818649646329,0.42724609375,-0.652313232421875,0.6656646728515625,1.02526154443629
1784904934.283141,0.0366210974752903,-0.1630859375,0.9741210341453552,0.9883571808587039,0.4253387451171875,0.0782012939453125,0.6656646728515625,0.7938122871026643
1784904934.291167,0.04443359375,-0.15576171875,0.9746093153953552,0.9879774162079299,0.0591278076171875,0.2613067626953125,0.7266998291015625,0.7745127264804367
1784904934.299193,0.0498046875,-0.1591796875,0.9829100966453552,0.9969608507343465,-0.0629425048828125,0.3833770751953125,0.6046295166015625,0.7186908883880986
1784904934.309818,0.03955078125,-0.162109375,0.9799804091453552,0.9940851654003664,0.1850128173828125,0.2002716064453125,0.2384185791015625,0.3621903888908706
1784904934.320443,0.03955078125,-0.15380859375,0.9790038466453552,0.9918013306883794,0.18310546875,0.446319580078125,-0.0667572021484375,0.48701673922562294
1784904934.331068,0.0356445349752903,-0.1513671875,0.9873046278953552,0.999476356193007,0.1220703125,0.080108642578125,-0.1888275146484375,0.2386930792835505
1784904934.339086,0.0327148474752903,-0.15087890625,0.9819335341453552,0.9939960619015124,0.244140625,-0.041961669921875,-0.1277923583984375,0.278740584384581
1784904934.347107,0.0405273474752903,-0.16748046875,0.9746093153953552,0.9897249572287776,0.42724609375,0.019073486328125,-0.2498626708984375,0.4953124032505585
1784904934.355128,0.03515625,-0.166015625,0.9858397841453552,1.0003385575203845,0.9765625,0.446319580078125,-0.1277923583984375,1.0812984651946929
1784904934.363149,0.0439453125,-0.16064453125,0.9853515028953552,0.9993274939525031,0.9765625,0.873565673828125,-0.1277923583984375,1.3164809872391134
1784904934.373798,0.0341796875,-0.15283203125,0.9790038466453552,0.9914506606785841,1.0356903076171875,0.5664825439453125,0.0553131103515625,1.1817852707085588
1784904934.384447,0.046875,-0.15869140625,0.9736327528953552,0.9875935224337948,0.7305145263671875,0.3833770751953125,0.4215240478515625,0.9264512820089111
1784904934.395096,0.0361328162252903,-0.146484375,0.9838866591453552,0.995387467558096,0.6084442138671875,0.3833770751953125,0.2384185791015625,0.7576448785774111
1784904934.405748,0.0463867224752903,-0.158203125,0.9790038466453552,0.9927882395194695,-0.1220703125,0.446319580078125,-0.0667572021484375,0.46750278372823495
1784904934.4164,0.03125,-0.1533203125,0.9838866591453552,0.9962512929825015,0.0,0.324249267578125,-0.3108978271484375,0.44921603538895427
1784904934.427052,0.0429687537252903,-0.15087890625,0.9829100966453552,0.995350700122968,-0.67138671875,0.324249267578125,-0.0057220458984375,0.7456074405798979
1784904934.437746,0.0419921912252903,-0.15234375,0.9824218153953552,0.9950500417831604,-0.48828125,0.019073486328125,-0.4329681396484375,0.652873484629986
1784904934.44844,0.0322265662252903,-0.15771484375,0.9824218153953552,0.9955225496564432,-0.3662109375,-0.041961669921875,-0.1277923583984375,0.39013090027873465
1784904934.459134,0.0332031287252903,-0.16455078125,0.9892577528953552,1.0033993766345988,-0.67138671875,0.324249267578125,-0.7381439208984375,1.0491683190023233
1784904934.467155,0.0327148474752903,-0.14990234375,0.9643554091453552,0.9764846793754525,0.0,0.263214111328125,-0.6771087646484375,0.7264695090408047
1784904934.475178,0.025390625,-0.1533203125,0.9794921278953552,0.9917442365206662,-0.18310546875,0.080108642578125,-0.5550384521484375,0.589926004398179
1784904934.483201,0.0244140587747097,-0.15185546875,0.9809569716453552,0.9929414433262232,0.2422332763671875,0.3833770751953125,-0.3108978271484375,0.549829428905469
1784904934.491224,0.0366210974752903,-0.1630859375,0.9838866591453552,0.9979835098010172,0.2422332763671875,0.5092620849609375,-0.0057220458984375,0.5639659326303382
1784904934.501856,0.0307617224752903,-0.16162109375,0.9780272841453552,0.9917686373581958,0.2422332763671875,0.2613067626953125,0.1773834228515625,0.39802394791321644
1784904934.512488,0.0390625,-0.140625,0.9707030653953552,0.9816138297208272,0.1201629638671875,0.3833770751953125,-0.1277923583984375,0.42160171552745607
1784904934.52312,0.0341796875,-0.14892578125,0.9682616591453552,0.980243734960564,0.1201629638671875,0.3833770751953125,-0.0667572021484375,0.4072758815708913
1784904934.531122,0.0532226525247097,-0.16162109375,0.9804686903953552,0.9951245557880155,-0.0629425048828125,-0.1049041748046875,-0.7381439208984375,0.7482132669043593
1784904934.539122,0.0322265662252903,-0.15478515625,0.9687499403953552,0.9815668307262702,0.1220703125,0.019073486328125,-0.9822845458984375,0.9900241856568235
1784904934.547122,0.0458984412252903,-0.16064453125,0.9736327528953552,0.9878633862220177,-0.18310546875,-0.102996826171875,-1.2264251708984375,1.2442888164332662
1784904934.555122,0.03466796875,-0.1572265625,0.9799804091453552,0.9931181512395769,-0.3662109375,-0.164031982421875,-1.5926361083984375,1.6424088150568357
1784904934.565775,0.03466796875,-0.14697265625,0.9711913466453552,0.9828608556358577,-0.3681182861328125,-0.1049041748046875,-1.4095306396484375,1.4605795365486074
1784904934.576428,0.03173828125,-0.15478515625,0.9731444716453552,0.9858883941836208,-0.1201629638671875,-0.1049041748046875,-1.5316009521484375,1.5398848984254634
1784904934.587081,0.0336914025247097,-0.15625,0.9780272841453552,0.9910027959783068,0.18310546875,-0.347137451171875,-1.7147064208984375,1.7590480756825815
1784904934.597789,0.0219726599752903,-0.162109375,0.9794921278953552,0.9930594523281329,-0.18310546875,-0.164031982421875,-1.1653900146484375,1.191036519249386
1784904934.608498,0.0390625,-0.15576171875,0.9741210341453552,0.9872686468730891,0.1220703125,0.141143798828125,-1.3484954833984375,1.361345952316114
1784904934.619207,0.029296875,-0.1591796875,0.9746093153953552,0.9879573864558968,0.1220703125,-0.164031982421875,-1.1043548583984375,1.1231239048828632
1784904934.629826,0.0268554724752903,-0.15087890625,0.9682616591453552,0.9803143890222072,0.0,-0.530242919921875,-0.5550384521484375,0.767610081675983
1784904934.640447,0.02734375,-0.15869140625,0.9833983778953552,0.9964953651316603,0.18310546875,-0.530242919921875,-0.8602142333984375,1.026963336324474
1784904934.651068,0.0424804724752903,-0.162109375,0.9624022841453552,0.9768839217290924,0.18310546875,-0.591278076171875,-0.7381439208984375,0.9633243607461557
1784904934.659076,0.0366210974752903,-0.150390625,0.9750975966453552,0.9873063191592228,0.0,-0.591278076171875,-0.4329681396484375,0.7328513992018726
1784904934.667085,0.04052734375,-0.1533203125,0.9829100966453552,0.9956213345965974,0.18310546875,-0.713348388671875,-0.3719329833984375,0.8250622282268048
1784904934.675094,0.0332031287252903,-0.1650390625,0.9780272841453552,0.9924100505540875,0.2422332763671875,-0.7152557373046875,-0.4940032958984375,0.9023895978375269
1784904934.683103,0.0419921912252903,-0.15234375,0.9765624403953552,0.9892654660296677,0.0591278076171875,-0.5321502685546875,-0.5550384521484375,0.7711988649627115
1784904934.693793,0.0458984375,-0.16357421875,0.9643554091453552,0.979206079817992,0.1220703125,-0.530242919921875,-0.3719329833984375,0.6590848651431666
1784904934.704483,0.0380859412252903,-0.1533203125,0.9770507216453552,0.9897402537089331,0.0,-0.286102294921875,-0.3108978271484375,0.42250678347830495
1784904934.715173,0.0366210974752903,-0.14794921875,0.9780272841453552,0.9898320284986587,0.1220703125,-0.408172607421875,-0.3719329833984375,0.5655441475102383
1784904934.725813,0.0400390662252903,-0.16162109375,0.9707030653953552,0.9848801683134242,-0.0629425048828125,-0.2880096435546875,-0.4329681396484375,0.5238059981062168
1784904934.736454,0.03857421875,-0.15869140625,0.9682616591453552,0.9819376626551665,0.30517578125,-0.102996826171875,-0.3719329833984375,0.4920109224424694
1784904934.747095,0.0332031287252903,-0.1611328125,0.9726561903953552,0.9864716396003049,0.48828125,0.263214111328125,-0.1277923583984375,0.5692373269286298
1784904934.755099,0.044921875,-0.1630859375,0.9614257216453552,0.9761938414603226,0.0,0.263214111328125,-0.7381439208984375,0.7836696474673326
1784904934.763101,0.0517578162252903,-0.14990234375,0.9897460341453552,1.002370588309839,0.18310546875,0.141143798828125,-0.6160736083984375,0.6580242211338901
1784904934.771103,0.03955078125,-0.15576171875,0.9721679091453552,0.985361061183915,-0.1220703125,0.141143798828125,-0.0667572021484375,0.19818995226844682
1784904934.779105,0.0351562537252903,-0.15673828125,0.9741210341453552,0.9872763747551226,0.18310546875,0.141143798828125,0.0553131103515625,0.23771563854857253
1784904934.787127,0.0322265662252903,-0.15576171875,0.9707030653953552,0.9836486698850186,0.0591278076171875,0.2002716064453125,0.2994537353515625,0.36507171021294554
1784904934.795149,0.0375976599752903,-0.15185546875,0.9770507216453552,0.9894957200981767,0.18310546875,0.263214111328125,0.2994537353515625,0.43872750165041563
1784904934.803171,0.0371093787252903,-0.15576171875,0.9809569716453552,0.9939393337809694,-0.1220703125,0.324249267578125,0.1773834228515625,0.38923466883274205
1784904934.811193,0.0507812537252903,-0.15087890625,0.9794921278953552,0.9923447025555583,-0.1220703125,0.141143798828125,0.1163482666015625,0.21990828152361644
1784904934.821845,0.0415039099752903,-0.15673828125,0.9882811903953552,1.0014934720914068,0.0591278076171875,0.2613067626953125,-0.2498626708984375,0.3663450234033764
1784904934.832497,0.03564453125,-0.154296875,0.9804686903953552,0.9931751663671322,0.18310546875,0.385284423828125,-0.3108978271484375,0.5278533497633099
1784904934.843149,0.048828125,-0.15087890625,0.9746093153953552,0.987426932890538,0.18310546875,0.263214111328125,-0.3108978271484375,0.44661699476624434
1784904934.853878,0.0332031287252903,-0.14013671875,0.9794921278953552,0.9900230180698506,0.0591278076171875,-0.1049041748046875,-0.3719329833984375,0.3909413353237669
1784904934.864609,0.03515625,-0.1611328125,0.9755858778953552,0.9894278904129767,0.1220703125,0.080108642578125,-0.3108978271484375,0.3434763670693766
1784904934.87534,0.03466796875,-0.14306640625,0.9794921278953552,0.9904921469973964,0.18310546875,0.568389892578125,-0.4329681396484375,0.7376015812223823
1784904934.886131,0.02978515625,-0.14306640625,0.9707030653953552,0.9816412752620308,0.2422332763671875,0.3833770751953125,-0.4329681396484375,0.6269899137271057
1784904934.896925,0.0322265662252903,-0.16015625,0.9746093153953552,0.9882064023472721,0.30517578125,0.385284423828125,-0.1277923583984375,0.5078456769247454
1784904934.907719,0.0327148474752903,-0.1494140625,0.9648436903953552,0.9768920975285927,0.3681182861328125,0.2002716064453125,-0.2498626708984375,0.4879048506031132
1784904934.918545,0.029296875,-0.15869140625,0.9760741591453552,0.9893240285435709,0.6103515625,0.019073486328125,-0.1277923583984375,0.6238779645026223
1784904934.92937,0.037109375,-0.15869140625,0.9833983778953552,0.9968111344571293,0.3662109375,0.080108642578125,0.2384185791015625,0.44426485818838596
1784904934.940195,0.0527343787252903,-0.15673828125,0.9785155653953552,0.9923913115448654,0.6103515625,0.019073486328125,-0.0057220458984375,0.6106763214143516
1784904934.948045,0.03271484375,-0.15869140625,0.9843749403953552,0.9976207930358852,0.18310546875,0.080108642578125,0.2994537353515625,0.3600243698944151
1784904934.955895,0.0400390625,-0.150390625,0.9760741591453552,0.9884033745212942,0.3662109375,-0.164031982421875,0.4215240478515625,0.5819789213700489
1784904934.963745,0.03857421875,-0.14990234375,0.9750975966453552,0.9873064397629866,0.3662109375,-0.164031982421875,0.2384185791015625,0.4667551401566856
1784904934.971595,0.048828125,-0.14404296875,0.9829100966453552,0.994607872844726,0.30517578125,-0.164031982421875,0.4215240478515625,0.545638407405458
1784904934.979479,0.0400390625,-0.15380859375,0.9853515028953552,0.9980870674922938,0.244140625,0.141143798828125,0.0553131103515625,0.2873773771537853
1784904934.987363,0.0390625,-0.15771484375,0.9750975966453552,0.9885419433837316,0.30517578125,-0.408172607421875,0.1163482666015625,0.5227562090040713
1784904934.995247,0.03466796875,-0.15234375,0.9726561903953552,0.9851246372595293,0.30517578125,0.141143798828125,-0.2498626708984375,0.4189095173395837
1784904935.003131,0.0439453125,-0.1591796875,0.9775390028953552,0.9913888568997362,0.1220703125,0.019073486328125,-0.4329681396484375,0.4502514508862639
1784904935.013811,0.06005859375,-0.1591796875,0.9614257216453552,0.9763629580423037,0.1850128173828125,0.2002716064453125,-0.3108978271484375,0.4135165267189835
1784904935.024491,0.0419921912252903,-0.16552734375,0.9897460341453552,1.0043703787743299,0.1220703125,0.080108642578125,-0.6160736083984375,0.6331392001563548
1784904935.035171,0.04052734375,-0.1494140625,0.9829100966453552,0.995027278898205,0.3032684326171875,0.2002716064453125,-0.4329681396484375,0.5652803450686222
1784904935.043163,0.0410156287252903,-0.15576171875,0.9814452528953552,0.9945746725402335,0.3662109375,0.263214111328125,-0.7991790771484375,0.9176487980151838
1784904935.051155,0.0317382849752903,-0.140625,0.9697265028953552,0.9803837002805729,0.8544921875,0.263214111328125,-0.6771087646484375,1.1215680300652844
1784904935.059147,0.03515625,-0.14990234375,0.9726561903953552,0.9847673528759019,0.48828125,0.568389892578125,-0.6160736083984375,0.9700682141229071
1784904935.067139,0.0400390625,-0.15625,0.9741210341453552,0.9873849189603289,0.3662109375,0.751495361328125,-0.6771087646484375,1.0757936642340162
1784904935.07781,0.0322265662252903,-0.15234375,0.9687499403953552,0.9811848025477871,0.3662109375,0.446319580078125,-0.8602142333984375,1.0359923482569764
1784904935.088481,0.04541015625,-0.15576171875,0.9707030653953552,0.9841688048737081,0.0,0.385284423828125,-0.8602142333984375,0.9425564251469679
1784904935.099152,0.0488281212747097,-0.142578125,0.9814452528953552,0.9929488866938525,0.18310546875,0.263214111328125,-0.9212493896484375,0.9754535965467709
1784904935.10715,0.0390625,-0.14501953125,0.9848632216453552,0.9962490194222967,0.18310546875,0.019073486328125,-0.6160736083984375,0.6429915252411479
1784904935.115148,0.0322265662252903,-0.15087890625,0.9736327528953552,0.9857807735153172,0.3662109375,-0.225067138671875,-0.4940032958984375,0.6548319815136499
1784904935.123146,0.048828125,-0.154296875,0.9833983778953552,0.9966263497785903,0.30517578125,-0.591278076171875,-0.3719329833984375,0.762283520065024
1784904935.131144,0.0439453087747097,-0.1513671875,0.9775390028953552,0.9901644902725052,0.3662109375,-0.652313232421875,-0.0057220458984375,0.748101427445883
1784904935.141854,0.0458984375,-0.1494140625,0.9902343153953552,1.0024945027401413,0.7915496826171875,-0.7762908935546875,-0.2498626708984375,1.136490125683372
1784904935.152564,0.03564453125,-0.16064453125,0.9746093153953552,0.9884030127857601,0.79345703125,-0.469207763671875,-0.1277923583984375,0.9306239158731416
1784904935.163274,0.0400390625,-0.15966796875,0.9775390028953552,0.9913019161447613,0.7915496826171875,-0.2880096435546875,0.1163482666015625,0.8503160435820653
1784904935.173878,0.0439453125,-0.13427734375,0.9804686903953552,0.9905960066449194,0.91552734375,-0.041961669921875,0.1163482666015625,0.9238441524617403
1784904935.184484,0.03955078125,-0.14501953125,0.9731444716453552,0.9846852753217002,0.3681182861328125,0.2002716064453125,0.1773834228515625,0.45506556410706533
1784904935.19509,0.0473632849752903,-0.1435546875,0.9760741591453552,0.9877104804638783,0.2422332763671875,0.5092620849609375,0.0553131103515625,0.5666430724319389
1784904935.205757,0.0380859412252903,-0.15625,0.9794921278953552,0.9926073896702499,-0.0629425048828125,1.1768341064453125,-0.1277923583984375,1.1854244640123195
1784904935.216424,0.0424804724752903,-0.15087890625,0.9809569716453552,0.9934010343826638,-0.48828125,1.483917236328125,-0.5550384521484375,1.6578590491162377
1784904935.227091,0.0366210974752903,-0.1435546875,0.9858397841453552,0.9969097918504352,-0.42724609375,1.605987548828125,-0.1277923583984375,1.6667531666328514
1784904935.237778,0.0307617224752903,-0.146484375,0.9682616591453552,0.9797625203383233,-0.67138671875,1.605987548828125,-0.3108978271484375,1.7682232868137668
1784904935.248466,0.044921875,-0.15087890625,0.9707030653953552,0.983385407850173,-1.03759765625,1.422882080078125,-0.5550384521484375,1.846420860320387
1784904935.259154,0.0371093787252903,-0.15625,0.9780272841453552,0.9911248846750426,-0.79345703125,0.995635986328125,-0.6160736083984375,1.414359137092384
1784904935.267165,0.04541015625,-0.15283203125,0.9814452528953552,0.9943110662652197,-0.732421875,0.507354736328125,-0.6771087646484375,1.1190741309747223
1784904935.275179,0.01513671875,-0.15625,0.9755858778953552,0.9881351060980313,-0.7343292236328125,0.0782012939453125,-0.4329681396484375,0.8560468801453103
1784904935.283193,0.02978515625,-0.14990234375,0.9741210341453552,0.9860373508944762,-0.3662109375,0.080108642578125,-0.6160736083984375,0.7211619348838443
1784904935.291207,0.03369140625,-0.150390625,0.9731444716453552,0.9852728625294166,-0.48828125,0.202178955078125,-0.2498626708984375,0.5845735738865946
1784904935.301835,0.0278320349752903,-0.1533203125,0.9760741591453552,0.9884343703793771,0.0,-0.164031982421875,-0.4329681396484375,0.46299881339791704
1784904935.312463,0.0229492224752903,-0.16455078125,0.9677733778953552,0.9819312284397476,0.0,-0.164031982421875,-0.0667572021484375,0.17709606233888334
1784904935.323091,0.025390625,-0.16064453125,0.9770507216453552,0.9904945542132638,0.42724609375,-0.530242919921875,0.1163482666015625,0.6908210317391169
1784904935.3311,0.0375976599752903,-0.14501953125,0.9780272841453552,0.98943499888185,0.1201629638671875,-0.5931854248046875,0.3604888916015625,0.704457470010921
1784904935.33911,0.03125,-0.16357421875,0.9619140028953552,0.9762231489295049,0.0591278076171875,-0.6504058837890625,0.6046295166015625,0.890000429015001
1784904935.34712,0.0390625,-0.15380859375,0.9765624403953552,0.9893721051295787,-0.06103515625,-0.530242919921875,0.4825592041015625,0.7195458497475136
1784904935.35513,0.0322265662252903,-0.1435546875,0.9868163466453552,0.9977239106488235,-0.1220703125,-0.896453857421875,0.4825592041015625,1.0253750850998578
1784904935.365796,0.05029296875,-0.1591796875,0.9843749403953552,0.9984295563016178,-0.1220703125,-0.408172607421875,0.5435943603515625,0.6906524938414718
1784904935.376462,0.03857421875,-0.14892578125,0.9775390028953552,0.9895702910125894,-0.5512237548828125,-0.4100799560546875,0.7266998291015625,1.0000529185603937
1784904935.387128,0.04931640625,-0.15087890625,0.9833983778953552,0.9961269607453797,-0.54931640625,0.141143798828125,0.3604888916015625,0.6720285165758759
1784904935.397806,0.0327148474752903,-0.1435546875,0.9755858778953552,0.9866336780677036,-0.0629425048828125,0.2002716064453125,0.2384185791015625,0.3176694730847096
1784904935.408485,0.0390625,-0.14794921875,0.9941405653953552,1.005848057113788,0.18310546875,-0.041961669921875,0.4215240478515625,0.46148772177161546
1784904935.419164,0.0283203162252903,-0.1640625,0.9858397841453552,0.9997992919686985,-0.06103515625,-0.041961669921875,0.6656646728515625,0.6697727440883752
1784904935.427151,0.02978515625,-0.1494140625,0.9770507216453552,0.9888578412862489,-0.18310546875,-0.225067138671875,0.6046295166015625,0.6706412468242178
1784904935.435138,0.044921875,-0.15625,0.9799804091453552,0.9933748736817403,-0.3662109375,-0.164031982421875,0.4825592041015625,0.6275988587186984
1784904935.443125,0.0537109375,-0.15576171875,0.9799804091453552,0.9937344615860823,-0.30517578125,0.080108642578125,0.3604888916015625,0.4790635584610676
1784904935.459144,0.0390625,-0.15283203125,0.9838866591453552,0.9964519389947813,0.0591278076171875,0.5664825439453125,0.1163482666015625,0.5813221906736026
1784904935.467176,0.0415039099752903,-0.16162109375,0.9746093153953552,0.988790812125389,0.18310546875,0.629425048828125,-0.0057220458984375,0.655542711490036
1784904935.475208,0.0375976599752903,-0.15771484375,0.9794921278953552,0.9928204191008942,0.18310546875,0.568389892578125,-0.1888275146484375,0.6262990603213736
1784904935.48324,0.0429687537252903,-0.1611328125,0.9829100966453552,0.9969565462688162,-0.06103515625,0.507354736328125,-0.2498626708984375,0.5688281577783787
1784904935.491221,0.03857421875,-0.15380859375,0.9853515028953552,0.9980293773840831,-0.244140625,0.812530517578125,-0.0667572021484375,0.8510387833758539
1784904935.499202,0.0312500037252903,-0.1376953125,0.9760741591453552,0.9862339103724914,-0.30517578125,0.507354736328125,-0.0667572021484375,0.5958167587226936
1784904935.507183,0.0312500037252903,-0.1513671875,0.9726561903953552,0.9848597122935309,-0.48828125,0.446319580078125,-0.3108978271484375,0.7309426828338157
1784904935.515164,0.0439453125,-0.16064453125,0.9833983778953552,0.9974017372946925,-0.48828125,0.385284423828125,-0.0667572021484375,0.6255551057939022
1784904935.525848,0.0419921912252903,-0.15234375,0.9760741591453552,0.9887834578102913,-0.2460479736328125,0.0782012939453125,-0.3108978271484375,0.404119421247178
1784904935.536532,0.0234375037252903,-0.154296875,0.9794921278953552,0.9918476046372293,-0.48828125,0.019073486328125,-0.4940032958984375,0.694853677647885
1784904935.547216,0.0322265625,-0.1591796875,0.9873046278953552,1.0005734118527985,-0.06103515625,0.141143798828125,-0.1277923583984375,0.19994436503970506
1784904935.557889,0.0419921912252903,-0.15087890625,0.9853515028953552,0.9977200873658066,0.0591278076171875,-0.1049041748046875,0.0553131103515625,0.13251612619538686
1784904935.568565,0.0439453125,-0.15869140625,0.9785155653953552,0.9922735835591497,0.0591278076171875,0.0782012939453125,-0.3719329833984375,0.3846370810881326
1784904935.579241,0.0400390625,-0.154296875,0.9863280653953552,0.9991264708470038,-0.0629425048828125,0.0782012939453125,-0.0667572021484375,0.1205559012837256
1784904935.587224,0.0366210974752903,-0.15087890625,0.9707030653953552,0.9830411946095801,0.0,0.019073486328125,0.1773834228515625,0.17840593202930613
1784904935.595208,0.0424804724752903,-0.16162109375,0.9760741591453552,0.9902760890973701,-0.0629425048828125,0.0782012939453125,0.0553131103515625,0.11461562490519421
1784904935.603192,0.0346679650247097,-0.15673828125,0.9780272841453552,0.9911135783253592,-0.1220703125,-0.225067138671875,0.2384185791015625,0.3498568235215667
1784904935.611176,0.0512695349752903,-0.15283203125,0.9824218153953552,0.9955595503822405,-0.2460479736328125,-0.1049041748046875,0.2384185791015625,0.358312587109459
1784904935.621804,0.04443359375,-0.14599609375,0.9819335341453552,0.9937216255687437,-0.18310546875,0.263214111328125,0.1163482666015625,0.341095588112189
1784904935.632432,0.03564453125,-0.15869140625,0.9677733778953552,0.9813454060567159,-0.3662109375,0.141143798828125,-0.0057220458984375,0.3925108463488964
1784904935.64306,0.05029296875,-0.15283203125,0.9814452528953552,0.99454602553754,0.0,0.019073486328125,-0.3719329833984375,0.3724217260316207
1784904935.653763,0.0415039099752903,-0.1552734375,0.9858397841453552,0.9988555926359245,-0.06103515625,-0.164031982421875,-0.1277923583984375,0.2167087179158857
1784904935.664465,0.0322265662252903,-0.15185546875,0.9711913466453552,0.9835198354678841,-0.1220703125,-0.408172607421875,-0.5550384521484375,0.6996954494683763
1784904935.675167,0.03955078125,-0.138671875,0.9814452528953552,0.9919823272842762,-0.30517578125,-0.041961669921875,-0.3108978271484375,0.4376648239575577
1784904935.683258,0.0400390625,-0.1494140625,0.9794921278953552,0.9916312405363215,-0.30517578125,0.080108642578125,-0.4940032958984375,0.5861645745315703
1784904935.691352,0.0302734375,-0.15283203125,0.9760741591453552,0.9884305109340664,-0.1850128173828125,-0.2880096435546875,-0.8602142333984375,0.9258227825656947
1784904935.699446,0.0322265662252903,-0.16015625,0.9941405653953552,1.0074740888724296,0.2422332763671875,-0.4673004150390625,-0.7381439208984375,0.9065887083096618
1784904935.70754,0.0405273474752903,-0.142578125,0.9750975966453552,0.9862993007223753,0.0,-0.469207763671875,-0.3108978271484375,0.5628617809156896
1784904935.718325,0.0327148474752903,-0.15087890625,0.9765624403953552,0.9886905004031643,0.1201629638671875,-0.7762908935546875,-0.1277923583984375,0.7958627872732315
1784904935.72911,0.0478515662252903,-0.15771484375,0.9741210341453552,0.9879653503507684,0.1201629638671875,-0.5931854248046875,-0.3108978271484375,0.6804157148476836
1784904935.739895,0.0361328162252903,-0.15771484375,0.9838866591453552,0.9971020561565731,0.42724609375,-0.713348388671875,-0.1888275146484375,0.8526787076816801
1784904935.750339,0.0400390625,-0.150390625,0.9711913466453552,0.9835817700692648,0.42724609375,-0.713348388671875,-0.1277923583984375,0.8412704886720019
1784904935.760783,0.04150390625,-0.14453125,0.9765624403953552,0.9880718883014045,0.30517578125,-0.469207763671875,0.6046295166015625,0.82393266429809
1784904935.771227,0.0317382849752903,-0.1572265625,0.9765624403953552,0.9896472657869928,0.48828125,-0.957489013671875,0.2994537353515625,1.1157402610015945
1784904935.77931,0.0366210974752903,-0.15625,0.9760741591453552,0.9891794232754778,0.6103515625,-0.530242919921875,0.3604888916015625,0.8852337685276078
1784904935.787393,0.04345703125,-0.15869140625,0.9721679091453552,0.9859928597889123,0.1850128173828125,-0.2880096435546875,0.7266998291015625,0.8032882041911634
1784904935.795476,0.0468750037252903,-0.1484375,0.9755858778953552,0.9879264965215514,0.18310546875,-0.225067138671875,0.6046295166015625,0.6706412468242178
1784904935.803559,0.0371093787252903,-0.15087890625,0.9809569716453552,0.9931858489528531,0.0,-0.286102294921875,0.5435943603515625,0.6142876783442656
1784904935.814075,0.05517578125,-0.14892578125,0.9770507216453552,0.9898744202297481,0.0591278076171875,0.2613067626953125,0.6046295166015625,0.6613275846430108
1784904935.824591,0.0522460974752903,-0.15380859375,0.9677733778953552,0.9813113925639181,-0.30517578125,0.385284423828125,0.6656646728515625,0.8274574317683634
1784904935.835107,0.0361328125,-0.1552734375,0.9707030653953552,0.9837072032369011,-0.48828125,0.568389892578125,0.3604888916015625,0.831527443957599
1784904935.84589,0.05517578125,-0.14794921875,0.9687499403953552,0.9815344034629084,-0.30517578125,0.873565673828125,0.4215240478515625,1.0168243539911406
1784904935.856673,0.04443359375,-0.1552734375,0.9765624403953552,0.9898274519518734,-0.3681182861328125,0.6885528564453125,0.1773834228515625,0.8006753320834198
1784904935.867456,0.041015625,-0.1552734375,0.9726561903953552,0.9858256370178311,-0.30517578125,0.751495361328125,0.2994537353515625,0.8646097820261118
1784904935.878039,0.0375976599752903,-0.15478515625,0.9687499403953552,0.9817578498015479,0.06103515625,0.629425048828125,0.0553131103515625,0.6347918734258604
1784904935.888623,0.03466796875,-0.142578125,0.9907225966453552,1.0015296567199006,-0.30517578125,0.812530517578125,-0.1888275146484375,0.8882533026933418
1784904935.899207,0.0351562537252903,-0.15185546875,0.9692382216453552,0.981691792704579,0.30517578125,0.629425048828125,-0.0057220458984375,0.6995290496920762
1784904935.909869,0.02685546875,-0.1591796875,0.9882811903953552,1.0013785999329325,-0.1220703125,0.446319580078125,-0.0667572021484375,0.46750278372823495
1784904935.92053,0.0356445349752903,-0.15625,0.9716796278953552,0.9848075419291125,0.0,0.141143798828125,0.0553131103515625,0.15159522460947888
1784904935.931191,0.0292968712747097,-0.1572265625,0.9780272841453552,0.9910175917483971,0.18310546875,0.324249267578125,-0.0057220458984375,0.3724217260316207
1784904935.939162,0.0361328125,-0.1533203125,0.9726561903953552,0.9853287588813509,-0.1220703125,0.080108642578125,0.3604888916015625,0.3889354660836172
1784904935.947133,0.0278320349752903,-0.14794921875,0.9765624403953552,0.9880980687616654,0.0,0.141143798828125,0.1163482666015625,0.18291662332555367
1784904935.955104,0.0322265662252903,-0.1552734375,0.9785155653953552,0.9912825549179866,-0.2460479736328125,0.0209808349609375,0.2384185791015625,0.34325387051755046
1784904935.963075,0.0380859412252903,-0.14892578125,0.9731444716453552,0.9852104292656756,-0.4291534423828125,-0.1621246337890625,-0.1888275146484375,0.49609767614710865
1784904935.971083,0.0361328125,-0.1689453125,0.9799804091453552,0.9950928102762981,-0.18310546875,-0.225067138671875,-0.0057220458984375,0.2901991926338977
1784904935.979091,0.0263671912252903,-0.16552734375,0.9780272841453552,0.9922861980471063,-0.1220703125,-0.408172607421875,0.1163482666015625,0.4416366807508271
1784904935.987099,0.0400390625,-0.15478515625,0.9770507216453552,0.9900452938067658,0.0591278076171875,-0.2880096435546875,0.0553131103515625,0.2991741843656926
1784904935.995107,0.0209960974752903,-0.16064453125,0.9809569716453552,0.9942454836454377,-0.1220703125,-0.469207763671875,0.1773834228515625,0.5162576540704709
1784904936.005826,0.0375976599752903,-0.13720703125,0.9726561903953552,0.9830052991588913,0.18310546875,-0.102996826171875,0.2994537353515625,0.3657984397228073
1784904936.016545,0.04052734375,-0.16357421875,0.9707030653953552,0.9852225290760676,-0.06103515625,-0.530242919921875,0.2994537353515625,0.6120093006170262
1784904936.027264,0.02587890625,-0.16015625,0.9814452528953552,0.9947635531288762,0.1220703125,-0.225067138671875,-0.0057220458984375,0.25610372881521365
1784904936.037895,0.04052734375,-0.15087890625,0.9775390028953552,0.9899441459619185,-0.1220703125,-0.469207763671875,0.2384185791015625,0.5402781742256648
1784904936.048527,0.0361328162252903,-0.15625,0.9799804091453552,0.9930162361296357,-0.1220703125,-0.530242919921875,0.2384185791015625,0.5940556658949829
1784904936.059159,0.0371093787252903,-0.16552734375,0.9750975966453552,0.9897432649439225,-0.18310546875,-0.225067138671875,0.0553131103515625,0.2953681935701039
1784904936.069872,0.0380859412252903,-0.15234375,0.9775390028953552,0.9900715424981793,-0.30517578125,-0.652313232421875,-0.4940032958984375,0.8733178499336551
1784904936.080588,0.0322265662252903,-0.14501953125,0.9824218153953552,0.9935903780629863,-0.1220703125,-0.225067138671875,-0.4329681396484375,0.5030087355647231
1784904936.091304,0.0341796875,-0.14306640625,0.9702147841453552,0.9813016738032734,-0.1220703125,-0.408172607421875,-0.6771087646484375,0.7999889485531365
1784904936.101889,0.03564453125,-0.1533203125,0.9746093153953552,0.9872390634940115,-0.2460479736328125,-0.2269744873046875,-0.3719329833984375,0.5003910144633907
1784904936.112475,0.02978515625,-0.14794921875,0.9804686903953552,0.9920156146488599,-0.1220703125,0.080108642578125,-0.4329681396484375,0.4569244639545866
1784904936.123061,0.0400390625,-0.162109375,0.9785155653953552,0.992660711275389,0.1220703125,0.080108642578125,-0.4940032958984375,0.5151289277142923
1784904936.131086,0.0429687537252903,-0.158203125,0.9848632216453552,0.9984137959313956,0.244140625,0.141143798828125,-0.5550384521484375,0.622570397695199
1784904936.139112,0.0371093787252903,-0.15625,0.9858397841453552,0.9988349455706571,0.244140625,-0.041961669921875,-0.6160736083984375,0.664012136548041
1784904936.147138,0.04248046875,-0.15869140625,0.9741210341453552,0.9878761773659888,0.18310546875,-0.225067138671875,-0.4940032958984375,0.5729066991706603
1784904936.155164,0.0327148474752903,-0.14453125,0.9785155653953552,0.989672802088087,0.1220703125,0.080108642578125,-0.6160736083984375,0.6331392001563548
1784904936.165825,0.0527343787252903,-0.162109375,0.9741210341453552,0.9889247460382662,0.18310546875,-0.102996826171875,-0.4940032958984375,0.5368195369452903
1784904936.176486,0.0429687537252903,-0.15283203125,0.9604491591453552,0.9734816541033147,-0.0629425048828125,0.2002716064453125,-0.3108978271484375,0.37513722048702225
1784904936.187147,0.0419921875,-0.154296875,0.9741210341453552,0.9871588821513065,-0.244140625,-0.041961669921875,-0.2498626708984375,0.3518476670755739
1784904936.195147,0.0356445349752903,-0.15625,0.9907225966453552,1.003601444238359,0.18310546875,-0.347137451171875,-0.5550384521484375,0.6797791597685211
1784904936.203149,0.03564453125,-0.14501953125,0.9677733778953552,0.9792275057487856,-0.18310546875,-0.347137451171875,-0.3108978271484375,0.5006890068873919
1784904936.211151,0.03369140625,-0.154296875,0.9833983778953552,0.9959995010727084,0.1201629638671875,-0.7762908935546875,0.2384185791015625,0.8209202812466568
1784904936.219153,0.04345703125,-0.1640625,0.9916991591453552,1.0061174085169773,-0.0629425048828125,-0.7762908935546875,0.0553131103515625,0.780800134806355
1784904936.229819,0.04541015625,-0.1552734375,0.9785155653953552,0.9917986864302188,0.48828125,-0.835418701171875,0.0553131103515625,0.9692277985829901
1784904936.240485,0.04541015625,-0.1591796875,0.9799804091453552,0.9938620917974208,0.48828125,-0.774383544921875,0.1773834228515625,0.932498435628644
1784904936.251151,0.0517578162252903,-0.16064453125,0.9809569716453552,0.995370341722401,0.6103515625,-0.469207763671875,0.2994537353515625,0.8260493296118321
1784904936.261822,0.04443359375,-0.1376953125,0.9873046278953552,0.9978500747114261,0.3681182861328125,0.2002716064453125,0.1773834228515625,0.45506556410706533
1784904936.272493,0.0415039099752903,-0.1533203125,0.9750975966453552,0.9879499054870559,0.30517578125,0.751495361328125,0.1773834228515625,0.8302664718400793
1784904936.283164,0.04443359375,-0.1533203125,0.9785155653953552,0.991450540470693,-0.18310546875,1.117706298828125,-0.3108978271484375,1.1745009331847476
1784904936.293846,0.0371093787252903,-0.15087890625,0.9687499403953552,0.9811309786957996,-0.2460479736328125,1.2378692626953125,-0.3719329833984375,1.3157484793813414
1784904936.304529,0.0424804724752903,-0.14599609375,0.9770507216453552,0.9888111865263722,-0.48828125,1.422882080078125,-0.6160736083984375,1.6255948707701084
1784904936.315212,0.03662109375,-0.1591796875,0.9663085341453552,0.9800160511859941,-0.9174346923828125,0.8716583251953125,-0.8602142333984375,1.530177498857928
1784904936.323198,0.0327148474752903,-0.1474609375,0.9775390028953552,0.9891397734978388,-1.2226104736328125,0.8716583251953125,-0.7381439208984375,1.6731470509427036
1784904936.331184,0.0322265662252903,-0.1552734375,0.9848632216453552,0.9975489748946703,-1.1005401611328125,0.4444122314453125,-0.6771087646484375,1.3664432505187225
1784904936.33917,0.0366210974752903,-0.15087890625,0.9765624403953552,0.9888274617558023,-0.9174346923828125,0.0782012939453125,-0.4940032958984375,1.044912012334429
1784904936.347156,0.0375976599752903,-0.16455078125,0.9780272841453552,0.9924857239166427,-0.9174346923828125,-0.0438690185546875,-0.4940032958984375,1.0429046753826625
1784904936.357814,0.0322265662252903,-0.1552734375,0.9873046278953552,0.9999594092898597,-0.6103515625,-0.164031982421875,-0.7381439208984375,0.9717468647043634
1784904936.368472,0.0375976599752903,-0.14990234375,0.9819335341453552,0.9940210069090835,-0.5512237548828125,-0.4100799560546875,-0.2498626708984375,0.731057147296586
1784904936.37913,0.029296875,-0.16259765625,0.9892577528953552,1.0029592246778163,-0.3662109375,-0.225067138671875,-0.1277923583984375,0.4484379048648861
1784904936.387127,0.0288085974752903,-0.15625,0.9731444716453552,0.9860294927041537,0.1220703125,-0.408172607421875,0.1163482666015625,0.4416366807508271
1784904936.395126,0.03076171875,-0.1484375,0.9707030653953552,0.9824685317681393,0.0,-0.835418701171875,-0.0057220458984375,0.8354382969896499
1784904936.403125,0.0429687537252903,-0.158203125,0.9858397841453552,0.9993771172886794,0.2422332763671875,-0.9555816650390625,0.1163482666015625,0.9926480735283767
1784904936.411124,0.0371093787252903,-0.15234375,0.9750975966453552,0.9876239401396604,0.0591278076171875,-0.9555816650390625,0.4825592041015625,1.0721454200133373
1784904936.421888,0.0415039099752903,-0.15625,0.9707030653953552,0.9840737158420482,0.4253387451171875,-1.2645721435546875,0.4215240478515625,1.3991920087212932
1784904936.432652,0.0356445349752903,-0.16259765625,0.9716796278953552,0.9858345854951802,0.30517578125,-1.140594482421875,0.3604888916015625,1.2345202597612142
1784904936.443416,0.0458984412252903,-0.15576171875,0.9765624403953552,0.9899709995377628,0.06103515625,-0.835418701171875,0.2994537353515625,0.8895629467228096
1784904936.4514,0.0512695349752903,-0.15087890625,0.9741210341453552,0.9870687912867041,0.0591278076171875,-0.0438690185546875,0.2994537353515625,0.3083717367700391
1784904936.459382,0.0385742150247097,-0.15087890625,0.9599608778953552,0.9725108233359616,-0.18310546875,-0.041961669921875,0.1773834228515625,0.25836654801139763
1784904936.467364,0.02685546875,-0.14892578125,0.9692382216453552,0.9809805476261778,-0.18310546875,0.324249267578125,-0.1277923583984375,0.39369542425095877
1784904936.475346,0.03955078125,-0.14990234375,0.9829100966453552,0.9950614227506813,-0.3681182861328125,-0.1049041748046875,0.4215240478515625,0.569384300270018
1784904936.485928,0.03369140625,-0.14892578125,0.9746093153953552,0.986497499657971,-0.30517578125,0.080108642578125,0.2994537353515625,0.4349967720492432
1784904936.49651,0.0371093787252903,-0.140625,0.9741210341453552,0.9849184157983815,0.0,0.080108642578125,0.4825592041015625,0.48916334703127873
1784904936.507092,0.03466796875,-0.1630859375,0.9829100966453552,0.9969509261517773,-0.1850128173828125,-0.2880096435546875,0.3604888916015625,0.49712326272721047
1784904936.517769,0.0375976599752903,-0.1611328125,0.9829100966453552,0.996739497254503,-0.0629425048828125,0.0782012939453125,0.5435943603515625,0.5527856997984557
1784904936.528446,0.0458984412252903,-0.1474609375,0.9877929091453552,0.9997930917710596,-0.18310546875,0.324249267578125,0.2994537353515625,0.4778469836957343
1784904936.539123,0.0415039099752903,-0.15625,0.9765624403953552,0.9898539473246387,0.3662109375,0.812530517578125,0.3604888916015625,0.9613888566592228
1784904936.549906,0.03173828125,-0.154296875,0.9868163466453552,0.9993104353192533,0.1220703125,0.629425048828125,0.4215240478515625,0.7673067028270387
1784904936.560692,0.03564453125,-0.1494140625,0.9760741591453552,0.9880869692654075,0.0,0.690460205078125,0.1163482666015625,0.7001944115299084
1784904936.571478,0.03076171875,-0.150390625,0.9794921278953552,0.9914476547137099,0.1220703125,0.507354736328125,-0.1888275146484375,0.5549466820846258
1784904936.579384,0.0312500037252903,-0.16064453125,0.9819335341453552,0.9954781231310663,0.0591278076171875,0.4444122314453125,0.0553131103515625,0.45172764943999305
1784904936.587289,0.0273437537252903,-0.1572265625,0.9609374403953552,0.9740988847016162,0.0591278076171875,0.5664825439453125,0.2384185791015625,0.6174479646813779
1784904936.595194,0.0473632849752903,-0.14794921875,0.9755858778953552,0.9878765394730441,-0.3662109375,0.080108642578125,0.1773834228515625,0.41472005505265225
1784904936.603099,0.041015625,-0.1591796875,0.9736327528953552,0.9874113590177733,-0.18310546875,0.263214111328125,0.0553131103515625,0.32537489341554293
1784904936.613828,0.03955078125,-0.1513671875,0.9843749403953552,0.996729809440605,-0.0629425048828125,-0.2880096435546875,0.1163482666015625,0.3169356919670129
1784904936.624557,0.03466796875,-0.15380859375,0.9736327528953552,0.9863162216445552,-0.0629425048828125,-0.1049041748046875,0.2384185791015625,0.26797399812889183
1784904936.635286,0.0390624962747097,-0.16650390625,0.9731444716453552,0.9880584962974804,0.1220703125,0.080108642578125,0.0553131103515625,0.1561348647366166
1784904936.643345,0.0224609412252903,-0.14794921875,0.9721679091453552,0.9836177655886015,0.0,0.080108642578125,0.1163482666015625,0.14125973862675112
1784904936.651404,0.0322265662252903,-0.14306640625,0.9721679091453552,0.9831668178595201,0.30517578125,-0.102996826171875,-0.0057220458984375,0.3221387053309352
1784904936.659463,0.0332031287252903,-0.1591796875,0.9741210341453552,0.9875993164407123,0.244140625,-0.164031982421875,-0.0057220458984375,0.29418340850888375
1784904936.667522,0.0288085974752903,-0.1513671875,0.9814452528953552,0.9934670327549784,0.30517578125,0.324249267578125,-0.4329681396484375,0.6210726647801585
1784904936.678045,0.0415039099752903,-0.15234375,0.9819335341453552,0.994547464018931,0.4253387451171875,0.0782012939453125,-0.3719329833984375,0.5704056754733839
1784904936.688568,0.0390625,-0.1591796875,0.9785155653953552,0.9921475512945841,0.30517578125,0.019073486328125,-0.3108978271484375,0.4360659517411062
1784904936.699091,0.0415039099752903,-0.15673828125,0.9765624403953552,0.9899311407079651,0.3662109375,-0.347137451171875,-0.1277923583984375,0.5205244928106356
1784904936.707115,0.04052734375,-0.15283203125,0.9638671278953552,0.9767496790911542,0.06103515625,-0.347137451171875,-0.1888275146484375,0.3998568876396575
1784904936.715139,0.0361328125,-0.15869140625,0.9750975966453552,0.9885868022284693,0.18310546875,-0.102996826171875,-0.4940032958984375,0.5368195369452903
1784904936.723163,0.03515625,-0.1513671875,0.9765624403953552,0.988848920390094,0.48828125,-0.164031982421875,-0.4329681396484375,0.6728941077981302
1784904936.731187,0.0400390625,-0.1640625,0.9824218153953552,0.9968311059536787,0.1220703125,-0.041961669921875,-0.4329681396484375,0.45180012493038213
1784904936.739285,0.04052734375,-0.15966796875,0.9741210341453552,0.9879514740110458,-0.1220703125,-0.164031982421875,-0.5550384521484375,0.5915026084595327
1784904936.747383,0.03515625,-0.1484375,0.9804686903953552,0.9922643328095067,-0.30517578125,-0.164031982421875,-0.0667572021484375,0.35283887648257456
1784904936.755481,0.0322265625,-0.15869140625,0.9780272841453552,0.9913419603148594,-0.06103515625,-0.225067138671875,-0.0057220458984375,0.2332664764120013
1784904936.763579,0.0478515662252903,-0.1435546875,0.9829100966453552,0.9944898082840354,0.0,0.080108642578125,-0.1277923583984375,0.15082533434653636
1784904936.774098,0.0361328125,-0.1494140625,0.9658202528953552,0.9779769440609334,-0.2460479736328125,0.0782012939453125,-0.3719329833984375,0.4527573211370488
1784904936.784617,0.0424804724752903,-0.16943359375,0.9824218153953552,0.9978301241180632,-0.18310546875,-0.225067138671875,-0.1277923583984375,0.31703898255756646
1784904936.795136,0.0429687537252903,-0.13916015625,0.9711913466453552,0.9820511670391964,-0.18310546875,-0.102996826171875,-0.0057220458984375,0.21016350943230008
1784904936.805802,0.03662109375,-0.14990234375,0.9853515028953552,0.9973612191314262,-0.67138671875,-0.469207763671875,0.0553131103515625,0.8209601645516169
1784904936.816469,0.0410156287252903,-0.15087890625,0.9765624403953552,0.9889999626601909,-0.244140625,-0.652313232421875,-0.1277923583984375,0.7081299914797426
1784904936.827136,0.0434570275247097,-0.1572265625,0.9868163466453552,1.0002075820565128,-0.54931640625,-0.652313232421875,0.0553131103515625,0.8545879753102393
1784904936.837809,0.0263671875,-0.1494140625,0.9638671278953552,0.9757354307837013,-0.2460479736328125,-0.5931854248046875,0.1773834228515625,0.6662382698645185
1784904936.848482,0.0468750037252903,-0.15966796875,0.9799804091453552,0.9940084147167442,-0.18310546875,-0.530242919921875,0.2994537353515625,0.6358912693451899
1784904936.859155,0.0361328162252903,-0.16259765625,0.9843749403953552,0.9983674681722772,-0.30517578125,-0.469207763671875,0.2994537353515625,0.6347918734258604
1784904936.869823,0.0415039099752903,-0.14306640625,0.9755858778953552,0.9868932952905182,0.2422332763671875,-0.2880096435546875,0.2994537353515625,0.48093560335671137
1784904936.880494,0.0473632849752903,-0.158203125,0.9726561903953552,0.9865756809479046,-0.1220703125,-0.347137451171875,0.6656646728515625,0.7606017537992739
1784904936.891165,0.0429687537252903,-0.15234375,0.9741210341453552,0.9868975231122953,-0.1220703125,0.141143798828125,0.6046295166015625,0.6327713532448518
1784904936.899146,0.04638671875,-0.1591796875,0.9746093153953552,0.988611763152954,-0.1220703125,-0.041961669921875,0.4215240478515625,0.4408451722018133
1784904936.907129,0.04638671875,-0.16357421875,0.9863280653953552,1.0008752696028655,-0.3662109375,0.263214111328125,0.6656646728515625,0.8040532170381891
1784904936.915112,0.0375976599752903,-0.154296875,0.9775390028953552,0.9903552957661349,-0.06103515625,0.446319580078125,0.6046295166015625,0.7539915849698954
1784904936.923095,0.03515625,-0.13916015625,0.9770507216453552,0.9875371505261442,-0.1850128173828125,0.2002716064453125,0.2994537353515625,0.40498271390284757
1784904936.931099,0.03369140625,-0.1533203125,0.9770507216453552,0.9895808919678621,0.2422332763671875,0.2002716064453125,0.4215240478515625,0.5258024338522357
1784904936.939103,0.0415039099752903,-0.15234375,0.9765624403953552,0.9892448598290674,-0.18310546875,0.385284423828125,0.1773834228515625,0.46199196814800114
1784904936.947107,0.03857421875,-0.15478515625,0.9819335341453552,0.9948064537520338,0.1220703125,0.324249267578125,0.3604888916015625,0.499990989605734
1784904936.955111,0.0224609412252903,-0.1474609375,0.9853515028953552,0.9965775465197076,0.0591278076171875,0.3261566162109375,0.4215240478515625,0.5362431900257105
1784904936.965891,0.04541015625,-0.16357421875,0.9780272841453552,0.9926509839128059,0.2422332763671875,0.2613067626953125,0.2994537353515625,0.465436057934804
1784904936.976671,0.0410156287252903,-0.15673828125,0.9843749403953552,0.9976187617959549,0.30517578125,0.263214111328125,0.0553131103515625,0.4067842991568954
1784904936.987451,0.0366210974752903,-0.1572265625,0.9765624403953552,0.9898158903183929,-0.06103515625,0.446319580078125,0.1773834228515625,0.4841397903107242
1784904936.99801,0.03515625,-0.1572265625,0.9794921278953552,0.9926535057504203,0.0,0.141143798828125,-0.0667572021484375,0.1561348647366166
1784904937.008571,0.0415039099752903,-0.146484375,0.9775390028953552,0.9893243900986284,-0.1220703125,-0.041961669921875,-0.1277923583984375,0.18163928485191397
1784904937.019132,0.044921875,-0.1591796875,0.9711913466453552,0.9851744919378149,0.0,0.080108642578125,-0.1277923583984375,0.15082533434653636
1784904937.029822,0.03955078125,-0.14892578125,0.9912108778953552,1.0031162231149933,0.0591278076171875,0.2613067626953125,-0.0667572021484375,0.2761047734151057
1784904937.040513,0.02490234375,-0.15869140625,0.9594725966453552,0.972826167850776,-0.18310546875,-0.164031982421875,-0.1277923583984375,0.27706495774175816
1784904937.051204,0.0356445349752903,-0.1572265625,0.9794921278953552,0.9926709190049551,-0.18310546875,0.263214111328125,-0.0057220458984375,0.3206899170502179
1784904937.06184,0.0439453125,-0.16015625,0.9799804091453552,0.9939531262657626,0.0591278076171875,0.0209808349609375,0.1163482666015625,0.13218627845000214
1784904937.072476,0.0458984412252903,-0.15234375,0.9853515028953552,0.9981146574062066,-0.06103515625,-0.041961669921875,0.1163482666015625,0.13792386009056798
1784904937.083112,0.0419921875,-0.1591796875,0.9682616591453552,0.9821568903665793,-0.1201629638671875,-0.1049041748046875,0.1773834228515625,0.2385558686751086
1784904937.091131,0.0468750037252903,-0.1552734375,0.9848632216453552,0.9981295866354131,-0.06103515625,-0.225067138671875,0.0553131103515625,0.23966653371960603
1784904937.09915,0.0361328162252903,-0.16064453125,0.9785155653953552,0.9922726225941612,0.06103515625,-0.347137451171875,0.1163482666015625,0.3711692598340494
1784904937.107169,0.0434570275247097,-0.15185546875,0.9780272841453552,0.9906997351182169,0.18310546875,-0.225067138671875,0.0553131103515625,0.2953681935701039
1784904937.115188,0.0454101599752903,-0.14697265625,0.9750975966453552,0.9871567085816264,0.0,-0.286102294921875,0.2384185791015625,0.3724217260316207
1784904937.123413,0.0361328162252903,-0.162109375,0.9853515028953552,0.9992510265841094,-0.18310546875,-0.041961669921875,0.0553131103515625,0.1958262868093907
1784904937.131638,0.0454101599752903,-0.1611328125,0.9658202528953552,0.9802217232830486,-0.18310546875,-0.408172607421875,-0.1888275146484375,0.485580395428023
1784904937.139863,0.03515625,-0.14990234375,0.9814452528953552,0.9934492734944415,-0.18310546875,0.019073486328125,-0.6160736083984375,0.6429915252411479
1784904937.148088,0.03955078125,-0.162109375,0.9750975966453552,0.9892719730912849,-0.2460479736328125,-0.2269744873046875,-0.6160736083984375,0.7011445743790009
1784904937.158454,0.044921875,-0.14501953125,0.9814452528953552,0.9931180311162985,-0.30517578125,0.019073486328125,-0.5550384521484375,0.6336905701567528
1784904937.16882,0.0263671875,-0.1591796875,0.9775390028953552,0.9907653121051944,-0.244140625,0.324249267578125,-0.4329681396484375,0.5934674736251094
1784904937.179186,0.03857421875,-0.16552734375,0.9794921278953552,0.9941288148374307,-0.30517578125,0.263214111328125,-0.6160736083984375,0.7361797449189116
1784904937.187168,0.0546875,-0.1435546875,0.9912108778953552,1.0030442041194163,-0.1220703125,0.263214111328125,-0.2498626708984375,0.3829023164001533
1784904937.19515,0.05029296875,-0.16455078125,0.9741210341453552,0.989200753881683,0.0591278076171875,0.3261566162109375,-0.3108978271484375,0.4544575831223456
1784904937.203132,0.0244140625,-0.1533203125,0.9785155653953552,0.9907552050803686,-0.18310546875,0.446319580078125,-0.0057220458984375,0.48245364757304393
1784904937.211114,0.0419921912252903,-0.14599609375,0.9775390028953552,0.9892728166162282,0.0,0.507354736328125,-0.2498626708984375,0.5655441475102383
1784904937.221798,0.03076171875,-0.16357421875,0.9863280653953552,1.0002728932479732,-0.2460479736328125,0.3833770751953125,-0.0667572021484375,0.4604064629789778
1784904937.232482,0.0380859412252903,-0.15087890625,0.9790038466453552,0.9912938590633026,-0.06103515625,0.263214111328125,-0.0057220458984375,0.27025858082580895
1784904937.243166,0.03515625,-0.1572265625,0.9697265028953552,0.98301863883005,-0.1201629638671875,0.3833770751953125,0.1163482666015625,0.4182750755326542
1784904937.251196,0.0336914025247097,-0.1669921875,0.9799804091453552,0.9946773866932006,-0.18310546875,0.385284423828125,-0.0667572021484375,0.4317733479146378
1784904937.259226,0.044921875,-0.15869140625,0.9838866591453552,0.9976141014016023,0.0,0.202178955078125,-0.0667572021484375,0.2129151331286009
1784904937.267256,0.02978515625,-0.14501953125,0.9736327528953552,0.9848241251550424,0.18310546875,0.385284423828125,0.1773834228515625,0.46199196814800114
1784904937.275286,0.0327148474752903,-0.15380859375,0.9760741591453552,0.9886597538627717,0.2422332763671875,0.0782012939453125,-0.1277923583984375,0.28482150448893095
1784904937.285958,0.0327148474752903,-0.15771484375,0.9750975966453552,0.9883114671842912,0.3681182861328125,-0.1049041748046875,-0.3108978271484375,0.49312616783378205
1784904937.29663,0.0380859412252903,-0.15576171875,0.9707030653953552,0.983858065533291,0.18310546875,-0.347137451171875,-0.6160736083984375,0.7304647244441955
1784904937.307302,0.0410156287252903,-0.15283203125,0.9667968153953552,0.9796611627671745,-0.06103515625,-0.469207763671875,-0.4940032958984375,0.6840471271388714
1784904937.317911,0.0429687537252903,-0.15771484375,0.9658202528953552,0.9795555352498598,0.3662109375,-0.652313232421875,-0.0667572021484375,0.7510522804545575
1784904937.32852,0.0463867224752903,-0.15283203125,0.9868163466453552,0.9996578713762456,0.18310546875,-0.530242919921875,-0.0057220458984375,0.5609972447549961
1784904937.339129,0.0429687537252903,-0.16162109375,0.9833983778953552,0.997516947920619,0.4253387451171875,-0.5931854248046875,0.1773834228515625,0.7511636805657723
1784904937.347138,0.0375976599752903,-0.14453125,0.9882811903953552,0.9995011643572209,0.48828125,-0.347137451171875,-0.1277923583984375,0.6125796894875826
1784904937.355146,0.03955078125,-0.1533203125,0.9790038466453552,0.9917257253237839,0.18310546875,-0.225067138671875,0.2994537353515625,0.4169596733643505
1784904937.363154,0.041015625,-0.1552734375,0.9809569716453552,0.9940164496158166,0.1220703125,0.141143798828125,0.4215240478515625,0.46098292382543654
1784904937.371162,0.0410156287252903,-0.1474609375,0.9711913466453552,0.9831783366647825,-0.18310546875,0.812530517578125,0.2384185791015625,0.8663583978601125
1784904937.381809,0.0463867224752903,-0.1552734375,0.9707030653953552,0.9841371904277397,-0.244140625,1.300811767578125,0.2994537353515625,1.3569776855428095
1784904937.392456,0.0434570275247097,-0.15283203125,0.9833983778953552,0.9961518522115492,-0.18310546875,1.728057861328125,0.0553131103515625,1.738611838496694
1784904937.403103,0.03857421875,-0.16943359375,0.9697265028953552,0.9851726769764112,-0.6084442138671875,1.5430450439453125,-0.3719329833984375,1.6998607334638662
1784904937.411151,0.0322265662252903,-0.15380859375,0.9770507216453552,0.9896078757516711,-0.6732940673828125,1.1768341064453125,-0.8602142333984375,1.6056873738704835
1784904937.419197,0.0312500037252903,-0.1630859375,0.9829100966453552,0.9968379225483278,-0.732421875,0.934600830078125,-0.9822845458984375,1.5410397281290757
1784904937.427243,0.0239257849752903,-0.162109375,0.9775390028953552,0.9911782860975212,-0.9174346923828125,0.2613067626953125,-0.7381439208984375,1.206160887683384
1784904937.435289,0.0273437537252903,-0.1669921875,0.9707030653953552,0.9853418253183834,-0.8544921875,0.080108642578125,-0.7381439208984375,1.1320029775020752
1784904937.445906,0.0244140625,-0.1611328125,0.9667968153953552,0.9804365925293255,-0.6103515625,-0.164031982421875,-0.9212493896484375,1.117200053272045
1784904937.456523,0.0380859412252903,-0.16845703125,0.9721679091453552,0.9873898692353651,-0.6084442138671875,-0.2880096435546875,-0.4940032958984375,0.8349809414157171
1784904937.46714,0.0283203162252903,-0.1591796875,0.9687499403953552,0.9821490010378784,-0.3662109375,-0.530242919921875,-0.2498626708984375,0.6911579842412339
1784904937.475129,0.0273437537252903,-0.16943359375,0.9829100966453552,0.9977813796850545,0.1220703125,-0.713348388671875,-0.1277923583984375,0.7349135810962013
1784904937.483118,0.0234375037252903,-0.1572265625,0.9726561903953552,0.9855605375880494,-0.0629425048828125,-0.5931854248046875,0.0553131103515625,0.599074492278218
1784904937.491107,0.0361328125,-0.14990234375,0.9726561903953552,0.9848026997908306,0.3681182861328125,-0.5931854248046875,0.4825592041015625,0.8486715538117265
1784904937.499096,0.0302734375,-0.158203125,0.9799804091453552,0.993129554532806,0.0,-0.530242919921875,0.4825592041015625,0.7169525364976467
1784904937.50977,0.0458984412252903,-0.162109375,0.9775390028953552,0.991951923508114,0.18310546875,-0.835418701171875,0.4825592041015625,0.9819956234204882
1784904937.520444,0.0405273474752903,-0.1611328125,0.9868163466453552,1.0007061262748564,0.1220703125,-0.835418701171875,0.8487701416015625,1.197178483241278
1784904937.531118,0.0415039099752903,-0.169921875,0.9697265028953552,0.9853758209761431,0.18310546875,-1.018524169921875,0.6046295166015625,1.198539089786829
1784904937.539131,0.03857421875,-0.158203125,0.9775390028953552,0.9910089309857827,0.3662109375,-0.713348388671875,0.2994537353515625,0.8559491304869659
1784904937.547143,0.0439453125,-0.16064453125,0.9780272841453552,0.9921064582210894,0.1201629638671875,-0.2880096435546875,0.2994537353515625,0.43250575982505574
1784904937.555155,0.04931640625,-0.1572265625,0.9790038466453552,0.9927743105194572,0.0591278076171875,0.0782012939453125,0.1773834228515625,0.20267318202187612
1784904937.563167,0.029296875,-0.15576171875,0.9770507216453552,0.9898222732291031,-0.18310546875,0.019073486328125,0.1773834228515625,0.25564876152526655
1784904937.573805,0.0385742150247097,-0.15087890625,0.9877929091453552,0.9999936228665725,-0.3662109375,0.324249267578125,-0.0057220458984375,0.48916334703127873
1784904937.584443,0.0405273474752903,-0.14697265625,0.9819335341453552,0.9936985926616536,-0.48828125,0.263214111328125,-0.0057220458984375,0.5547368649306452
1784904937.595081,0.0366210974752903,-0.1533203125,0.9770507216453552,0.9896849678928653,0.1220703125,0.141143798828125,-0.1277923583984375,0.22617166048494355
1784904937.605765,0.0439453087747097,-0.15234375,0.9628905653953552,0.9758575968115194,-0.18310546875,0.019073486328125,0.2384185791015625,0.30122222598552456
1784904937.616452,0.0434570275247097,-0.1572265625,0.9814452528953552,0.994908784576595,-0.1220703125,-0.164031982421875,-0.1277923583984375,0.24111934662347745
1784904937.627139,0.0380859412252903,-0.14990234375,0.9741210341453552,0.9863229900723067,-0.1220703125,0.080108642578125,-0.0057220458984375,0.14612083225475161
1784904937.635134,0.0439453125,-0.14501953125,0.9667968153953552,0.9785999883472781,0.18310546875,0.446319580078125,-0.1277923583984375,0.499058781219513
1784904937.643127,0.0419921912252903,-0.16064453125,0.9702147841453552,0.98432044422467,0.18310546875,0.385284423828125,-0.0667572021484375,0.4317733479146378
1784904937.65112,0.0371093787252903,-0.14794921875,0.9873046278953552,0.9990177704033588,0.3662109375,0.568389892578125,-0.2498626708984375,0.7208390077112241
1784904937.659113,0.03662109375,-0.14453125,0.9843749403953552,0.995602536162081,0.6084442138671875,0.6885528564453125,-0.0667572021484375,0.921284929620661
1784904937.669779,0.0400390625,-0.162109375,0.9750975966453552,0.9892916147285983,0.1850128173828125,0.2002716064453125,-0.4329681396484375,0.5116638241020572
1784904937.680445,0.0307617224752903,-0.15625,0.9682616591453552,0.9812700885284147,0.0591278076171875,0.2613067626953125,-0.5550384521484375,0.616315670113338
1784904937.691111,0.0385742150247097,-0.162109375,0.9692382216453552,0.9834582603374248,0.1220703125,-0.164031982421875,-0.4329681396484375,0.4788204907914101
1784904937.701772,0.02685546875,-0.154296875,0.9877929091453552,1.0001317779144865,-0.1220703125,0.324249267578125,-0.5550384521484375,0.6542984273877872
1784904937.712433,0.0268554724752903,-0.1572265625,0.9658202528953552,0.978902533074813,0.0591278076171875,0.2613067626953125,-0.2498626708984375,0.3663450234033764
1784904937.723094,0.0327148474752903,-0.1572265625,0.9604491591453552,0.9737828507957602,0.0,-0.164031982421875,-0.2498626708984375,0.2988943719205017
1784904937.733836,0.02783203125,-0.16357421875,0.9814452528953552,0.995372257717685,-0.30517578125,0.080108642578125,-0.1277923583984375,0.3404123072720672
1784904937.744577,0.0375976599752903,-0.1630859375,0.9765624403953552,0.9908000842939019,0.18310546875,-0.164031982421875,0.0553131103515625,0.2519794517816317
1784904937.755318,0.041015625,-0.14990234375,0.9819335341453552,0.9941561545527299,-0.0629425048828125,-0.2880096435546875,0.3604888916015625,0.4656861117421735
1784904937.763272,0.0371093787252903,-0.15087890625,0.9824218153953552,0.9946326828057073,-0.06103515625,0.141143798828125,0.2384185791015625,0.2837080913666442
1784904937.771226,0.03466796875,-0.173828125,0.9814452528953552,0.997322851201703,0.30517578125,0.141143798828125,0.3604888916015625,0.49295645890616463
1784904937.77918,0.02978515625,-0.154296875,0.9873046278953552,0.9997325189425361,0.244140625,0.141143798828125,0.1773834228515625,0.3331532611660301
1784904937.787134,0.044921875,-0.15966796875,0.9692382216453552,0.9833283100757942,0.1220703125,0.507354736328125,0.1163482666015625,0.5346465269779812
1784904937.797795,0.0410156287252903,-0.15576171875,0.9736327528953552,0.986866116724185,0.1220703125,0.141143798828125,0.3604888916015625,0.40592483800527035
1784904937.808456,0.0263671875,-0.1689453125,0.9838866591453552,0.99863442021422,0.2422332763671875,0.2613067626953125,-0.2498626708984375,0.43518908386859556
1784904937.819117,0.0478515662252903,-0.15380859375,0.9716796278953552,0.984940686116896,0.30517578125,0.263214111328125,-0.3108978271484375,0.5089905547153327
1784904937.82979,0.03515625,-0.15283203125,0.9819335341453552,0.9943777235886024,-0.3662109375,0.324249267578125,-0.3719329833984375,0.6144771618288525
1784904937.840466,0.0400390625,-0.15771484375,0.9736327528953552,0.9871361790429696,-0.18310546875,0.446319580078125,-0.2498626708984375,0.5432864203675368
1784904937.851142,0.03515625,-0.15576171875,0.9770507216453552,0.9900130239596477,-0.1220703125,0.080108642578125,-0.2498626708984375,0.2893957672773711
1784904937.85916,0.0473632849752903,-0.146484375,0.9824218153953552,0.9944111706168111,-0.244140625,0.324249267578125,-0.5550384521484375,0.6876117477644448
1784904937.867179,0.0268554724752903,-0.166015625,0.9799804091453552,0.9943057912205427,-0.3662109375,0.141143798828125,-0.3108978271484375,0.5006890068873919
1784904937.875198,0.04150390625,-0.16357421875,0.9697265028953552,0.9843010665905717,-0.06103515625,0.141143798828125,-0.1277923583984375,0.19994436503970506
1784904937.883217,0.0302734375,-0.15966796875,0.9809569716453552,0.9943273713835116,-0.06103515625,-0.347137451171875,0.1163482666015625,0.3711692598340494
1784904937.893884,0.0375976599752903,-0.1611328125,0.9907225966453552,1.004444438883253,0.1220703125,-0.164031982421875,-0.1277923583984375,0.24111934662347745
1784904937.904551,0.03857421875,-0.16845703125,0.9843749403953552,0.9994297198943483,-0.06103515625,-0.652313232421875,0.0553131103515625,0.6574932575075589
1784904937.915218,0.0366210974752903,-0.1669921875,0.9746093153953552,0.9894901783856841,-0.30517578125,-0.408172607421875,-0.0057220458984375,0.509676246965055
1784904937.92588,0.0341796875,-0.17431640625,0.9829100966453552,0.9988326779861051,0.0,-0.530242919921875,0.1773834228515625,0.5591264909032769
1784904937.936542,0.0415039099752903,-0.16162109375,0.9897460341453552,1.0037136865633756,0.0591278076171875,-0.1621246337890625,-0.0667572021484375,0.18503247972596626
1784904937.947204,0.0507812537252903,-0.16259765625,0.9785155653953552,0.9932318184939996,-0.3032684326171875,-0.2880096435546875,-0.1277923583984375,0.43732388897431435
1784904937.957853,0.0439453087747097,-0.15625,0.9731444716453552,0.9865877636364756,0.0,-0.347137451171875,0.2384185791015625,0.42112685602667743
1784904937.968504,0.0410156287252903,-0.15087890625,0.9814452528953552,0.9938216694064157,0.3662109375,-0.469207763671875,-0.0057220458984375,0.5952303067249305
1784904937.979155,0.046875,-0.14453125,0.9833983778953552,0.9950672929499684,0.0,-0.408172607421875,-0.0057220458984375,0.4082127132498888
1784904937.987181,0.0483398400247097,-0.15283203125,0.9829100966453552,0.9958948880263404,-0.1201629638671875,-0.2880096435546875,-0.0057220458984375,0.31212406904163764
1784904937.995206,0.04345703125,-0.1689453125,0.9697265028953552,0.985292100140076,-0.0629425048828125,0.0782012939453125,0.1163482666015625,0.15366886619231726
1784904938.003231,0.0385742150247097,-0.1611328125,0.9936522841453552,1.007371140700494,-0.1220703125,-0.347137451171875,0.1163482666015625,0.38593068074609177
1784904938.011256,0.04443359375,-0.1572265625,0.9721679091453552,0.9858016939431369,-0.2460479736328125,0.0782012939453125,-0.0667572021484375,0.2666675303486004
1784904938.02187,0.044921875,-0.16845703125,0.9736327528953552,0.9891190442720568,-0.1220703125,-0.041961669921875,-0.1277923583984375,0.18163928485191397
1784904938.032484,0.0400390625,-0.15869140625,0.9804686903953552,0.9940346783634183,-0.48828125,-0.041961669921875,-0.1888275146484375,0.5252001438808835
1784904938.043098,0.03369140625,-0.16015625,0.9799804091453552,0.9935525842037063,-0.1220703125,0.263214111328125,0.0553131103515625,0.2953681935701039
1784904938.051094,0.0380859412252903,-0.14599609375,0.9838866591453552,0.9953885454200704,0.2422332763671875,-0.1049041748046875,0.1163482666015625,0.28847662853725764
1784904938.059089,0.0356445349752903,-0.15673828125,0.9604491591453552,0.9738069670041536,0.0,0.019073486328125,0.2384185791015625,0.23918030174225716
1784904938.067084,0.0341796875,-0.15771484375,0.9711913466453552,0.9845074173288402,0.2422332763671875,0.2613067626953125,0.2994537353515625,0.465436057934804
1784904938.075079,0.02587890625,-0.16064453125,0.9858397841453552,0.9991778936770914,0.0,0.080108642578125,0.1773834228515625,0.1946336900905031
1784904938.083116,0.0478515662252903,-0.14697265625,0.9902343153953552,1.0022248916595027,0.1220703125,0.141143798828125,0.4825592041015625,0.5173839179995986
1784904938.091153,0.028808601200580597,-0.16357421875,0.9682616591453552,0.9824037363089184,0.0,-0.041961669921875,0.2384185791015625,0.24208304484916
1784904938.09919,0.0341796875,-0.15576171875,0.9692382216453552,0.9822691557632269,-0.2460479736328125,-0.1049041748046875,0.1163482666015625,0.2916871789459624
1784904938.107227,0.0458984375,-0.1640625,0.9653319716453552,0.980249450880693,-0.2460479736328125,0.2002716064453125,-0.0667572021484375,0.324198775006456
1784904938.117893,0.0424804724752903,-0.1494140625,0.9780272841453552,0.9902860804571663,-0.06103515625,0.141143798828125,-0.1888275146484375,0.2435214416317422
1784904938.128559,0.0371093787252903,-0.1513671875,0.9819335341453552,0.9942246209585762,-0.1201629638671875,0.2002716064453125,-0.4940032958984375,0.5464312496481624
1784904938.139225,0.0375976599752903,-0.15771484375,0.9770507216453552,0.9904118681853594,-0.3662109375,0.141143798828125,-0.3719329833984375,0.5407089483556986
1784904938.147361,0.0400390625,-0.15771484375,0.9667968153953552,0.9803944005978239,-0.18310546875,0.080108642578125,-0.2498626708984375,0.3199630628844022
1784904938.1555,0.0400390625,-0.15771484375,0.9790038466453552,0.992434194398484,-0.18310546875,0.141143798828125,-0.0667572021484375,0.24063605023453738
1784904938.163639,0.0449218787252903,-0.15185546875,0.9790038466453552,0.9917290911957227,0.1220703125,-0.408172607421875,-0.2498626708984375,0.4939001852114662
1784904938.171778,0.0341796875,-0.14501953125,0.9829100966453552,0.9941384076520476,0.2422332763671875,0.0209808349609375,-0.1888275146484375,0.3078522143879206
1784904938.182396,0.03564453125,-0.15966796875,0.9863280653953552,0.9998037034534966,-0.06103515625,-0.041961669921875,-0.0057220458984375,0.07428871953640155
1784904938.193014,0.0288085974752903,-0.15966796875,0.9907225966453552,1.0039198469185473,0.3032684326171875,0.2002716064453125,-0.0667572021484375,0.3695091103192979
1784904938.203632,0.0375976599752903,-0.1533203125,0.9868163466453552,0.9993633995035045,0.18310546875,-0.164031982421875,0.4825592041015625,0.5415694686801878
1784904938.21413,0.0468750037252903,-0.16796875,0.9819335341453552,0.9972984670749253,-0.06103515625,-0.347137451171875,0.6046295166015625,0.6998618096813163
1784904938.224628,0.0493164025247097,-0.15673828125,0.9804686903953552,0.994141765148596,0.4253387451171875,-0.4100799560546875,0.1773834228515625,0.6168820771899719
1784904938.235126,0.0385742150247097,-0.15576171875,0.9755858778953552,0.9886948408086176,0.5474090576171875,-0.0438690185546875,0.4825592041015625,0.731057147296586
1784904938.243184,0.04150390625,-0.15966796875,0.9746093153953552,0.9884734453358688,-0.18310546875,-0.102996826171875,0.4215240478515625,0.47097609472753815
1784904938.251245,0.03955078125,-0.15625,0.9819335341453552,0.9950737622290484,0.0,-0.164031982421875,0.2994537353515625,0.34143671576626605
1784904938.259306,0.03857421875,-0.1357421875,0.9765624403953552,0.9867056865197391,0.2422332763671875,-0.1049041748046875,-0.0667572021484375,0.27228362071509554
1784904938.267367,0.0336914025247097,-0.142578125,0.9721679091453552,0.9831449923102132,-0.1220703125,0.141143798828125,-0.3108978271484375,0.3626019747148402
1784904938.277954,0.03515625,-0.16015625,0.9755858778953552,0.9892693220134626,0.1220703125,-0.347137451171875,-0.4329681396484375,0.5682138516004185
1784904938.288541,0.0517578162252903,-0.1533203125,0.9804686903953552,0.9937327822966753,-0.1850128173828125,0.2002716064453125,-0.3719329833984375,0.4611643991937956
1784904938.299128,0.0375976599752903,-0.15576171875,0.9731444716453552,0.9862481735128786,0.48828125,0.019073486328125,-0.5550384521484375,0.7394931104111823
1784904938.309804,0.02587890625,-0.16064453125,0.9833983778953552,0.9967691572558033,0.30517578125,0.263214111328125,-0.6771087646484375,0.7879658653949012
1784904938.320482,0.04150390625,-0.15478515625,0.9868163466453552,0.9997437275801392,-0.06103515625,0.263214111328125,-0.4329681396484375,0.5103610179582149
1784904938.33116,0.041015625,-0.15478515625,0.9731444716453552,0.9862306468485935,0.18310546875,-0.164031982421875,0.1773834228515625,0.3031484498491519
1784904938.339214,0.0458984375,-0.150390625,0.9692382216453552,0.9819097397169878,0.0,-0.164031982421875,-0.1277923583984375,0.20793599525403245
1784904938.347268,0.0405273474752903,-0.15185546875,0.9770507216453552,0.9896113691497155,-0.06103515625,-0.225067138671875,-0.0667572021484375,0.24256345818588232
1784904938.355322,0.0434570275247097,-0.15283203125,0.9746093153953552,0.9874763089171746,0.18310546875,-0.469207763671875,0.1163482666015625,0.5169337068883277
1784904938.363376,0.04052734375,-0.1484375,0.9799804091453552,0.9919867737557686,0.0591278076171875,-0.2880096435546875,0.0553131103515625,0.2991741843656926
1784904938.373945,0.029296875,-0.150390625,0.9663085341453552,0.9783802073502925,0.2422332763671875,-0.2269744873046875,-0.1277923583984375,0.3557039006418719
1784904938.384514,0.0302734375,-0.140625,0.9711913466453552,0.9817863838136507,-0.00762939453125,-0.2288818359375,-0.0896453857421875,0.24592966000037436
1784904938.395083,0.0366210974752903,-0.142578125,0.9882811903953552,0.9991843362453551,-0.2536773681640625,-0.3490447998046875,-0.2117156982421875,0.4806329329868238
1784904938.405755,0.0322265662252903,-0.15380859375,0.9711913466453552,0.9838232904748921,0.35858154296875,-0.3509521484375,-0.0896453857421875,0.5096905224110138
1784904938.416426,0.0224609412252903,-0.15625,0.9868163466453552,0.9993623258794639,0.17547607421875,-0.774383544921875,0.3376007080078125,0.8628070266962191
1784904938.427097,0.0380859412252903,-0.15478515625,0.9980468153953552,1.0106960122782533,0.2956390380859375,-0.9593963623046875,0.0934600830078125,1.0082552295721916
1784904938.435101,0.06201171875,-0.1591796875,0.9868163466453552,1.0014939481501686,0.7228851318359375,-0.3490447998046875,0.3376007080078125,0.8708440871634436
1784904938.443107,0.06103515625,-0.154296875,0.9848632216453552,0.9987434011210765,0.66375732421875,-0.3509521484375,0.2765655517578125,0.8001435498496724
1784904938.451113,0.04052734375,-0.14892578125,0.9785155653953552,0.9906129746946308,0.2346038818359375,-0.1049041748046875,-0.0896453857421875,0.27217671180468134
1784904938.459119,0.0517578125,-0.154296875,0.9707030653953552,0.984251409934215,0.2956390380859375,0.2002716064453125,0.2155303955078125,0.41709052803476443
1784904938.468732,0.0400390662252903,-0.15673828125,0.9809569716453552,0.9942065156963232,0.35858154296875,0.8087158203125,0.0934600830078125,0.8895711259350747
1784904938.478342,0.0483398400247097,-0.16552734375,0.9790038466453552,0.99407473230585,-0.0705718994140625,1.3599395751953125,-0.1506805419921875,1.370080532999566
1784904938.487952,0.0502929724752903,-0.1474609375,0.9814452528953552,0.99373482156942,0.0553131103515625,1.6651153564453125,-0.5168914794921875,1.7443753873574308
1784904938.497562,0.0214843787252903,-0.14599609375,0.9765624403953552,0.9876490459218812,-0.5588531494140625,1.4209747314453125,-0.6389617919921875,1.6552214962481493
1784904938.507172,0.0312500037252903,-0.142578125,0.9775390028953552,0.9883762373929229,-0.61798095703125,1.2969970703125,-0.6389617919921875,1.57237846439028
1784904938.51787,0.0361328162252903,-0.15185546875,0.9667968153953552,0.9793169793566603,-0.67901611328125,0.7476806640625,-0.7610321044921875,1.2646181722465972
1784904938.528568,0.037109375,-0.1591796875,0.9819335341453552,0.9954439934545166,-1.1692047119140625,0.5054473876953125,-0.6389617919921875,1.4250575047049607
1784904938.539266,0.04443359375,-0.16064453125,0.9868163466453552,1.0007934410659165,-1.10626220703125,0.3204345703125,-0.5168914794921875,1.2624069019649058
1784904938.547211,0.0219726599752903,-0.1533203125,0.9746093153953552,0.9868400243539428,-0.6160736083984375,0.0171661376953125,-0.2117156982421875,0.6516631830406124
1784904938.555157,0.0327148474752903,-0.15234375,0.9707030653953552,0.9831293508879354,-0.12969970703125,0.1373291015625,-0.0896453857421875,0.20908752072952874
1784904938.563103,0.03515625,-0.1611328125,0.9804686903953552,0.9942427259094258,-0.0705718994140625,-0.1659393310546875,0.2155303955078125,0.2810153126887213
1784904938.571049,0.0400390625,-0.15576171875,0.9853515028953552,0.9983899157202902,-0.0095367431640625,-0.2880096435546875,0.7038116455078125,0.760520437991702
1784904938.581799,0.02978515625,-0.1611328125,0.9804686903953552,0.9940672973408692,-0.12969970703125,-0.5340576171875,0.3986358642578125,0.678933063528766
1784904938.592549,0.029296875,-0.15576171875,0.9643554091453552,0.9772928809014344,0.2346038818359375,-0.4711151123046875,0.4596710205078125,0.6987745541367707
1784904938.603299,0.0288085974752903,-0.16162109375,0.9863280653953552,0.9998971776237713,0.48065185546875,-0.7171630859375,0.4596710205078125,0.9780830972323589
1784904938.613905,0.044921875,-0.1611328125,0.9614257216453552,0.9758694463702446,0.9059906005859375,-0.7762908935546875,0.5817413330078125,1.327354322815016
1784904938.624512,0.0434570275247097,-0.14599609375,0.9741210341453552,0.9859590061437435,0.7228851318359375,-0.6542205810546875,0.3376007080078125,1.0317663110183284
1784904938.635119,0.0439453125,-0.14501953125,0.9746093153953552,0.9863190014341685,0.6008148193359375,-0.7762908935546875,0.2765655517578125,1.019850235558493
1784904938.64316,0.04443359375,-0.15478515625,0.9780272841453552,0.9911963263559931,0.54168701171875,-0.5340576171875,0.3376007080078125,0.8322359011651419
1784904938.651201,0.0429687537252903,-0.14794921875,0.9736327528953552,0.9857464291774167,-0.0705718994140625,-0.1049041748046875,0.1544952392578125,0.19963481117202408
1784904938.659242,0.04638671875,-0.14501953125,0.9619140028953552,0.9738895938896395,-0.2536773681640625,0.0171661376953125,-0.3948211669921875,0.46960689657104965
1784904938.667283,0.03369140625,-0.1591796875,0.9790038466453552,0.9924322725073497,-0.31280517578125,0.0152587890625,-0.2117156982421875,0.3780257207140403
1784904938.677904,0.029296875,-0.16015625,0.9848632216453552,0.9982303825512907,-0.19073486328125,0.0762939453125,-0.0896453857421875,0.22413578328131692
1784904938.688525,0.0458984412252903,-0.142578125,0.9711913466453552,0.9826738118186754,-0.2536773681640625,0.0171661376953125,0.0324249267578125,0.2563167167339447
1784904938.699146,0.0288085974752903,-0.150390625,0.9750975966453552,0.9870474144436688,0.05340576171875,-0.5340576171875,0.2765655517578125,0.6037865668262697
1784904938.709804,0.02978515625,-0.15478515625,0.9799804091453552,0.9925760436545261,-0.31280517578125,-0.2288818359375,0.3376007080078125,0.5140118781361338
1784904938.720465,0.0449218787252903,-0.15673828125,0.9775390028953552,0.9910435743089498,-0.1926422119140625,0.2002716064453125,0.7038116455078125,0.7566839303908491
1784904938.731126,0.04345703125,-0.15380859375,0.9892577528953552,1.0020860735186292,-0.1926422119140625,0.5054473876953125,0.2155303955078125,0.5822726465556425
1784904938.741794,0.0366210974752903,-0.1611328125,0.9692382216453552,0.9832230765918311,0.2346038818359375,0.3223419189453125,0.2765655517578125,0.48521314749390315
1784904938.752462,0.044921875,-0.1513671875,0.9750975966453552,0.9877982199258731,0.17547607421875,0.6256103515625,0.0324249267578125,0.6505624800744573
1784904938.76313,0.05029296875,-0.16064453125,0.9736327528953552,0.9880773176410885,0.2956390380859375,0.8106231689453125,-0.2727508544921875,0.9049339155416475
1784904938.77378,0.0429687537252903,-0.16748046875,0.9892577528953552,1.004254411428196,0.2346038818359375,0.6275177001953125,-0.2727508544921875,0.7233328929732997
1784904938.78443,0.0371093787252903,-0.15673828125,0.9702147841453552,0.9834941393688116,0.1125335693359375,0.3223419189453125,-0.2117156982421875,0.4017358010172975
1784904938.79508,0.0424804724752903,-0.1494140625,0.9760741591453552,0.9883571807630023,0.35858154296875,0.3204345703125,-0.2117156982421875,0.5254356037530984
1784904938.8031,0.0283203162252903,-0.15283203125,0.9638671278953552,0.9763193690203746,-0.49591064453125,-0.0457763671875,-0.4558563232421875,0.6751502281656805
1784904938.811122,0.0400390625,-0.15771484375,0.9755858778953552,0.9890626388726939,-0.67901611328125,-0.2288818359375,-0.6999969482421875,1.0017212708463725
1784904938.819144,0.04150390625,-0.1591796875,0.9819335341453552,0.9956175031736806,-0.8640289306640625,0.0171661376953125,-0.2727508544921875,0.9062194535177869
1784904938.827166,0.0380859412252903,-0.1689453125,0.9790038466453552,0.9942039978199348,-0.19073486328125,0.0762939453125,-0.2117156982421875,0.2949984593933346
1784904938.837834,0.0371093787252903,-0.1533203125,0.9765624403953552,0.989221119975411,-0.67901611328125,0.1373291015625,-0.2727508544921875,0.7445234669624304
1784904938.848502,0.0263671912252903,-0.16259765625,0.9814452528953552,0.9951723524203895,-0.2536773681640625,0.2002716064453125,-0.1506805419921875,0.3566027891112054
1784904938.85917,0.0371093787252903,-0.1572265625,0.9741210341453552,0.9874254843325443,-0.19073486328125,-0.0457763671875,-0.0286102294921875,0.19822666090967075
1784904938.869808,0.03076171875,-0.150390625,0.9736327528953552,0.9856593533969698,0.2346038818359375,0.1392364501953125,-0.0286102294921875,0.2743069734204326
1784904938.880448,0.0419921912252903,-0.1513671875,0.9682616591453552,0.9809210009712697,0.2346038818359375,0.1392364501953125,-0.0286102294921875,0.2743069734204326
1784904938.891088,0.044921875,-0.16357421875,0.9741210341453552,0.9887802026019761,-0.12969970703125,-0.0457763671875,0.2155303955078125,0.25567722069951987
1784904938.899093,0.0380859412252903,-0.1591796875,0.9824218153953552,0.9959625169635248,0.2346038818359375,-0.4100799560546875,-0.3948211669921875,0.6157014744463243
1784904938.9071,0.03466796875,-0.1533203125,0.9887694716453552,1.0011863234883822,-0.12969970703125,-0.0457763671875,-0.2727508544921875,0.3054677043863972
1784904938.915107,0.03662109375,-0.15869140625,0.9755858778953552,0.9890863825136305,0.2346038818359375,-0.1049041748046875,-0.0286102294921875,0.25857767207463717
1784904938.923114,0.0419921875,-0.1494140625,0.9692382216453552,0.9815857762732912,-0.31280517578125,-0.2288818359375,-0.2117156982421875,0.44165315542837047
1784904938.933784,0.0312500037252903,-0.1376953125,0.9785155653953552,0.988650228108149,-0.12969970703125,-0.0457763671875,-0.6389617919921875,0.6535974766037155
1784904938.944454,0.0327148474752903,-0.15380859375,0.9736327528953552,0.9862495030504562,-0.0705718994140625,-0.1049041748046875,-0.2117156982421875,0.24659443578584248
1784904938.955124,0.0439453125,-0.1640625,0.9882811903953552,1.0027698667621765,0.11444091796875,-0.2288818359375,-0.4558563232421875,0.5227701272715729
1784904938.965793,0.0390625,-0.14453125,0.9721679091453552,0.9836287941621392,0.11444091796875,-0.2288818359375,-0.5779266357421875,0.6320465290055265
1784904938.976462,0.0332031287252903,-0.1396484375,0.9746093153953552,0.9851230641441416,-0.00762939453125,-0.4119873046875,-0.6999969482421875,0.8122730294875979
1784904938.987131,0.03125,-0.1533203125,0.9775390028953552,0.9899829205126435,-0.2536773681640625,-0.0438690185546875,-0.6999969482421875,0.7458367284171332
1784904938.99515,0.0366210974752903,-0.1513671875,0.9873046278953552,0.9995116600097973,0.17547607421875,-0.102996826171875,-0.2117156982421875,0.293638784405059
1784904939.003172,0.0273437537252903,-0.166015625,0.9682616591453552,0.9827713412502656,0.2346038818359375,-0.7152557373046875,0.0934600830078125,0.7585278757142613
1784904939.011194,0.04833984375,-0.1533203125,0.9770507216453552,0.9901878465152869,-0.0095367431640625,-0.4711151123046875,-0.0286102294921875,0.47207938288346296
1784904939.019216,0.0244140625,-0.1572265625,0.9790038466453552,0.9918491670358566,0.17547607421875,-0.286102294921875,0.1544952392578125,0.36947957282658606
1784904939.029833,0.0390625,-0.14990234375,0.9853515028953552,0.9974538464641501,-0.2536773681640625,-0.7762908935546875,0.2765655517578125,0.8622460570821323
1784904939.04045,0.0517578162252903,-0.15283203125,0.9941405653953552,1.0071504182995747,0.05340576171875,-0.9002685546875,0.2155303955078125,0.9272480775561813
1784904939.051067,0.0385742150247097,-0.15673828125,0.9653319716453552,0.978734220488221,0.29754638671875,-0.0457763671875,-0.0286102294921875,0.30240349414956236
1784904939.059085,0.0498046875,-0.15625,0.9838866591453552,0.9974605392902424,-0.2536773681640625,-0.3490447998046875,0.1544952392578125,0.45831567542761226
1784904939.067103,0.0537109375,-0.15966796875,0.9863280653953552,1.0006107023405377,-0.2536773681640625,-0.5931854248046875,-0.2117156982421875,0.6790027188469424
1784904939.075121,0.0375976599752903,-0.1611328125,0.9755858778953552,0.9895176463553486,0.1125335693359375,-0.2880096435546875,-0.5168914794921875,0.6023206459848499
1784904939.083139,0.0312500037252903,-0.146484375,0.9726561903953552,0.9841210797286972,0.1125335693359375,0.3223419189453125,-0.5168914794921875,0.6194714832084324
1784904939.094344,0.0463867224752903,-0.16748046875,0.9809569716453552,0.9962319085706629,-0.19073486328125,0.2593994140625,-0.2117156982421875,0.38534579402020525
1784904939.105549,0.0522460974752903,-0.16259765625,0.9863280653953552,1.0010048476935238,-0.31280517578125,-0.4119873046875,0.0324249267578125,0.5182972053701035
1784904939.116754,0.0522460974752903,-0.14892578125,0.9809569716453552,0.9935719013951364,0.17547607421875,-0.3509521484375,0.0324249267578125,0.3937139050012976
1784904939.12715,0.0390625,-0.154296875,0.9609374403953552,0.9740298603711246,-0.00762939453125,-0.102996826171875,0.0324249267578125,0.10824938677721185
1784904939.137545,0.0302734375,-0.1552734375,0.9677733778953552,0.9806179849330313,-0.31280517578125,-0.0457763671875,0.3376007080078125,0.4625113964388335
1784904939.14794,0.0566406287252903,-0.166015625,0.9882811903953552,1.0037275824922802,0.17547607421875,-0.3509521484375,0.9479522705078125,1.0259496918840798
1784904939.158342,0.04150390625,-0.14453125,0.9736327528953552,0.985176427839785,0.54168701171875,0.2593994140625,-0.0896453857421875,0.6072472065523423
1784904939.168746,0.03466796875,-0.1513671875,0.9653319716453552,0.9777421485185243,0.35858154296875,0.4425048828125,0.0934600830078125,0.5771707558310462
1784904939.17915,0.0273437537252903,-0.14453125,0.9804686903953552,0.9914412821443006,0.05340576171875,0.3204345703125,0.3986358642578125,0.5142383119806317
1784904939.187168,0.0429687537252903,-0.16162109375,0.9941405653953552,1.0081087022272188,0.4177093505859375,0.2002716064453125,0.3376007080078125,0.5732050732176819
1784904939.195188,0.0439453087747097,-0.15185546875,0.9750975966453552,0.9878292345016595,0.41961669921875,0.2593994140625,0.3986358642578125,0.6342529326315964
1784904939.203208,0.0415039099752903,-0.14306640625,0.9682616591453552,0.9796536182301595,-0.2536773681640625,0.2002716064453125,0.5817413330078125,0.6654952306339528
1784904939.211228,0.0454101599752903,-0.14697265625,0.9916991591453552,1.0035588007504925,0.05340576171875,0.3204345703125,-0.0286102294921875,0.3261119968166029
1784904939.221868,0.0483398400247097,-0.162109375,0.9765624403953552,0.9911056399735786,0.41961669921875,0.0762939453125,0.0934600830078125,0.43661622446997184
1784904939.232508,0.0405273474752903,-0.15625,0.9765624403953552,0.9898134816137405,0.11444091796875,0.4425048828125,0.1544952392578125,0.48246872849104244
1784904939.243148,0.0405273474752903,-0.15625,0.9755858778953552,0.9888500055833715,-0.00762939453125,0.2593994140625,0.2765655517578125,0.3792555445817306
1784904939.251165,0.0395507775247097,-0.14697265625,0.9799804091453552,0.9917292110231943,0.2956390380859375,0.3833770751953125,0.0934600830078125,0.49306714526676576
1784904939.25918,0.0332031287252903,-0.15185546875,0.9790038466453552,0.9912674023152545,0.2346038818359375,-0.1049041748046875,-0.0286102294921875,0.25857767207463717
1784904939.267195,0.0341796837747097,-0.15185546875,0.9638671278953552,0.9763545331535376,0.29754638671875,0.0762939453125,-0.3948211669921875,0.5002383154515491
1784904939.27521,0.03564453125,-0.1552734375,0.9780272841453552,0.9909176260082561,-0.00762939453125,0.0762939453125,-0.1506805419921875,0.16906684916718473
1784904939.285891,0.02001953125,-0.16552734375,0.9804686903953552,0.9945445872387941,0.17547607421875,0.0152587890625,0.0934600830078125,0.19939776925207897
1784904939.296572,0.0322265662252903,-0.15625,0.9794921278953552,0.9923998401247573,0.2956390380859375,-0.3490447998046875,-0.2727508544921875,0.5325671241611626
1784904939.307253,0.0273437537252903,-0.15625,0.9638671278953552,0.9768324235021227,0.4177093505859375,0.2002716064453125,-0.2727508544921875,0.5375712478744843
1784904939.315363,0.0332031287252903,-0.16015625,0.9726561903953552,0.9863125959276887,0.0553131103515625,-0.2880096435546875,0.0934600830078125,0.30780494159952904
1784904939.323473,0.0332031287252903,-0.1474609375,0.9726561903953552,0.9843308592947457,0.23651123046875,0.0762939453125,-0.0896453857421875,0.2641867207375392
1784904939.331583,0.03515625,-0.140625,0.9736327528953552,0.9843637996440393,0.1125335693359375,0.1392364501953125,0.0934600830078125,0.201953906637889
1784904939.339693,0.0400390625,-0.1513671875,0.9702147841453552,0.9827674594489569,0.35858154296875,0.1373291015625,-0.0286102294921875,0.3850435693858665
1784904939.347852,0.0239257849752903,-0.158203125,0.9790038466453552,0.991992542155863,0.2346038818359375,0.0171661376953125,0.0324249267578125,0.23745532954876894
1784904939.356011,0.0458984375,-0.1650390625,0.9843749403953552,0.9991689456714412,0.35858154296875,-0.102996826171875,-0.1506805419921875,0.40236015569932904
1784904939.36417,0.03466796875,-0.1484375,0.9877929091453552,0.9994850628305283,0.2346038818359375,-0.0438690185546875,0.1544952392578125,0.28431013192422594
1784904939.372329,0.0424804724752903,-0.17236328125,0.9785155653953552,0.9944880104787499,0.1735687255859375,0.2002716064453125,0.0934600830078125,0.2810153126887213
1784904939.383046,0.0361328162252903,-0.15234375,0.9838866591453552,0.9962666092049063,0.35858154296875,0.2593994140625,-0.0896453857421875,0.45155849472541587
1784904939.393763,0.0400390625,-0.1494140625,0.9702147841453552,0.9824685317977625,0.1125335693359375,0.0171661376953125,-0.1506805419921875,0.18884677981347753
1784904939.40448,0.0429687537252903,-0.14990234375,0.9814452528953552,0.9937564142632115,0.23651123046875,0.0762939453125,0.0324249267578125,0.25061864277112034
1784904939.412148,0.04345703125,-0.16455078125,0.9741210341453552,0.9888767680249472,0.35858154296875,0.0152587890625,-0.6999969482421875,0.7866443167975468
1784904939.419817,0.0380859412252903,-0.16796875,0.9833983778953552,0.9983668712165857,0.2346038818359375,0.0171661376953125,-1.0051727294921875,1.0323303123374026
1784904939.427486,0.044921875,-0.16455078125,0.9687499403953552,0.9836520632212923,0.1735687255859375,0.2002716064453125,-1.0662078857421875,1.098651024879392
1784904939.435155,0.0429687537252903,-0.171875,0.9785155653953552,0.9944244773449095,0.4787445068359375,-0.2880096435546875,-1.0051727294921875,1.1500078581126554
1784904939.445951,0.023925788700580597,-0.16845703125,0.9736327528953552,0.9883880575224976,0.35858154296875,-0.1678466796875,-1.5544891357421875,1.60411648703592
1784904939.456747,0.0258789099752903,-0.15087890625,0.9765624403953552,0.9884879171358835,0.66375732421875,0.3204345703125,-1.2493133544921875,1.4505295436556656
1784904939.467543,0.037109375,-0.154296875,0.9804686903953552,0.9932288176413525,0.2956390380859375,0.3833770751953125,-1.1272430419921875,1.2268077674784632
1784904939.478079,0.0302734375,-0.15380859375,0.9672850966453552,0.9799051090394586,0.7228851318359375,0.1392364501953125,-0.5779266357421875,0.9359214172101927
1784904939.488614,0.0283203162252903,-0.15966796875,0.9711913466453552,0.9846362436730988,0.2346038818359375,-0.0438690185546875,-0.5779266357421875,0.6252700764163636
1784904939.499149,0.0302734412252903,-0.16162109375,0.9770507216453552,0.9907905792125179,0.4177093505859375,-0.5321502685546875,-0.2117156982421875,0.708864265407651
1784904939.509855,0.0385742150247097,-0.15283203125,0.9726561903953552,0.9853454544245784,0.5435943603515625,-0.7762908935546875,0.1544952392578125,0.9602037070201761
1784904939.520559,0.0366210974752903,-0.1669921875,0.9804686903953552,0.9952619495951369,0.35858154296875,-0.7171630859375,0.3986358642578125,0.8954407669197447
1784904939.531263,0.03662109375,-0.14892578125,0.9858397841453552,0.9976973853990646,0.2346038818359375,-0.5321502685546875,0.2765655517578125,0.643980895768205
1784904939.539244,0.0527343787252903,-0.14794921875,0.9746093153953552,0.9871844831051999,0.48065185546875,-0.7171630859375,0.3376007080078125,0.9269969450026934
1784904939.547223,0.05419921875,-0.14990234375,0.9814452528953552,0.9943053114640801,0.2956390380859375,-0.5931854248046875,0.3376007080078125,0.7438048313156296
1784904939.555202,0.04931640625,-0.1630859375,0.9736327528953552,0.9884279783809525,-0.0705718994140625,-0.1659393310546875,0.1544952392578125,0.23745532954876894
1784904939.563181,0.04443359375,-0.15380859375,0.9814452528953552,0.9944175240791567,0.1125335693359375,0.2002716064453125,0.0324249267578125,0.23199977683377607
1784904939.573823,0.05419921875,-0.162109375,0.9785155653953552,0.9933326313461129,-0.4329681396484375,0.8716583251953125,-0.3948211669921875,1.050301575614356
1784904939.584465,0.0458984375,-0.1630859375,0.9858397841453552,1.000291842203542,-0.00762939453125,1.056671142578125,-0.0896453857421875,1.0604944160169536
1784904939.595107,0.04638671875,-0.1494140625,0.9765624403953552,0.9890149087552105,-0.2536773681640625,1.2989044189453125,-0.3337860107421875,1.3648875402909535
1784904939.605782,0.0507812537252903,-0.1513671875,0.9804686903953552,0.9933829141006781,-0.12969970703125,1.544952392578125,-0.6999969482421875,1.7010866047574535
1784904939.616457,0.0278320349752903,-0.15771484375,0.9790038466453552,0.9920166963596706,-0.4978179931640625,1.3599395751953125,-0.7610321044921875,1.6359792989424131
1784904939.627132,0.0375976599752903,-0.1396484375,0.9760741591453552,0.9867299702974067,-0.4978179931640625,0.9937286376953125,-0.3337860107421875,1.1604880269355906
1784904939.637862,0.0185546912252903,-0.15478515625,0.9711913466453552,0.9836235829628229,-0.31280517578125,0.7476806640625,-0.8220672607421875,1.15441241962855
1784904939.648593,0.0258789099752903,-0.1513671875,0.9843749403953552,0.9962809677553458,-0.31280517578125,0.7476806640625,-0.5168914794921875,0.9612753273542924
1784904939.659324,0.0385742150247097,-0.1708984375,0.9892577528953552,1.0046517544245277,-0.49591064453125,0.385284423828125,-0.3337860107421875,0.711185317319722
1784904939.667262,0.0180664099752903,-0.150390625,0.9882811903953552,0.9998217073791438,-0.12969970703125,0.6256103515625,-0.2727508544921875,0.6946965917667693
1784904939.6752,0.0268554724752903,-0.14306640625,0.9731444716453552,0.9839712270656489,-0.00762939453125,0.7476806640625,0.0934600830078125,0.7535379022913722
1784904939.683138,0.0390625,-0.158203125,0.9731444716453552,0.9866936051074483,-0.31280517578125,0.5035400390625,0.0934600830078125,0.6001120195850355
1784904939.691076,0.0302734375,-0.150390625,0.9912108778953552,1.0030118770802456,0.17547607421875,0.6256103515625,0.1544952392578125,0.6678689568760535
1784904939.702021,0.0341796875,-0.1552734375,0.9750975966453552,0.9879743996755239,-0.0705718994140625,0.3833770751953125,0.4596710205078125,0.6027070779963636
1784904939.712966,0.0312500037252903,-0.158203125,0.9804686903953552,0.9936416075920831,0.05340576171875,0.1373291015625,0.3376007080078125,0.36835539302160303
1784904939.723911,0.0288085974752903,-0.146484375,0.9741210341453552,0.9854944934255342,-0.1926422119140625,0.0171661376953125,0.8258819580078125,0.8482256224951797
1784904939.734307,0.0341796875,-0.169921875,0.9853515028953552,1.0004795244777618,0.0553131103515625,-0.1049041748046875,1.0700225830078125,1.0765745465200853
1784904939.744706,0.02978515625,-0.1435546875,0.9877929091453552,0.9986140071088045,-0.00762939453125,-0.102996826171875,0.7038116455078125,0.7113489904504031
1784904939.755105,0.0419921912252903,-0.15234375,0.9750975966453552,0.9878194598566642,-0.0705718994140625,-0.1659393310546875,0.7038116455078125,0.7265446214309211
1784904939.763092,0.0439453087747097,-0.15625,0.9809569716453552,0.994294640880122,-0.0705718994140625,0.1392364501953125,0.4596710205078125,0.48545301435318544
1784904939.771081,0.0468750037252903,-0.16943359375,0.9882811903953552,1.00379515836377,0.2346038818359375,0.0171661376953125,0.5207061767578125,0.5713742907845988
1784904939.77907,0.04052734375,-0.16064453125,0.9741210341453552,0.9881097713191481,0.1125335693359375,-0.1659393310546875,0.2155303955078125,0.29436884550868747
1784904939.787059,0.0390624962747097,-0.15625,0.9853515028953552,0.9984275263499834,0.2956390380859375,-0.4711151123046875,0.7038116455078125,0.8970522405270784
1784904939.797796,0.0390624962747097,-0.162109375,0.9775390028953552,0.9916591300743152,0.05340576171875,-0.4119873046875,0.4596710205078125,0.6195830547256151
1784904939.808533,0.04052734375,-0.15576171875,0.9882811903953552,1.0013010985256359,-0.1926422119140625,-0.4711151123046875,0.7038116455078125,0.8685685368498076
1784904939.81927,0.03515625,-0.14892578125,0.9814452528953552,0.9933023883318781,-0.1277923583984375,-0.2880096435546875,0.2155303955078125,0.3817509568203948
1784904939.827222,0.04931640625,-0.1494140625,0.9716796278953552,0.9843363090250329,0.35858154296875,-0.102996826171875,0.2765655517578125,0.4644109964012827
1784904939.835175,0.0458984375,-0.16845703125,0.9755858778953552,0.9910863953719453,0.29754638671875,0.1373291015625,0.1544952392578125,0.3623008602510848
1784904939.843128,0.0400390625,-0.16552734375,0.9770507216453552,0.9917814984776229,0.2346038818359375,0.3833770751953125,0.0324249267578125,0.4506310453497987
1784904939.851081,0.0424804724752903,-0.16650390625,0.9819335341453552,0.9968558606024345,0.2956390380859375,0.2002716064453125,-0.2117156982421875,0.4151321404935319
1784904939.861763,0.0327148474752903,-0.1572265625,0.9707030653953552,0.9838978068726636,0.41961669921875,0.0762939453125,-0.3948211669921875,0.5811907554836523
1784904939.872445,0.03173828125,-0.14892578125,0.9785155653953552,0.9902923399373634,-0.06866455078125,0.2593994140625,-0.2117156982421875,0.34179879085821263
1784904939.883127,0.03564453125,-0.15576171875,0.9785155653953552,0.99147615067483,-0.0095367431640625,0.0171661376953125,-0.3948211669921875,0.39530922030560395
1784904939.893804,0.0478515662252903,-0.16015625,0.9809569716453552,0.9950961647116836,-0.12969970703125,0.0762939453125,0.0324249267578125,0.15392906148803848
1784904939.904482,0.025390625,-0.15869140625,0.9765624403953552,0.9896978560381067,-0.0705718994140625,-0.1659393310546875,-0.1506805419921875,0.2349912345447062
1784904939.91516,0.0371093787252903,-0.14892578125,0.9765624403953552,0.988549540640848,-0.0705718994140625,-0.0438690185546875,-0.0896453857421875,0.12223411537179653
1784904939.925879,0.03857421875,-0.1494140625,0.9824218153953552,0.9944672723572315,-0.06866455078125,-0.2288818359375,0.0934600830078125,0.25658624762823656
1784904939.936599,0.03369140625,-0.154296875,0.9853515028953552,0.9979279637068015,0.0553131103515625,-0.1049041748046875,0.1544952392578125,0.1947644860377407
1784904939.947319,0.0366210974752903,-0.16015625,0.9853515028953552,0.9989538094689325,0.4177093505859375,0.0171661376953125,-0.0896453857421875,0.42756528511464265
1784904939.955262,0.0283203162252903,-0.15185546875,0.9799804091453552,0.9920805037944656,0.17547607421875,-0.1678466796875,-0.0896453857421875,0.2588448486839328
1784904939.963204,0.0380859412252903,-0.1640625,0.9707030653953552,0.9852063154452501,0.17547607421875,-0.0457763671875,0.2765655517578125,0.3307201730091655
1784904939.971146,0.03369140625,-0.1689453125,0.9785155653953552,0.9935644625246098,0.2346038818359375,0.1392364501953125,0.1544952392578125,0.31351961563642394
1784904939.979088,0.044921875,-0.1533203125,0.9843749403953552,0.9972557928420233,0.17547607421875,-0.0457763671875,-0.0286102294921875,0.18359159470875763
1784904939.98978,0.0483398400247097,-0.15673828125,0.9799804091453552,0.9936122137189721,-0.0705718994140625,0.3223419189453125,-0.2727508544921875,0.4281094887087571
1784904940.000472,0.0429687537252903,-0.1484375,0.9687499403953552,0.980997682066048,0.2346038818359375,-0.0438690185546875,-0.0896453857421875,0.2549505194078012
1784904940.011164,0.0517578162252903,-0.14208984375,0.9775390028953552,0.9891667692654034,-0.19073486328125,-0.0457763671875,-0.0896453857421875,0.21566538676539532
1784904940.021941,0.0410156287252903,-0.1474609375,0.9765624403953552,0.988484299257728,0.2346038818359375,0.4444122314453125,-0.3948211669921875,0.6390813459456983
1784904940.032719,0.0439453125,-0.150390625,0.9702147841453552,0.9827844412447887,0.1125335693359375,0.3833770751953125,-0.5168914794921875,0.6533135446203615
1784904940.043497,0.04541015625,-0.14990234375,0.9731444716453552,0.9856687869899858,0.1125335693359375,0.3833770751953125,-0.5779266357421875,0.702595888340575
1784904940.051687,0.0322265662252903,-0.158203125,0.9672850966453552,0.9806667316283615,-0.19073486328125,0.4425048828125,-0.5779266357421875,0.752455683534987
1784904940.059878,0.0278320349752903,-0.15283203125,0.9736327528953552,0.9859477620327837,0.05340576171875,0.1373291015625,-0.3337860107421875,0.3648623829444563
1784904940.068069,0.041015625,-0.1484375,0.9824218153953552,0.9944187228049842,-0.1277923583984375,0.2002716064453125,-0.1506805419921875,0.281325841238021
1784904940.07626,0.03173828125,-0.1591796875,0.9843749403953552,0.9976670359832788,0.1735687255859375,0.2002716064453125,-0.2727508544921875,0.38029968114098
1784904940.086538,0.0317382849752903,-0.15283203125,0.9765624403953552,0.9889586181939594,-0.0705718994140625,0.0171661376953125,-0.3337860107421875,0.34159650208611136
1784904940.096816,0.03125,-0.14501953125,0.9746093153953552,0.9858349479498952,-0.00762939453125,-0.0457763671875,-0.2727508544921875,0.27667076477289165
1784904940.107094,0.0317382849752903,-0.16552734375,0.9721679091453552,0.986669683244679,0.29754638671875,-0.0457763671875,-0.2117156982421875,0.36803921655775457
1784904940.11514,0.0219726599752903,-0.16259765625,0.9755858778953552,0.9892869152845568,-0.00762939453125,-0.1678466796875,0.2155303955078125,0.27328385779402664
1784904940.123187,0.0395507775247097,-0.15185546875,0.9726561903953552,0.9852331765153348,0.17547607421875,-0.4119873046875,-0.0286102294921875,0.44871364708295963
1784904940.131234,0.0375976599752903,-0.162109375,0.9868163466453552,1.0007494868872,0.05340576171875,-0.3509521484375,-0.1506805419921875,0.3856477818070737
1784904940.139281,0.041015625,-0.16357421875,0.9794921278953552,0.9939032322830953,0.2346038818359375,-0.2880096435546875,0.0324249267578125,0.37288056000311703
1784904940.149873,0.03515625,-0.166015625,0.9799804091453552,0.9945646042198069,-0.00762939453125,-0.102996826171875,0.3986358642578125,0.41179740909209955
1784904940.160465,0.0332031287252903,-0.1591796875,0.9882811903953552,1.0015689352006711,-0.0705718994140625,-0.0438690185546875,0.1544952392578125,0.17542423643610025
1784904940.171057,0.0424804724752903,-0.14404296875,0.9536132216453552,0.965365808325979,0.1125335693359375,-0.2880096435546875,0.0934600830078125,0.32302963660291545
1784904940.17968,0.04345703125,-0.154296875,0.9711913466453552,0.9843315858991053,-0.12969970703125,0.1373291015625,-0.0286102294921875,0.1910493165953523
1784904940.188306,0.03515625,-0.1552734375,0.9814452528953552,0.9942738992541023,-0.1277923583984375,0.2002716064453125,-0.1506805419921875,0.281325841238021
1784904940.196932,0.0566406287252903,-0.162109375,0.9741210341453552,0.9891407379385924,-0.06866455078125,0.2593994140625,-0.2117156982421875,0.34179879085821263
1784904940.205558,0.05126953125,-0.1494140625,0.9653319716453552,0.9781712234512205,-0.0705718994140625,0.3833770751953125,-0.3337860107421875,0.5131973068317921
1784904940.215412,0.0380859412252903,-0.16845703125,0.9794921278953552,0.9946020002521364,-0.19073486328125,0.4425048828125,-0.4558563232421875,0.6633214505982052
1784904940.225266,0.0375976599752903,-0.16455078125,0.9741210341453552,0.9886366030094269,-0.00762939453125,0.4425048828125,-0.2727508544921875,0.5198671057107155
1784904940.23512,0.03662109375,-0.14990234375,0.9809569716453552,0.9930198373591616,0.2346038818359375,0.5664825439453125,-0.2117156982421875,0.6486640045889863
1784904940.245778,0.0463867224752903,-0.1533203125,0.9741210341453552,0.9872034417542889,0.2956390380859375,0.2002716064453125,0.2155303955078125,0.41709052803476443
1784904940.256439,0.03271484375,-0.16845703125,0.9726561903953552,0.9876781343603572,-0.0705718994140625,0.3223419189453125,-0.0286102294921875,0.3312148108521879
1784904940.2671,0.0302734375,-0.14892578125,0.9804686903953552,0.9921765075754274,-0.31280517578125,0.4425048828125,-0.2117156982421875,0.581791359673397
1784904940.277778,0.0322265662252903,-0.1513671875,0.9814452528953552,0.9935720212713123,-0.0705718994140625,0.0171661376953125,0.1544952392578125,0.17071569413387777
1784904940.288456,0.0317382849752903,-0.15576171875,0.9677733778953552,0.9807417308976472,0.05340576171875,0.568389892578125,0.3376007080078125,0.6632446633159657
1784904940.299134,0.0385742150247097,-0.142578125,0.9824218153953552,0.9934631926538565,-0.0705718994140625,0.3833770751953125,0.3986358642578125,0.5575562097625619
1784904940.307133,0.0375976599752903,-0.1611328125,0.9775390028953552,0.9914433264092422,-0.49591064453125,-0.102996826171875,0.5817413330078125,0.7713356546216348
1784904940.31513,0.02978515625,-0.15966796875,0.9736327528953552,0.9870875104509101,0.05340576171875,0.0762939453125,0.2765655517578125,0.2918243408203125
1784904940.323127,0.03564453125,-0.15869140625,0.9697265028953552,0.9832715725796664,0.2346038818359375,0.1392364501953125,0.1544952392578125,0.31351961563642394
1784904940.331124,0.0390624962747097,-0.15625,0.9804686903953552,0.9936089743761348,-0.0095367431640625,0.2002716064453125,0.2765655517578125,0.34159650208611136
1784904940.339129,0.0439453125,-0.1650390625,0.9980468153953552,1.012554456986098,-0.1926422119140625,-0.1049041748046875,0.2765655517578125,0.35299350152899167
1784904940.347134,0.0341796837747097,-0.14697265625,0.9746093153953552,0.9862213393166479,-0.0705718994140625,-0.1049041748046875,0.2765655517578125,0.3040950234671134
1784904940.355139,0.03515625,-0.1484375,0.9716796278953552,0.9835806792465824,0.2346038818359375,-0.0438690185546875,0.0324249267578125,0.24086271616149219
1784904940.363144,0.04443359375,-0.15283203125,0.9755858778953552,0.9884835755734093,0.29754638671875,0.0762939453125,0.0934600830078125,0.3210753890545924
1784904940.373803,0.0322265662252903,-0.1513671875,0.9790038466453552,0.9911604858794237,-0.1277923583984375,0.0171661376953125,-0.0286102294921875,0.1320761461430669
1784904940.384462,0.0371093787252903,-0.14111328125,0.9838866591453552,0.9946471847739413,0.1125335693359375,-0.2880096435546875,-0.3337860107421875,0.45500160436548803
1784904940.395121,0.0302734375,-0.1455078125,0.9819335341453552,0.9931175509454,0.4177093505859375,-0.2880096435546875,-0.0286102294921875,0.5081822523258949
1784904940.403109,0.0478515662252903,-0.14990234375,0.9658202528953552,0.9785546719293738,0.1735687255859375,0.2002716064453125,0.0324249267578125,0.26699474662427747
1784904940.411097,0.03564453125,-0.1494140625,0.9804686903953552,0.9924283085071531,-0.00762939453125,-0.1678466796875,-0.2117156982421875,0.2702855016925782
1784904940.419085,0.0380859412252903,-0.1787109375,0.9843749403953552,1.0011903721967688,-0.2536773681640625,-0.2269744873046875,0.2155303955078125,0.402893256823225
1784904940.427073,0.0288085974752903,-0.1611328125,0.9804686903953552,0.9940385160536972,-0.0705718994140625,-0.0438690185546875,0.3376007080078125,0.3476767490403066
1784904940.437767,0.03369140625,-0.15869140625,0.9804686903953552,0.9937992383365405,-0.12969970703125,0.1373291015625,0.3376007080078125,0.38685337556667615
1784904940.448461,0.03564453125,-0.15869140625,0.9814452528953552,0.9948307793069445,-0.00762939453125,0.2593994140625,0.2765655517578125,0.3792555445817306
1784904940.459155,0.05029296875,-0.16943359375,0.9902343153953552,1.0058832560407973,-0.2536773681640625,0.1392364501953125,0.8258819580078125,0.8751114241880603
1784904940.469829,0.0341796875,-0.16064453125,0.9877929091453552,1.0013539573077912,-0.12969970703125,-0.1678466796875,0.0324249267578125,0.214583078925995
1784904940.480504,0.0302734375,-0.1474609375,0.9819335341453552,0.9934055941988815,0.05340576171875,0.1373291015625,-0.3337860107421875,0.3648623829444563
1784904940.491179,0.0302734375,-0.16015625,0.9750975966453552,0.9886262329190323,-0.0705718994140625,0.0171661376953125,0.0324249267578125,0.0795389536361429
1784904940.501836,0.0527343787252903,-0.16748046875,0.9868163466453552,1.0023158804083412,0.11444091796875,0.2593994140625,-0.2117156982421875,0.3538478721197508
1784904940.512493,0.0229492224752903,-0.146484375,0.9672850966453552,0.9785830558126251,0.17547607421875,-0.0457763671875,-0.3337860107421875,0.37986896343777915
1784904940.52315,0.0327148474752903,-0.15771484375,0.9824218153953552,0.9955384756749103,-0.00762939453125,-0.102996826171875,-0.4558563232421875,0.467409393682111
1784904940.531148,0.0283203162252903,-0.1630859375,0.9853515028953552,0.9991579692818796,0.2346038818359375,-0.2269744873046875,-0.3948211669921875,0.51228913043787
1784904940.539149,0.0244140625,-0.15478515625,0.9838866591453552,0.9962868307306382,0.1125335693359375,-0.4711151123046875,-0.2727508544921875,0.5558833347884815
1784904940.54715,0.0278320349752903,-0.1484375,0.9682616591453552,0.979968853662213,0.05340576171875,-0.8392333984375,-0.1506805419921875,0.8543240007004221
1784904940.555151,0.04443359375,-0.1552734375,0.9814452528953552,0.9946451473150785,0.35858154296875,-1.3275146484375,-0.2117156982421875,1.3912941463458277
1784904940.565824,0.03955078125,-0.16064453125,0.9741210341453552,0.9880701993696773,0.4177093505859375,-0.7762908935546875,-0.1506805419921875,0.8943228045386745
1784904940.576497,0.0390625,-0.158203125,0.9785155653953552,0.9919913403790415,0.1125335693359375,-0.6542205810546875,0.2155303955078125,0.6979410607571196
1784904940.58717,0.0336914025247097,-0.15673828125,0.9931640028953552,1.0060202463471652,0.3604888916015625,-0.4711151123046875,0.7038116455078125,0.9204632107598848
1784904940.597831,0.0454101599752903,-0.1572265625,0.9765624403953552,0.9901800212968749,0.78582763671875,-0.2288818359375,0.7038116455078125,1.0794733909668692
1784904940.608492,0.0419921912252903,-0.1513671875,0.9653319716453552,0.9780292352768758,0.4787445068359375,0.5054473876953125,0.2765655517578125,0.7491073814699091
1784904940.619153,0.04638671875,-0.1640625,0.9814452528953552,0.996144073923782,-0.12969970703125,1.1138916015625,0.5207061767578125,1.2364107070667099
1784904940.62715,0.0556640662252903,-0.16748046875,0.9770507216453552,0.9928626835313948,-0.4100799560546875,1.4400482177734375,0.0782012939453125,1.499339815467124
1784904940.635146,0.05029296875,-0.17431640625,0.9750975966453552,0.9918321002957866,-0.5321502685546875,1.2569427490234375,-0.5931854248046875,1.4882734731379645
1784904940.643142,0.0336914025247097,-0.15185546875,0.9687499403953552,0.981158315976259,-0.9613037109375,0.95367431640625,-0.7152557373046875,1.531401415756956
1784904940.651138,0.0327148474752903,-0.14697265625,0.9755858778953552,0.9871367828621134,-0.9613037109375,1.19781494140625,-1.0814666748046875,1.87841306086584
1784904940.661806,0.03466796875,-0.166015625,0.9882811903953552,1.0027276634713196,-0.9593963623046875,0.5855560302734375,-1.2035369873046875,1.6467600081382525
1784904940.672474,0.0366210974752903,-0.16064453125,0.9931640028953552,1.006738549399968,-1.2645721435546875,0.4634857177734375,-1.1425018310546875,1.7661461295141379
1784904940.683142,0.03564453125,-0.150390625,0.9731444716453552,0.9853415831019415,-1.0833740234375,0.34332275390625,-1.1425018310546875,1.611483857186364
1784904940.693794,0.02490234375,-0.16748046875,0.9775390028953552,0.9920949230384198,-0.8983612060546875,0.2803802490234375,-1.2035369873046875,1.527798160882818
1784904940.704447,0.01611328125,-0.16015625,0.9785155653953552,0.9916664630649238,-0.6561279296875,-0.02288818359375,-0.6542205810546875,0.9268399526022597
1784904940.7151,0.0229492224752903,-0.15771484375,0.9677733778953552,0.9808088242436919,0.1983642578125,-0.45013427734375,-0.5321502685546875,0.7246745164141692
1784904940.723254,0.0190429724752903,-0.1572265625,0.9838866591453552,0.9965519478684839,-0.1049041748046875,-0.5130767822265625,0.1392364501953125,0.5418850979814887
1784904940.731406,0.03564453125,-0.1689453125,0.9868163466453552,1.0018081419265072,0.2613067626953125,-0.2651214599609375,0.6885528564453125,0.7827360020346084
1784904940.739558,0.0361328125,-0.1640625,0.9677733778953552,0.982246096967759,0.263214111328125,-0.81634521484375,0.7495880126953125,1.1391151684430556
1784904940.74771,0.0322265662252903,-0.15771484375,0.9667968153953552,0.9801064257356752,0.0152587890625,-0.51116943359375,0.7495880126953125,0.9074189822021121
1784904940.758173,0.02490234375,-0.14892578125,0.9667968153953552,0.9785167843750902,0.0782012939453125,-0.6961822509765625,0.7495880126953125,1.0259957883568638
