timestamp,accel_x,accel_y,accel_z,accel_rms,gyro_x,gyro_y,gyro_z,gyro_rms
1782217598.715811,-0.011718746274709702,-0.06494140625,0.9814452528953552,0.9836612728428452,0.0400543212890625,-0.0591278076171875,-0.2193450927734375,0.2306788156969133
1782217598.725438,-0.0249023400247097,-0.0590820275247097,0.9780272841453552,0.9801266148043711,-0.20599365234375,0.0,-0.0362396240234375,0.20915710639439877
1782217598.735065,-0.010742183774709702,-0.0541992150247097,0.9882811903953552,0.989824560571622,0.09918212890625,-0.18310546875,-0.0362396240234375,0.21137175244079642
1782217598.744692,-0.0087890625,-0.052734375,0.9882811903953552,0.9897261607209996,0.2841949462890625,-0.0591278076171875,-0.1583099365234375,0.3306431628386002
1782217598.754319,-0.00927734375,-0.0693359375,0.9877929091453552,0.9902668189401802,-0.1430511474609375,0.3070831298828125,-0.1583099365234375,0.3739327686236792
1782217598.762615,-0.013671875,-0.064453125,0.9965819716453552,0.9987576040745947,-0.0820159912109375,0.0629425048828125,0.0820159912109375,0.1319659219251244
1782217598.770909,-0.0224609375,-0.06494140625,0.9936522841453552,0.9960254724385257,-0.263214111328125,0.1220703125,0.1468658447265625,0.3251959500721819
1782217598.779203,-0.0166015625,-0.06591796875,0.9785155653953552,0.9808738462221118,-0.02288818359375,-0.18310546875,-0.1010894775390625,0.21040571309614922
1782217598.787497,-0.014648430049419403,-0.06201171875,0.9980468153953552,1.000078734643454,0.0400543212890625,-0.1201629638671875,-0.1583099365234375,0.20274496921336732
1782217598.795791,-0.02734375,-0.04638671875,0.9785155653953552,0.97999597961494,0.0400543212890625,0.0019073486328125,-0.1010894775390625,0.10875232917898889
1782217598.804085,-0.0161132775247097,-0.0595703087747097,0.9731444716453552,0.9750991857724116,0.09918212890625,0.0,-0.4634857177734375,0.4739790135378723
1782217598.813296,-0.010253898799419403,-0.0654296875,0.9902343153953552,0.9924465657321023,-0.08392333984375,-0.057220458984375,-0.1583099365234375,0.1880939762431719
1782217598.822507,-0.029296867549419403,-0.06640625,0.9868163466453552,0.9894819849263333,-0.08392333984375,-0.057220458984375,0.0247955322265625,0.10455680903370472
1782217598.831718,-0.01806640625,-0.06005859375,1.005859375,1.0078127365703453,0.2231597900390625,-0.0591278076171875,-0.2193450927734375,0.31844726289871217
1782217598.840929,-0.0019531212747097015,-0.0751953125,1.00634765625,1.009154970727764,0.09918212890625,0.18310546875,0.1468658447265625,0.2548220628748225
1782217598.85014,-0.0029296875,-0.05517578125,0.9853515028953552,0.9868994549413485,0.1010894775390625,0.2460479736328125,0.0820159912109375,0.278361833971984
1782217598.859744,-0.0048828087747097015,-0.0537109337747097,0.9838866591453552,0.9853637218168173,-0.2040863037109375,0.0629425048828125,0.0820159912109375,0.2287784978918003
1782217598.869348,-0.010742183774709702,-0.0600585900247097,0.9877929091453552,0.9896753306543766,-0.1430511474609375,-0.0591278076171875,-0.1583099365234375,0.22140859158027457
1782217598.878952,-0.0175781212747097,-0.072265625,1.00048828125,1.0032487786300903,-0.08392333984375,-0.057220458984375,-0.4062652587890625,0.41877054384932094
1782217598.888556,-0.015136715024709702,-0.068359375,0.9770507216453552,0.9795561428319661,0.3452301025390625,-0.1201629638671875,0.1468658447265625,0.39394484122999424
1782217598.89816,-0.004882805049419403,-0.06201171875,0.9892577528953552,0.9912114793075428,-0.0209808349609375,-0.2422332763671875,-0.0362396240234375,0.2458260888608051
1782217598.907754,-0.0200195275247097,-0.06396484375,0.9882811903953552,0.9905513585915345,0.1621246337890625,0.0019073486328125,0.0247955322265625,0.1640208928107734
1782217598.917347,-0.0087890625,-0.06005859375,0.9873046278953552,0.9891686967178259,-0.20599365234375,0.0,0.0247955322265625,0.20748060927305048
1782217598.92694,0.0,-0.05419921875,0.9848632216453552,0.98635344611492,0.2231597900390625,-0.0591278076171875,0.0247955322265625,0.23218787208269964
1782217598.936533,-0.011718746274709702,-0.07275390625,0.9912108778953552,0.9939464091926514,0.1010894775390625,-0.2422332763671875,0.0820159912109375,0.27499575535454257
1782217598.946126,-0.014648430049419403,-0.056640625,0.9965819716453552,0.9982977326989413,-0.0820159912109375,0.2460479736328125,-0.1010894775390625,0.278361833971984
1782217598.954145,-0.01904296875,-0.06591796875,0.9853515028953552,0.987737514485035,0.2841949462890625,-0.3032684326171875,-0.1010894775390625,0.427735423115095
1782217598.962166,-0.012207027524709702,-0.0625,0.9946288466453552,0.9966653420783019,0.28228759765625,0.1220703125,0.0247955322265625,0.3085486467362692
1782217598.970187,-0.0200195275247097,-0.0625,0.9863280653953552,0.9885090207321614,-0.2651214599609375,-0.0591278076171875,-0.1010894775390625,0.2898354164600226
1782217598.978208,-0.015624996274709702,-0.06396484375,0.9887694716453552,0.990959489486014,0.2231597900390625,-0.0591278076171875,0.0820159912109375,0.24499594351377774
1782217598.986229,-0.013671871274709702,-0.06298828125,0.9775390028953552,0.9796616486423395,0.1010894775390625,-0.2422332763671875,0.2079010009765625,0.3348415578385686
1782217598.99425,-0.0224609337747097,-0.0532226525247097,0.9824218153953552,0.9841187772075601,-0.3261566162109375,-0.0591278076171875,-0.2193450927734375,0.3974751635707215
1782217599.003814,-0.0209960900247097,-0.0502929650247097,0.9897460341453552,0.9912453935498319,-0.1430511474609375,0.0019073486328125,0.0820159912109375,0.1649057051257189
1782217599.013378,-0.015624996274709702,-0.0600585900247097,0.9999999403953552,1.0019236774999656,-0.0820159912109375,0.2460479736328125,-0.1583099365234375,0.3038556633422859
1782217599.022942,-0.0170898400247097,-0.0522460974752903,0.9951171278953552,0.9966342436240933,-0.08392333984375,0.18310546875,-0.2193450927734375,0.29779692641206806
1782217599.032506,-0.0205078087747097,-0.06298828125,0.9956054091453552,0.9978067069904167,0.1010894775390625,0.0629425048828125,-0.1010894775390625,0.15620474979706642
1782217599.04207,-0.0087890625,-0.0654296875,0.9936522841453552,0.9958429361165637,0.1621246337890625,-0.0591278076171875,-0.0362396240234375,0.17633435531459227
1782217599.052773,-0.012207027524709702,-0.0693359375,0.9819335341453552,0.9844541376972218,0.041961669921875,-0.3662109375,0.0820159912109375,0.3776213120330656
1782217599.063476,-0.0087890625,-0.048828125,0.9877929091453552,0.9890380502126743,0.1621246337890625,-0.1201629638671875,-0.2193450927734375,0.29805335846182396
1782217599.074179,-0.0219726525247097,-0.06396484375,0.9877929091453552,0.9901056156051119,0.1621246337890625,0.0629425048828125,0.0820159912109375,0.1922830689802747
1782217599.082176,-0.0068359337747097015,-0.068359375,0.9853515028953552,0.9877435489028,-0.0209808349609375,0.0019073486328125,-0.3414154052734375,0.34206477803552177
1782217599.090173,-0.015624996274709702,-0.0581054650247097,0.9941405653953552,0.9959597629115943,0.2231597900390625,-0.0591278076171875,0.2079010009765625,0.31067541861394543
1782217599.09817,-0.0161132775247097,-0.0502929650247097,0.9877929091453552,0.989203645060717,-0.0209808349609375,-0.0591278076171875,0.0247955322265625,0.06746192620783766
1782217599.106167,-0.0009765587747097015,-0.0522460974752903,0.9980468153953552,0.999413855261797,0.0400543212890625,0.0019073486328125,0.4520416259765625,0.4538167231914983
1782217599.116915,-0.010253902524709702,-0.06396484375,0.9873046278953552,0.9894276487022858,0.1010894775390625,-0.1201629638671875,0.2079010009765625,0.2605399135670469
1782217599.127663,-0.00927734375,-0.0556640625,0.9965819716453552,0.9981784325307791,-0.2040863037109375,0.0629425048828125,-0.1583099365234375,0.26584772762875125
1782217599.138411,-0.015624996274709702,-0.064453125,0.9848632216453552,0.9870936688990151,0.1010894775390625,-0.0591278076171875,-0.0362396240234375,0.12259074374558573
1782217599.149199,-0.010742183774709702,-0.0625,0.9907225966453552,0.9927501740196094,0.0400543212890625,-0.2422332763671875,0.1468658447265625,0.28609593702245484
1782217599.159987,-0.0166015587747097,-0.0488281212747097,0.9936522841453552,0.994989778323501,-0.08392333984375,-0.18310546875,-0.1010894775390625,0.2253659737533761
1782217599.170775,-0.0009765587747097015,-0.068359375,0.9960936903953552,0.9984370775681705,0.16021728515625,0.1220703125,-0.1583099365234375,0.2561889452313304
1782217599.18124,-0.00439453125,-0.05517578125,0.9858397841453552,0.987392403629487,-0.1430511474609375,0.0629425048828125,-0.0362396240234375,0.16043285218487474
1782217599.191705,-0.00341796875,-0.056640625,0.9941405653953552,0.9957586588503076,0.0400543212890625,-0.1201629638671875,0.3299713134765625,0.35344667809546937
1782217599.20217,0.0009765662252902985,-0.0532226525247097,0.9907225966453552,0.9921516355512768,-0.0209808349609375,-0.2422332763671875,0.2079010009765625,0.3199062078520781
1782217599.210171,-0.010253902524709702,-0.0522460974752903,0.9873046278953552,0.9887392100457884,0.0400543212890625,-0.1811981201171875,0.2079010009765625,0.27867531931440714
1782217599.218171,-0.0224609337747097,-0.0590820275247097,0.9960936903953552,0.9980970992683529,-0.3261566162109375,0.0019073486328125,-0.2193450927734375,0.39305730625541585
1782217599.226171,-0.0175781212747097,-0.0541992150247097,0.9897460341453552,0.9913847675667111,0.1621246337890625,-0.0591278076171875,0.0247955322265625,0.17434251613777765
1782217599.234171,0.00146484375,-0.06103515625,0.9819335341453552,0.9838297116599302,0.1621246337890625,-0.1201629638671875,0.3299713134765625,0.3867875417901054
1782217599.242156,-0.0180664025247097,-0.0483398400247097,0.9970702528953552,0.9984048398533567,0.1010894775390625,-0.0591278076171875,-0.1010894775390625,0.15470702172770434
1782217599.250141,-0.01806640625,-0.05224609375,0.9843749403953552,0.9859259975400197,-0.2651214599609375,-0.1201629638671875,0.0247955322265625,0.29213583285102923
1782217599.258126,-0.012695308774709702,-0.06396484375,0.9892577528953552,0.9914048485681392,0.1010894775390625,0.0629425048828125,-0.0362396240234375,0.12447550658424172
1782217599.266111,-0.0078125,-0.06591796875,0.9882811903953552,0.9905079126638193,0.2231597900390625,-0.0591278076171875,0.1468658447265625,0.2736164576028649
1782217599.276769,-0.0185546875,-0.06201171875,0.9921874403953552,0.9942965586628761,-0.02288818359375,0.1220703125,0.1468658447265625,0.1923398203423192
1782217599.287427,-0.01904296875,-0.05517578125,0.9985350966453552,1.0002396416498949,-0.2040863037109375,0.1850128173828125,-0.1583099365234375,0.31771527813495803
1782217599.298085,-0.0161132775247097,-0.06787109375,0.9770507216453552,0.979537766371016,0.1010894775390625,-0.0591278076171875,0.0820159912109375,0.142974833159715
1782217599.308778,-0.0200195275247097,-0.0590820275247097,0.9814452528953552,0.9834257734519525,0.0400543212890625,0.0629425048828125,-0.0362396240234375,0.08294225656570015
1782217599.31947,-0.010253902524709702,-0.068359375,0.9912108778953552,0.993618211953393,0.1621246337890625,0.2460479736328125,-0.1010894775390625,0.3115173906528678
1782217599.330162,-0.0170898400247097,-0.06396484375,0.9912108778953552,0.9934196335517599,0.1621246337890625,-0.2422332763671875,-0.1010894775390625,0.3085132728586251
1782217599.338137,-0.0029296837747097015,-0.0576171912252903,0.9829100966453552,0.9846017376884386,0.1010894775390625,0.2460479736328125,0.3871917724609375,0.4697618082170753
1782217599.346113,-0.01416015625,-0.06982421875,0.9858397841453552,0.988410851596052,-0.0209808349609375,0.0629425048828125,0.0820159912109375,0.10549207160205713
1782217599.354089,-0.01220703125,-0.06591796875,0.9863280653953552,0.9886036833851108,-0.0209808349609375,0.0019073486328125,-0.0362396240234375,0.04191829867522413
1782217599.362065,-0.0087890625,-0.06103515625,0.9897460341453552,0.9916651400672253,0.1010894775390625,-0.1201629638671875,-0.1010894775390625,0.1867546594427787
1782217599.372768,-0.00830078125,-0.06201171875,1.00244140625,1.0043919201169267,-0.2651214599609375,0.2460479736328125,0.0820159912109375,0.3708849102820776
1782217599.383471,-0.02880859375,-0.05224609375,0.9853515028953552,0.9871561039896991,0.2231597900390625,0.2460479736328125,-0.1010894775390625,0.34721604180713234
1782217599.394174,-0.010253902524709702,-0.0585937462747097,0.9843749403953552,0.9861705698802061,-0.1430511474609375,0.0019073486328125,0.0820159912109375,0.1649057051257189
1782217599.402182,-0.015136711299419403,-0.044921875,1.0029296875,1.0040493279472504,0.2841949462890625,-0.0591278076171875,-0.0362396240234375,0.29253405866534304
1782217599.41019,-0.0166015587747097,-0.0620117224752903,0.9892577528953552,0.9913384725418812,0.0400543212890625,-0.0591278076171875,0.0247955322265625,0.07559936974566045
1782217599.418198,-0.019531242549419403,-0.0595703125,0.9848632216453552,0.986856452031672,0.1010894775390625,0.0629425048828125,0.0820159912109375,0.14459413613406347
1782217599.426206,-0.0224609337747097,-0.0522460974752903,0.9843749403953552,0.9860163140261872,-0.2651214599609375,0.1850128173828125,-0.2193450927734375,0.390680689120326
1782217599.436928,-0.013671871274709702,-0.0537109337747097,0.9799804091453552,0.9815464261968464,0.09918212890625,0.0,0.0820159912109375,0.12870010687131758
1782217599.44765,-0.010253902524709702,-0.0595703087747097,0.9946288466453552,0.9964639013951133,0.09918212890625,0.1220703125,-0.1583099365234375,0.2231597900390625
1782217599.458372,-0.015624996274709702,-0.0620117224752903,0.9892577528953552,0.9913225993068577,-0.1430511474609375,0.0019073486328125,0.0247955322265625,0.14519671892675975
1782217599.466301,-0.010253902524709702,-0.06787109375,0.9833983778953552,0.9857910516590336,0.0400543212890625,-0.1811981201171875,0.0820159912109375,0.2028884673958644
1782217599.474232,-0.014648430049419403,-0.0517578125,0.9970702528953552,0.9985201734900029,-0.02288818359375,-0.18310546875,0.0820159912109375,0.20193589192783687
1782217599.482163,-0.019531242549419403,-0.056640625,0.9882811903953552,0.9900956222129129,-0.02288818359375,0.1220703125,-0.0362396240234375,0.12937673860253615
1782217599.490094,-0.0078124962747097015,-0.0541992150247097,0.9965819716453552,0.9980852750220698,-0.0209808349609375,-0.2422332763671875,0.1468658447265625,0.28405410041484547
1782217599.501003,-0.0283203125,-0.056640625,0.9916991591453552,0.99371898580539,-0.1430511474609375,0.1239776611328125,0.1468658447265625,0.23959062501921927
1782217599.511912,-0.005859367549419403,-0.05615234375,0.9921874403953552,0.9937924002401024,-0.2651214599609375,-0.2422332763671875,-0.1010894775390625,0.37307563734519283
1782217599.522821,-0.010253898799419403,-0.06494140625,0.9829100966453552,0.9851064849922052,0.1049041748046875,-0.0591278076171875,0.0247955322265625,0.1229463376578012
1782217599.533389,-0.0185546875,-0.0625,0.9848632216453552,0.9870187899821821,-0.2613067626953125,-0.0591278076171875,-0.1010894775390625,0.28635014288985455
1782217599.543958,-0.01318359375,-0.056640625,0.9897460341453552,0.9914530647746339,0.0438690185546875,-0.0591278076171875,0.0247955322265625,0.07768788091436882
1782217599.554527,-0.00927734375,-0.06494140625,0.9877929091453552,0.9899688311813798,-0.1983642578125,-0.118255615234375,-0.2803802490234375,0.3632435179798937
1782217599.565057,-0.0009765550494194031,-0.06640625,0.9907225966453552,0.992946125025191,0.041961669921875,-0.118255615234375,-0.1010894775390625,0.16113427551645726
1782217599.575589,-0.00830078125,-0.0556640625,0.9873046278953552,0.9889073865064161,0.164031982421875,0.125885009765625,0.0247955322265625,0.208250679132963
1782217599.586121,-0.015136715024709702,-0.0581054650247097,0.9897460341453552,0.9915657201184073,0.041961669921875,0.308990478515625,-0.0362396240234375,0.31392548145269666
1782217599.594146,-0.006347648799419403,-0.06103515625,0.9887694716453552,0.9906718180111805,-0.0782012939453125,-0.0591278076171875,0.0820159912109375,0.12782082311833579
1782217599.602169,-0.0166015587747097,-0.07275390625,0.9853515028953552,0.9881732271654192,-0.019073486328125,-0.057220458984375,-0.1010894775390625,0.11771601962440088
1782217599.610192,-0.00830078125,-0.0517578125,0.9819335341453552,0.9833317037517569,-0.019073486328125,-0.057220458984375,0.0247955322265625,0.06521347426330093
1782217599.618215,-0.010253902524709702,-0.064453125,0.9799804091453552,0.9821511849750779,0.1659393310546875,-0.2422332763671875,0.1468658447265625,0.3283022968510976
1782217599.628851,-0.0312499962747097,-0.0517578162252903,0.9965819716453552,0.9984142727425945,-0.0782012939453125,0.1239776611328125,-0.0362396240234375,0.15099408327495406
1782217599.639487,-0.0170898400247097,-0.0585937462747097,0.9877929091453552,0.9896767760700557,-0.0782012939453125,-0.0591278076171875,0.2079010009765625,0.22985727357513172
1782217599.650123,-0.01416015625,-0.060546875,0.9931640028953552,0.9951086225857031,-0.0782012939453125,0.1239776611328125,-0.1583099365234375,0.2157497134105593
1782217599.66097,-0.0224609337747097,-0.0541992150247097,0.9931640028953552,0.9948953638963506,-0.2002716064453125,0.1239776611328125,0.0820159912109375,0.24941090517950734
1782217599.671819,-0.009765617549419403,-0.060546875,0.9941405653953552,0.9960304990927655,-0.141143798828125,-0.301361083984375,0.3299713134765625,0.4686375386216085
1782217599.682668,-0.0219726525247097,-0.0537109337747097,0.9936522841453552,0.9953454293124596,0.164031982421875,-0.057220458984375,-0.0362396240234375,0.17746544039049675
1782217599.693158,-0.0126953125,-0.06005859375,0.9995116591453552,1.0013949083204892,-0.2002716064453125,0.2460479736328125,0.0247955322265625,0.31821869853199675
1782217599.703649,-0.010742183774709702,-0.0620117224752903,0.9868163466453552,0.9888211922501904,0.2269744873046875,0.1239776611328125,-0.2193450927734375,0.3391167174749368
1782217599.71414,-0.01416015625,-0.0546875,0.9980468153953552,0.9996442759312358,0.1049041748046875,0.0667572021484375,0.1468658447265625,0.19243436875305447
1782217599.72216,-0.0029296875,-0.05029296875,0.9863280653953552,0.9876138002078951,0.0438690185546875,-0.0591278076171875,0.2079010009765625,0.22055252124975425
1782217599.73018,-0.0019531212747097015,-0.0493164025247097,1.0029296875,1.0041433564534201,-0.1983642578125,0.003814697265625,0.0247955322265625,0.19994436503970506
1782217599.7382,-0.0234375,-0.0625,0.9877929091453552,0.9900456543837228,0.1049041748046875,0.0667572021484375,0.2079010009765625,0.2422482943948139
1782217599.74622,-0.00927734375,-0.0595703125,0.9819335341453552,0.9837825759371788,-0.1392364501953125,-0.2422332763671875,-0.0362396240234375,0.2817393469005245
1782217599.756841,-0.013183590024709702,-0.06298828125,0.9819335341453552,0.9840400378541293,-0.019073486328125,0.064849853515625,0.0820159912109375,0.10628228542903925
1782217599.767462,-0.010253902524709702,-0.0585937462747097,0.9877929091453552,0.9895823366336605,-0.141143798828125,0.125885009765625,0.0820159912109375,0.20614371308783175
1782217599.778083,-0.0048828087747097015,-0.0527343787252903,0.9785155653953552,0.9799476864823267,0.1068115234375,0.186920166015625,0.0247955322265625,0.2167087179158857
1782217599.786092,-0.01806640625,-0.0625,0.9926757216453552,0.994805374623055,0.164031982421875,0.064849853515625,0.2079010009765625,0.2726441287930202
1782217599.7941,-0.01318359375,-0.05615234375,0.9877929091453552,0.9894754793377283,-0.1983642578125,0.003814697265625,0.1468658447265625,0.24684510738513554
1782217599.802108,-0.014648433774709702,-0.06396484375,0.9809569716453552,0.9831493569481904,-0.0782012939453125,-0.2994537353515625,-0.0362396240234375,0.3116108026691066
1782217599.810116,-0.012207027524709702,-0.0522460974752903,0.9985350966453552,0.9999755024274022,-0.019073486328125,-0.057220458984375,0.3299713134765625,0.33543858830572787
1782217599.820789,-0.0126953125,-0.0615234375,0.9819335341453552,0.9839409381667563,0.1049041748046875,0.1239776611328125,0.0247955322265625,0.1642868368732365
1782217599.831462,-0.010253898799419403,-0.056640625,0.9897460341453552,0.9914184358521068,0.2269744873046875,-0.1811981201171875,-0.1583099365234375,0.33077516929673434
1782217599.842135,-0.0063476525247097015,-0.07080078125,0.9750975966453552,0.97768520818397,0.1068115234375,0.186920166015625,-0.0362396240234375,0.21831436130430937
1782217599.85281,-0.015624992549419403,-0.0654296875,0.9990233778953552,1.0012856205798437,0.2269744873046875,0.0667572021484375,0.1468658447265625,0.2784663682981481
1782217599.863485,-0.00390625,-0.06201171875,0.9814452528953552,0.983410136454887,-0.0782012939453125,0.1239776611328125,-0.2803802490234375,0.3163842392995082
1782217599.87416,-0.014648430049419403,-0.0556640625,0.9902343153953552,0.991905773621378,0.1049041748046875,0.2460479736328125,0.0247955322265625,0.26862484925759217
1782217599.882209,-0.0175781212747097,-0.0527343787252903,0.9897460341453552,0.9913057637043927,0.1049041748046875,-0.0591278076171875,0.0820159912109375,0.14569696750234765
1782217599.890259,-0.00390625,-0.0595703125,0.9912108778953552,0.9930069916060466,0.164031982421875,-0.179290771484375,0.1468658447265625,0.2839388109152383
1782217599.898309,-0.010742183774709702,-0.0473632849752903,0.9833983778953552,0.9845968946341015,0.1049041748046875,-0.1811981201171875,-0.2803802490234375,0.3499296053035524
1782217599.906359,-0.013671875,-0.0625,0.9897460341453552,0.9918116667354112,0.0438690185546875,-0.2422332763671875,-0.0362396240234375,0.24882676969710044
1782217599.917143,-0.0068359337747097015,-0.0576171912252903,0.9995116591453552,1.0011943005644632,0.041961669921875,-0.118255615234375,0.0820159912109375,0.1499059541559491
1782217599.927927,-0.00830078125,-0.06201171875,0.9853515028953552,0.9873357789981201,0.164031982421875,0.003814697265625,0.2689361572265625,0.31503602942563413
1782217599.938711,-0.01416015625,-0.06005859375,0.9946288466453552,0.9965410615159425,0.0438690185546875,0.1239776611328125,0.0820159912109375,0.15498894819704592
1782217599.947013,-0.011718746274709702,-0.0615234412252903,0.9946288466453552,0.9965987183483241,-0.019073486328125,0.308990478515625,0.0820159912109375,0.3202585463470673
1782217599.955314,-0.013183590024709702,-0.06298828125,0.9726561903953552,0.9747827426330311,0.041961669921875,-0.301361083984375,0.1468658447265625,0.3378592325660447
1782217599.963615,-0.015136715024709702,-0.06298828125,0.9970702528953552,0.9991725241045092,0.1049041748046875,-0.0591278076171875,-0.1583099365234375,0.1989045487843915
1782217599.971916,-0.0034179650247097015,-0.06298828125,0.9956054091453552,0.9976017926904649,0.2269744873046875,0.0667572021484375,0.1468658447265625,0.2784663682981481
1782217599.982008,-0.00439453125,-0.05517578125,0.9951171278953552,0.9966552949601762,0.1049041748046875,-0.0591278076171875,-0.0362396240234375,0.1257548960256724
1782217599.9921,-0.014648433774709702,-0.06396484375,0.9858397841453552,0.9880213347148809,0.1049041748046875,0.3070831298828125,0.1468658447265625,0.3561944846531505
1782217600.002192,-0.014648430049419403,-0.044921875,0.9921874403953552,0.9933118685663204,-0.141143798828125,-0.179290771484375,-0.0362396240234375,0.23104125829915467
1782217600.01285,-0.016113273799419403,-0.05615234375,0.9936522841453552,0.9953680651339156,-0.0782012939453125,0.1239776611328125,-0.0362396240234375,0.15099408327495406
1782217600.023509,-0.00830078125,-0.06103515625,0.9912108778953552,0.9931229519681353,0.041961669921875,0.003814697265625,-0.1583099365234375,0.16382115144240553
1782217600.034168,-0.01416015625,-0.0478515625,0.9970702528953552,0.9983182715284357,0.2269744873046875,0.0667572021484375,-0.1010894775390625,0.2572800505189505
1782217600.04484,-0.0283203125,-0.05908203125,0.9863280653953552,0.9885017850784428,0.0438690185546875,0.1239776611328125,0.2079010009765625,0.24600361268886
1782217600.055512,-0.005371086299419403,-0.0615234375,0.9892577528953552,0.9911835771406928,0.041961669921875,0.064849853515625,0.1468658447265625,0.1659393310546875
1782217600.066184,0.0,-0.06494140625,0.9804686903953552,0.9826170358238812,-0.019073486328125,-0.240325927734375,0.0247955322265625,0.24235339453058152
1782217600.074175,-0.012207027524709702,-0.0576171912252903,0.9931640028953552,0.9949087842072789,-0.0782012939453125,-0.1163482666015625,-0.1010894775390625,0.17283357308413796
1782217600.082166,-0.0185546837747097,-0.06298828125,0.9868163466453552,0.9889986359299463,0.1049041748046875,0.0019073486328125,0.1468658447265625,0.18049404482560163
1782217600.090157,-0.00927734375,-0.04833984375,0.9887694716453552,0.9899938775864551,0.2269744873046875,0.1239776611328125,0.0247955322265625,0.259812811011287
1782217600.098148,-0.01904296875,-0.06494140625,0.9892577528953552,0.9915699282290225,-0.2002716064453125,0.1239776611328125,-0.0362396240234375,0.238311743641619
1782217600.106169,-0.01416015625,-0.06201171875,0.9790038466453552,0.9810680379228321,0.1049041748046875,-0.2422332763671875,0.2689361572265625,0.3768401554171543
1782217600.11419,-0.013183590024709702,-0.06298828125,0.9829100966453552,0.9850145119276925,0.2899169921875,0.003814697265625,0.2079010009765625,0.35677617700924474
1782217600.122211,-0.010253902524709702,-0.0771484375,0.9931640028953552,0.9962086932830906,0.2880096435546875,0.0667572021484375,-0.1010894775390625,0.3124502541018428
1782217600.130232,-0.0161132775247097,-0.0634765625,0.9814452528953552,0.9836278239914894,-0.0782012939453125,-0.0591278076171875,0.0247955322265625,0.10112545884560824
1782217600.140857,-0.013671875,-0.0615234375,0.9946288466453552,0.9966235980082458,0.1049041748046875,0.0667572021484375,0.0247955322265625,0.12679206737228588
1782217600.151482,-0.02197265625,-0.0654296875,0.9848632216453552,0.9872787888832092,-0.019073486328125,0.064849853515625,0.0820159912109375,0.10628228542903925
1782217600.162107,-0.004882805049419403,-0.07080078125,0.9838866591453552,0.9864428774414509,0.1049041748046875,-0.0591278076171875,0.1468658447265625,0.1899225101780048
1782217600.170152,-0.0161132775247097,-0.0566406287252903,0.9941405653953552,0.9958831569514474,-0.0782012939453125,-0.1163482666015625,0.0247955322265625,0.1423628460459678
1782217600.178197,-0.01904296875,-0.06494140625,0.9838866591453552,0.9862114271031083,-0.0782012939453125,-0.2422332763671875,-0.0362396240234375,0.2571103127135579
1782217600.186242,-0.01806640625,-0.0625,0.9926757216453552,0.994805374623055,0.0438690185546875,0.1239776611328125,0.0247955322265625,0.13382738758308219
1782217600.194287,-0.0185546875,-0.05615234375,0.9912108778953552,0.9929734974282656,-0.141143798828125,0.125885009765625,0.0247955322265625,0.1907443997860074
1782217600.204899,-0.011718746274709702,-0.06298828125,0.9848632216453552,0.986944992357096,-0.019073486328125,-0.057220458984375,-0.0362396240234375,0.07036539743689238
1782217600.215511,-0.019531242549419403,-0.0693359375,0.9902343153953552,0.9928509158232347,0.1049041748046875,-0.0591278076171875,0.1468658447265625,0.1899225101780048
1782217600.226123,-0.0068359337747097015,-0.06787109375,0.9941405653953552,0.9964781378043324,0.0438690185546875,-0.0591278076171875,0.2689361572265625,0.27883192981858623
1782217600.234184,-0.010253898799419403,-0.06689453125,0.9819335341453552,0.984262915196409,0.164031982421875,-0.057220458984375,-0.3414154052734375,0.38307329734876905
1782217600.242245,-0.0073242150247097015,-0.0625,0.9995116591453552,1.0014906144808493,0.1049041748046875,-0.1163482666015625,0.0247955322265625,0.15860839653385062
1782217600.250306,-0.0195312462747097,-0.0585937462747097,0.9838866591453552,0.9858233384982102,0.164031982421875,-0.118255615234375,0.0247955322265625,0.20372947800971108
1782217600.258367,-0.00927734375,-0.05029296875,0.9853515028953552,0.9866777772256146,0.2269744873046875,0.1239776611328125,-0.1583099365234375,0.30323244277161876
1782217600.268977,-0.01318359375,-0.0654296875,0.9853515028953552,0.9876094549003912,0.0438690185546875,-0.0591278076171875,0.1468658447265625,0.1642868368732365
1782217600.279587,-0.015136715024709702,-0.064453125,0.9824218153953552,0.9846501657079586,0.1049041748046875,0.0019073486328125,0.0820159912109375,0.13317337077874128
1782217600.290197,-0.0234375,-0.05419921875,1.00390625,1.005641402542886,0.164031982421875,0.003814697265625,-0.1583099365234375,0.22799798063696416
1782217600.300847,-0.0166015587747097,-0.0581054650247097,0.9790038466453552,0.9808671615289657,-0.263214111328125,0.003814697265625,0.0247955322265625,0.2644069566707379
1782217600.311499,-0.010742183774709702,-0.0498046837747097,0.9956054091453552,0.9969082363776711,-0.1392364501953125,-0.0591278076171875,0.0820159912109375,0.17207413957628687
1782217600.322151,-0.01416015625,-0.0654296875,0.9907225966453552,0.9929817810690623,-0.2613067626953125,-0.0591278076171875,-0.2803802490234375,0.38780201895601873
1782217600.332856,-0.0087890625,-0.06494140625,0.9877929091453552,0.9899643757344001,0.041961669921875,0.186920166015625,-0.2803802490234375,0.33957769986909625
1782217600.343563,-0.0161132775247097,-0.0654296875,0.9877929091453552,0.9900886389999534,-0.0782012939453125,0.0667572021484375,0.0820159912109375,0.1315241013188119
1782217600.35427,-0.0200195275247097,-0.0537109337747097,0.9941405653953552,0.9957916999321998,0.041961669921875,0.186920166015625,0.1468658447265625,0.2413907756174373
1782217600.364882,-0.0161132775247097,-0.0585937462747097,0.9868163466453552,0.9886856764521165,-0.019073486328125,0.064849853515625,-0.1010894775390625,0.12160749915538849
1782217600.375497,-0.011718746274709702,-0.0595703087747097,0.9887694716453552,0.99063162616565,0.0438690185546875,-0.0591278076171875,-0.0362396240234375,0.08206033616752226
1782217600.386112,-0.02392578125,-0.06884765625,0.9975585341453552,1.0002177122135814,-0.2613067626953125,0.0667572021484375,-0.0362396240234375,0.2721232415990075
1782217600.394099,-0.0161132775247097,-0.0590820275247097,0.9912108778953552,0.9931008650419653,-0.019073486328125,-0.118255615234375,0.0820159912109375,0.14517166124792502
1782217600.402088,-0.0234374962747097,-0.0532226525247097,1.00341796875,1.0051017794152834,-0.0782012939453125,0.2460479736328125,-0.1010894775390625,0.2772618440619895
1782217600.410077,-0.008789058774709702,-0.0634765625,0.9887694716453552,0.9908438775098712,-0.2002716064453125,0.0667572021484375,-0.2193450927734375,0.3044298114683603
1782217600.418066,-0.010742183774709702,-0.0693359375,0.9814452528953552,0.9839500247330051,0.347137451171875,0.003814697265625,0.1468658447265625,0.3769463334064692
1782217600.428763,-0.0029296875,-0.05712890625,0.9912108778953552,0.9928601610782103,0.2880096435546875,0.3070831298828125,0.1468658447265625,0.44589144394837765
1782217600.43946,-0.0190429650247097,-0.0581054650247097,0.9790038466453552,0.9809115206424442,-0.0782012939453125,0.0019073486328125,-0.1010894775390625,0.12782082311833579
1782217600.450157,-0.009765617549419403,-0.0625,0.9858397841453552,0.9878672467947716,-0.019073486328125,0.003814697265625,-0.1010894775390625,0.10294383063136013
1782217600.460878,-0.0200195275247097,-0.0576171912252903,0.9848632216453552,0.9867502660535098,-0.324249267578125,-0.301361083984375,-0.1010894775390625,0.45406516375329725
1782217600.4716,-0.015136715024709702,-0.0546874962747097,0.9790038466453552,0.980646916141043,0.1049041748046875,0.0667572021484375,-0.0362396240234375,0.12951725861637084
1782217600.482322,-0.00439453125,-0.07666015625,0.9882811903953552,0.99125970499685,-0.141143798828125,-0.118255615234375,0.0247955322265625,0.18579768809243366
1782217600.490266,-0.014648430049419403,-0.05712890625,0.9829100966453552,0.9846778897282175,-0.2002716064453125,0.0667572021484375,-0.2193450927734375,0.3044298114683603
1782217600.498211,-0.024902336299419403,-0.05712890625,0.9858397841453552,0.9878076322271716,-0.019073486328125,0.247955322265625,-0.1010894775390625,0.2684487328889443
1782217600.506156,-0.0014648400247097015,-0.0556640587747097,0.9916991591453552,0.9932612221591945,-0.1392364501953125,-0.0591278076171875,0.0820159912109375,0.17207413957628687
1782217600.514101,-0.00439453125,-0.0634765625,0.9868163466453552,0.98886555602782,0.1068115234375,0.186920166015625,0.0820159912109375,0.23037897650753855
1782217600.522126,-0.0200195275247097,-0.0527343787252903,0.9926757216453552,0.9942770159900015,-0.1983642578125,0.003814697265625,-0.1010894775390625,0.22267018920783482
1782217600.530151,-0.0029296837747097015,-0.06884765625,0.9868163466453552,0.9892194320900818,0.2899169921875,-0.118255615234375,0.2689361572265625,0.412750420420498
1782217600.538176,-0.0166015587747097,-0.0507812462747097,0.9814452528953552,0.982898332055656,-0.1392364501953125,-0.0591278076171875,-0.3414154052734375,0.3734265197527252
1782217600.546201,-0.0014648400247097015,-0.0463867224752903,0.9926757216453552,0.9937600123382024,-0.0782012939453125,0.0019073486328125,0.2079010009765625,0.2221303818944741
1782217600.556858,-0.0170898400247097,-0.06396484375,0.9833983778953552,0.9856246412885831,0.0438690185546875,-0.3643035888671875,0.2079010009765625,0.4217397560789366
1782217600.567515,-0.0224609337747097,-0.06396484375,0.9829100966453552,0.9852452754869598,-0.019073486328125,-0.118255615234375,-0.1583099365234375,0.19852008567705315
1782217600.578172,-0.00048827752470970154,-0.0625,0.9799804091453552,0.9819715325423843,-0.019073486328125,0.064849853515625,-0.1583099365234375,0.17213755367078387
1782217600.588857,-0.0166015587747097,-0.07666015625,0.9853515028953552,0.9884685000383977,0.2899169921875,0.186920166015625,0.1468658447265625,0.3749141063891868
1782217600.59954,-0.0029296875,-0.06640625,0.9863280653953552,0.9885653370892863,-0.0782012939453125,0.0019073486328125,0.0820159912109375,0.11333888638874497
1782217600.610223,-0.015624996274709702,-0.0541992150247097,0.9970702528953552,0.9986645005339315,0.2880096435546875,0.3070831298828125,-0.0362396240234375,0.42256705241710757
1782217600.620872,-0.01904296875,-0.0693359375,0.9965819716453552,0.9991725241900725,-0.019073486328125,-0.179290771484375,-0.0362396240234375,0.1839083711241325
1782217600.631524,-0.01220703125,-0.0654296875,0.9892577528953552,0.9914943052190738,0.041961669921875,0.186920166015625,0.3299713134765625,0.3815507802683531
1782217600.642176,-0.011718746274709702,-0.0673828125,0.9916991591453552,0.9940548247879821,-0.141143798828125,0.003814697265625,0.0820159912109375,0.16328731327685922
1782217600.652935,-0.013671871274709702,-0.0634765625,0.9843749403953552,0.9865141749256965,-0.141143798828125,0.064849853515625,0.2079010009765625,0.2595185959727913
1782217600.663695,-0.0175781212747097,-0.0581054650247097,0.9790038466453552,0.980884176220459,-0.141143798828125,0.003814697265625,0.1468658447265625,0.20372947800971108
1782217600.674455,-0.01416015625,-0.06103515625,0.9877929091453552,0.9897780719339716,0.041961669921875,0.064849853515625,-0.2803802490234375,0.2908253243548011
1782217600.682394,-0.01708984375,-0.0654296875,0.9882811903953552,0.9905921552561414,-0.019073486328125,-0.057220458984375,-0.1583099365234375,0.1694107871687825
1782217600.690332,-0.015136715024709702,-0.06298828125,0.9941405653953552,0.996249018810641,0.164031982421875,-0.057220458984375,-0.1583099365234375,0.2350376739709778
1782217600.69827,-0.01416015625,-0.0625,0.9711913466453552,0.9733033400866571,0.1049041748046875,0.1239776611328125,0.1468658447265625,0.21896329075592028
1782217600.706208,-0.01318359375,-0.0595703125,0.9858397841453552,0.9877259282206139,-0.1983642578125,0.003814697265625,-0.3414154052734375,0.394876448589629
1782217600.716897,-0.0087890625,-0.06591796875,0.9868163466453552,0.9890545628175631,0.0438690185546875,-0.2422332763671875,-0.1010894775390625,0.26612127580795636
1782217600.727586,-0.012207027524709702,-0.0600585900247097,0.9838866591453552,0.9857935908702965,-0.0782012939453125,0.0667572021484375,0.3299713134765625,0.3456197826092372
1782217600.738275,-0.0058593712747097015,-0.0595703087747097,0.9887694716453552,0.9905796393915454,-0.019073486328125,0.247955322265625,0.1468658447265625,0.2888169248292175
1782217600.746351,-0.010253902524709702,-0.0546874962747097,0.9853515028953552,0.9869211969675785,-0.019073486328125,0.003814697265625,-0.2193450927734375,0.2202058571421874
1782217600.754427,-0.009765617549419403,-0.05078125,0.9902343153953552,0.9915836333987122,0.164031982421875,0.125885009765625,-0.1583099365234375,0.26041421417233857
1782217600.762503,-0.0024414025247097015,-0.0522460974752903,0.9887694716453552,0.9901518485593612,-0.019073486328125,0.308990478515625,0.0820159912109375,0.3202585463470673
1782217600.770579,-0.011230465024709702,-0.0507812462747097,0.9877929091453552,0.9891611040046652,-0.019073486328125,0.064849853515625,-0.3414154052734375,0.34804278521430776
1782217600.780084,-0.010742183774709702,-0.06298828125,0.9741210341453552,0.976214478099713,-0.1983642578125,-0.179290771484375,0.1468658447265625,0.30506251140415974
1782217600.789589,-0.0180664025247097,-0.06298828125,0.9858397841453552,0.9880151812997483,0.1049041748046875,-0.1811981201171875,-0.1010894775390625,0.2325010260075765
1782217600.799094,-0.0185546875,-0.06640625,0.9843749403953552,0.9867867498835016,-0.019073486328125,0.308990478515625,0.0247955322265625,0.3105700116115891
1782217600.808599,-0.013671875,-0.05615234375,0.9736327528953552,0.9753464735083742,-0.2002716064453125,0.0667572021484375,-0.2193450927734375,0.3044298114683603
1782217600.818104,-0.0029296875,-0.0556640625,0.9838866591453552,0.9854643722464349,0.0438690185546875,-0.2422332763671875,0.2689361572265625,0.36459307128951873
1782217600.826109,-0.012695308774709702,-0.0541992150247097,0.9887694716453552,0.9903351926656019,0.164031982421875,0.125885009765625,0.0247955322265625,0.208250679132963
1782217600.834114,-0.011230465024709702,-0.0517578162252903,0.9863280653953552,0.9877489799901725,-0.019073486328125,0.247955322265625,-0.1010894775390625,0.2684487328889443
1782217600.842119,-0.010253898799419403,-0.06689453125,0.9960936903953552,0.9983900344039817,0.164031982421875,-0.057220458984375,-0.0362396240234375,0.17746544039049675
1782217600.850124,-0.011230465024709702,-0.0581054650247097,0.9970702528953552,0.9988250385423949,-0.1983642578125,-0.179290771484375,0.1468658447265625,0.30506251140415974
1782217600.860788,-0.01318359375,-0.07666015625,0.9926757216453552,0.9957186726403027,0.041961669921875,-0.118255615234375,0.0247955322265625,0.1279061792701644
1782217600.871452,-0.0219726525247097,-0.0590820275247097,0.9829100966453552,0.9849293078809178,-0.0782012939453125,0.0667572021484375,0.0247955322265625,0.10576759821328562
1782217600.882116,-0.010253898799419403,-0.06005859375,0.9882811903953552,0.9901575068710415,-0.1983642578125,0.003814697265625,-0.0362396240234375,0.20168351703124487
1782217600.892774,-0.020019523799419403,-0.060546875,0.9970702528953552,0.9991074990281219,-0.019073486328125,0.125885009765625,0.0247955322265625,0.12971373089538044
1782217600.903432,-0.0273437462747097,-0.0571289099752903,0.9887694716453552,0.990795872454632,0.164031982421875,0.370025634765625,-0.1010894775390625,0.41718646204074583
1782217600.91409,-0.0078124962747097015,-0.0537109337747097,0.9965819716453552,0.9980588788811696,0.164031982421875,-0.057220458984375,-0.2193450927734375,0.2798087595258961
1782217600.922096,-0.013671875,-0.0625,0.9931640028953552,0.995222541350999,-0.0782012939453125,0.0019073486328125,-0.1010894775390625,0.12782082311833579
1782217600.9301,-0.0126953125,-0.0615234375,0.9970702528953552,0.9990472428919949,-0.141143798828125,0.003814697265625,0.0247955322265625,0.14335599841395227
1782217600.938104,-0.0175781212747097,-0.0576171912252903,0.9931640028953552,0.9949891796996414,-0.1392364501953125,-0.0591278076171875,-0.1583099365234375,0.21896329075592028
1782217600.946108,-0.01416015625,-0.06103515625,0.9843749403953552,0.9863669822139453,-0.1392364501953125,0.2460479736328125,-0.0362396240234375,0.2850257966240337
1782217600.956773,-0.0166015587747097,-0.0546874962747097,0.9916991591453552,0.9933446311588698,-0.019073486328125,0.003814697265625,0.0247955322265625,0.03151457146045362
1782217600.967438,-0.0078125,-0.06201171875,1.00048828125,1.0024386711101874,0.164031982421875,0.186920166015625,0.2079010009765625,0.3241426629242374
1782217600.978103,-0.012695308774709702,-0.072265625,0.9794921278953552,0.9822363870425982,0.041961669921875,0.186920166015625,-0.0362396240234375,0.19496984524613367
1782217600.986113,-0.024414055049419403,-0.0576171875,0.9907225966453552,0.9926968569926478,0.164031982421875,-0.118255615234375,0.0247955322265625,0.20372947800971108
1782217600.994124,-0.0058593712747097015,-0.06298828125,0.9960936903953552,0.9981004437690636,-0.1983642578125,0.003814697265625,-0.1010894775390625,0.22267018920783482
1782217601.002135,-0.009765617549419403,-0.06640625,0.9887694716453552,0.9910450168297195,0.2880096435546875,-0.1811981201171875,0.0820159912109375,0.3500127659512056
1782217601.010146,-0.0068359337747097015,-0.0576171912252903,0.9887694716453552,0.990470362390061,-0.2002716064453125,0.2460479736328125,-0.1583099365234375,0.35455656485115905
1782217601.020804,-0.01318359375,-0.064453125,0.9912108778953552,0.9933916734725088,0.041961669921875,0.003814697265625,0.0247955322265625,0.048889181587128815
1782217601.031462,-0.0043945275247097015,-0.0673828125,0.9877929091453552,0.9900982712086813,-0.3833770751953125,-0.1163482666015625,0.0247955322265625,0.4014096652360267
1782217601.04212,-0.009765621274709702,-0.0532226525247097,0.9838866591453552,0.9853735211303658,-0.019073486328125,0.003814697265625,0.1468658447265625,0.14814832480721576
1782217601.050188,-0.008300777524709702,-0.0537109337747097,0.9848632216453552,0.9863616642307902,0.2880096435546875,0.0667572021484375,0.1468658447265625,0.33011460913814805
1782217601.058256,-0.0029296875,-0.060546875,0.9926757216453552,0.9945248088837403,-0.141143798828125,0.003814697265625,0.0247955322265625,0.14335599841395227
1782217601.066324,-0.0185546875,-0.0712890625,0.9936522841453552,0.9963790787886071,-0.1983642578125,0.186920166015625,-0.1010894775390625,0.29070020589936535
1782217601.074392,-0.0009765550494194031,-0.05615234375,0.9843749403953552,0.9859756906976671,0.1049041748046875,0.0019073486328125,0.1468658447265625,0.18049404482560163
1782217601.08238,-0.0161132775247097,-0.0693359375,0.9863280653953552,0.9888934030157832,0.1049041748046875,0.1239776611328125,0.0247955322265625,0.1642868368732365
1782217601.090368,-0.0014648400247097015,-0.0561523474752903,1.00048828125,1.0020638865870093,-0.019073486328125,-0.057220458984375,-0.0362396240234375,0.07036539743689238
1782217601.098356,-0.013183590024709702,-0.0532226525247097,0.9907225966453552,0.9922387420834871,0.1049041748046875,0.1239776611328125,0.1468658447265625,0.21896329075592028
1782217601.106344,-0.011718746274709702,-0.0449218712747097,0.9882811903953552,0.9893710198011325,-0.019073486328125,-0.179290771484375,-0.0362396240234375,0.1839083711241325
1782217601.117268,-0.015136711299419403,-0.06005859375,0.9804686903953552,0.982423028820972,0.0438690185546875,-0.2422332763671875,-0.1583099365234375,0.2926832536558738
1782217601.128192,-0.0058593712747097015,-0.07177734375,0.9780272841453552,0.9806751183956285,0.164031982421875,0.125885009765625,-0.2193450927734375,0.30143954064576484
1782217601.139116,-0.015624996274709702,-0.0541992150247097,0.9858397841453552,0.9874521636118075,-0.141143798828125,0.064849853515625,-0.2193450927734375,0.2687737806640003
1782217601.149464,-0.00830078125,-0.060546875,0.9995116591453552,1.0013782421288804,-0.1392364501953125,-0.0591278076171875,0.0820159912109375,0.17207413957628687
1782217601.159812,0.00634765625,-0.056640625,0.9999999403953552,1.001622850144191,0.1049041748046875,-0.0591278076171875,0.0247955322265625,0.1229463376578012
1782217601.17016,-0.010742183774709702,-0.0595703087747097,0.9873046278953552,0.9891584526572826,0.164031982421875,-0.301361083984375,-0.1010894775390625,0.35769271262720526
1782217601.18093,-0.0185546837747097,-0.068359375,0.9892577528953552,0.9917903922220349,-0.3833770751953125,0.1239776611328125,-0.2193450927734375,0.4587599720649816
1782217601.1917,-0.00830078125,-0.0595703125,0.9887694716453552,0.9905970892136434,-0.2613067626953125,-0.0591278076171875,-0.2803802490234375,0.38780201895601873
1782217601.20247,-0.0205078087747097,-0.0541992150247097,0.9975585341453552,0.9992402885073562,-0.1983642578125,0.003814697265625,-0.1583099365234375,0.2538207373222037
1782217601.210393,-0.0185546875,-0.06201171875,0.9819335341453552,0.9840646295694908,0.2269744873046875,-0.2422332763671875,0.2079010009765625,0.3916850830372081
1782217601.218318,-0.0170898400247097,-0.06298828125,0.9912108778953552,0.9933572321501365,0.0438690185546875,-0.3643035888671875,0.2689361572265625,0.45493763563180245
1782217601.226243,-0.0166015587747097,-0.0590820275247097,0.9863280653953552,0.9882354731119122,0.041961669921875,0.370025634765625,0.0247955322265625,0.37322187843792676
1782217601.234168,-0.014648430049419403,-0.06201171875,0.9931640028953552,0.9952058914678745,-0.0782012939453125,0.0019073486328125,0.0247955322265625,0.08206033616752226
1782217601.244824,-0.014648433774709702,-0.0537109337747097,0.9990233778953552,1.0005734109001942,-0.019073486328125,0.125885009765625,0.0820159912109375,0.15145116829761746
1782217601.25548,-0.0185546875,-0.041015625,0.9829100966453552,0.9839404534877834,-0.019073486328125,0.003814697265625,0.2079010009765625,0.20880894617567078
1782217601.266136,-0.009765617549419403,-0.05712890625,0.9912108778953552,0.9929038642655811,0.1049041748046875,0.3719329833984375,0.1468658447265625,0.41341094129009404
1782217601.274151,-0.0175781212747097,-0.0581054650247097,0.9931640028953552,0.9950175737445099,-0.019073486328125,0.247955322265625,0.2079010009765625,0.3241426629242374
1782217601.282164,-0.01416015625,-0.056640625,0.9907225966453552,0.9924414007532789,0.164031982421875,0.186920166015625,-0.1010894775390625,0.2684487328889443
1782217601.290177,-0.01318359375,-0.05517578125,0.9765624403953552,0.9782087578690167,0.1049041748046875,-0.1163482666015625,-0.0362396240234375,0.16079525920250512
1782217601.29819,-0.006347648799419403,-0.06591796875,0.9926757216453552,0.9948821837753119,0.1068115234375,0.186920166015625,-0.1010894775390625,0.23783803831908185
1782217601.308833,0.0,-0.05419921875,0.9819335341453552,0.9834281980868241,-0.0782012939453125,0.1239776611328125,0.0247955322265625,0.1486631132900228
1782217601.319476,-0.013671871274709702,-0.0537109337747097,0.9999999403953552,1.0015346550478508,0.1068115234375,-0.301361083984375,0.2079010009765625,0.3813791167412471
1782217601.330119,-0.0029296837747097015,-0.06884765625,0.9887694716453552,0.9911678217516814,0.0438690185546875,-0.0591278076171875,0.2689361572265625,0.27883192981858623
1782217601.340798,-0.0078125,-0.0556640625,0.9868163466453552,0.9884159170191159,0.041961669921875,-0.179290771484375,-0.1010894775390625,0.21005962237235262
1782217601.351476,0.0,-0.06103515625,0.9882811903953552,0.9901641286108693,-0.0782012939453125,0.3070831298828125,0.0820159912109375,0.32732569994984817
1782217601.362154,-0.004882805049419403,-0.05224609375,0.9999999403953552,1.0013757421108214,-0.1983642578125,0.003814697265625,-0.0362396240234375,0.20168351703124487
1782217601.372818,0.00537109375,-0.05419921875,0.9863280653953552,0.9878306821250926,0.2269744873046875,0.0667572021484375,0.0247955322265625,0.23788392199623662
1782217601.383481,-0.011718746274709702,-0.0556640587747097,0.9863280653953552,0.9879670384380591,-0.141143798828125,0.003814697265625,0.0247955322265625,0.14335599841395227
1782217601.394144,-0.0078124962747097015,-0.06396484375,0.9960936903953552,0.9981759245641232,-0.019073486328125,0.003814697265625,0.1468658447265625,0.14814832480721576
1782217601.402149,-0.015136711299419403,-0.06103515625,0.9877929091453552,0.9897925245652585,-0.2613067626953125,-0.0591278076171875,-0.2193450927734375,0.3462507640247273
1782217601.410152,-0.0004882737994194031,-0.05517578125,0.9877929091453552,0.9893328239807345,-0.2613067626953125,0.1239776611328125,-0.0362396240234375,0.29148755554847783
1782217601.418155,-0.0078125,-0.04541015625,0.9892577528953552,0.9903302575961552,-0.019073486328125,0.125885009765625,0.2079010009765625,0.24379019621686454
1782217601.426158,-0.005371086299419403,-0.06591796875,0.9741210341453552,0.9763635677024097,0.1049041748046875,0.0667572021484375,-0.1010894775390625,0.16025134133373237
1782217601.436823,-0.0014648400247097015,-0.0566406287252903,0.9863280653953552,0.9879541280673098,-0.0782012939453125,0.0019073486328125,0.0820159912109375,0.11333888638874497
1782217601.447488,-0.008300777524709702,-0.0585937462747097,0.9921874403953552,0.9939507265897572,0.2880096435546875,-0.0591278076171875,-0.3414154052734375,0.4505664561106817
1782217601.458153,-0.00830078125,-0.0703125,0.9775390028953552,0.9800996137165118,-0.0782012939453125,0.1239776611328125,-0.1010894775390625,0.17805893772513717
1782217601.466131,-0.0224609375,-0.05712890625,0.9912108778953552,0.9931098680915325,-0.2002716064453125,-0.0591278076171875,0.2079010009765625,0.2946653019764253
1782217601.47411,-0.0185546875,-0.0625,0.9887694716453552,0.990916542644262,0.164031982421875,-0.179290771484375,-0.1583099365234375,0.29002363351762817
1782217601.482089,-0.0205078087747097,-0.0595703087747097,0.9799804091453552,0.9820034593711735,0.0438690185546875,0.1239776611328125,0.0820159912109375,0.15498894819704592
1782217601.490068,-0.019531242549419403,-0.04736328125,0.9868163466453552,0.988145359677804,0.347137451171875,0.003814697265625,0.0247955322265625,0.34804278521430776
1782217601.500769,-0.0161132775247097,-0.0625,0.9848632216453552,0.9869759131114885,-0.141143798828125,0.064849853515625,-0.1010894775390625,0.18532716454355216
1782217601.51147,-0.0234375,-0.06640625,0.9750975966453552,0.9776371665545763,-0.0782012939453125,0.0667572021484375,-0.2803802490234375,0.29863866202461686
1782217601.522171,-0.00439453125,-0.05859375,0.9868163466453552,0.9885641311773635,-0.0782012939453125,-0.2994537353515625,-0.1583099365234375,0.3476348917942208
1782217601.532813,-0.00927734375,-0.06591796875,0.9804686903953552,0.9827258521870504,-0.019073486328125,-0.179290771484375,0.0820159912109375,0.19807978552715602
1782217601.543457,-0.0019531212747097015,-0.080078125,0.9804686903953552,0.9837353168570356,0.225067138671875,0.003814697265625,-0.0362396240234375,0.22799798063696416
1782217601.554101,-0.00244140625,-0.0654296875,0.9931640028953552,0.9953199189797973,0.225067138671875,0.186920166015625,-0.1010894775390625,0.3095374740518092
1782217601.562179,-0.005859367549419403,-0.04638671875,0.9926757216453552,0.9937762063002905,-0.0782012939453125,0.2460479736328125,0.3299713134765625,0.4189703037459603
1782217601.570255,-0.00341796875,-0.0556640625,0.9912108778953552,0.9927785124701585,-0.019073486328125,0.186920166015625,-0.0362396240234375,0.19135374752896295
1782217601.578331,-0.0053710900247097015,-0.0478515662252903,0.9755858778953552,0.9767734773974557,-0.0782012939453125,-0.0591278076171875,0.1468658447265625,0.17658175544371246
1782217601.586407,-0.0175781212747097,-0.06298828125,0.9790038466453552,0.9811855307070012,-0.2002716064453125,-0.0591278076171875,-0.1010894775390625,0.23199977683377607
1782217601.597004,-0.011230465024709702,-0.0703125,0.9882811903953552,0.9908429150426326,-0.1392364501953125,-0.0591278076171875,0.0247955322265625,0.15328961189527937
1782217601.607601,-0.0180664025247097,-0.0493164025247097,0.9946288466453552,0.996014580735259,0.164031982421875,0.125885009765625,-0.2803802490234375,0.3483771103034564
1782217601.618198,-0.011718746274709702,-0.07421875,0.9877929091453552,0.9906465480804229,-0.019073486328125,0.003814697265625,0.0247955322265625,0.03151457146045362
1782217601.628824,-0.0073242150247097015,-0.0620117224752903,0.9936522841453552,0.995612354100411,0.041961669921875,0.064849853515625,-0.1010894775390625,0.127221726575106
1782217601.639451,0.00244140625,-0.06201171875,0.9848632216453552,0.9868165883670961,0.1659393310546875,0.2460479736328125,0.2079010009765625,0.36235106337190043
1782217601.650078,-0.0087890625,-0.052734375,0.9970702528953552,0.998502504320884,-0.019073486328125,-0.179290771484375,-0.1010894775390625,0.20670767061067707
1782217601.660771,-0.010253898799419403,-0.05029296875,0.9824218153953552,0.983761733607779,0.0438690185546875,0.1239776611328125,-0.0362396240234375,0.13641210209609012
1782217601.671464,-0.0039062462747097015,-0.0634765625,0.9833983778953552,0.9854526383312345,0.164031982421875,0.125885009765625,-0.2803802490234375,0.3483771103034564
1782217601.682157,-0.0224609337747097,-0.0590820275247097,0.9965819716453552,0.9985844009051043,-0.019073486328125,-0.362396240234375,-0.0362396240234375,0.36470281485900286
1782217601.692793,-0.015624996274709702,-0.06787109375,0.9897460341453552,0.9921934478627968,-0.2002716064453125,-0.0591278076171875,0.0247955322265625,0.21028464613518452
1782217601.703432,-0.0126953125,-0.060546875,0.9868163466453552,0.9887535572822098,-0.324249267578125,-0.118255615234375,0.1468658447265625,0.37508872871183135
1782217601.714071,-0.011230465024709702,-0.06298828125,0.9877929091453552,0.989862858317931,-0.0782012939453125,0.3070831298828125,-0.1583099365234375,0.35422807206007867
1782217601.722208,-0.0209960900247097,-0.06884765625,0.9936522841453552,0.996255839307718,-0.0782012939453125,0.1239776611328125,-0.1010894775390625,0.17805893772513717
1782217601.730347,-0.00341796875,-0.0703125,0.9863280653953552,0.9888369849237892,0.1049041748046875,0.1239776611328125,0.0247955322265625,0.1642868368732365
1782217601.738486,-0.011230465024709702,-0.0517578162252903,0.9799804091453552,0.9814105141039503,-0.1983642578125,0.003814697265625,0.1468658447265625,0.24684510738513554
1782217601.746625,-0.0063476525247097015,-0.0551757775247097,0.9848632216453552,0.9864280128157852,-0.019073486328125,-0.118255615234375,-0.0362396240234375,0.12514590989932442
1782217601.757135,-0.01220703125,-0.05615234375,0.9809569716453552,0.9826386301892385,-0.20599365234375,0.06103515625,-0.2880096435546875,0.3593163367909645
1782217601.767645,-0.00830078125,-0.0625,0.9790038466453552,0.9810319488761631,-0.08392333984375,-0.18310546875,0.0171661376953125,0.2021519624937171
1782217601.778155,-0.0058593712747097015,-0.0595703087747097,0.9912108778953552,0.9930165952174868,-0.0820159912109375,-0.0019073486328125,0.5054473876953125,0.5120618346656342
1782217601.788806,-0.00732421875,-0.06640625,0.9824218153953552,0.9846908436580822,0.09918212890625,0.06103515625,-0.2307891845703125,0.25850731654533043
1782217601.799457,-0.0019531212747097015,-0.0595703087747097,0.9941405653953552,0.995925649903056,0.1621246337890625,-0.1239776611328125,-0.2307891845703125,0.30808846952755287
1782217601.810108,0.0,-0.05712890625,0.9965819716453552,0.9982180814520767,0.0400543212890625,0.0591278076171875,-0.2307891845703125,0.24158661801137155
1782217601.818113,-0.009765621274709702,-0.06396484375,0.9946288466453552,0.9967313635949822,-0.20599365234375,0.1220703125,0.0743865966796875,0.2507347438337015
1782217601.826119,-0.025390617549419403,-0.0556640625,0.9912108778953552,0.9930972640036955,0.1621246337890625,0.0591278076171875,0.1392364501953125,0.22173696935298023
1782217601.834125,-0.013183590024709702,-0.0537109337747097,0.9882811903953552,0.9898274509944404,0.28228759765625,-0.06103515625,-0.2880096435546875,0.40787391785881205
1782217601.842131,-0.0185546837747097,-0.0532226525247097,0.9829100966453552,0.984524852463932,0.16021728515625,0.1220703125,0.1392364501953125,0.24486226479324763
1782217601.852804,-0.012207027524709702,-0.06396484375,0.9990233778953552,1.0011434574217606,0.1621246337890625,-0.0019073486328125,-0.1049041748046875,0.19311375080893942
1782217601.863477,-0.019531242549419403,-0.056640625,0.9912108778953552,0.9930199566443746,-0.0209808349609375,0.0591278076171875,0.0743865966796875,0.09731217207965162
1782217601.87415,-0.00439453125,-0.046875,0.9868163466453552,0.9879388035381509,0.2231597900390625,-0.1239776611328125,-0.0476837158203125,0.2597007683944606
1782217601.884812,-0.0078124962747097015,-0.0483398400247097,0.9731444716453552,0.974375665708855,0.16021728515625,-0.06103515625,0.0171661376953125,0.17230654382430016
1782217601.895476,-0.011718746274709702,-0.0625,0.9868163466453552,0.988863024397584,0.0400543212890625,-0.1239776611328125,0.0171661376953125,0.13141341406897686
1782217601.90614,-0.00439453125,-0.05908203125,0.9931640028953552,0.9949295125629043,-0.1430511474609375,-0.1239776611328125,0.0171661376953125,0.1900756889589718
1782217601.914281,-0.00341796875,-0.052734375,0.9902343153953552,0.9916433815659359,0.16021728515625,-0.06103515625,-0.2307891845703125,0.2875039416702505
1782217601.922424,-0.004882805049419403,-0.0556640625,0.9794921278953552,0.9810846845446755,-0.02288818359375,-0.06103515625,-0.1659393310546875,0.1782835405682765
1782217601.930567,-0.013671875,-0.05615234375,0.9848632216453552,0.9865574343262038,-0.02288818359375,-0.18310546875,0.1392364501953125,0.23116719208696154
1782217601.93871,-0.012695308774709702,-0.0576171912252903,0.9780272841453552,0.97980522560472,0.1621246337890625,-0.1239776611328125,0.0743865966796875,0.21722850436069988
1782217601.949174,-0.0166015587747097,-0.0532226525247097,0.9897460341453552,0.991315022887263,0.0400543212890625,-0.1239776611328125,0.0171661376953125,0.13141341406897686
1782217601.959638,-0.0224609337747097,-0.0581054650247097,0.9833983778953552,0.9853695287855138,0.09918212890625,-0.06103515625,-0.1049041748046875,0.15673950007668883
1782217601.970102,-0.0205078087747097,-0.0590820275247097,0.9921874403953552,0.9941565133697295,0.1010894775390625,-0.0019073486328125,0.1392364501953125,0.17207413957628687
1782217601.978163,-0.0063476525247097015,-0.06640625,0.9956054091453552,0.9978377691043405,0.1010894775390625,-0.0019073486328125,-0.1659393310546875,0.19431567625594412
1782217601.986222,-0.014648430049419403,-0.060546875,0.9887694716453552,0.9907298161623144,0.0400543212890625,-0.0019073486328125,0.2574920654296875,0.26059576050270084
1782217601.994281,-0.0175781212747097,-0.0590820275247097,0.9882811903953552,0.9902016903708251,-0.08392333984375,-0.244140625,-0.2880096435546875,0.38677813605013706
1782217602.00234,-0.012695308774709702,-0.06396484375,0.9912108778953552,0.9933537519730461,-0.08392333984375,0.18310546875,0.2002716064453125,0.2840412927813013
1782217602.012971,-0.015624992549419403,-0.0615234375,0.9785155653953552,0.9805722744780099,0.28228759765625,0.30517578125,0.1392364501953125,0.4384122880520988
1782217602.023602,-0.015624992549419403,-0.056640625,1.00341796875,1.005136767212769,0.1010894775390625,-0.0019073486328125,-0.1049041748046875,0.14569696750234765
1782217602.034233,-0.015624992549419403,-0.07080078125,0.9970702528953552,0.999702945992752,0.28228759765625,0.1220703125,-0.1049041748046875,0.3249497420768894
1782217602.044868,-0.015136715024709702,-0.0581054650247097,0.9785155653953552,0.9803560970017317,-0.20599365234375,-0.06103515625,0.0743865966796875,0.2273588372374519
1782217602.055506,-0.0087890625,-0.0654296875,0.9858397841453552,0.9880477577676785,0.041961669921875,-0.06103515625,-0.1049041748046875,0.12841712476358724
1782217602.066144,-0.00927734375,-0.05078125,0.9877929091453552,0.9891408574194386,0.2841949462890625,-0.0019073486328125,0.2002716064453125,0.3476767490403066
1782217602.076811,-0.0068359337747097015,-0.0634765625,0.9907225966453552,0.9927775518619989,0.09918212890625,0.1220703125,-0.2307891845703125,0.2792882088503799
1782217602.087477,-0.010253898799419403,-0.06201171875,0.9829100966453552,0.9849176888401889,-0.0820159912109375,-0.0019073486328125,-0.2307891845703125,0.24493653975621815
1782217602.098143,-0.00830078125,-0.06201171875,0.9941405653953552,0.9961073335721838,0.1621246337890625,0.0591278076171875,0.1392364501953125,0.22173696935298023
1782217602.106256,-0.00927734375,-0.0458984375,0.9785155653953552,0.9796353645071154,0.0400543212890625,0.0591278076171875,-0.0476837158203125,0.08587306354133933
1782217602.114372,-0.0209960900247097,-0.06298828125,0.9863280653953552,0.9885602722938541,-0.263214111328125,-0.06103515625,0.0171661376953125,0.2707427468725449
1782217602.122488,-0.0185546875,-0.0654296875,0.9829100966453552,0.98526015778674,0.2841949462890625,0.3643035888671875,0.0171661376953125,0.46236192386606656
1782217602.130604,-0.010253898799419403,-0.06005859375,0.9863280653953552,0.9882080902878504,0.09918212890625,-0.18310546875,0.2002716064453125,0.288917676386751
1782217602.141109,-0.00439453125,-0.0576171875,0.9868163466453552,0.9885067294696599,-0.08392333984375,-0.1220703125,0.0171661376953125,0.1491273430587149
1782217602.151615,-0.020019523799419403,-0.06640625,0.9999999403953552,1.0024023404616191,-0.0209808349609375,0.1811981201171875,0.0171661376953125,0.1832147113444639
1782217602.162121,-0.00830078125,-0.0595703125,0.9921874403953552,0.9940087735925647,0.0400543212890625,-0.2460479736328125,0.0743865966796875,0.26014864933019954
1782217602.170134,-0.024902336299419403,-0.06591796875,0.9960936903953552,0.9985829685122479,0.09918212890625,0.244140625,-0.0476837158203125,0.2677974537298645
1782217602.178147,-0.010253902524709702,-0.06298828125,0.9794921278953552,0.9815688945258944,0.0400543212890625,-0.2460479736328125,0.0171661376953125,0.2498772303874746
1782217602.18616,-0.0019531212747097015,-0.0527343787252903,0.9907225966453552,0.992127004413231,-0.08392333984375,0.06103515625,0.0743865966796875,0.12767843605941437
1782217602.194173,-0.00927734375,-0.05908203125,0.9995116591453552,1.001299312039703,-0.02288818359375,-0.18310546875,0.0171661376953125,0.18532716454355216
1782217602.204825,-0.01318359375,-0.06689453125,0.9711913466453552,0.9735816952131654,-0.02288818359375,-0.18310546875,0.2002716064453125,0.27232370073602585
1782217602.215477,-0.00244140625,-0.05517578125,0.9877929091453552,0.9893357158512318,0.1621246337890625,-0.1811981201171875,0.0171661376953125,0.24374542436446836
1782217602.226129,-0.013671875,-0.06689453125,0.9960936903953552,0.9984309883625461,0.3452301025390625,0.1811981201171875,0.2002716064453125,0.43832099970377925
1782217602.236802,-0.009765621274709702,-0.06396484375,0.9877929091453552,0.9899099453751775,-0.1430511474609375,0.1239776611328125,0.0171661376953125,0.1900756889589718
1782217602.247477,-0.02294921875,-0.0556640625,0.9907225966453552,0.9925504611852006,0.041961669921875,0.1220703125,-0.2307891845703125,0.2644344732653249
1782217602.258152,-0.00439453125,-0.06005859375,0.9853515028953552,0.9871899163009467,0.2231597900390625,-0.0019073486328125,0.0171661376953125,0.2238271792085581
1782217602.268798,-0.0170898400247097,-0.06396484375,0.9975585341453552,0.9997532660183021,-0.0209808349609375,-0.1239776611328125,0.1392364501953125,0.1876098210611916
1782217602.279447,0.00146484375,-0.060546875,0.9902343153953552,0.9920847086947694,0.1621246337890625,0.1811981201171875,0.2002716064453125,0.31500138406589023
1782217602.290096,-0.0078124962747097015,-0.0590820275247097,0.9863280653953552,0.9881269015976728,0.16021728515625,0.1220703125,-0.0476837158203125,0.20698907316841414
1782217602.298116,-0.01416015625,-0.05908203125,0.9887694716453552,0.9906342738364574,0.1010894775390625,0.1811981201171875,0.1392364501953125,0.2498772303874746
1782217602.306136,-0.012695308774709702,-0.068359375,0.9902343153953552,0.9926722391614382,-0.02288818359375,-0.06103515625,-0.0476837158203125,0.0807644476308446
1782217602.314156,-0.0166015587747097,-0.0444335900247097,0.9956054091453552,0.9967347121454757,-0.08392333984375,-0.18310546875,-0.0476837158203125,0.20698907316841414
1782217602.322176,-0.0078125,-0.06201171875,0.9765624403953552,0.9785605185217268,-0.20599365234375,0.1220703125,-0.2307891845703125,0.33256306727355517
1782217602.332843,-0.01220703125,-0.0751953125,0.9887694716453552,0.9916997603568058,0.2231597900390625,-0.4291534423828125,-0.1659393310546875,0.511379341184383
1782217602.34351,-0.012207027524709702,-0.0522460974752903,0.9804686903953552,0.9819355982283,-0.08392333984375,0.18310546875,-0.3490447998046875,0.40299257056102306
1782217602.354177,-0.00927734375,-0.0625,0.9829100966453552,0.9849388697753974,-0.1430511474609375,0.0591278076171875,-0.0476837158203125,0.16196748185342125
1782217602.364835,-0.0068359337747097015,-0.064453125,0.9975585341453552,0.9996619250321919,-0.263214111328125,0.1220703125,-0.2880096435546875,0.4088182779384997
1782217602.375494,-0.011718746274709702,-0.0595703087747097,0.9951171278953552,0.9969674262143503,-0.02288818359375,-0.18310546875,-0.1049041748046875,0.2122648523091632
1782217602.386153,-0.01318359375,-0.04931640625,0.9921874403953552,0.9934997896063524,-0.0209808349609375,-0.3070831298828125,0.2002716064453125,0.367217865091649
1782217602.396811,-0.0180664025247097,-0.0581054650247097,1.0068359375,1.0086730119356948,-0.263214111328125,0.244140625,-0.4138946533203125,0.5479006271439986
1782217602.407469,-0.01708984375,-0.06591796875,0.9755858778953552,0.977959634398259,0.16021728515625,-0.06103515625,0.0743865966796875,0.18689096962370208
1782217602.418127,-0.0258789025247097,-0.0585937462747097,0.9765624403953552,0.9786608936139832,-0.20599365234375,0.1220703125,-0.1049041748046875,0.2614181169911868
1782217602.426121,-0.009765617549419403,-0.0517578125,0.9916991591453552,0.9930969039779105,0.0400543212890625,0.0591278076171875,-0.0476837158203125,0.08587306354133933
1782217602.434117,-0.0063476525247097015,-0.068359375,0.9941405653953552,0.9965082842643916,0.40435791015625,0.06103515625,0.2002716064453125,0.4553452823436057
1782217602.442113,-0.00927734375,-0.06103515625,0.9970702528953552,0.9989797038049998,0.0400543212890625,0.0591278076171875,0.2002716064453125,0.21262446386935047
1782217602.450109,-0.0053710900247097015,-0.0673828125,0.9848632216453552,0.9871802557679786,-0.20599365234375,-0.06103515625,-0.0476837158203125,0.2200736509871456
1782217602.458111,-0.010742180049419403,-0.06103515625,0.9853515028953552,0.9872984700630358,0.09918212890625,0.1220703125,0.2002716064453125,0.25465068669927005
1782217602.466113,-0.00439453125,-0.0615234375,0.9882811903953552,0.9902040984342491,-0.1430511474609375,-0.0629425048828125,-0.0476837158203125,0.16339867338888062
1782217602.474115,-0.0063476525247097015,-0.0625,0.9960936903953552,0.9980727341922593,-0.20599365234375,-0.244140625,-0.2880096435546875,0.43010183022373494
1782217602.482117,-0.00927734375,-0.05615234375,0.9926757216453552,0.9943059102508647,0.1621246337890625,-0.2460479736328125,0.2574920654296875,0.39131338588054626
1782217602.492784,-0.0058593712747097015,-0.0576171912252903,0.9833983778953552,0.9851022498216326,-0.0209808349609375,-0.4291534423828125,0.0743865966796875,0.43605760893517564
1782217602.503451,-0.009765617549419403,-0.0546875,0.9868163466453552,0.9883787694749707,0.225067138671875,0.30517578125,0.0171661376953125,0.3795815467786432
1782217602.514118,-0.005371086299419403,-0.06201171875,0.9863280653953552,0.9882901165229312,0.1010894775390625,0.1811981201171875,-0.1659393310546875,0.26568346353132427
1782217602.524766,-0.012207027524709702,-0.0488281212747097,0.9912108778953552,0.9924878847654955,-0.0209808349609375,0.1811981201171875,0.0743865966796875,0.19699319768775597
1782217602.535413,-0.013671875,-0.06689453125,0.9819335341453552,0.9843044569422412,-0.1430511474609375,-0.0019073486328125,0.0743865966796875,0.16124712256125526
1782217602.54606,-0.0253906212747097,-0.0620117224752903,0.9970702528953552,0.9993193816702826,-0.1430511474609375,-0.0019073486328125,-0.0476837158203125,0.15080121194184845
1782217602.556745,-0.00927734375,-0.0576171875,0.9843749403953552,0.986103358011129,0.0400543212890625,0.0591278076171875,0.1392364501953125,0.156483977935552
1782217602.567432,-0.0161132775247097,-0.0600585900247097,0.9970702528953552,0.9990073879392244,-0.38909912109375,0.1220703125,-0.0476837158203125,0.41057645327540243
1782217602.578119,-0.0078125,-0.06103515625,0.9902343153953552,0.9921443064601135,0.0400543212890625,-0.1239776611328125,0.1392364501953125,0.19068717360347462
1782217602.586103,-0.012695308774709702,-0.0634765625,0.9833983778953552,0.9855266685883836,0.3452301025390625,-0.1811981201171875,0.0171661376953125,0.39027075052648863
1782217602.59409,-0.0161132775247097,-0.0625,0.9965819716453552,0.998669872340771,-0.1430511474609375,-0.0019073486328125,0.0171661376953125,0.14409005882458514
1782217602.602077,-0.010742180049419403,-0.06103515625,0.9936522841453552,0.9955830183957327,-0.08392333984375,0.244140625,-0.1049041748046875,0.2786622644660963
1782217602.610064,-0.0053710900247097015,-0.0522460974752903,0.9804686903953552,0.9818744095631753,0.1621246337890625,-0.1239776611328125,-0.0476837158203125,0.20959149337612068
1782217602.620744,-0.0029296837747097015,-0.0693359375,0.9970702528953552,0.9994824383073628,0.1621246337890625,-0.0019073486328125,0.0743865966796875,0.17838553928396553
1782217602.631424,-0.0068359337747097015,-0.0571289099752903,0.9897460341453552,0.9914169932233337,0.0400543212890625,-0.0019073486328125,-0.0476837158203125,0.06230347813057356
1782217602.642104,-0.01220703125,-0.05078125,0.9946288466453552,0.9959991413362617,0.0400543212890625,-0.2460479736328125,0.2002716064453125,0.31976971453051456
1782217602.650129,-0.0161132775247097,-0.0571289099752903,0.9902343153953552,0.992011768808244,0.0400543212890625,-0.1239776611328125,-0.2880096435546875,0.3161081522112141
1782217602.658155,-0.011718746274709702,-0.068359375,0.9956054091453552,0.9980182683118239,0.2231597900390625,-0.0019073486328125,0.3223419189453125,0.39205642779889727
1782217602.666181,-0.00732421875,-0.06591796875,0.9868163466453552,0.989042630421414,-0.32806396484375,0.1220703125,0.0171661376953125,0.3504594163469193
1782217602.674207,-0.014160152524709702,-0.0532226525247097,0.9838866591453552,0.9854268713128831,-0.0209808349609375,-0.0019073486328125,0.2002716064453125,0.20137663658590418
1782217602.685149,-0.012207027524709702,-0.0527343787252903,0.9965819716453552,0.9980508766736669,0.09918212890625,0.3662109375,0.0171661376953125,0.37979234026291175
1782217602.696091,-0.0175781212747097,-0.0541992150247097,0.9902343153953552,0.991872242097414,0.1010894775390625,-0.0019073486328125,0.1392364501953125,0.17207413957628687
1782217602.707033,-0.0068359337747097015,-0.0600585900247097,0.9965819716453552,0.9984134366257658,0.16021728515625,-0.06103515625,-0.1049041748046875,0.20099690209740415
1782217602.717685,-0.0273437462747097,-0.0483398400247097,0.9936522841453552,0.9952031362396483,0.09918212890625,-0.06103515625,-0.1049041748046875,0.15673950007668883
1782217602.728338,-0.0058593712747097015,-0.0546874962747097,0.9892577528953552,0.9907855247954014,-0.1430511474609375,0.1239776611328125,0.0743865966796875,0.20338991375050994
1782217602.738991,-0.0161132775247097,-0.0566406287252903,0.9887694716453552,0.990521512433132,0.0400543212890625,0.0591278076171875,-0.1049041748046875,0.1269067853938276
1782217602.747075,-0.00830078125,-0.05615234375,0.9877929091453552,0.9894224679255179,0.0400543212890625,-0.2460479736328125,0.1392364501953125,0.2855358874918044
1782217602.755161,-0.0087890625,-0.06494140625,0.9931640028953552,0.995323751606723,0.16021728515625,0.1220703125,0.0171661376953125,0.2021519624937171
1782217602.763247,-0.0078124962747097015,-0.0537109337747097,0.9809569716453552,0.9824573678916657,0.0400543212890625,-0.0019073486328125,0.1392364501953125,0.14489574077841721
1782217602.771333,-0.0161132775247097,-0.0571289099752903,0.9838866591453552,0.9856755592545458,0.0400543212890625,-0.0019073486328125,0.0171661376953125,0.04361952448283871
1782217602.781592,-0.0170898400247097,-0.0541992150247097,0.9892577528953552,0.9908887521840848,0.1010894775390625,-0.0019073486328125,-0.0476837158203125,0.11178755387949069
1782217602.791851,-0.013183590024709702,-0.0541992150247097,0.9887694716453552,0.9903415723946305,0.1621246337890625,-0.1811981201171875,0.2002716064453125,0.31500138406589023
1782217602.80211,-0.00390625,-0.0654296875,1.0029296875,1.005069281624037,-0.1430511474609375,0.1239776611328125,-0.1659393310546875,0.25173389291219916
1782217602.812817,-0.0205078087747097,-0.0532226525247097,0.9838866591453552,0.985538522335233,-0.2040863037109375,0.1811981201171875,0.1392364501953125,0.3063833663229573
1782217602.823523,-0.0063476525247097015,-0.0595703087747097,0.9858397841453552,0.9876583388924782,-0.20599365234375,0.06103515625,0.0171661376953125,0.2155303955078125
1782217602.834229,0.00048828125,-0.0595703125,0.9760741591453552,0.97789039503476,0.041961669921875,-0.06103515625,0.2002716064453125,0.21352936189030405
1782217602.844847,-0.00390625,-0.0625,0.9999999403953552,1.0019587763874203,0.041961669921875,-0.06103515625,-0.1049041748046875,0.12841712476358724
1782217602.855468,-0.0161132775247097,-0.06396484375,0.9951171278953552,0.9973009762249564,0.1621246337890625,0.0591278076171875,0.0171661376953125,0.17342194439639752
1782217602.866089,-0.010253898799419403,-0.056640625,0.9877929091453552,0.9894686120331576,-0.02288818359375,0.1220703125,0.0171661376953125,0.12537825339923703
1782217602.874258,-0.0126953125,-0.06494140625,0.9916991591453552,0.9939043110153033,-0.0209808349609375,0.1811981201171875,0.2002716064453125,0.27089051389416896
1782217602.882427,-0.0249023400247097,-0.0541992150247097,0.9995116591453552,1.0012897873320699,0.1621246337890625,-0.0019073486328125,-0.0476837158203125,0.16900228286764957
1782217602.890596,-0.0205078087747097,-0.0429687537252903,0.9799804091453552,0.981136324027473,-0.1430511474609375,-0.1811981201171875,-0.0476837158203125,0.2357331675397544
1782217602.898765,-0.010742183774709702,-0.06298828125,0.9926757216453552,0.9947301173842107,-0.02288818359375,-0.06103515625,-0.0476837158203125,0.0807644476308446
1782217602.909383,-0.0068359337747097015,-0.0571289099752903,0.9741210341453552,0.9758187493125725,0.2231597900390625,-0.1239776611328125,-0.0476837158203125,0.2597007683944606
1782217602.920001,-0.015136715024709702,-0.0541992150247097,0.9868163466453552,0.9884195349432952,-0.08392333984375,-0.06103515625,0.0743865966796875,0.12767843605941437
1782217602.930619,-0.009765617549419403,-0.06494140625,0.9931640028953552,0.9953328539634237,0.2231597900390625,-0.1239776611328125,0.0171661376953125,0.2558621281737791
1782217602.941148,-0.010742183774709702,-0.0673828125,0.9741210341453552,0.9765078735458697,0.0400543212890625,-0.1811981201171875,-0.1659393310546875,0.24894370644546795
1782217602.951675,-0.012207027524709702,-0.0620117224752903,0.9858397841453552,0.9878636268479076,-0.20599365234375,-0.06103515625,0.1392364501953125,0.2560184840345935
1782217602.962202,-0.011230465024709702,-0.06396484375,0.9809569716453552,0.9831043712649534,0.0400543212890625,0.2422332763671875,0.0171661376953125,0.24612189077139016
1782217602.970193,-0.005371086299419403,-0.060546875,0.9853515028953552,0.9872245726775831,0.0400543212890625,0.1811981201171875,-0.0476837158203125,0.19160074149742343
1782217602.978187,-0.0205078087747097,-0.0634765625,0.9882811903953552,0.9905299366989454,0.16021728515625,-0.3662109375,0.0171661376953125,0.4000933709658815
1782217602.986181,-0.0068359337747097015,-0.0517578162252903,0.9848632216453552,0.9862459971430309,0.09918212890625,-0.06103515625,-0.0476837158203125,0.1258416534668479
1782217602.994175,-0.0019531212747097015,-0.064453125,0.9853515028953552,0.9874591658712347,-0.08392333984375,0.1220703125,0.0171661376953125,0.1491273430587149
1782217603.004813,-0.01416015625,-0.05859375,0.9707030653953552,0.9725729683329812,0.09918212890625,0.1220703125,0.2574920654296875,0.30172905005562545
1782217603.015451,-0.010253902524709702,-0.0693359375,0.9912108778953552,0.9936858755180487,-0.2040863037109375,0.1811981201171875,0.0171661376953125,0.27345686018048654
1782217603.026089,-0.011718746274709702,-0.07177734375,0.9858397841453552,0.9885187889432437,0.0400543212890625,0.0591278076171875,-0.1659393310546875,0.18065521824298283
1782217603.036765,-0.005371086299419403,-0.05029296875,0.9877929091453552,0.9890869843606114,0.09918212890625,-0.06103515625,0.3223419189453125,0.34273415018376024
1782217603.04744,-0.0258789025247097,-0.0551757775247097,0.9731444716453552,0.9750508944230846,0.2231597900390625,0.0591278076171875,0.0171661376953125,0.23149744233418224
1782217603.058115,-0.00244140625,-0.06005859375,1.0009765625,1.0027796736182986,0.0400543212890625,0.1811981201171875,-0.1659393310546875,0.24894370644546795
1782217603.066124,-0.0195312462747097,-0.0581054650247097,0.9824218153953552,0.9843324326727666,-0.0209808349609375,-0.1239776611328125,0.1392364501953125,0.1876098210611916
1782217603.074131,-0.009765617549419403,-0.06494140625,0.9907225966453552,0.9928967806552523,-0.08392333984375,-0.06103515625,-0.0476837158203125,0.1142022505182091
1782217603.082138,-0.0195312462747097,-0.0429687537252903,0.9833983778953552,0.9845304226000149,0.16021728515625,-0.06103515625,-0.1049041748046875,0.20099690209740415
1782217603.090145,-0.013183590024709702,-0.0581054650247097,0.9946288466453552,0.9964118599709394,-0.02288818359375,0.1220703125,-0.1049041748046875,0.16257280225647
1782217603.100809,-0.0087890625,-0.0576171875,0.9868163466453552,0.9885360336990883,0.1010894775390625,-0.0019073486328125,-0.1659393310546875,0.19431567625594412
1782217603.111473,-0.012695308774709702,-0.0527343787252903,1.00244140625,1.003907793838112,0.1621246337890625,-0.0019073486328125,0.0743865966796875,0.17838553928396553
1782217603.122137,-0.011718746274709702,-0.0600585900247097,0.9946288466453552,0.9965093606329429,0.09918212890625,-0.1220703125,0.1392364501953125,0.21005962237235262
1782217603.13283,-0.011718746274709702,-0.0600585900247097,0.9980468153953552,0.9999209013571111,0.16021728515625,-0.3662109375,-0.2307891845703125,0.46156654658033636
1782217603.143525,-0.005371086299419403,-0.07080078125,0.9887694716453552,0.9913156244362746,0.0400543212890625,-0.1811981201171875,-0.1049041748046875,0.21317127686295492
1782217603.15422,-0.0175781212747097,-0.0498046837747097,0.9916991591453552,0.99310458619576,0.1010894775390625,-0.3070831298828125,0.3833770751953125,0.5014948782520687
1782217603.164845,-0.0234375,-0.0576171875,0.9833983778953552,0.9853636010878807,0.1621246337890625,0.1811981201171875,0.0743865966796875,0.2542646679757666
1782217603.175469,-0.014648433774709702,-0.0541992150247097,0.9848632216453552,0.9864622125915492,0.1621246337890625,-0.1239776611328125,0.0171661376953125,0.20481585296205598
1782217603.186093,-0.0087890625,-0.052734375,0.9833983778953552,0.9848505122979251,-0.02288818359375,-0.06103515625,0.1392364501953125,0.1537398722182208
1782217603.194108,-0.0126953125,-0.06201171875,0.9999999403953552,1.0020012500054656,0.09918212890625,0.244140625,-0.1049041748046875,0.28363114314408255
1782217603.202124,-0.00830078125,-0.06982421875,0.9946288466453552,0.9971112611301097,0.225067138671875,-0.06103515625,-0.1659393310546875,0.28621035760308206
1782217603.21014,-0.0053710900247097015,-0.0590820275247097,0.9814452528953552,0.9832366546337213,0.0400543212890625,0.1811981201171875,-0.1049041748046875,0.21317127686295492
1782217603.218156,-0.00830078125,-0.0498046875,0.9873046278953552,0.9885948806917416,-0.1430511474609375,-0.0019073486328125,0.0743865966796875,0.16124712256125526
1782217603.228803,-0.0078125,-0.06640625,0.9926757216453552,0.9949250793599683,-0.20599365234375,-0.244140625,0.0743865966796875,0.3279807850269507
1782217603.23945,-0.013671871274709702,-0.0532226525247097,0.9843749403953552,0.9859074977320527,-0.2040863037109375,-0.0019073486328125,0.0743865966796875,0.21722850436069988
1782217603.250097,-0.00830078125,-0.06689453125,0.9936522841453552,0.9959360637449571,-0.0209808349609375,-0.1239776611328125,-0.3490447998046875,0.3710025985977928
1782217603.258109,-0.0166015587747097,-0.06982421875,0.9882811903953552,0.9908838199138476,-0.2040863037109375,-0.1239776611328125,-0.2307891845703125,0.33209234790489417
1782217603.266121,-0.0058593712747097015,-0.0732421875,0.9824218153953552,0.9851656579612514,-0.2040863037109375,0.3643035888671875,-0.0476837158203125,0.42028806904114957
1782217603.274133,0.0,-0.06201171875,0.9809569716453552,0.9829150693126825,-0.08392333984375,0.1220703125,0.0743865966796875,0.16576384988882137
1782217603.282145,-0.014648430049419403,-0.0517578125,0.9946288466453552,0.9960823210140652,-0.3261566162109375,-0.1811981201171875,0.2002716064453125,0.42346146622846054
1782217603.292807,-0.014648430049419403,-0.06689453125,0.9887694716453552,0.9911379938595356,-0.0820159912109375,-0.0019073486328125,0.0743865966796875,0.1107412595138152
1782217603.303469,-0.01904296875,-0.06640625,0.9931640028953552,0.9955637404732061,0.16021728515625,0.1220703125,-0.0476837158203125,0.20698907316841414
1782217603.314131,-0.00927734375,-0.0576171875,0.9897460341453552,0.9914650883964218,0.0400543212890625,-0.1239776611328125,0.0743865966796875,0.15002724712356896
1782217603.324775,-0.020019523799419403,-0.05517578125,0.9877929091453552,0.9895352341011144,0.0400543212890625,-0.1811981201171875,0.0743865966796875,0.19992616925634485
1782217603.335421,-0.010742183774709702,-0.07470703125,0.9921874403953552,0.995053994469006,0.0400543212890625,-0.1239776611328125,0.1392364501953125,0.19068717360347462
1782217603.346067,-0.01171875,-0.05126953125,0.9829100966453552,0.9843160833916811,-0.08392333984375,-0.244140625,0.2002716064453125,0.3267361138504685
1782217603.356751,-0.0058593712747097015,-0.0493164025247097,0.9794921278953552,0.9807503598769082,0.1621246337890625,-0.0019073486328125,0.1392364501953125,0.21371669079189032
1782217603.367435,-0.00732421875,-0.0703125,0.9858397841453552,0.9883711710892363,0.041961669921875,0.1220703125,-0.1049041748046875,0.1663334867906414
1782217603.378119,-0.0078124962747097015,-0.06396484375,0.9794921278953552,0.981609578673199,-0.2651214599609375,0.0591278076171875,0.2002716064453125,0.3374821514000707
1782217603.386116,0.004394538700580597,-0.05615234375,0.9833983778953552,0.9850100341246402,0.225067138671875,-0.06103515625,0.1392364501953125,0.27160135542997327
1782217603.394113,-0.00927734375,-0.06689453125,0.9819335341453552,0.9842532260030445,-0.0209808349609375,0.0591278076171875,0.0171661376953125,0.06504590188972448
1782217603.40211,-0.013671871274709702,-0.06787109375,0.9916991591453552,0.9941129853696601,0.0400543212890625,-0.1811981201171875,-0.0476837158203125,0.19160074149742343
1782217603.410107,-0.014648433774709702,-0.07275390625,0.9956054091453552,0.9983675867165239,0.0400543212890625,-0.1239776611328125,0.1392364501953125,0.19068717360347462
1782217603.420988,-0.0166015625,-0.06591796875,0.9873046278953552,0.989641964927293,0.225067138671875,-0.244140625,0.5054473876953125,0.6047618733132498
1782217603.431869,-0.010742183774709702,-0.0590820275247097,0.9809569716453552,0.9827932950057741,-0.20599365234375,-0.06103515625,0.2002716064453125,0.293713110794472
1782217603.44275,-0.004882805049419403,-0.0546875,0.9877929091453552,0.989317641508148,-0.08392333984375,-0.1220703125,-0.1049041748046875,0.18151907353176316
1782217603.450603,-0.013671875,-0.052734375,0.9980468153953552,0.9995325308330222,-0.20599365234375,0.06103515625,-0.0476837158203125,0.2200736509871456
1782217603.458455,-0.020996086299419403,-0.05615234375,0.9868163466453552,0.9886356373077984,-0.08392333984375,0.1220703125,-0.0476837158203125,0.15562141536051372
1782217603.466307,-0.00439453125,-0.0537109375,0.9970702528953552,0.9985255459530537,0.0400543212890625,-0.1239776611328125,0.0743865966796875,0.15002724712356896
1782217603.474159,-0.0166015625,-0.06103515625,0.9873046278953552,0.9893287271880309,-0.08392333984375,-0.1220703125,0.2574920654296875,0.29706304368538283
1782217603.484827,-0.0053710900247097015,-0.0576171912252903,0.9907225966453552,0.9924111309515127,-0.263214111328125,-0.06103515625,-0.1049041748046875,0.28984796806631047
1782217603.495495,-0.0087890625,-0.06640625,0.9819335341453552,0.984215679177018,-0.263214111328125,-0.06103515625,-0.1659393310546875,0.3170848786864389
1782217603.506163,-0.0332031212747097,-0.0585937462747097,0.9833983778953552,0.9857018027842417,-0.08392333984375,0.06103515625,0.0743865966796875,0.12767843605941437
1782217603.516935,-0.015136711299419403,-0.060546875,0.9882811903953552,0.9902498449333319,-0.20599365234375,0.06103515625,-0.2307891845703125,0.31531305526255876
1782217603.527708,-0.015624996274709702,-0.0673828125,0.9936522841453552,0.9960569490326728,-0.02288818359375,0.1220703125,-0.2307891845703125,0.2620852492161637
1782217603.538481,-0.0078124962747097015,-0.0537109337747097,0.9853515028953552,0.9868452177333226,-0.08392333984375,-0.1220703125,0.0743865966796875,0.16576384988882137
1782217603.546516,-0.009765617549419403,-0.05029296875,0.9892577528953552,0.990583490502127,-0.08392333984375,-0.1220703125,0.0171661376953125,0.1491273430587149
1782217603.554549,-0.013183590024709702,-0.0532226525247097,0.9897460341453552,0.9912636732444926,0.09918212890625,0.244140625,-0.0476837158203125,0.2677974537298645
1782217603.562582,-0.0087890625,-0.0517578125,1.001953125,1.0033275554232923,0.16021728515625,0.1220703125,0.1392364501953125,0.24486226479324763
1782217603.570615,-0.0209960900247097,-0.0634765625,0.9863280653953552,0.988591504297749,0.28228759765625,-0.18310546875,0.0743865966796875,0.3445972522268287
1782217603.581944,0.005859375,-0.05859375,0.9887694716453552,0.9905213919306781,0.09918212890625,0.244140625,-0.1659393310546875,0.3114122686418179
1782217603.593273,-0.011718746274709702,-0.072265625,0.9887694716453552,0.9914760297802093,-0.08392333984375,-0.1220703125,0.2574920654296875,0.29706304368538283
1782217603.604602,-0.012695308774709702,-0.0625,0.9921874403953552,0.9942350515563066,-0.08392333984375,0.1220703125,-0.1659393310546875,0.22244134003205068
1782217603.61241,-0.011230465024709702,-0.06640625,0.9970702528953552,0.9993422850017613,-0.08392333984375,0.1220703125,-0.2307891845703125,0.27424065322086544
1782217603.620219,-0.008789058774709702,-0.0532226525247097,0.9868163466453552,0.9882896338130828,0.1621246337890625,-0.1239776611328125,0.2002716064453125,0.2859433050263395
1782217603.628028,-0.014160152524709702,-0.06298828125,0.9907225966453552,0.9928239002955496,-0.0820159912109375,-0.0019073486328125,0.1392364501953125,0.1616077035791036
1782217603.635837,-0.010253898799419403,-0.0654296875,0.9882811903953552,0.9904978029941292,0.16021728515625,-0.06103515625,0.0743865966796875,0.18689096962370208
1782217603.646029,-0.00927734375,-0.052734375,0.9936522841453552,0.9950938876312014,-0.1430511474609375,0.1239776611328125,0.1392364501953125,0.2349912345447062
1782217603.656221,-0.00732421875,-0.0556640625,0.9873046278953552,0.9888996715025683,0.0400543212890625,0.3643035888671875,-0.1049041748046875,0.38121691909842176
1782217603.666413,-0.0166015587747097,-0.0595703087747097,0.9829100966453552,0.984853538110437,-0.1430511474609375,-0.0629425048828125,-0.1049041748046875,0.18822931653243125
1782217603.677185,-0.011230465024709702,-0.0483398400247097,0.9912108778953552,0.9924524512219044,-0.0209808349609375,0.0591278076171875,-0.0476837158203125,0.07880374244733275
1782217603.687956,0.00146484375,-0.05712890625,0.9946288466453552,0.9962692408559057,0.2231597900390625,-0.1239776611328125,0.3833770751953125,0.46059606396011815
1782217603.698727,-0.015136711299419403,-0.06201171875,0.9829100966453552,0.9849806248747599,-0.02288818359375,0.1220703125,0.0743865966796875,0.14477014853779546
1782217603.70676,-0.014648430049419403,-0.0595703125,0.9916991591453552,0.9935946964853752,0.16021728515625,-0.06103515625,0.2574920654296875,0.3093493696786006
1782217603.714795,-0.0185546837747097,-0.06787109375,0.9956054091453552,0.9980886195004384,-0.20599365234375,0.06103515625,0.0743865966796875,0.2273588372374519
1782217603.72283,-0.01220703125,-0.06103515625,0.9863280653953552,0.9882901165634231,-0.1430511474609375,-0.1239776611328125,0.0743865966796875,0.20338991375050994
1782217603.730865,-0.0224609375,-0.06005859375,0.9838866591453552,0.9859738771594382,-0.1430511474609375,-0.0019073486328125,-0.1049041748046875,0.17740393079114794
1782217603.742677,-0.0234374962747097,-0.0581054650247097,0.9868163466453552,0.9888033491568738,0.0400543212890625,-0.0019073486328125,-0.1049041748046875,0.11230704574596809
1782217603.754492,-0.0078124962747097015,-0.0625,0.9887694716453552,0.9907736134737729,-0.20599365234375,-0.06103515625,0.1392364501953125,0.2560184840345935
1782217603.766307,-0.024902336299419403,-0.056640625,0.9892577528953552,0.9911907931458643,0.09918212890625,0.06103515625,0.1392364501953125,0.18151907353176316
1782217603.778122,-0.013671875,-0.0595703125,0.9902343153953552,0.9921187135035158,-0.20599365234375,0.06103515625,0.0171661376953125,0.2155303955078125
1782217603.788784,-0.01904296875,-0.06884765625,0.9853515028953552,0.9879373556496722,0.2231597900390625,-0.1239776611328125,-0.2880096435546875,0.3848640112179094
1782217603.799448,-0.0190429650247097,-0.06787109375,0.9956054091453552,0.9980978161499221,-0.32806396484375,0.1220703125,-0.0476837158203125,0.35327165606269806
1782217603.810112,-0.012207027524709702,-0.0576171912252903,0.9887694716453552,0.9905219938514821,-0.263214111328125,-0.18310546875,0.1392364501953125,0.3495655448573322
1782217603.818097,-0.0166015587747097,-0.0581054650247097,0.9946288466453552,0.9964629443178293,0.041961669921875,0.1220703125,0.1392364501953125,0.1898650362743804
1782217603.82608,-0.009765621274709702,-0.0673828125,0.9912108778953552,0.9935465843317927,0.28228759765625,-0.06103515625,0.0743865966796875,0.29823638921933265
1782217603.834063,-0.0180664025247097,-0.0581054650247097,0.9848632216453552,0.9867412048331572,0.041961669921875,-0.06103515625,-0.1049041748046875,0.12841712476358724
1782217603.842046,-0.0024414025247097015,-0.0595703087747097,0.9892577528953552,0.9910527149437458,0.041961669921875,-0.06103515625,0.0743865966796875,0.10497351002362834
1782217603.852762,0.0,-0.06103515625,0.9892577528953552,0.991138835866111,-0.02288818359375,-0.244140625,-0.0476837158203125,0.2498044244565019
1782217603.863478,-0.01220703125,-0.07666015625,0.9843749403953552,0.9874309162906396,-0.20599365234375,-0.06103515625,-0.2307891845703125,0.31531305526255876
1782217603.874194,-0.013671875,-0.076171875,0.9799804091453552,0.9830313713283666,-0.02288818359375,-0.06103515625,-0.1049041748046875,0.12350726755189571
1782217603.884825,-0.0161132775247097,-0.0478515662252903,0.9970702528953552,0.9983478849136754,0.28228759765625,-0.06103515625,0.2002716064453125,0.35145454106781
1782217603.895458,-0.0219726525247097,-0.0576171912252903,0.9990233778953552,1.0009246963508838,0.0400543212890625,-0.2460479736328125,0.0171661376953125,0.2498772303874746
1782217603.906091,-0.0224609337747097,-0.0581054650247097,1.00341796875,1.0053498687631812,-0.02288818359375,-0.18310546875,-0.0476837158203125,0.19059175844933787
1782217603.914097,-0.010253898799419403,-0.06494140625,0.9833983778953552,0.9855936781115898,0.0400543212890625,-0.0019073486328125,0.0743865966796875,0.08450652281523026
1782217603.922104,-0.0063476525247097015,-0.07275390625,0.9833983778953552,0.986106380272648,0.09918212890625,-0.1220703125,-0.0476837158203125,0.164353255649701
1782217603.930111,-0.0170898400247097,-0.06298828125,0.9877929091453552,0.9899466741015616,0.0400543212890625,-0.1811981201171875,0.0171661376953125,0.18636465241913389
1782217603.938118,-0.010253898799419403,-0.06201171875,0.9936522841453552,0.9956382161659925,-0.1430511474609375,-0.0019073486328125,-0.1049041748046875,0.17740393079114794
1782217603.948806,-0.00927734375,-0.05517578125,0.9921874403953552,0.9937637308847058,0.0400543212890625,-0.1239776611328125,0.0171661376953125,0.13141341406897686
1782217603.959494,-0.0175781212747097,-0.06884765625,0.9897460341453552,0.9922934053117178,-0.1430511474609375,-0.1811981201171875,0.0743865966796875,0.2425484596724541
1782217603.970182,-0.014648430049419403,-0.0517578125,0.9999999403953552,1.0014456193166017,0.225067138671875,0.1220703125,0.2002716064453125,0.32506167791971236
1782217603.978352,-0.0166015625,-0.05615234375,0.9877929091453552,0.989526921788338,0.2231597900390625,0.0591278076171875,-0.1049041748046875,0.2535769615232149
1782217603.986525,-0.00830078125,-0.07080078125,1.0009765625,1.0035117001157918,-0.02288818359375,-0.06103515625,-0.2880096435546875,0.29529428376990513
1782217603.994698,-0.0166015587747097,-0.0532226525247097,0.9877929091453552,0.9893649952638107,0.041961669921875,-0.05340576171875,0.0171661376953125,0.07005450314410003
1782217604.002871,-0.010742180049419403,-0.06640625,0.9863280653953552,0.9886193590345178,0.0400543212890625,-0.3566741943359375,0.1430511474609375,0.3863734726259147
1782217604.013326,-0.0175781212747097,-0.0478515662252903,0.9926757216453552,0.9939838283804664,-0.02288818359375,-0.05340576171875,-0.2841949462890625,0.2900738041072034
1782217604.023781,-0.0063476525247097015,-0.06494140625,0.9951171278953552,0.9972541186523136,-0.1430511474609375,-0.1163482666015625,0.0820159912109375,0.20180974393074216
1782217604.034236,-0.015624996274709702,-0.0551757775247097,0.9804686903953552,0.982144266276408,-0.08392333984375,0.00762939453125,0.0171661376953125,0.08600006345821759
1782217604.042204,-0.0185546875,-0.06005859375,0.9853515028953552,0.9873544932644939,-0.08392333984375,0.00762939453125,-0.1010894775390625,0.1316070556640625
1782217604.050174,-0.0161132775247097,-0.0654296875,0.9946288466453552,0.996908834496919,0.0400543212890625,0.1316070556640625,0.0820159912109375,0.16016050876793464
1782217604.058144,-0.015624996274709702,-0.0488281212747097,0.9848632216453552,0.9861966798187218,0.0400543212890625,-0.1773834228515625,0.0820159912109375,0.19948897255431502
1782217604.066114,-0.0219726525247097,-0.06494140625,0.9853515028953552,0.9877336523389463,0.0400543212890625,0.1888275146484375,-0.0400543212890625,0.1971408826097742
1782217604.076788,-0.011230465024709702,-0.0654296875,0.9790038466453552,0.981252107818078,-0.02288818359375,-0.05340576171875,0.1430511474609375,0.15440102047224946
1782217604.087462,-0.0195312462747097,-0.0590820275247097,0.9799804091453552,0.9819540507916711,-0.0820159912109375,-0.1773834228515625,0.0820159912109375,0.2119389636927608
1782217604.098136,-0.01806640625,-0.06640625,0.9858397841453552,0.9882389716448209,0.1621246337890625,0.1888275146484375,-0.1010894775390625,0.26862484925759217
1782217604.108804,-0.0175781212747097,-0.0634765625,0.9780272841453552,0.980242639792365,-0.141143798828125,-0.23651123046875,0.3223419189453125,0.4239851964335816
1782217604.119472,0.001953125,-0.0654296875,0.9741210341453552,0.9763179030766719,-0.1430511474609375,-0.0514984130859375,-0.0400543212890625,0.1572261619266596
1782217604.13014,-0.01904296875,-0.0458984375,0.9814452528953552,0.9827024400369537,0.1621246337890625,0.1316070556640625,-0.1010894775390625,0.23199977683377607
1782217604.140804,-0.0219726525247097,-0.07275390625,0.9882811903953552,0.991199091819028,-0.0209808349609375,-0.2994537353515625,-0.1010894775390625,0.31675198108422675
1782217604.151468,-0.01318359375,-0.046875,0.9863280653953552,0.9875293035427907,0.09918212890625,-0.05340576171875,0.0171661376953125,0.11394712090487553
1782217604.162132,-0.011230465024709702,-0.0488281212747097,0.9868163466453552,0.9880874509770756,0.09918212890625,-0.11444091796875,0.1430511474609375,0.2083205443296389
1782217604.170154,-0.010742183774709702,-0.0576171912252903,0.9980468153953552,0.9997662631624211,0.0400543212890625,-0.1773834228515625,0.0820159912109375,0.19948897255431502
1782217604.178176,-0.010742180049419403,-0.06103515625,0.9912108778953552,0.993146358392738,0.09918212890625,-0.11444091796875,0.1430511474609375,0.2083205443296389
1782217604.186198,-0.0180664025247097,-0.06396484375,0.9809569716453552,0.9832062226998836,-0.0209808349609375,0.0057220458984375,-0.1659393310546875,0.16735829479233796
1782217604.19422,-0.0029296837747097015,-0.0585937462747097,0.9897460341453552,0.9914832435578442,0.1621246337890625,0.0667572021484375,-0.2841949462890625,0.33392766943781116
1782217604.204854,-0.010253902524709702,-0.0541992150247097,0.9794921278953552,0.9810440999441625,-0.08392333984375,0.06866455078125,-0.2231597900390625,0.24810932951986886
1782217604.215488,-0.011230465024709702,-0.07568359375,0.9951171278953552,0.9980542209410704,-0.08392333984375,0.12969970703125,-0.0400543212890625,0.1595916339550701
1782217604.226122,-0.0073242150247097015,-0.0693359375,0.9829100966453552,0.9853798122765219,-0.08392333984375,0.06866455078125,0.0820159912109375,0.13595797261960402
1782217604.23685,-0.020507805049419403,-0.0703125,0.9814452528953552,0.9841743758882481,-0.2651214599609375,0.3719329833984375,-0.1010894775390625,0.4678061726191757
1782217604.24758,-0.017578125,-0.06201171875,0.9907225966453552,0.9928170562820524,-0.1430511474609375,-0.1773834228515625,-0.0400543212890625,0.2313716882990539
1782217604.25831,-0.00830078125,-0.05224609375,0.9926757216453552,0.9940843252086922,0.0400543212890625,0.0057220458984375,-0.1010894775390625,0.1088860548110358
1782217604.26626,-0.004882805049419403,-0.07470703125,0.9868163466453552,0.989652203710892,0.1621246337890625,0.1316070556640625,0.0171661376953125,0.2095220519782481
1782217604.27421,-0.0126953125,-0.06005859375,0.9838866591453552,0.9857997584128881,0.09918212890625,-0.11444091796875,-0.2231597900390625,0.2696926218682755
1782217604.28216,-0.015136715024709702,-0.06396484375,0.9887694716453552,0.9909519107583052,-0.38909912109375,0.19073486328125,0.0820159912109375,0.4410266850442935
1782217604.29011,-0.0126953125,-0.06103515625,0.9921874403953552,0.9941440429516344,0.1621246337890625,0.1316070556640625,-0.2231597900390625,0.30562248914646273
1782217604.300818,-0.0078125,-0.05029296875,0.9877929091453552,0.9891032550850202,0.225067138671875,0.12969970703125,0.0171661376953125,0.2603303808573089
1782217604.311526,-0.01416015625,-0.05419921875,0.9868163466453552,0.9884050623831409,-0.20599365234375,-0.11444091796875,-0.0400543212890625,0.23902815140768535
1782217604.322234,-0.015136715024709702,-0.0541992150247097,0.9882811903953552,0.9898820062716033,0.09918212890625,0.19073486328125,-0.0400543212890625,0.2186806608258274
1782217604.330297,-0.00244140625,-0.0654296875,0.9838866591453552,0.9860628593122416,-0.0209808349609375,0.1888275146484375,-0.1010894775390625,0.2152094519139078
1782217604.33836,-0.013671875,-0.05126953125,0.9990233778953552,1.0004315041930938,0.1621246337890625,0.1888275146484375,-0.2841949462890625,0.3777657934035143
1782217604.346423,-0.0209960900247097,-0.0600585900247097,0.9838866591453552,0.9859415946577618,0.1010894775390625,0.0057220458984375,-0.1010894775390625,0.14307657651588213
1782217604.354486,-0.014648433774709702,-0.0590820275247097,0.9970702528953552,0.9989265998046554,0.09918212890625,0.12969970703125,-0.1659393310546875,0.23279813205703617
1782217604.365034,-0.02294921875,-0.06591796875,0.9902343153953552,0.9926912131332024,-0.08392333984375,0.00762939453125,0.0820159912109375,0.11759233582915003
1782217604.375582,-0.013671875,-0.056640625,0.9843749403953552,0.9860979179801392,-0.02288818359375,-0.05340576171875,0.2040863037109375,0.21219628577186295
1782217604.38613,-0.0170898400247097,-0.0541992150247097,0.9887694716453552,0.990401275039163,-0.08392333984375,0.00762939453125,0.0820159912109375,0.11759233582915003
1782217604.396797,-0.009765617549419403,-0.05615234375,0.9838866591453552,0.9855361033665626,-0.08392333984375,0.00762939453125,-0.2231597900390625,0.23854061818005226
1782217604.407464,-0.01318359375,-0.0498046875,0.9916991591453552,0.9930365231403839,-0.08392333984375,0.00762939453125,-0.0400543212890625,0.0933042511645127
1782217604.418131,-0.00732421875,-0.05078125,0.9912108778953552,0.9925378501548145,-0.0209808349609375,-0.1773834228515625,-0.5283355712890625,0.5577127845293977
1782217604.426155,-0.0161132775247097,-0.06298828125,0.9902343153953552,0.9923664447541166,-0.20599365234375,-0.11444091796875,-0.1010894775390625,0.2564160505517713
1782217604.43418,0.004394538700580597,-0.0556640625,0.9765624403953552,0.9781574514439516,-0.2651214599609375,0.1888275146484375,-0.0400543212890625,0.32794750719292304
1782217604.442205,-0.011230465024709702,-0.07275390625,0.9946288466453552,0.9973493855206281,-0.20599365234375,-0.05340576171875,0.0171661376953125,0.2134952844304812
1782217604.45023,-0.013671875,-0.06982421875,0.9833983778953552,0.9859689200665909,-0.08392333984375,0.37384033203125,0.3223419189453125,0.5007035385665966
1782217604.458194,-0.010742183774709702,-0.0483398400247097,0.9814452528953552,0.9826937056258638,-0.20599365234375,0.06866455078125,0.0171661376953125,0.21781386921700607
1782217604.466158,-0.01416015625,-0.0546875,0.9868163466453552,0.9884319575407102,0.09918212890625,0.12969970703125,0.0820159912109375,0.1827176278104569
1782217604.474122,-0.0205078087747097,-0.0590820275247097,0.9960936903953552,0.9980550567191213,0.0400543212890625,-0.2994537353515625,0.0171661376953125,0.30260793868189495
1782217604.482086,-0.01416015625,-0.0556640625,0.9858397841453552,0.9875115583540219,-0.20599365234375,-0.11444091796875,0.1430511474609375,0.27566961983747645
1782217604.49276,-0.01904296875,-0.06201171875,0.9936522841453552,0.9957675179018566,-0.263214111328125,0.06866455078125,-0.2231597900390625,0.3518476670755739
1782217604.503434,0.0009765625,-0.0703125,0.9975585341453552,1.0000339146132977,0.1621246337890625,0.0667572021484375,-0.1010894775390625,0.20238577862351295
1782217604.514108,-0.0185546875,-0.0654296875,0.9843749403953552,0.9867215127445684,0.0400543212890625,0.1316070556640625,0.0171661376953125,0.13863420226576673
1782217604.522115,-0.0068359337747097015,-0.0527343787252903,1.0009765625,1.002388010385415,-0.02288818359375,-0.23651123046875,0.0820159912109375,0.25137234116023177
1782217604.530122,-0.01318359375,-0.0654296875,0.9809569716453552,0.9832250156348439,-0.20599365234375,0.12969970703125,-0.2231597900390625,0.3302358107476963
1782217604.538129,-0.009277340024709702,-0.0581054650247097,1.00048828125,1.0022170997454847,0.1621246337890625,-0.1773834228515625,0.0171661376953125,0.24092312439271635
1782217604.546136,-0.0078125,-0.05517578125,0.9838866591453552,0.9854635254726611,-0.0209808349609375,-0.1773834228515625,0.0171661376953125,0.17944288902480574
1782217604.556818,-0.019531242549419403,-0.044921875,1.00146484375,1.0026620954021608,-0.2651214599609375,-0.1773834228515625,0.0171661376953125,0.319451003313074
1782217604.5675,-0.0068359337747097015,-0.0424804724752903,0.9902343153953552,0.9911686637090601,-0.02288818359375,0.06866455078125,0.0171661376953125,0.0743865966796875
1782217604.578182,-0.00439453125,-0.0634765625,0.9926757216453552,0.9947128601942625,0.0400543212890625,-0.1773834228515625,-0.1659393310546875,0.24618100850256674
1782217604.586171,-0.01171875,-0.06591796875,0.9873046278953552,0.9895720974084072,0.09918212890625,-0.23651123046875,-0.0400543212890625,0.25957466264284274
1782217604.594161,-0.0058593712747097015,-0.0581054650247097,1.0009765625,1.0026787401614683,0.0400543212890625,0.3108978271484375,-0.1010894775390625,0.32936437276771113
1782217604.602151,-0.0283203125,-0.06005859375,0.9843749403953552,0.9866119288056903,-0.1430511474609375,-0.0514984130859375,-0.2231597900390625,0.2700296450957546
1782217604.610141,-0.00830078125,-0.052734375,0.9951171278953552,0.99654799959997,-0.08392333984375,0.00762939453125,0.0171661376953125,0.08600006345821759
1782217604.620785,-0.01904296875,-0.05224609375,0.9960936903953552,0.9976446907674019,-0.1430511474609375,0.0667572021484375,0.1430511474609375,0.2130347051972263
1782217604.631429,-0.00927734375,-0.060546875,0.9843749403953552,0.9862788735736361,-0.02288818359375,-0.05340576171875,0.0820159912109375,0.10051202488903349
1782217604.642073,-0.0068359337747097015,-0.0590820275247097,0.9902343153953552,0.9920188583658632,-0.263214111328125,-0.05340576171875,0.0820159912109375,0.28082105797344875
1782217604.652782,-0.011718746274709702,-0.083984375,0.9892577528953552,0.9928854948693526,0.2231597900390625,0.0057220458984375,0.2040863037109375,0.30246363923938907
1782217604.663494,-0.0053710900247097015,-0.0576171912252903,0.9760741591453552,0.977787990048997,0.225067138671875,-0.05340576171875,-0.1010894775390625,0.25244103225075265
1782217604.674206,-0.0063476525247097015,-0.0673828125,0.9916991591453552,0.9940060152547313,-0.1430511474609375,0.0667572021484375,0.3223419189453125,0.35892125534429503
1782217604.682185,-0.00927734375,-0.068359375,0.9790038466453552,0.9814314061633898,0.225067138671875,-0.05340576171875,0.0171661376953125,0.2319527291886848
1782217604.690165,-0.013671875,-0.06591796875,0.9916991591453552,0.9939815496374901,-0.2040863037109375,-0.1773834228515625,-0.0400543212890625,0.2733504101311295
1782217604.698145,-0.008300777524709702,-0.06884765625,0.9838866591453552,0.9863274612028408,-0.263214111328125,0.12969970703125,0.0171661376953125,0.29393597719507064
1782217604.706125,-0.0068359337747097015,-0.0673828125,0.9912108778953552,0.9935221073881865,-0.08392333984375,0.19073486328125,0.0171661376953125,0.20908752072952874
1782217604.716899,-0.01806640625,-0.06640625,0.9965819716453552,0.9989553600048383,-0.08392333984375,-0.11444091796875,-0.1010894775390625,0.1742381506593213
1782217604.727673,-0.00048827752470970154,-0.0585937462747097,0.9887694716453552,0.9905041815031782,0.1621246337890625,0.0057220458984375,0.0820159912109375,0.1817794309178407
1782217604.738447,-0.0209960900247097,-0.0576171912252903,1.00244140625,1.004315363561414,-0.02288818359375,0.12969970703125,-0.1659393310546875,0.21185312021089153
1782217604.746505,-0.009765621274709702,-0.0581054650247097,0.9863280653953552,0.9880863651580073,-0.08392333984375,0.12969970703125,-0.3452301025390625,0.37821814429460315
1782217604.754564,-0.0170898400247097,-0.0532226525247097,0.9853515028953552,0.9869358123160652,0.1010894775390625,0.0057220458984375,0.0171661376953125,0.10269615650918429
1782217604.762623,-0.009765621274709702,-0.0527343787252903,0.9965819716453552,0.9980240018491374,-0.1430511474609375,0.0057220458984375,0.3871917724609375,0.4128121137522458
1782217604.770682,-0.01318359375,-0.06005859375,0.9897460341453552,0.9916542007846542,-0.0820159912109375,-0.1773834228515625,0.1430511474609375,0.24218821669672472
1782217604.781272,-0.016113273799419403,-0.06103515625,0.9951171278953552,0.9971173582491168,0.1621246337890625,0.0057220458984375,-0.4062652587890625,0.4374569683859721
1782217604.791862,-0.0166015587747097,-0.0541992150247097,0.9731444716453552,0.9747939932913838,0.16021728515625,-0.05340576171875,0.1430511474609375,0.22132642101089042
1782217604.802452,-0.015624996274709702,-0.06689453125,0.9931640028953552,0.9955369181837844,0.0400543212890625,-0.1163482666015625,-0.0400543212890625,0.12940485481249595
1782217604.813352,-0.017578125,-0.056640625,0.9814452528953552,0.983235442460113,-0.08392333984375,-0.05340576171875,0.4482269287109375,0.4591325320394203
1782217604.824253,-0.009765621274709702,-0.0634765625,0.9843749403953552,0.9864677717107927,0.041961669921875,-0.05340576171875,0.0820159912109375,0.1064874637772206
1782217604.835154,-0.01318359375,-0.05224609375,1.0009765625,1.002425827745183,-0.08392333984375,0.06866455078125,-0.0400543212890625,0.11559539851762207
1782217604.845782,-0.0224609375,-0.06103515625,0.9882811903953552,0.9904188484177293,-0.08392333984375,0.00762939453125,0.1430511474609375,0.16602700208500396
1782217604.856412,-0.011230465024709702,-0.06494140625,0.9809569716453552,0.9831683934148946,0.1621246337890625,-0.1163482666015625,-0.0400543212890625,0.20353295722401651
1782217604.867042,-0.0180664025247097,-0.0634765625,0.9882811903953552,0.9904823977114695,0.0400543212890625,-0.1163482666015625,0.0171661376953125,0.12424147487248426
1782217604.874872,-0.0263671837747097,-0.0576171912252903,0.9873046278953552,0.9893358364925869,-0.20599365234375,-0.35858154296875,0.0171661376953125,0.4138946533203125
1782217604.882702,-0.009765617549419403,-0.06591796875,0.9829100966453552,0.9851663839055964,-0.02288818359375,-0.05340576171875,-0.2231597900390625,0.23059994844591697
1782217604.890532,-0.020019523799419403,-0.05517578125,0.9921874403953552,0.9939220618579657,0.16021728515625,0.25177001953125,-0.2231597900390625,0.3726365697135529
1782217604.898362,-0.01708984375,-0.056640625,0.9873046278953552,0.9890756550554543,-0.1430511474609375,-0.1163482666015625,0.1430511474609375,0.2333756215224076
1782217604.908991,-0.00244140625,-0.05126953125,0.9936522841453552,0.9949770786738527,-0.08392333984375,0.19073486328125,0.0171661376953125,0.20908752072952874
1782217604.91962,-0.0087890625,-0.0361328125,0.9946288466453552,0.9953237515190013,-0.1430511474609375,0.1316070556640625,-0.1010894775390625,0.21909616692122927
1782217604.930249,-0.00341796875,-0.06005859375,0.9975585341453552,0.9993706750949987,-0.1430511474609375,0.2498626708984375,-0.0400543212890625,0.2906876910918645
1782217604.940878,-0.0058593712747097015,-0.0498046837747097,0.9877929091453552,0.9890650484753153,-0.1430511474609375,0.0667572021484375,-0.1659393310546875,0.22903278459525267
1782217604.95151,-0.0170898400247097,-0.0551757775247097,0.9931640028953552,0.994842281823934,-0.1430511474609375,0.1888275146484375,-0.0400543212890625,0.2402577984834711
1782217604.962142,-0.015624992549419403,-0.05126953125,0.9858397841453552,0.9872956929058916,0.09918212890625,-0.11444091796875,0.1430511474609375,0.2083205443296389
1782217604.972817,-0.0166015587747097,-0.0478515662252903,0.9956054091453552,0.9968929304912607,0.041961669921875,-0.05340576171875,-0.0400543212890625,0.078849893984201
1782217604.983493,-0.015136715024709702,-0.0546874962747097,0.9941405653953552,0.9957586585890841,-0.263214111328125,0.12969970703125,0.1430511474609375,0.3264464936189965
1782217604.994169,-0.00830078125,-0.05126953125,0.9877929091453552,0.9891573682492585,-0.1430511474609375,-0.1773834228515625,0.1430511474609375,0.26905787533970826
1782217605.002159,-0.013671875,-0.0595703125,0.9873046278953552,0.9891946070217675,-0.0209808349609375,-0.2994537353515625,0.2040863037109375,0.3629930500905696
1782217605.010148,-0.00439453125,-0.0576171875,0.9980468153953552,0.9997182092575526,-0.08392333984375,-0.11444091796875,-0.4062652587890625,0.4303386006100355
1782217605.018137,-0.014648430049419403,-0.037109375,0.9868163466453552,0.9876224907434465,0.1010894775390625,0.0057220458984375,-0.1659393310546875,0.19439054984556636
1782217605.026126,-0.0078124962747097015,-0.06298828125,0.9946288466453552,0.9966519458928182,0.2231597900390625,0.3108978271484375,0.0171661376953125,0.3830827940527643
1782217605.034125,-0.0234375,-0.06103515625,0.9965819716453552,0.9987243027548972,-0.1430511474609375,0.1316070556640625,-0.0400543212890625,0.19846510157804062
1782217605.042124,-0.0166015587747097,-0.0478515662252903,0.9838866591453552,0.9851894955734007,-0.02288818359375,-0.05340576171875,0.1430511474609375,0.15440102047224946
1782217605.050123,-0.0166015587747097,-0.06689453125,0.9931640028953552,0.9955527242251073,-0.1430511474609375,-0.1163482666015625,-0.0400543212890625,0.18869260341891145
1782217605.058122,-0.014160152524709702,-0.06298828125,0.9970702528953552,0.9991582070438894,0.09918212890625,-0.11444091796875,0.0820159912109375,0.17222206947490423
1782217605.068872,-0.009765617549419403,-0.06640625,0.9897460341453552,0.9920193392427602,-0.1430511474609375,0.0057220458984375,0.0820159912109375,0.1649939253835343
1782217605.079622,-0.00390625,-0.06103515625,0.9902343153953552,0.9921212367820942,-0.0209808349609375,0.0057220458984375,-0.2231597900390625,0.22421692428360618
1782217605.090372,-0.0087890625,-0.0458984375,0.9858397841453552,0.9869468041329943,-0.02288818359375,0.06866455078125,0.1430511474609375,0.1603194319853428
1782217605.098308,-0.009765617549419403,-0.06494140625,0.9843749403953552,0.9865631134449575,0.1010894775390625,0.0057220458984375,-0.1659393310546875,0.19439054984556636
1782217605.106244,-0.019531242549419403,-0.0615234375,0.9824218153953552,0.9845401089656256,-0.2040863037109375,0.0057220458984375,-0.1010894775390625,0.22782239495005197
1782217605.11418,-0.00830078125,-0.05078125,0.9726561903953552,0.9740162745228277,0.28228759765625,-0.05340576171875,-0.2841949462890625,0.40411041890990623
1782217605.122116,-0.00048827752470970154,-0.0478515662252903,0.9912108778953552,0.9923653637966388,0.09918212890625,-0.11444091796875,0.2651214599609375,0.30532475649990315
1782217605.132798,-0.02197265625,-0.05615234375,0.9975585341453552,0.9993792635318829,0.09918212890625,-0.05340576171875,-0.0400543212890625,0.11955592303630691
1782217605.14348,-0.011718746274709702,-0.0502929650247097,1.00244140625,1.0037706333170469,-0.02288818359375,-0.05340576171875,0.1430511474609375,0.15440102047224946
1782217605.154162,-0.0058593712747097015,-0.0620117224752903,0.9931640028953552,0.9951153313074884,-0.0209808349609375,0.0057220458984375,0.0171661376953125,0.027705839245479487
1782217605.162168,-0.01318359375,-0.064453125,0.9892577528953552,0.9914428446108219,0.0400543212890625,0.1888275146484375,-0.1010894775390625,0.21789736439744734
1782217605.170174,-0.0200195275247097,-0.0493164025247097,0.9946288466453552,0.9960519221503271,-0.38909912109375,-0.11444091796875,-0.1659393310546875,0.43821308895597366
1782217605.17818,-0.0063476525247097015,-0.0561523474752903,0.9970702528953552,0.9986703500296621,0.1621246337890625,0.1888275146484375,0.3871917724609375,0.46028001893519765
1782217605.186186,-0.019531242549419403,-0.052734375,0.9873046278953552,0.9889048548802613,0.2231597900390625,-0.2994537353515625,0.0171661376953125,0.3738549288021445
1782217605.196819,-0.0063476525247097015,-0.0600585900247097,0.9882811903953552,0.9901247589155575,-0.02288818359375,-0.05340576171875,-0.1010894775390625,0.11659814236128177
1782217605.207452,-0.011230465024709702,-0.0605468712747097,0.9931640028953552,0.9950712454959959,-0.0209808349609375,0.0057220458984375,0.0171661376953125,0.027705839245479487
1782217605.218085,-0.0214843712747097,-0.064453125,0.9946288466453552,0.9969465011275203,-0.08392333984375,0.06866455078125,-0.1659393310546875,0.19822666090967075
1782217605.228758,-0.0087890625,-0.05517578125,0.9897460341453552,0.9913217573334278,0.0400543212890625,0.0057220458984375,0.0820159912109375,0.09145333934583169
1782217605.23943,-0.0166015587747097,-0.0585937462747097,0.9863280653953552,0.9882064012354905,0.16021728515625,-0.05340576171875,0.2040863037109375,0.26490181805716634
1782217605.250102,-0.0209960900247097,-0.0605468712747097,0.9853515028953552,0.9874332097289503,-0.1430511474609375,-0.1773834228515625,-0.0400543212890625,0.2313716882990539
1782217605.260845,-0.00927734375,-0.0546875,0.9873046278953552,0.9888615777887679,-0.08392333984375,0.12969970703125,0.0820159912109375,0.17490501361834718
1782217605.271589,-0.02392578125,-0.0595703125,0.9877929091453552,0.9898767077255705,-0.1430511474609375,-0.0514984130859375,0.2040863037109375,0.2544934904917094
1782217605.282333,-0.0126953125,-0.0517578125,0.9995116591453552,1.0009313657198273,-0.02288818359375,0.12969970703125,-0.0400543212890625,0.13765984020817668
1782217605.290279,-0.009765617549419403,-0.0595703125,0.9941405653953552,0.9959716126386664,0.1621246337890625,0.0667572021484375,0.1430511474609375,0.22628422770890563
1782217605.298228,-0.01806640625,-0.05712890625,0.9936522841453552,0.995457165703976,0.225067138671875,-0.05340576171875,0.1430511474609375,0.2719761443299684
1782217605.306177,-0.010253898799419403,-0.06005859375,0.9931640028953552,0.9950311119613001,0.16021728515625,-0.05340576171875,-0.1010894775390625,0.19682691969524813
1782217605.314126,-0.0185546875,-0.0712890625,0.9877929091453552,0.9905358338890096,-0.0209808349609375,0.1888275146484375,-0.0400543212890625,0.1941658424592014
1782217605.322132,-0.009277340024709702,-0.06787109375,0.9902343153953552,0.9926009035817281,-0.0209808349609375,0.0057220458984375,-0.1010894775390625,0.1034022229647049
1782217605.330138,-0.011718746274709702,-0.0517578162252903,0.9868163466453552,0.9882422286874548,-0.08392333984375,0.25177001953125,0.1430511474609375,0.3014878115201118
1782217605.338144,-0.008789058774709702,-0.0673828125,0.9921874403953552,0.994511743446422,-0.1430511474609375,0.0057220458984375,0.2040863037109375,0.24929418758075314
1782217605.34615,-0.0224609375,-0.056640625,0.9931640028953552,0.9950313516472206,-0.0209808349609375,-0.2994537353515625,-0.2231597900390625,0.3740494979838099
1782217605.354156,-0.01904296875,-0.044921875,0.9936522841453552,0.9948494716788118,0.0400543212890625,-0.1773834228515625,0.3223419189453125,0.3700993651248406
1782217605.362162,-0.02392578125,-0.068359375,0.9868163466453552,0.9894705398167746,0.1621246337890625,0.0667572021484375,0.0820159912109375,0.19356534745206216
1782217605.371771,-0.0068359375,-0.06103515625,0.9965819716453552,0.9984726568857604,0.09918212890625,-0.11444091796875,-0.1010894775390625,0.18207938068058882
1782217605.38138,-0.008789058774709702,-0.0532226525247097,0.9995116591453552,1.0009662607018341,-0.1430511474609375,0.1888275146484375,-0.1010894775390625,0.25756269828396616
1782217605.390989,-0.0249023400247097,-0.0581054650247097,0.9912108778953552,0.9932247359296509,-0.08392333984375,0.19073486328125,-0.1010894775390625,0.23160742110426277
1782217605.400598,-0.0244140587747097,-0.0585937462747097,0.9892577528953552,0.9912921744026469,-0.08392333984375,0.19073486328125,-0.2231597900390625,0.30532475649990315
1782217605.410207,-0.011230465024709702,-0.0605468712747097,0.9843749403953552,0.9862991788723068,-0.08392333984375,0.00762939453125,-0.1659393310546875,0.1861107095852364
1782217605.41982,-0.015136715024709702,-0.0581054650247097,0.9809569716453552,0.982792931103548,-0.2651214599609375,0.0057220458984375,0.0171661376953125,0.26573822951253595
1782217605.429433,-0.011230465024709702,-0.06787109375,0.9912108778953552,0.9935952964711403,-0.2651214599609375,0.0057220458984375,0.2040863037109375,0.3346241917487076
1782217605.439046,-0.0073242150247097015,-0.0620117224752903,0.9990233778953552,1.0009729304189632,0.1621246337890625,0.3108978271484375,-0.1659393310546875,0.38791457487149733
1782217605.448659,-0.00390625,-0.05615234375,0.9741210341453552,0.9757459370461642,-0.08392333984375,-0.05340576171875,0.3223419189453125,0.3373419853274061
1782217605.458272,-0.0161132775247097,-0.06787109375,0.9711913466453552,0.9736933577252277,-0.0209808349609375,-0.1163482666015625,-0.2841949462890625,0.30780494159952904
1782217605.467859,-0.0024414025247097015,-0.0625,0.9829100966453552,0.9848982021171879,0.041961669921875,0.25177001953125,-0.1659393310546875,0.30444176137362555
1782217605.477445,-0.0180664025247097,-0.0493164025247097,0.9931640028953552,0.9945517779911155,0.1621246337890625,0.0057220458984375,0.2651214599609375,0.3108159056778151
1782217605.487031,-0.0219726525247097,-0.0620117224752903,0.9804686903953552,0.9826734473002244,-0.02288818359375,-0.05340576171875,0.0820159912109375,0.10051202488903349
1782217605.496617,-0.0185546837747097,-0.0634765625,0.9916991591453552,0.9939017921939776,-0.08392333984375,0.12969970703125,0.0820159912109375,0.17490501361834718
1782217605.506203,0.0,-0.064453125,0.9912108778953552,0.9933041879406058,-0.08392333984375,0.06866455078125,0.0171661376953125,0.10978444237638976
1782217605.515802,-0.0126953125,-0.0498046875,0.9838866591453552,0.9852282151362971,-0.1430511474609375,-0.1163482666015625,0.0171661376953125,0.18518970331650078
