timestamp,accel_x,accel_y,accel_z,accel_rms,gyro_x,gyro_y,gyro_z,gyro_rms
1781021822.024989,-0.07177734375,-0.2260742038488388,0.9624022841453552,0.9912011346088588,0.06103515625,-0.110626220703125,0.1697540283203125,0.2116125732003935
1781021822.035666,-0.0786132737994194,-0.2421875,0.9599608778953552,0.993156442391295,-0.1811981201171875,-0.1087188720703125,-0.0133514404296875,0.21173288086594197
1781021822.046343,-0.08154296875,-0.22900390625,0.9560546278953552,0.9864747824199301,-0.1201629638671875,-0.2307891845703125,0.1697540283203125,0.31067541861394543
1781021822.056981,-0.08154296875,-0.2412109225988388,0.9555663466453552,0.988907987516886,0.0,-0.1678466796875,-0.0743865966796875,0.18359159470875763
1781021822.067619,-0.076171875,-0.228515625,0.9516600966453552,0.9816712713312961,-0.1811981201171875,-0.1087188720703125,0.1087188720703125,0.23763910667750934
1781021822.078257,-0.0795898362994194,-0.2373046875,0.9497069716453552,0.9821361355450845,0.18310546875,0.194549560546875,-0.2574920654296875,0.37105162437912315
1781021822.086268,-0.076171875,-0.2412109225988388,0.9516600966453552,0.9847039165500691,-0.1201629638671875,-0.0476837158203125,-0.1354217529296875,0.18722159545930767
1781021822.094277,-0.0932617112994194,-0.23681640625,0.9516600966453552,0.9851074543473458,-0.179290771484375,0.194549560546875,-0.3185272216796875,0.4140704085049128
1781021822.102286,-0.0888671875,-0.22509765625,0.9526366591453552,0.98289518068359,-0.179290771484375,0.011444091796875,-0.0133514404296875,0.18015107254208945
1781021822.110295,-0.08154296875,-0.2353515625,0.9643554091453552,0.9960024944103606,-0.42724609375,-0.293731689453125,-0.1964569091796875,0.5544482366984829
1781021822.1183,-0.07861328125,-0.23046875,0.9545897841453552,0.9851586413924054,-0.2422332763671875,-0.1697540283203125,-0.1964569091796875,0.35508971750107277
1781021822.126305,-0.0673828050494194,-0.2294921875,0.9619140028953552,0.9912041442135059,-0.06103515625,0.011444091796875,-0.0743865966796875,0.09690006863312178
1781021822.13431,-0.0805663987994194,-0.23779296875,0.9599608778953552,0.9922506375367398,0.06103515625,0.194549560546875,0.1087188720703125,0.231072748180492
1781021822.142315,-0.0795898362994194,-0.23388671875,0.9658202528953552,0.9969184019530675,0.0,-0.110626220703125,0.0476837158203125,0.12046533717833044
1781021822.151926,-0.0781249925494194,-0.24609375,0.9726561903953552,1.006342741298567,-0.0591278076171875,0.1354217529296875,-0.1354217529296875,0.20043502679600136
1781021822.161537,-0.0751953125,-0.2309570163488388,0.9628905653953552,0.9930527273766068,0.0629425048828125,-0.0476837158203125,0.1087188720703125,0.13436996993225894
1781021822.171148,-0.0629882737994194,-0.22216796875,0.9521483778953552,0.9797513268699807,-0.179290771484375,0.011444091796875,0.0476837158203125,0.185875992884907
1781021822.180759,-0.0800781175494194,-0.2373046875,0.9565429091453552,0.9887873161888711,-0.0591278076171875,0.0743865966796875,0.0476837158203125,0.10631650931832719
1781021822.19037,-0.08056640625,-0.2353515625,0.9555663466453552,0.9874149819748446,0.1239776611328125,0.1964569091796875,0.0476837158203125,0.23714871785196476
1781021822.199955,-0.07666015625,-0.23779296875,0.9545897841453552,0.98674410641153,0.0,0.1373291015625,-0.0133514404296875,0.1379766034424349
1781021822.20954,-0.0869140550494194,-0.2333984375,0.9594725966453552,0.9912701686755006,0.1239776611328125,0.0133514404296875,-0.0133514404296875,0.12540726606962405
1781021822.219125,-0.0908203125,-0.2456054538488388,0.9658202528953552,1.0006893269270636,-0.2422332763671875,0.2574920654296875,-0.3795623779296875,0.5186971396474707
1781021822.22871,-0.08984375,-0.2158203125,0.9624022841453552,0.9903880366956465,-0.0591278076171875,-0.0476837158203125,-0.2574920654296875,0.268462284403776
1781021822.238295,-0.0693359300494194,-0.24365234375,0.9707030653953552,1.0032140235157327,-0.0591278076171875,-0.2307891845703125,0.0476837158203125,0.24296806807207655
1781021822.246352,-0.08154296875,-0.2319335788488388,0.9677733778953552,0.9985127699299494,0.2460479736328125,-0.1697540283203125,-0.1354217529296875,0.32816929567882486
1781021822.254409,-0.0751953050494194,-0.22216796875,0.9492186903953552,0.9777673866701883,0.0629425048828125,-0.2307891845703125,-0.1964569091796875,0.30954922677982677
1781021822.262466,-0.06884765625,-0.22998046875,0.9580077528953552,0.9876284070363691,-0.1811981201171875,-0.1697540283203125,-0.0743865966796875,0.25919597726539406
1781021822.270523,-0.0869140550494194,-0.23095703125,0.9560546278953552,0.9873882998947643,0.0,-0.3509521484375,0.1697540283203125,0.38985104927891434
1781021822.280072,-0.08642578125,-0.2270507663488388,0.9531249403953552,0.9835998262341842,0.06103515625,-0.293731689453125,0.2918243408203125,0.41852722920099106
1781021822.289621,-0.083984375,-0.2353515625,0.9555663466453552,0.9876997398280933,-0.0591278076171875,-0.1697540283203125,0.1697540283203125,0.2472427105003544
1781021822.29917,-0.08349609375,-0.22509765625,0.9531249403953552,0.9828976063275368,0.0629425048828125,-0.0476837158203125,0.4749298095703125,0.4814497062973956
1781021822.308719,-0.0888671875,-0.22509765625,0.9589843153953552,0.9890486585793954,-0.1811981201171875,-0.2307891845703125,-0.0133514404296875,0.29372549669747766
1781021822.318268,-0.06201171875,-0.23681640625,0.9594725966453552,0.9902096380286726,0.0,0.255584716796875,0.1697540283203125,0.30682238769540965
1781021822.327892,-0.0678710862994194,-0.23291015625,0.9501952528953552,0.9806756058272943,0.0,0.3204345703125,0.3528594970703125,0.4766425689382668
1781021822.337516,-0.0820312425494194,-0.23876953125,0.9594725966453552,0.992132893074777,0.308990478515625,0.011444091796875,0.1087188720703125,0.32775886897933243
1781021822.34714,-0.0747070237994194,-0.23193359375,0.9589843153953552,0.9894570473189097,-0.1220703125,0.072479248046875,-0.1354217529296875,0.19619748662466963
1781021822.356764,-0.0825195237994194,-0.23388671875,0.9589843153953552,0.9905369181358273,0.06103515625,0.194549560546875,-0.0743865966796875,0.21704420649496864
1781021822.366388,-0.07861328125,-0.23046875,0.9560546278953552,0.9865780983964626,0.1239776611328125,0.0743865966796875,0.1697540283203125,0.22298039455638793
1781021822.375963,-0.0834960862994194,-0.232421875,0.9624022841453552,0.9935842596046058,-0.1220703125,0.194549560546875,-0.4405975341796875,0.496867064543476
1781021822.385538,-0.09326171875,-0.2353515625,0.9653319716453552,0.9979749103239542,-0.1811981201171875,0.3185272216796875,-0.3795623779296875,0.5275982831896086
1781021822.395113,-0.0712890625,-0.23876953125,0.9545897841453552,0.9865772526670932,0.0,-0.049591064453125,-0.0133514404296875,0.051356933661789936
1781021822.404688,-0.0942382737994194,-0.2314453125,0.9624022841453552,0.9943168214684462,-0.0591278076171875,0.0743865966796875,-0.3795623779296875,0.39127619674449987
1781021822.414263,-0.0830078050494194,-0.22998046875,0.9628905653953552,0.9934483140219117,0.0,-0.049591064453125,-0.1354217529296875,0.1442162433297419
1781021822.423866,-0.0786132737994194,-0.2275390625,0.9648436903953552,0.994423158759172,0.0629425048828125,-0.2307891845703125,-0.0133514404296875,0.23959062501921927
1781021822.43347,-0.0727538987994194,-0.234375,0.9619140028953552,0.9927251983211072,-0.0591278076171875,-0.2307891845703125,0.0476837158203125,0.24296806807207655
1781021822.443074,-0.0878906175494194,-0.22705078125,0.9550780653953552,0.9856221024910045,0.0,-0.537872314453125,0.2307891845703125,0.5852950319025364
1781021822.452678,-0.08154296875,-0.2294921875,0.9575194716453552,0.9880078230743413,-0.0591278076171875,-0.0476837158203125,0.0476837158203125,0.08968595844656943
1781021822.462282,-0.0810546875,-0.240234375,0.9609374403953552,0.9938225101349537,0.0,-0.110626220703125,0.2307891845703125,0.25593321086112736
1781021822.471909,-0.0795898362994194,-0.2421875,0.9672850966453552,1.0003148431322173,-0.3643035888671875,-0.4138946533203125,0.1087188720703125,0.5620014964863487
1781021822.481537,-0.0791015625,-0.2358398288488388,0.9550780653953552,0.9869405215415594,-0.30517578125,-0.415802001953125,-0.0133514404296875,0.5159475004797697
1781021822.491165,-0.07666015625,-0.244140625,0.9458007216453552,0.9798063223905732,-0.30517578125,-0.293731689453125,-0.0133514404296875,0.4237792158802534
1781021822.500793,-0.07373046875,-0.2451171875,0.9536132216453552,0.9873686211982019,0.0,-0.110626220703125,-0.1354217529296875,0.17486340919016147
1781021822.510421,-0.06640625,-0.2314452975988388,0.9521483778953552,0.9821218098323821,0.06103515625,-0.476837158203125,-0.1354217529296875,0.49943770072777177
1781021822.519985,-0.0722656175494194,-0.22900390625,0.9609374403953552,0.9904876944773895,-0.2422332763671875,-0.3528594970703125,-0.3185272216796875,0.5335226103955454
1781021822.52955,-0.07666015625,-0.2421875,0.9589843153953552,0.9920597168955216,0.2460479736328125,0.1354217529296875,-0.1354217529296875,0.3117975427451471
1781021822.539115,-0.0888671800494194,-0.2314453125,0.9536132216453552,0.9853133942380932,-0.2422332763671875,0.0743865966796875,-0.0743865966796875,0.26409030976307185
1781021822.54868,-0.07958984375,-0.22900390625,0.9677733778953552,0.9976786272487219,-0.0591278076171875,-0.1697540283203125,-0.4405975341796875,0.47585577110066607
1781021822.558245,-0.0849609375,-0.23486328125,0.9599608778953552,0.9919193560315358,0.18310546875,-0.232696533203125,0.1087188720703125,0.31542841088771834
1781021822.568911,-0.0581054612994194,-0.2119140625,0.9687499403953552,0.9933580731710376,0.0,-0.110626220703125,-0.0133514404296875,0.1114289983289988
1781021822.579575,-0.09033203125,-0.22900390625,0.9501952528953552,0.9815669531786295,-0.0591278076171875,-0.4138946533203125,-0.2574920654296875,0.4910265221350098
1781021822.590239,-0.0820312425494194,-0.23486328125,0.9658202528953552,0.9973458008818036,0.0,-0.110626220703125,-0.0133514404296875,0.1114289983289988
1781021822.598255,-0.0878906175494194,-0.23828125,0.9604491591453552,0.9934612735571531,0.3070831298828125,0.1354217529296875,0.0476837158203125,0.33898795934310993
1781021822.606273,-0.0883788987994194,-0.2314453125,0.9638671278953552,0.9951972682179456,0.18310546875,-0.415802001953125,0.1087188720703125,0.4671602622854653
1781021822.614291,-0.07373046875,-0.2255859375,0.9692382216453552,0.9978716989263196,0.6122589111328125,-0.2918243408203125,0.0476837158203125,0.6799236405002987
1781021822.622309,-0.0849609300494194,-0.23779296875,0.9550780653953552,0.9878957265932145,0.5512237548828125,-0.1697540283203125,0.4138946533203125,0.7099104465531002
1781021822.633243,-0.08056640625,-0.23388671875,0.9531249403953552,0.9847035569283433,0.5512237548828125,-0.0476837158203125,0.4749298095703125,0.7291636913067138
1781021822.644177,-0.07568359375,-0.23291015625,0.9433593153953552,0.9746291321269377,0.3681182861328125,0.4405975341796875,0.2307891845703125,0.6187898734022801
1781021822.655111,-0.0742187425494194,-0.22900390625,0.9653319716453552,0.9948954851159415,0.0,0.194549560546875,0.1087188720703125,0.22286615860920464
1781021822.663462,-0.0732421800494194,-0.24169921875,0.9521483778953552,0.9850733286469124,-0.6103515625,0.499725341796875,-0.0133514404296875,0.7889440462046358
1781021822.671813,-0.0781249925494194,-0.2412109375,0.9565429091453552,0.9895759535612892,-0.48828125,0.3204345703125,0.4138946533203125,0.7158251720916642
1781021822.680164,-0.0830078050494194,-0.232421875,0.9614257216453552,0.9925974218780391,-0.48828125,0.255584716796875,0.1697540283203125,0.5766789025902324
1781021822.688515,-0.08642578125,-0.228515625,0.9511718153953552,0.9820471622770004,-0.6084442138671875,0.2574920654296875,-0.0743865966796875,0.6648608056678426
1781021822.698463,-0.0771484300494194,-0.23486328125,0.9477538466453552,0.9794641366429269,-0.48828125,0.6256103515625,-0.0743865966796875,0.797082340068643
1781021822.708411,-0.07666015625,-0.2314452975988388,0.9589843153953552,0.9894921033091612,-0.6694793701171875,0.4405975341796875,0.1697540283203125,0.8192345477753611
1781021822.718359,-0.08349609375,-0.240234375,0.9672850966453552,1.0001622922282982,-0.3643035888671875,0.2574920654296875,-0.1354217529296875,0.4662170307778434
1781021822.729008,-0.0786132737994194,-0.23388671875,0.9599608778953552,0.9911649363828026,-0.2422332763671875,0.3795623779296875,-0.1964569091796875,0.491263550534392
1781021822.739657,-0.0722656175494194,-0.2392578125,0.9560546278953552,0.9881837237286446,0.0,0.255584716796875,-0.3185272216796875,0.4083909137225259
1781021822.750306,-0.0888671875,-0.21484375,0.9565429091453552,0.984392986039865,-0.3643035888671875,0.1964569091796875,-0.3795623779296875,0.561587055375734
1781021822.759039,-0.08544921875,-0.2216796725988388,0.9555663466453552,0.9846575491355687,-0.48828125,0.011444091796875,-0.5016326904296875,0.7001320607187936
1781021822.767771,-0.08154296875,-0.2368163913488388,0.9633788466453552,0.9954044711210538,0.06103515625,-0.293731689453125,-0.3795623779296875,0.4838090474837029
1781021822.776503,-0.0834960862994194,-0.23193359375,0.9584960341453552,0.9896865341154663,-0.1220703125,-0.476837158203125,-0.5016326904296875,0.7027874449254243
1781021822.785235,-0.0893554612994194,-0.2314453125,0.9658202528953552,0.9971760587003192,-0.06103515625,-0.476837158203125,-0.1964569091796875,0.5193209825398257
1781021822.79492,-0.0795898362994194,-0.23193359375,0.9565429091453552,0.9874725672079289,-0.1811981201171875,-0.3528594970703125,-0.6847381591796875,0.7913336401566052
1781021822.804605,-0.0771484300494194,-0.2392578125,0.9677733778953552,0.9998907400633138,0.244140625,-0.476837158203125,-0.3795623779296875,0.656540873791009
1781021822.81429,-0.07666015625,-0.2353515625,0.9667968153953552,0.9979795688219606,0.0,-0.3509521484375,-0.1964569091796875,0.4021973740060134
1781021822.824959,-0.0776367112994194,-0.23779296875,0.9575194716453552,0.9896547344949793,0.06103515625,-0.110626220703125,-0.6847381591796875,0.6962972049651682
1781021822.835628,-0.07861328125,-0.2353515625,0.9599608778953552,0.9915116202292861,0.0,-0.293731689453125,-0.3795623779296875,0.47994364682598517
1781021822.846297,-0.07666015625,-0.22705078125,0.9526366591453552,0.9823163651136703,-0.1201629638671875,-0.0476837158203125,-0.7457733154296875,0.7568954436689175
1781021822.854981,-0.0888671800494194,-0.23291015625,0.9531249403953552,0.9851861085997836,-0.30517578125,-0.293731689453125,-0.8678436279296875,0.9656930803255747
1781021822.863664,-0.0922851487994194,-0.23828125,0.9770507216453552,1.0099121820525796,-0.1201629638671875,-0.6580352783203125,-0.3795623779296875,0.7691015304490539
1781021822.872347,-0.0888671800494194,-0.228515625,0.9687499403953552,0.9992963592323755,-0.3643035888671875,-0.2918243408203125,-0.1964569091796875,0.5064324909809388
1781021822.88103,-0.07666015625,-0.21923828125,0.9472655653953552,0.975322641440006,-0.48828125,0.011444091796875,-0.3185272216796875,0.5831030245930805
1781021822.890793,-0.0722656175494194,-0.23828125,0.9492186903953552,0.9813339878844687,-0.2422332763671875,-0.3528594970703125,-0.0743865966796875,0.4344193257877492
1781021822.900556,-0.07568359375,-0.2460937350988388,0.9609374403953552,0.9948320949644666,-0.3643035888671875,-0.1697540283203125,0.3528594970703125,0.5348302157369197
1781021822.910319,-0.0712890625,-0.244140625,0.9628905653953552,0.9959141610273982,0.0629425048828125,0.0743865966796875,-0.0133514404296875,0.09835337131007185
1781021822.921,-0.0722656175494194,-0.24560546875,0.9550780653953552,0.9887964789374204,-0.2422332763671875,-0.1087188720703125,-0.0133514404296875,0.26584772762875125
1781021822.931683,-0.0917968675494194,-0.23681640625,0.9658202528953552,0.9986578173047556,0.0629425048828125,0.0743865966796875,0.2918243408203125,0.30766307965324546
1781021822.942366,-0.0678710862994194,-0.23681640625,0.9707030653953552,1.001475379523914,-0.48828125,0.1373291015625,0.0476837158203125,0.5094620672748446
1781021822.952983,-0.0834960862994194,-0.23876953125,0.9560546278953552,0.9889504219124389,-0.1811981201171875,0.1354217529296875,-0.0133514404296875,0.22660554022816726
1781021822.963603,-0.07177734375,-0.2333984375,0.9580077528953552,0.9886382919505268,-0.0591278076171875,0.3185272216796875,0.2307891845703125,0.3977679427747109
1781021822.974223,-0.0703125,-0.23828125,0.9653319716453552,0.9967886522420495,-0.1220703125,0.194549560546875,-0.1964569091796875,0.3022350242233117
1781021822.982251,-0.0883788987994194,-0.23291015625,0.9580077528953552,0.9898670745332453,0.0,0.1373291015625,-0.0133514404296875,0.1379766034424349
1781021822.99028,-0.08056640625,-0.2319335788488388,0.9555663466453552,0.9866058856781779,0.0629425048828125,0.1354217529296875,0.2918243408203125,0.3278143620750654
1781021822.998309,-0.0786132737994194,-0.22802734375,0.9609374403953552,0.9907458204144592,0.0,-0.049591064453125,-0.1964569091796875,0.2026193249372576
1781021823.006338,-0.06640625,-0.22900390625,0.9609374403953552,0.9900774431681585,0.0,0.194549560546875,-0.1964569091796875,0.276486615722024
1781021823.017019,-0.0820312425494194,-0.22021484375,0.9584960341453552,0.9868831489261596,-0.30517578125,0.011444091796875,0.1087188720703125,0.3241651089226663
1781021823.0277,-0.0849609300494194,-0.23828125,0.9536132216453552,0.9865974306845007,-0.6103515625,-0.110626220703125,-0.0133514404296875,0.6204397243204173
1781021823.038381,-0.08544921875,-0.23046875,0.9580077528953552,0.9890380520076848,-0.30517578125,-0.110626220703125,0.2307891845703125,0.39828892262179993
1781021823.049054,-0.0839843675494194,-0.2294921875,0.9633788466453552,0.9938907587254979,-0.3643035888671875,-0.2918243408203125,0.0476837158203125,0.46920388693099613
1781021823.059725,-0.10009765625,-0.2353515625,0.9565429091453552,0.9901435430250474,-0.4253387451171875,-0.5359649658203125,0.2918243408203125,0.7438635214740957
1781021823.070396,-0.0712890625,-0.23974609375,0.9638671278953552,0.9957912231676647,-0.0591278076171875,-0.2918243408203125,0.4138946533203125,0.5098689317618468
1781021823.078366,-0.0874023362994194,-0.2451171875,0.9667968153953552,1.001208113359609,0.06103515625,-0.293731689453125,0.5970001220703125,0.6681412585968756
1781021823.086335,-0.0908203125,-0.2470702975988388,0.9692382216453552,1.0043479434022988,0.4901885986328125,-0.4138946533203125,0.5359649658203125,0.8359737381422403
1781021823.094304,-0.0795898362994194,-0.23876953125,0.9624022841453552,0.994768107462091,0.8544921875,-0.476837158203125,0.5970001220703125,1.1462720967090385
1781021823.102273,-0.0830078050494194,-0.2333984375,0.9653319716453552,0.9966097239176791,0.980377197265625,-0.476837158203125,0.4138946533203125,1.1661140203293912
1781021823.112928,-0.0825195237994194,-0.25,0.9570311903953552,0.9925815690398616,1.15966796875,-0.415802001953125,0.9632110595703125,1.563808379518265
1781021823.123583,-0.0747070237994194,-0.22802734375,0.9536132216453552,0.9833390999037316,1.2226104736328125,-0.4138946533203125,0.7190704345703125,1.4775477806679993
1781021823.134238,-0.0869140550494194,-0.236328125,0.9531249403953552,0.9858256375418518,0.9784698486328125,-0.2307891845703125,1.1463165283203125,1.5246994705509944
1781021823.14496,-0.0810546875,-0.25048828125,0.9628905653953552,0.9982346829962825,1.15966796875,0.072479248046875,0.7801055908203125,1.3995169780932635
1781021823.155684,-0.0800781175494194,-0.23828125,0.9565429091453552,0.9890221413335903,1.4667510986328125,0.3795623779296875,0.9632110595703125,1.7953278055438135
1781021823.166408,-0.09521484375,-0.2465820163488388,0.9501952528953552,0.9862756084796298,1.220703125,0.011444091796875,1.0242462158203125,1.59352671682782
1781021823.177048,-0.09521484375,-0.23974609375,0.9619140028953552,0.9959029093766552,1.15966796875,0.255584716796875,1.2683868408203125,1.737515042574027
1781021823.18769,-0.09130859375,-0.25146484375,0.9580077528953552,0.9946610887847289,1.2226104736328125,0.3795623779296875,1.4514923095703125,1.9353743549293116
1781021823.198332,-0.08349609375,-0.2353515625,0.9638671278953552,0.9956916168573186,1.3427734375,0.377655029296875,1.5125274658203125,2.0575235504046137
1781021823.206305,-0.09033203125,-0.25390625,0.9726561903953552,1.0093009087349614,1.9550323486328125,0.1354217529296875,1.8787384033203125,2.7148017466249423
1781021823.214278,-0.07177734375,-0.2363281100988388,0.9643554091453552,0.9954819525469059,2.2602081298828125,-0.4138946533203125,2.0618438720703125,3.087239823406889
1781021823.222251,-0.0927734300494194,-0.240234375,0.9594725966453552,0.9934319946368526,2.3193359375,0.011444091796875,1.8177032470703125,2.9467770958499755
1781021823.230224,-0.0971679612994194,-0.23291015625,0.9584960341453552,0.9911626511626933,2.5043487548828125,-0.2307891845703125,1.4514923095703125,2.9037658752970223
1781021823.240904,-0.0834960862994194,-0.23583984375,0.9594725966453552,0.9915541800833301,2.5043487548828125,-0.2307891845703125,1.6345977783203125,2.999489328316976
1781021823.251584,-0.07177734375,-0.22998046875,0.9609374403953552,0.9906784379584792,2.5653839111328125,-0.2307891845703125,1.6345977783203125,3.050634058044887
1781021823.262264,-0.0722656175494194,-0.23876953125,0.9721679091453552,1.0036651095386326,2.7484893798828125,-0.4749298095703125,1.2073516845703125,3.0393174045469276
1781021823.272918,-0.0747070237994194,-0.251953125,0.9628905653953552,0.9981080891013856,3.35693359375,-0.476837158203125,1.1463165283203125,3.579164485098562
1781021823.283572,-0.0825195237994194,-0.25244140625,0.9638671278953552,0.9997879653380518,3.2367706298828125,-0.4138946533203125,0.8411407470703125,3.369793858814085
1781021823.294226,-0.0786132737994194,-0.244140625,0.9672850966453552,1.0007123211917934,3.604888916015625,-0.476837158203125,0.9021759033203125,3.74653428287896
1781021823.302246,-0.07568359375,-0.234375,0.9707030653953552,1.0014609768512472,4.0283203125,-0.476837158203125,0.4749298095703125,4.084151875183124
1781021823.310268,-0.0966796800494194,-0.240234375,0.9780272841453552,1.0117296496588593,4.8847198486328125,-0.6580352783203125,0.6580352783203125,4.9725756761114805
1781021823.31829,-0.0712890625,-0.2080078125,0.9711913466453552,0.9957720684433675,4.8847198486328125,-0.7190704345703125,0.6580352783203125,4.981020047843072
1781021823.326312,-0.07373046875,-0.22998046875,0.9726561903953552,1.0021912306256575,5.6781768798828125,-0.5359649658203125,0.3528594970703125,5.714320690029147
1781021823.336985,-0.07666015625,-0.2358398288488388,0.9667968153953552,0.9980948285039476,6.2255859375,-0.6561279296875,0.5970001220703125,6.288468277018318
1781021823.347658,-0.068359375,-0.2158203125,0.9555663466453552,0.9820175427552909,5.9223175048828125,-0.3528594970703125,0.4138946533203125,5.947239968032334
1781021823.358331,-0.08544921875,-0.2109375,0.9472655653953552,0.9742218686084897,5.9833526611328125,-0.6580352783203125,0.6580352783203125,6.055289416907609
1781021823.368961,-0.087890625,-0.2109375,0.9741210341453552,1.0005654301611449,5.4950714111328125,-0.7190704345703125,0.7801055908203125,5.596555801218407
1781021823.379592,-0.0874023362994194,-0.19287109375,0.9526366591453552,0.9758867923804183,5.8002471923828125,-1.1463165283203125,1.0242462158203125,6.000499094780972
1781021823.390223,-0.1005859375,-0.1972656100988388,0.9575194716453552,0.982789290911547,5.7392120361328125,-1.0242462158203125,1.2073516845703125,5.953598340209788
1781021823.400911,-0.0839843675494194,-0.19970703125,0.9584960341453552,0.9826753888216283,5.1288604736328125,-1.2073516845703125,1.8177032470703125,5.573773671637352
1781021823.411599,-0.06982421875,-0.18603515625,0.9414061903953552,0.9621486975513222,4.6405792236328125,-1.0242462158203125,1.6345977783203125,5.025531388651796
1781021823.422287,-0.0791015550494194,-0.1884765625,0.9252929091453552,0.9476008855724689,4.1522979736328125,-1.5125274658203125,1.3294219970703125,4.614832677680784
1781021823.430442,-0.0727538987994194,-0.18017578125,0.9663085341453552,0.9856513709733828,2.9315948486328125,-1.0242462158203125,1.7566680908203125,3.5678020472636867
1781021823.438597,-0.0517578125,-0.17822265625,0.9555663466453552,0.973421403707943,2.8095245361328125,-1.5125274658203125,1.2073516845703125,3.411578160357444
1781021823.446752,-0.0737304612994194,-0.20263671875,0.9663085341453552,0.9900757566324594,2.4433135986328125,-1.5125274658203125,1.0242462158203125,3.0506722188309694
1781021823.454907,-0.06494140625,-0.20556640625,0.9863280653953552,1.0096127902373324,2.9315948486328125,-1.3904571533203125,0.5359649658203125,3.288598165835534
1781021823.465393,-0.06689453125,-0.2158203125,0.9921874403953552,1.0175898989657088,4.0912628173828125,-1.8177032470703125,-0.3795623779296875,4.492943816035178
1781021823.475879,-0.0683593675494194,-0.2216796875,0.9790038466453552,1.0061130248278551,4.94384765625,-2.368927001953125,-0.5016326904296875,5.505005008617064
1781021823.486365,-0.076171875,-0.22412109375,0.9755858778953552,1.0038925362575233,5.3119659423828125,-2.7942657470703125,-1.3561248779296875,6.153371264829154
1781021823.494339,-0.0649413987994194,-0.23291015625,0.9702147841453552,0.9998906207864152,5.8002471923828125,-2.9773712158203125,-1.7223358154296875,6.743444780722378
1781021823.502313,-0.06982421875,-0.224609375,0.9912108778953552,1.0187363728266599,5.8002471923828125,-2.8553009033203125,-2.0275115966796875,6.775427220177124
1781021823.510287,-0.07568359375,-0.2353515625,0.9833983778953552,1.0139974033405226,6.3495635986328125,-2.9773712158203125,-2.1495819091796875,7.3350119041587645
1781021823.518261,-0.0712890625,-0.2314452975988388,0.9838866591453552,1.013253183689522,7.080078125,-3.2806396484375,-2.0885467529296875,8.077879071772292
1781021823.526589,-0.0859375,-0.2309570163488388,1.0087890625,1.0384516213703152,7.568359375,-2.918243408203125,-1.6613006591796875,8.279862806765717
1781021823.534917,-0.08447265625,-0.23046875,0.9956054091453552,1.0254177710084722,8.85009765625,-2.246856689453125,-1.4171600341796875,9.240180521536264
1781021823.543245,-0.0869140550494194,-0.21240234375,0.9882811903953552,1.0145780008875054,9.828567504882812,-2.5501251220703125,-0.8678436279296875,10.191026930530144
1781021823.551573,-0.07666015625,-0.22802734375,0.9653319716453552,0.9948563034602856,9.830474853515625,-2.124786376953125,-0.2574920654296875,10.060778059228216
1781021823.561921,-0.0786132737994194,-0.22412109375,0.9829100966453552,1.0111985806796508,10.133743286132812,-2.4280548095703125,-0.5016326904296875,10.432633344636775
1781021823.572269,-0.0747070237994194,-0.2216796875,0.9990233778953552,1.026046165061061,11.415481567382812,-2.1839141845703125,0.2307891845703125,11.624799534982907
1781021823.582617,-0.0737304612994194,-0.212890625,0.9721679091453552,0.9979323838358827,11.53564453125,-1.941680908203125,0.2307891845703125,11.700191585967863
1781021823.59058,-0.0615234337747097,-0.19091796875,0.9462890028953552,0.9673146751165014,10.560989379882812,-1.8177032470703125,0.1697540283203125,10.717619054927194
1781021823.598543,-0.0727538987994194,-0.2216796875,0.9169921278953552,0.9462079984140196,9.706497192382812,-1.6956329345703125,0.1697540283203125,9.85495181239695
1781021823.606506,-0.0722656175494194,-0.19091796875,0.9057616591453552,0.9284805724672819,7.205963134765625,-1.270294189453125,-0.1354217529296875,7.318325701861468
1781021823.614469,-0.0610351525247097,-0.17041015625,0.9599608778953552,0.9768775758949967,5.8002471923828125,-0.6580352783203125,-0.1964569091796875,5.840759645578923
1781021823.625159,-0.0624999962747097,-0.16650390625,0.9370116591453552,0.9537403471098299,5.1288604736328125,-0.8411407470703125,0.0476837158203125,5.197595718322986
1781021823.635849,-0.0751953125,-0.1513671875,0.8935546278953552,0.9093988308255292,2.6874542236328125,-0.8411407470703125,-0.2574920654296875,2.8277606200424907
1781021823.646539,-0.0620117150247097,-0.14990234375,0.9155272841453552,0.9297883487528863,1.0395050048828125,-0.6580352783203125,-0.1964569091796875,1.2458637164051867
1781021823.654525,-0.0576171837747097,-0.14697265625,0.9189452528953552,0.9324060699985912,-0.5474090576171875,0.3185272216796875,-0.5626678466796875,0.8471784776536019
1781021823.662509,-0.0502929650247097,-0.14990234375,0.9194335341453552,0.9329298573331962,-2.0732879638671875,0.9288787841796875,-0.6237030029296875,2.355916851817821
1781021823.670493,-0.0561523400247097,-0.142578125,0.9272460341453552,0.9398227571500147,-4.1484832763671875,1.2340545654296875,-0.9899139404296875,4.439902450979426
1781021823.678477,-0.0634765550494194,-0.1435546875,0.9331054091453552,0.9462150526811997,-5.67626953125,1.659393310546875,-1.4781951904296875,6.095792234935035
1781021823.689064,-0.0605468712747097,-0.166015625,0.9477538466453552,0.9640873742542033,-7.1392059326171875,1.9664764404296875,-1.9664764404296875,7.66174396138676
1781021823.699651,-0.0703125,-0.181640625,0.9467772841453552,0.9666045675871262,-7.2002410888671875,2.0885467529296875,-2.2106170654296875,7.816158077147202
1781021823.710238,-0.0624999962747097,-0.17529296875,0.9633788466453552,0.9811894193229267,-8.30078125,2.330780029296875,-2.8209686279296875,9.071569263643651
1781021823.71831,-0.0786132737994194,-0.19873046875,0.9956054091453552,1.0182848210331663,-7.4443817138671875,2.3937225341796875,-2.4547576904296875,8.196008906237443
1781021823.726381,-0.07958984375,-0.21484375,1.0146484375,1.0401941318155008,-6.2236785888671875,2.2106170654296875,-2.5157928466796875,7.067546719682688
1781021823.734452,-0.0791015625,-0.20556640625,1.00146484375,1.0254006230911377,-4.8198699951171875,2.0275115966796875,-2.0275115966796875,5.60827543182146
1781021823.742523,-0.08154296875,-0.2333984375,0.9999999403953552,1.0301087161900528,-3.8433074951171875,1.6002655029296875,-1.7223358154296875,4.505363785867086
1781021823.753186,-0.0810546875,-0.212890625,0.9892577528953552,1.0151468771769832,-2.6836395263671875,1.4171600341796875,-1.2340545654296875,3.27614931595224
1781021823.763849,-0.09033203125,-0.2221679538488388,0.9838866591453552,1.0126951336070196,-2.3784637451171875,1.3561248779296875,-0.9288787841796875,2.8911901125792165
1781021823.774512,-0.0810546875,-0.2124023288488388,0.9833983778953552,1.0093349202882802,-1.0986328125,1.171112060546875,-0.7457733154296875,1.7705014411366617
1781021823.785121,-0.0908203125,-0.20947265625,0.9804686903953552,1.0067005392491906,0.0,1.354217529296875,-0.1354217529296875,1.3609717733375228
1781021823.795728,-0.0874023362994194,-0.21240234375,0.9716796278953552,0.9984564203248663,0.1239776611328125,1.2950897216796875,0.3528594970703125,1.3480124896799164
1781021823.806335,-0.0834960862994194,-0.19970703125,0.9799804091453552,1.0036015629056714,0.06103515625,0.682830810546875,0.8411407470703125,1.085127164212825
1781021823.816983,-0.0854492112994194,-0.1982421875,0.9731444716453552,0.9968007299909022,0.8563995361328125,0.9288787841796875,1.1463165283203125,1.7059535586550898
1781021823.82763,-0.08837890625,-0.19580078125,0.9692382216453552,0.992759541533753,0.8563995361328125,0.8068084716796875,1.8177032470703125,2.165272539398347
1781021823.838277,-0.08642578125,-0.18017578125,0.9780272841453552,0.998233487890714,0.6122589111328125,0.5016326904296875,1.6345977783203125,1.8161514879709142
1781021823.848935,-0.07958984375,-0.1865234375,0.9658202528953552,0.9868810956076794,0.6732940673828125,0.6237030029296875,1.8787384033203125,2.0909300144067373
1781021823.859591,-0.0712890625,-0.16796875,0.9545897841453552,0.9718730819419619,0.06103515625,0.194549560546875,1.5735626220703125,1.5867180428117156
1781021823.870247,-0.0610351525247097,-0.1923827975988388,0.9658202528953552,0.9866839370125158,-0.30517578125,-0.1678466796875,1.3904571533203125,1.433414057613254
1781021823.878271,-0.0776367112994194,-0.18017578125,0.9633788466453552,0.9831528737964265,-0.42724609375,-0.110626220703125,0.6580352783203125,0.7923306209189327
1781021823.886297,-0.0590820237994194,-0.17919921875,0.9511718153953552,0.9697065885820005,-0.667572021484375,-0.293731689453125,0.2918243408203125,0.7855521339497028
1781021823.894323,-0.07373046875,-0.19677734375,0.9716796278953552,0.9941422455072797,-1.0986328125,-0.476837158203125,0.4138946533203125,1.2671529174460492
1781021823.902349,-0.0849609300494194,-0.20263671875,0.9707030653953552,0.9952609911920431,-0.7305145263671875,-0.5970001220703125,-0.3185272216796875,0.9957510783004079
1781021823.912985,-0.07470703125,-0.19970703125,0.9863280653953552,1.009112031161764,-0.5474090576171875,-0.0476837158203125,-0.4405975341796875,0.7043128567909225
1781021823.923621,-0.080078125,-0.20166015625,0.9746093153953552,0.998470150969819,-0.48828125,-0.476837158203125,-0.5626678466796875,0.8845266305951172
1781021823.934257,-0.06884765625,-0.2001953125,0.9721679091453552,0.9949515598712042,-0.6084442138671875,-0.0476837158203125,-0.4405975341796875,0.752731217147338
1781021823.945083,-0.0839843675494194,-0.1943359375,0.9692382216453552,0.9920899963687421,-0.30517578125,0.194549560546875,-0.6237030029296875,0.7211013970545611
1781021823.955911,-0.08447265625,-0.20458984375,0.9780272841453552,1.0027611890935546,-0.244140625,0.194549560546875,-0.1964569091796875,0.3688488761658476
1781021823.966739,-0.0874023362994194,-0.19287109375,0.9707030653953552,0.9935305070116656,-0.3643035888671875,0.3795623779296875,-0.1354217529296875,0.5432529381123502
1781021823.974623,-0.0820312425494194,-0.19189453125,0.9545897841453552,0.9771357591821798,-0.6084442138671875,0.4405975341796875,-0.1354217529296875,0.7633279764820821
1781021823.982509,-0.07666015625,-0.2080078125,0.9736327528953552,0.9985513342477178,-0.48828125,0.255584716796875,0.3528594970703125,0.6544096203712283
1781021823.990395,-0.08642578125,-0.20263671875,0.9682616591453552,0.9930063927394202,-0.6084442138671875,0.3185272216796875,0.1697540283203125,0.707446381339543
1781021824.006271,-0.07470703125,-0.21435546875,0.9638671278953552,0.9902369654473931,-0.48828125,0.072479248046875,-0.1354217529296875,0.5118699753507254
1781021824.014263,-0.0825195237994194,-0.208984375,0.9765624403953552,1.0020769136115029,0.0629425048828125,0.3185272216796875,0.2918243408203125,0.4365578950919495
1781021824.022255,-0.0883788987994194,-0.19873046875,0.9633788466453552,0.9876251470706523,-0.42724609375,0.194549560546875,-0.0133514404296875,0.46964562927292686
1781021824.030247,-0.0820312425494194,-0.19384765625,0.9467772841453552,0.969893429383597,-0.2422332763671875,0.2574920654296875,0.0476837158203125,0.3567251893170162
1781021824.040108,-0.07568359375,-0.1943359375,0.9643554091453552,0.986648781540232,-0.9765625,0.194549560546875,-0.1354217529296875,1.0049193495409379
1781021824.049971,-0.09033203125,-0.2021484225988388,0.9624022841453552,0.9875434254538616,-0.9136199951171875,0.3185272216796875,-0.0743865966796875,0.9704094250338343
1781021824.059834,-0.0703125,-0.2001953125,0.9721679091453552,0.9950539957084109,-0.42724609375,0.194549560546875,0.1087188720703125,0.4818802229577978
1781021824.069697,-0.0727538987994194,-0.19775390625,0.9594725966453552,0.9823377224463237,-0.30517578125,0.011444091796875,-0.0743865966796875,0.31431924927402977
1781021824.07956,-0.0830078050494194,-0.1982421875,0.9716796278953552,0.9951640869076634,-0.1811981201171875,-0.1087188720703125,0.2918243408203125,0.36029709653764014
1781021824.088909,-0.0825195237994194,-0.20849609375,0.9658202528953552,0.9915083730458052,0.06103515625,-0.110626220703125,-0.3185272216796875,0.34267045678975483
1781021824.098258,-0.0781249925494194,-0.208984375,0.9819335341453552,1.006961493272794,0.4901885986328125,-0.7190704345703125,0.0476837158203125,0.8715623264329241
1781021824.107607,-0.07568359375,-0.22509765625,0.9887694716453552,1.0168884055145841,1.3427734375,-0.598907470703125,0.0476837158203125,1.4710555392893951
1781021824.116956,-0.08056640625,-0.22021484375,0.9707030653953552,0.9986240355568337,1.52587890625,-0.782012939453125,0.1697540283203125,1.7229820382528038
1781021824.126305,-0.0830078050494194,-0.21240234375,0.9804686903953552,1.0066399078991446,1.956939697265625,-0.965118408203125,-0.0133514404296875,2.18202767662286
1781021824.134319,-0.0908203125,-0.208984375,1.00390625,1.0294418667150664,2.8076171875,-1.3275146484375,-0.0133514404296875,3.1056702455867873
1781021824.14233,-0.0771484300494194,-0.2119140625,0.9892577528953552,1.014638039799372,3.604888916015625,-1.270294189453125,0.3528594970703125,3.8384086871050345
1781021824.150341,-0.0751953125,-0.2265624850988388,0.9697265028953552,0.9986763164778614,4.3964385986328125,-1.3904571533203125,-0.0133514404296875,4.611097668422306
1781021824.158352,-0.0805663987994194,-0.20263671875,0.9628905653953552,0.9872744427608062,4.4574737548828125,-1.0242462158203125,-0.1354217529296875,4.575641117620334
1781021824.166363,-0.0673828050494194,-0.20947265625,0.9750975966453552,0.9996172062926421,4.5185089111328125,-0.8411407470703125,0.2307891845703125,4.6019239654826185
1781021824.183961,-0.0615234337747097,-0.19921875,0.9760741591453552,0.998095189551731,4.6405792236328125,-0.6580352783203125,-0.1354217529296875,4.688957774334629
1781021824.193545,-0.064453125,-0.20556640625,0.9682616591453552,0.9919387043924245,4.1522979736328125,-0.8411407470703125,-0.1354217529296875,4.238801159453427
1781021824.203129,-0.0600585862994194,-0.19873046875,0.9482421278953552,0.9707028206992039,3.47900390625,-1.1444091796875,-0.5016326904296875,3.6965897671182697
1781021824.212713,-0.0673828050494194,-0.20751953125,0.9697265028953552,0.993968957605922,3.7841796875,-0.6561279296875,-0.3795623779296875,3.8593506404760944
1781021824.222297,-0.06689453125,-0.2080078125,0.9687499403953552,0.993085381721127,3.2367706298828125,-0.0476837158203125,-0.1354217529296875,3.239953224722999
1781021824.231888,-0.0693359375,-0.18701171875,0.9272460341453552,0.9484545656050807,2.197265625,0.194549560546875,-0.3795623779296875,2.2382791061561695
1781021824.241481,-0.07421875,-0.16748046875,0.9306640028953552,0.9485218060484893,1.220703125,0.499725341796875,-0.6847381591796875,1.4861722253008083
1781021824.251074,-0.07177734375,-0.1552734375,0.9125975966453552,0.9284913574566812,-0.48828125,0.560760498046875,-0.8678436279296875,1.142813842149938
1781021824.260667,-0.0800781175494194,-0.17333984375,0.9238280653953552,0.9433543876792314,-2.685546875,0.499725341796875,-0.8678436279296875,2.8661891070887893
1781021824.27026,-0.0727538987994194,-0.15576171875,0.9516600966453552,0.9670634841444056,-4.3926239013671875,0.2574920654296875,-0.4405975341796875,4.422168369674176
1781021824.279879,-0.0791015550494194,-0.17431640625,0.9648436903953552,0.983649639045773,-4.9419403076171875,0.1964569091796875,-0.0743865966796875,4.94640300490988
1781021824.289503,-0.078125,-0.18212890625,0.9716796278953552,0.9916832928832053,-5.0029754638671875,-0.1087188720703125,0.0476837158203125,5.00438378044248
1781021824.299127,-0.0786132737994194,-0.216796875,1.00341796875,1.0295768800034333,-4.3315887451171875,-0.2307891845703125,-0.0133514404296875,4.337753216297818
1781021824.308751,-0.0869140550494194,-0.24267578125,1.00537109375,1.0378904681701737,-2.685546875,-0.476837158203125,-0.3795623779296875,2.753834289133087
1781021824.318375,-0.0771484300494194,-0.24169921875,1.01708984375,1.0482567161067224,-1.0356903076171875,-0.4749298095703125,-0.2574920654296875,1.1681245229297792
1781021824.327961,-0.0688476487994194,-0.25048828125,1.03369140625,1.0658340870622829,1.2226104736328125,-0.6580352783203125,-0.1964569091796875,1.4022774742950046
1781021824.337548,-0.0625,-0.23828125,1.0107421875,1.0403287815368023,3.7250518798828125,-0.4749298095703125,-0.6237030029296875,3.8066488237950815
1781021824.347135,-0.0712890625,-0.22998046875,0.9956054091453552,1.0243062418818352,6.0443878173828125,-0.2918243408203125,-0.8068084716796875,6.104975466191087
1781021824.356722,-0.0825195237994194,-0.21533203125,0.9882811903953552,1.0148285898513079,7.5092315673828125,-0.1697540283203125,-0.4405975341796875,7.52406149295942
1781021824.366309,-0.08544921875,-0.20849609375,0.9721679091453552,0.9979391933710419,8.424758911132812,0.2574920654296875,-0.1964569091796875,8.4309821605573
1781021824.374302,-0.0786132737994194,-0.18017578125,0.9501952528953552,0.9703166377999392,9.157180786132812,0.3795623779296875,-0.1964569091796875,9.16714911331893
1781021824.382295,-0.0825195237994194,-0.154296875,0.9516600966453552,0.9676124931964735,9.21630859375,1.171112060546875,0.7801055908203125,9.323111727659256
1781021824.390288,-0.0751953125,-0.1630859375,0.9599608778953552,0.9766146861080104,8.668899536132812,0.9288787841796875,0.9021759033203125,8.765075945124186
1781021824.398281,-0.0722656175494194,-0.15625,0.9135741591453552,0.929652691190609,8.119583129882812,1.2340545654296875,1.6956329345703125,8.38604149300103
1781021824.406276,-0.0786132737994194,-0.119140625,0.9160155653953552,0.9270701437266898,7.2650909423828125,1.4781951904296875,2.0618438720703125,7.695310752328079
1781021824.414271,-0.0703125,-0.1240234375,0.9223632216453552,0.9333164379510119,5.43212890625,1.171112060546875,2.1839141845703125,5.9706791136387976
1781021824.422266,-0.0878906175494194,-0.1181640625,0.9194335341453552,0.9311527962857332,3.7841796875,1.4801025390625,2.0618438720703125,4.556524946296328
1781021824.430261,-0.0986328050494194,-0.1201171875,0.9111327528953552,0.9242940345817966,2.3193359375,1.354217529296875,2.0618438720703125,3.385915601492133
1781021824.440929,-0.08447265625,-0.10791015625,0.9033202528953552,0.913656232270518,0.3070831298828125,1.4781951904296875,2.0618438720703125,2.555496277137179
1781021824.451597,-0.0810546875,-0.12353515625,0.9199218153953552,0.9317118350840675,-1.8901824951171875,1.2950897216796875,1.9397735595703125,3.0021273647958187
1781021824.462265,-0.0961913987994194,-0.1206054612994194,0.9248046278953552,0.9375830961972923,-3.60107421875,1.232147216796875,1.6956329345703125,4.166664534325476
1781021824.472933,-0.08447265625,-0.12548828125,0.9272460341453552,0.9395042023446724,-7.4462890625,1.171112060546875,2.3059844970703125,7.88265746822695
1781021824.4836,-0.09033203125,-0.14208984375,0.9638671278953552,0.9784626920858513,-9.153366088867188,0.6237030029296875,3.0384063720703125,9.664627746298601
1781021824.494267,-0.083984375,-0.16748046875,0.9741210341453552,0.9919752375040803,-10.31494140625,0.194549560546875,2.6721954345703125,10.657227321701368
1781021824.50228,-0.0747070237994194,-0.2275390625,0.9975585341453552,1.0259035984996718,-9.765625,0.377655029296875,2.4890899658203125,10.084920615439945
1781021824.510295,-0.06982421875,-0.2412109225988388,0.9970702528953552,1.0282058256564386,-8.604049682617188,0.2574920654296875,2.1228790283203125,8.865810085580808
1781021824.51831,-0.09423828125,-0.24462890625,1.06201171875,1.0938889551450615,-9.275436401367188,-0.4138946533203125,1.2073516845703125,9.362837567216971
1781021824.526325,-0.0742187425494194,-0.26806640625,1.07421875,1.1096458636686615,-7.0781707763671875,-0.7190704345703125,0.7801055908203125,7.157243083906032
1781021824.536978,-0.0751953125,-0.2465820163488388,1.017578125,1.0497248526576606,-2.74658203125,-0.415802001953125,0.4138946533203125,2.808542850529567
1781021824.547631,-0.0839843675494194,-0.2412109375,0.9926757216453552,1.0250078920215353,-0.1220703125,-0.293731689453125,0.2918243408203125,0.431672228059722
1781021824.558284,-0.07080078125,-0.25927734375,1.0146484375,1.0496422930355167,0.7953643798828125,-1.0852813720703125,-0.1354217529296875,1.3523236315748315
1781021824.568926,-0.06494140625,-0.2309570163488388,1.00390625,1.0321755124180905,3.6029815673828125,-0.1087188720703125,-0.1964569091796875,3.6099710920184647
1781021824.579569,-0.0825195237994194,-0.2314453125,0.9677733778953552,0.9984797020717505,3.910064697265625,0.499725341796875,-0.2574920654296875,3.950270056312122
1781021824.590212,-0.0722656175494194,-0.20068359375,0.9770507216453552,1.0000621665416223,4.0302276611328125,0.3185272216796875,0.0476837158203125,4.043076591936575
1781021824.598243,-0.0834960862994194,-0.19287109375,0.9248046278953552,0.948385182828321,4.6405792236328125,0.6237030029296875,0.4138946533203125,4.700562705753766
1781021824.606274,-0.0776367112994194,-0.1689453125,0.9150390028953552,0.9337378402832552,3.96728515625,0.682830810546875,0.7801055908203125,4.10050901226455
1781021824.614305,-0.0849609375,-0.1708984375,0.9326171278953552,0.9519450320709708,2.8705596923828125,0.7457733154296875,0.8411407470703125,3.0828247666583155
1781021824.622336,-0.080078125,-0.1572265625,0.9238280653953552,0.9405269759401943,1.2836456298828125,0.6237030029296875,0.6580352783203125,1.5715476341793917
1781021824.632989,-0.08154296875,-0.1533203125,0.9208983778953552,0.9371286978787693,-0.4253387451171875,0.8068084716796875,1.2073516845703125,1.5131262499562779
1781021824.643642,-0.0678710862994194,-0.17333984375,0.9326171278953552,0.9510141392379605,-2.1343231201171875,0.6237030029296875,0.7190704345703125,2.336964464172148
1781021824.654295,-0.08642578125,-0.16748046875,0.9702147841453552,0.9883500647299067,-3.3550262451171875,0.5626678466796875,0.9632110595703125,3.535614763572363
1781021824.664926,-0.08349609375,-0.18701171875,0.9887694716453552,1.0097574207101292,-3.72314453125,0.194549560546875,0.6580352783203125,3.785850652046361
1781021824.67556,-0.0810546875,-0.2124023288488388,1.00244140625,1.027897555513491,-3.23486328125,0.194549560546875,0.7190704345703125,3.3195259103916688
1781021824.686194,-0.08056640625,-0.23828125,0.9819335341453552,1.0136381826849215,-2.5005340576171875,-0.1697540283203125,0.3528594970703125,2.5310070778461218
1781021824.696881,-0.0737304612994194,-0.2294921875,0.9877929091453552,1.0167780861155518,-1.8291473388671875,-0.6580352783203125,0.2307891845703125,1.9575632971921073
1781021824.707567,-0.076171875,-0.22802734375,1.02392578125,1.0517711868781723,-0.9136199951171875,-0.4138946533203125,-0.5626678466796875,1.1500458187447262
1781021824.718253,-0.0732421800494194,-0.23583984375,1.00732421875,1.0371532820748888,-0.1811981201171875,-0.2918243408203125,-0.8678436279296875,0.9333524345965861
1781021824.726241,-0.0820312425494194,-0.23779296875,0.9658202528953552,0.9980397695703253,1.8329620361328125,-0.0476837158203125,-0.7457733154296875,1.9794447202853547
1781021824.734232,-0.0810546875,-0.2270507663488388,0.9824218153953552,1.0115703318257327,1.89208984375,-0.476837158203125,-0.8068084716796875,2.1114728419374105
1781021824.742223,-0.0849609375,-0.23388671875,0.9868163466453552,1.017707158329451,2.8095245361328125,-0.5359649658203125,-0.5016326904296875,2.9038460564959
1781021824.750214,-0.0786132737994194,-0.2216796875,0.9658202528953552,0.9940476304334758,3.2367706298828125,-0.3528594970703125,-0.5626678466796875,3.3042077780962638
1781021824.758995,-0.0639648362994194,-0.19482421875,0.9726561903953552,0.994036237372041,2.9315948486328125,-0.7801055908203125,-0.3185272216796875,3.050290589486604
1781021824.767776,-0.0791015550494194,-0.193359375,0.9541015028953552,0.9767059853091935,3.173828125,-0.293731689453125,-0.3795623779296875,3.2099113494253455
1781021824.776557,-0.078125,-0.19091796875,0.9506835341453552,0.9728064393864427,2.8095245361328125,-0.3528594970703125,-0.2574920654296875,2.843279815207124
1781021824.785338,-0.06982421875,-0.1748046875,0.9433593153953552,0.9619557672986913,2.0160675048828125,-0.3528594970703125,-0.3795623779296875,2.081611300809246
1781021824.79432,-0.0849609375,-0.171875,0.9458007216453552,0.9650380208006074,1.4667510986328125,0.0743865966796875,-0.2574920654296875,1.4910379991352989
1781021824.803302,-0.0869140475988388,-0.17626953125,0.9462890028953552,0.9664822172796526,0.7343292236328125,-0.1087188720703125,-0.5016326904296875,0.8959322284264234
1781021824.812284,-0.0742187425494194,-0.1689453125,0.9453124403953552,0.9631544789531747,0.0,0.377655029296875,-0.1964569091796875,0.425697825126767
1781021824.821266,-0.08056640625,-0.16015625,0.9428710341453552,0.9597639070419528,-1.2187957763671875,0.3795623779296875,-0.1964569091796875,1.2915595458183762
1781021824.830248,-0.0737304612994194,-0.1533203125,0.9326171278953552,0.9480073873089303,-1.8901824951171875,0.3185272216796875,-0.3185272216796875,1.9431183820728468
1781021824.838255,-0.0917968675494194,-0.15966796875,0.9306640028953552,0.9487128182025593,-3.5381317138671875,0.1354217529296875,-0.2574920654296875,3.550072849900204
1781021824.846262,-0.0722656175494194,-0.16064453125,0.9467772841453552,0.963024511979828,-4.1484832763671875,-0.0476837158203125,-0.3185272216796875,4.160967053703219
1781021824.854269,-0.0854492112994194,-0.17822265625,0.9716796278953552,0.9915776228714293,-5.0029754638671875,0.1354217529296875,-0.5016326904296875,5.029884481708439
1781021824.862276,-0.06591796875,-0.17919921875,0.9589843153953552,0.9778079851274658,-5.06591796875,0.194549560546875,-0.8678436279296875,5.143396442055703
1781021824.872944,-0.0712890625,-0.181640625,0.9736327528953552,0.992993547105472,-5.2471160888671875,0.4405975341796875,-1.4781951904296875,5.469132879916484
1781021824.883612,-0.0844726487994194,-0.1923828125,0.9877929091453552,1.0098918785189057,-5.06591796875,0.255584716796875,-1.3561248779296875,5.250516460130763
1781021824.89428,-0.08056640625,-0.1982421875,0.9765624403953552,0.9997325195829917,-4.69970703125,0.499725341796875,-0.9899139404296875,4.8287577290926205
1781021824.90227,-0.0791015550494194,-0.2041015625,0.9746093153953552,0.9988882927943348,-4.08935546875,0.011444091796875,-0.8678436279296875,4.18044395723358
1781021824.910262,-0.0820312425494194,-0.19677734375,0.9736327528953552,0.9967001481278586,-3.84521484375,0.194549560546875,-0.8068084716796875,3.9337598599912567
1781021824.918254,-0.0810546875,-0.19970703125,0.9604491591453552,0.9843349775353059,-3.7212371826171875,0.3185272216796875,-0.6847381591796875,3.7970952196225567
1781021824.926246,-0.0771484300494194,-0.19287109375,0.9472655653953552,0.9697748142982439,-4.2705535888671875,0.6237030029296875,-0.6237030029296875,4.360692471054733
1781021824.93692,-0.06982421875,-0.18603515625,0.9492186903953552,0.9697941137586281,-4.756927490234375,0.988006591796875,-0.3185272216796875,4.868878285984624
1781021824.947594,-0.0820312425494194,-0.1640625,0.9443358778953552,0.9619853839538535,-5.611419677734375,0.988006591796875,-0.3795623779296875,5.7103638608969804
1781021824.958268,-0.0776367112994194,-0.18994140625,0.9399413466453552,0.9620784437264462,-6.7138671875,1.232147216796875,-0.2574920654296875,6.830849254595558
1781021824.968936,-0.087890625,-0.18212890625,0.9624022841453552,0.9834194715292701,-8.052825927734375,0.988006591796875,0.0476837158203125,8.113349258141147
1781021824.979604,-0.095703125,-0.19091796875,0.9897460341453552,1.0125245532987583,-7.3223114013671875,0.6237030029296875,0.7190704345703125,7.383922533743739
1781021824.990272,-0.09130859375,-0.1972656100988388,0.9980468153953552,1.021444284305845,-6.099700927734375,0.499725341796875,0.9021759033203125,6.186274984638932
1781021824.998305,-0.0908203125,-0.2158203125,1.00830078125,1.035131490159369,-4.6367645263671875,0.2574920654296875,1.3294219970703125,4.830450318865808
1781021825.006338,-0.0932617112994194,-0.2177734375,1.00390625,1.0314798959088467,-3.23486328125,0.194549560546875,1.5735626220703125,3.602539285762932
1781021825.014371,-0.0908203125,-0.244140625,1.00537109375,1.0385682500856934,-1.953125,0.194549560546875,1.6956329345703125,2.593784464047372
1781021825.022404,-0.0883788987994194,-0.2236328125,0.9868163466453552,1.0156913736889488,-0.48828125,0.1373291015625,1.8177032470703125,1.887146776392203
1781021825.033055,-0.0996093675494194,-0.2275390625,1.0029296875,1.0332298917161764,0.5512237548828125,0.4405975341796875,1.9397735595703125,2.0641451687031145
1781021825.043706,-0.0878906175494194,-0.23095703125,0.9926757216453552,1.0229716512597788,1.4057159423828125,-0.0476837158203125,1.7566680908203125,2.250376374904854
1781021825.054357,-0.0791015550494194,-0.21435546875,0.9946288466453552,1.0205350878697597,2.9315948486328125,-0.3528594970703125,1.3904571533203125,3.263759990627801
1781021825.064995,-0.0922851487994194,-0.208984375,0.9853515028953552,1.0114883103334447,4.5166015625,-0.476837158203125,1.8177032470703125,4.891943217600817
1781021825.075634,-0.08984375,-0.19970703125,0.9643554091453552,0.9889065440640266,4.45556640625,-0.476837158203125,1.6956329345703125,4.791097653434576
1781021825.086273,-0.0991210862994194,-0.20263671875,0.9506835341453552,0.9770802483061697,4.0912628173828125,-0.8411407470703125,1.8177032470703125,4.555216163003805
1781021825.096958,-0.08447265625,-0.189453125,0.9536132216453552,0.975913055924056,3.9081573486328125,-0.6580352783203125,2.0618438720703125,4.467427049430203
1781021825.107643,-0.099609375,-0.18505859375,0.9497069716453552,0.9726829096372619,2.99072265625,-0.110626220703125,1.9397735595703125,3.566424207763596
1781021825.118328,-0.095703125,-0.1845703125,0.9448241591453552,0.9674285400461581,2.0160675048828125,-0.3528594970703125,2.0618438720703125,2.9052087982985015
1781021825.12632,-0.07958984375,-0.19091796875,0.9360350966453552,0.9586166680022077,-0.06103515625,-0.476837158203125,2.3059844970703125,2.3555601173543237
1781021825.134311,-0.08642578125,-0.2070312350988388,0.9545897841453552,0.9805982887838931,-1.2187957763671875,-1.0852813720703125,2.4280548095703125,2.925533961404455
1781021825.142302,-0.076171875,-0.2021484225988388,0.9755858778953552,0.9992166654179989,-1.2187957763671875,-0.7190704345703125,2.0008087158203125,2.450665409978719
1781021825.150293,-0.0795898362994194,-0.22705078125,0.9750975966453552,1.004341536675623,-0.6694793701171875,-0.7801055908203125,1.6956329345703125,1.9829115987963621
1781021825.160969,-0.06689453125,-0.2158203125,0.9648436903953552,0.9909473409291146,-0.732421875,-0.965118408203125,1.4514923095703125,1.8906943882004859
1781021825.171645,-0.0634765550494194,-0.2314453125,0.9770507216453552,1.006093593254064,-0.3643035888671875,-1.2073516845703125,0.9632110595703125,1.586880821099949
1781021825.182321,-0.06689453125,-0.21630859375,0.9721679091453552,0.9981857189988802,0.1239776611328125,-0.4749298095703125,0.2307891845703125,0.5423950886513313
1781021825.19037,-0.0629882737994194,-0.2255859375,0.9614257216453552,0.9895433068215239,0.42724609375,-0.476837158203125,-0.0133514404296875,0.6403836045913522
1781021825.19842,-0.0751953125,-0.220703125,0.9570311903953552,0.9850243163477178,-0.06103515625,-0.476837158203125,-0.6847381591796875,0.8366392964584445
1781021825.20647,-0.076171875,-0.21142578125,0.9472655653953552,0.9735579422417396,-0.30517578125,-0.1678466796875,-0.6847381591796875,0.7682259511240512
1781021825.21452,-0.0712890625,-0.181640625,0.9511718153953552,0.9709805711161348,-0.667572021484375,0.011444091796875,-0.9288787841796875,1.1439401937185898
1781021825.225108,-0.08642578125,-0.1845703125,0.9555663466453552,0.9770581654958786,-0.8525848388671875,0.5626678466796875,-0.4405975341796875,1.1124846966491564
1781021825.235696,-0.0791015625,-0.18115234375,0.9399413466453552,0.9605014127889367,-1.6460418701171875,0.1354217529296875,-0.7457733154296875,1.8121729297593057
1781021825.246284,-0.1010742112994194,-0.1845703125,0.9697265028953552,0.9922961689252875,-1.4629364013671875,0.4405975341796875,-0.0743865966796875,1.5296543620491474
1781021825.256952,-0.09521484375,-0.1845703125,0.9531249403953552,0.9754892202020143,-1.5850067138671875,1.2340545654296875,0.5359649658203125,2.0790371324362353
1781021825.267619,-0.095703125,-0.18408203125,0.9428710341453552,0.9654279203515005,-2.25830078125,0.682830810546875,1.4514923095703125,2.770019902305437
1781021825.278286,-0.09814453125,-0.201171875,0.9687499403953552,0.9942730607440303,-2.6226043701171875,0.6237030029296875,1.4514923095703125,3.0616807545469267
1781021825.286285,-0.0878906175494194,-0.2119140625,0.9672850966453552,0.9941191018840179,-2.8057098388671875,0.4405975341796875,1.6956329345703125,3.3077643410377484
1781021825.294282,-0.09130859375,-0.21142578125,0.9736327528953552,1.0004993042378207,-2.1343231201171875,0.2574920654296875,1.1463165283203125,2.4363248814405574
1781021825.302279,-0.0795898362994194,-0.21875,1.00146484375,1.0281624082844987,-1.7070770263671875,0.1964569091796875,1.1463165283203125,2.0656110171606388
1781021825.310276,-0.0869140550494194,-0.23193359375,1.0224609375,1.0520330857859472,-0.79345703125,-0.1678466796875,0.8411407470703125,1.1684452596096169
1781021825.320949,-0.0820312425494194,-0.25732421875,1.01171875,1.0471483693398285,0.732421875,-0.476837158203125,1.0242462158203125,1.3464381861206915
1781021825.331622,-0.0830078050494194,-0.26708984375,1.001953125,1.0402583068790114,2.5653839111328125,-0.7801055908203125,0.3528594970703125,2.704490556278744
1781021825.342295,-0.08984375,-0.2802734375,1.01953125,1.0611640160261238,3.7841796875,-0.720977783203125,0.6580352783203125,3.908047504659351
1781021825.352966,-0.0810546875,-0.2890625,1.01416015625,1.057661483555583,6.89697265625,-0.598907470703125,0.6580352783203125,6.954130600372579
1781021825.363638,-0.0791015550494194,-0.2626953125,1.0263671875,1.062400812686704,9.279251098632812,-0.7190704345703125,0.4749298095703125,9.319180305443709
1781021825.37431,-0.0732421800494194,-0.2607421875,1.0166015625,1.052059714159856,11.293411254882812,-0.1087188720703125,0.3528594970703125,11.299445446115076
1781021825.382304,-0.0771484300494194,-0.22802734375,0.9804686903953552,1.0095876398819241,12.39013671875,-0.476837158203125,0.4749298095703125,12.408401182617313
1781021825.390301,-0.0795898362994194,-0.193359375,0.9692382216453552,0.9915367467929818,12.943267822265625,-0.476837158203125,0.4749298095703125,12.960752829923054
1781021825.398298,-0.0732421800494194,-0.18017578125,0.9399413466453552,0.9598528346683793,13.185501098632812,-0.5359649658203125,0.5970001220703125,13.20988670702311
1781021825.406295,-0.0830078050494194,-0.14599609375,0.8876952528953552,0.9034423153153331,12.575149536132812,-0.0476837158203125,0.7801055908203125,12.599413650074547
1781021825.417014,-0.0932617112994194,-0.11474609375,0.8745116591453552,0.8869244921674798,10.498046875,0.011444091796875,0.7190704345703125,10.522650875459446
1781021825.427733,-0.09033203125,-0.10107421875,0.8662108778953552,0.8767537616400147,7.0209503173828125,0.2574920654296875,1.3294219970703125,7.150343234363752
1781021825.438452,-0.08447265625,-0.0986328125,0.8823241591453552,0.8918295706956284,3.662109375,0.194549560546875,1.6956329345703125,4.040305143769639
1781021825.449087,-0.07275390625,-0.11181640625,0.8798827528953552,0.8899380306650613,-2.5615692138671875,0.2574920654296875,1.6956329345703125,3.0827114769291883
1781021825.459724,-0.0830078125,-0.1025390625,0.8862304091453552,0.8959960347949971,-5.9795379638671875,0.7457733154296875,1.2683868408203125,6.157910138781019
1781021825.470361,-0.0737304612994194,-0.0986328125,0.8891600966453552,0.8976470854915437,-8.726119995117188,0.5016326904296875,0.8411407470703125,8.780906745984364
1781021825.480986,-0.07470703125,-0.1220703125,0.9145507216453552,0.9256810056245489,-10.80322265625,0.560760498046875,0.7190704345703125,10.8416389160752
1781021825.491612,-0.06591796875,-0.14013671875,0.9248046278953552,0.9376817574864134,-12.0849609375,0.377655029296875,-0.0133514404296875,12.090867729117528
1781021825.502238,-0.06689453125,-0.12939453125,0.9584960341453552,0.9695011451777344,-13.790130615234375,0.011444091796875,-0.4405975341796875,13.797172157351183
1781021825.510257,-0.0683593675494194,-0.1630859375,0.9873046278953552,1.0030156800397472,-14.0380859375,-0.110626220703125,-1.8444061279296875,14.15916413190012
1781021825.518277,-0.06884765625,-0.1826171875,1.0166015625,1.0351655779724178,-12.51220703125,-0.476837158203125,-2.0275115966796875,12.684380226994765
1781021825.526297,-0.07958984375,-0.23046875,1.01708984375,1.045907327737076,-11.165618896484375,-0.476837158203125,-2.9430389404296875,11.556811723908012
1781021825.534317,-0.056640625,-0.2421875,0.9995116591453552,1.0299934477093247,-10.679244995117188,0.0743865966796875,-3.2482147216796875,11.162558215285497
1781021825.544957,-0.0878906175494194,-0.25439453125,1.00732421875,1.0426616996242948,-9.275436401367188,-0.0476837158203125,-3.0040740966796875,9.749895145636378
1781021825.555597,-0.0859375,-0.27392578125,1.04541015625,1.0841139157534703,-7.1392059326171875,-0.1697540283203125,-2.8820037841796875,7.700845641257423
1781021825.566237,-0.09033203125,-0.2685546875,1.0595703125,1.0968002293851518,-4.0264129638671875,0.5626678466796875,-2.5768280029296875,4.813381245856961
1781021825.576972,-0.10791015625,-0.279296875,1.005859375,1.0494781696071889,-2.0122528076171875,0.5016326904296875,-1.7833709716796875,2.735179836957843
1781021825.587706,-0.10498046875,-0.26025390625,1.0283203125,1.065924790797855,-0.2422332763671875,0.1354217529296875,-0.6847381591796875,0.7388385195581769
1781021825.59844,-0.0976562425494194,-0.27587890625,1.0048828125,1.0466304885108582,2.3822784423828125,-0.1697540283203125,0.1697540283203125,2.394344051573171
1781021825.609058,-0.0947265550494194,-0.23681640625,0.9829100966453552,1.015464124717401,5.8002471923828125,0.4405975341796875,2.0008087158203125,6.151441229270784
1781021825.619675,-0.0966796800494194,-0.2314453125,0.9877929091453552,1.019141170089073,6.3495635986328125,0.0743865966796875,3.0994415283203125,7.066047625534731
1781021825.630292,-0.0937499925494194,-0.203125,0.9565429091453552,0.9823559251942625,6.89697265625,-0.110626220703125,3.4656524658203125,7.719534765490318
1781021825.638292,-0.08154296875,-0.19482421875,0.9428710341453552,0.9662357471106329,6.4716339111328125,-0.1697540283203125,3.7708282470703125,7.491996234566494
1781021825.646292,-0.07568359375,-0.2041015625,0.9575194716453552,0.9819516244489118,5.6781768798828125,-0.5970001220703125,3.7708282470703125,6.842313022209013
1781021825.654292,-0.08056640625,-0.1953125,0.9638671278953552,0.9867511128494009,5.0678253173828125,-0.7190704345703125,3.7708282470703125,6.35759871384493
1781021825.662292,-0.08154296875,-0.1845703125,0.9458007216453552,0.9670855500284273,4.3964385986328125,-0.7190704345703125,3.3435821533203125,5.570033775249813
1781021825.67428,-0.0590820237994194,-0.1787109375,0.9438475966453552,0.9624326316223787,3.5419464111328125,-0.5970001220703125,2.4280548095703125,4.335578817570511
1781021825.686268,-0.0590820275247097,-0.19140625,0.9565429091453552,0.9772928811527035,2.8705596923828125,-1.1463165283203125,1.8787384033203125,3.617155307523275
1781021825.698256,-0.0595703050494194,-0.19873046875,0.9414061903953552,0.9639958691654085,2.3822784423828125,-1.3294219970703125,1.2073516845703125,2.983338987371544
1781021825.710244,-0.076171875,-0.17724609375,0.9497069716453552,0.9691035364100375,1.7108917236328125,-0.5970001220703125,0.4138946533203125,1.8587276346453683
1781021825.718397,-0.0673828050494194,-0.19775390625,0.9550780653953552,0.9776610664503298,0.9174346923828125,-0.2918243408203125,0.0476837158203125,0.9639095379947166
1781021825.726552,-0.0742187425494194,-0.2021484375,0.9516600966453552,0.9757199147687594,0.732421875,-0.293731689453125,-0.1354217529296875,0.8006617010536048
1781021825.734707,-0.06787109375,-0.1962890625,0.9541015028953552,0.9764453693121422,-0.0591278076171875,0.3185272216796875,-0.3795623779296875,0.4990223314885165
1781021825.742862,-0.0844726487994194,-0.1982421875,0.9550780653953552,0.9790861577508435,-0.7305145263671875,0.5626678466796875,-0.5626678466796875,1.080204464260257
1781021825.75072,-0.0893554612994194,-0.19384765625,0.9667968153953552,0.9900794890089637,-1.5850067138671875,0.6237030029296875,-0.5626678466796875,1.7938357852810067
1781021825.758578,-0.0874023362994194,-0.2099609375,0.9487304091453552,0.9756086064111923,-1.7070770263671875,0.6847381591796875,-0.6237030029296875,1.9421595599875248
1781021825.766436,-0.0878906175494194,-0.19921875,0.9438475966453552,0.9686388164315912,-2.0732879638671875,1.2950897216796875,-0.6237030029296875,2.522852711551039
1781021825.774294,-0.0834960862994194,-0.20947265625,0.9667968153953552,0.9927469327086089,-2.315521240234375,0.988006591796875,-0.0743865966796875,2.518596634075453
1781021825.784942,-0.07666015625,-0.21533203125,0.9731444716453552,0.9996273435297991,-2.1953582763671875,1.0509490966796875,0.2307891845703125,2.4448631072394194
1781021825.79559,-0.07666015625,-0.2158203125,0.9765624403953552,1.003060011581961,-2.0122528076171875,0.9288787841796875,-0.1964569091796875,2.2249881965140452
1781021825.806238,-0.0722656175494194,-0.23291015625,0.9711913466453552,1.0013401480830662,-2.0122528076171875,1.0509490966796875,-0.2574920654296875,2.284722637287588
1781021825.814252,-0.0737304612994194,-0.22802734375,0.9770507216453552,1.0060123076229313,-0.6084442138671875,0.7457733154296875,-0.7457733154296875,1.2176042203451976
1781021825.822264,-0.08447265625,-0.22998046875,0.9838866591453552,1.013932741213444,-0.244140625,0.499725341796875,-1.0509490966796875,1.1890433405983338
1781021825.830276,-0.0820312425494194,-0.22509765625,0.9736327528953552,1.002675828527861,0.42724609375,0.499725341796875,-1.1119842529296875,1.291810210759395
1781021825.838288,-0.1049804612994194,-0.22802734375,0.9731444716453552,1.0050012584301757,0.8544921875,0.011444091796875,-0.9899139404296875,1.3077528341367193
1781021825.847878,-0.0859375,-0.25048828125,0.9809569716453552,1.0160739211147265,1.7108917236328125,-0.7190704345703125,-0.7457733154296875,2.0000976520848632
1781021825.857468,-0.0771484300494194,-0.2431640625,1.00341796875,1.0353396841428275,2.9315948486328125,-0.7190704345703125,-0.4405975341796875,3.050481410126736
1781021825.867058,-0.0874023362994194,-0.22412109375,0.9941405653953552,1.0228318027998982,4.45556640625,-0.476837158203125,0.2307891845703125,4.486948776580963
1781021825.876648,-0.0971679612994194,-0.220703125,0.9838866591453552,1.0130076209644523,5.5561065673828125,-0.7190704345703125,0.7190704345703125,5.6484019658537665
1781021825.886238,-0.0932617112994194,-0.23095703125,0.9843749403953552,1.0153979123263297,6.2255859375,-0.904083251953125,1.1463165283203125,6.394476395668391
1781021825.89429,-0.0849609300494194,-0.2080078125,0.9785155653953552,1.0039812355900328,6.77490234375,-1.087188720703125,1.4514923095703125,7.013423629477625
1781021825.902342,-0.08984375,-0.19580078125,0.9653319716453552,0.9890781874214403,6.6547393798828125,-0.9021759033203125,1.8177032470703125,6.9572640218051855
1781021825.910394,-0.0898437425494194,-0.17822265625,0.9531249403953552,0.9737979078226351,6.0443878173828125,-0.5359649658203125,2.4890899658203125,6.558769045290426
1781021825.918446,-0.0791015625,-0.166015625,0.9335936903953552,0.9515331963100921,5.4950714111328125,0.1354217529296875,2.3670196533203125,5.984724797667836
1781021825.926425,-0.0820312425494194,-0.1455078125,0.9072265028953552,0.922475786028269,3.47900390625,-0.110626220703125,2.3059844970703125,4.175316855178591
1781021825.934404,-0.0747070237994194,-0.125,0.8955077528953552,0.9072707836697133,1.3427734375,0.072479248046875,1.8787384033203125,2.3104007734511267
1781021825.942383,-0.07470703125,-0.11767578125,0.9179686903953552,0.9284908435505166,-1.0356903076171875,0.4405975341796875,1.7566680908203125,2.0863037606551176
1781021825.950362,-0.0747070237994194,-0.13427734375,0.9077147841453552,0.9206289555546097,-2.9277801513671875,0.4405975341796875,1.2073516845703125,3.197455377655748
1781021825.961152,-0.0776367112994194,-0.125,0.9374999403953552,0.9489776589481356,-4.0264129638671875,0.6237030029296875,0.7801055908203125,4.1484420598931315
1781021825.971942,-0.0693359375,-0.1474609375,0.9926757216453552,1.0059608782957266,-4.150390625,0.499725341796875,0.3528594970703125,4.195232720838572
1781021825.982732,-0.06884765625,-0.1728515625,0.8989257216453552,0.917978820815291,-5.4302215576171875,0.3795623779296875,-0.5626678466796875,5.472473743129083
1781021825.993244,-0.0834960862994194,-0.18505859375,1.0263671875,1.0462542153438177,-7.7495574951171875,0.2574920654296875,-0.7457733154296875,7.789616253185597
1781021826.003756,-0.08544921875,-0.21875,1.0087890625,1.0357646953360664,-6.9561004638671875,0.3185272216796875,-1.1119842529296875,7.051616994216849
1781021826.014268,-0.09130859375,-0.21923828125,0.9980468153953552,1.0259142892946111,-4.9419403076171875,0.1964569091796875,-1.0509490966796875,5.056269704537897
1781021826.024969,-0.08935546875,-0.240234375,1.009765625,1.0417886408282697,-2.0732879638671875,0.1354217529296875,-1.2950897216796875,2.448289080048242
1781021826.03567,-0.0844726487994194,-0.236328125,0.9902343153953552,1.0215432494259427,-1.0356903076171875,-0.1087188720703125,-1.0509490966796875,1.4795162081735627
1781021826.046371,-0.1020507737994194,-0.22607421875,0.9907225966453552,1.0213007276606623,0.1850128173828125,-0.0476837158203125,-0.3185272216796875,0.37143380339077786
1781021826.05711,-0.09765625,-0.20654296875,0.9545897841453552,0.9815489784513057,1.03759765625,0.011444091796875,0.2918243408203125,1.077915260763924
1781021826.067852,-0.0834960862994194,-0.203125,0.9604491591453552,0.9852380166007298,1.285552978515625,0.011444091796875,0.9021759033203125,1.570572758053339
1781021826.078594,-0.08935546875,-0.1962890625,0.9560546278953552,0.9800786944795745,0.797271728515625,0.499725341796875,1.0242462158203125,1.390844325201971
1781021826.086524,-0.0927734300494194,-0.18408203125,0.9697265028953552,0.9913942676704943,0.0629425048828125,0.1354217529296875,1.6956329345703125,1.7021961869558402
1781021826.094453,-0.0908203125,-0.19091796875,0.9658202528953552,0.9886894157707321,0.0,0.194549560546875,2.1228790283203125,2.1317750585817388
1781021826.102382,-0.08544921875,-0.20361328125,0.9423827528953552,0.9679076351806536,-0.2422332763671875,-0.0476837158203125,2.3670196533203125,2.3798598143879457
1781021826.110311,-0.07958984375,-0.19482421875,0.9829100966453552,1.0051881801568694,-0.42724609375,-0.293731689453125,2.2449493408203125,2.304043201171188
1781021826.120961,-0.080078125,-0.19384765625,0.9794921278953552,1.0016956865965356,0.0629425048828125,-0.3528594970703125,2.4280548095703125,2.454367890490577
1781021826.131611,-0.0737304612994194,-0.2021484375,0.9487304091453552,0.9728255552483341,0.2460479736328125,-0.5970001220703125,1.7566680908203125,1.8715852992549025
1781021826.142261,-0.0605468712747097,-0.201171875,0.9731444716453552,0.995563262483148,0.67138671875,-0.720977783203125,0.9632110595703125,1.3778042804640098
1781021826.153123,-0.0600585900247097,-0.1962890625,0.9721679091453552,0.9936029759742755,1.2226104736328125,-0.8411407470703125,-0.1354217529296875,1.4901789079789054
1781021826.163988,-0.0615234337747097,-0.20166015625,0.9799804091453552,1.0024038875777086,1.8939971923828125,-0.7801055908203125,-1.1119842529296875,2.3307293013875894
1781021826.174853,-0.0654296800494194,-0.2080078125,0.9687499403953552,0.9929877844708911,2.197265625,-0.476837158203125,-2.3326873779296875,3.23987350145069
1781021826.182711,-0.0712890625,-0.2041015625,0.9541015028953552,0.978288943039962,1.9550323486328125,-0.3528594970703125,-3.9196014404296875,4.394307312955243
1781021826.190569,-0.0820312425494194,-0.19482421875,0.9584960341453552,0.9815295453719788,1.2836456298828125,-0.0476837158203125,-3.6144256591796875,3.835895291272716
1781021826.198427,-0.0776367112994194,-0.2021484375,0.9511718153953552,0.975509749888527,0.9174346923828125,-0.0476837158203125,-3.9196014404296875,4.025821109209954
1781021826.206285,-0.099609375,-0.1796875,0.9492186903953552,0.9711980989684925,-0.0591278076171875,0.5626678466796875,-3.6144256591796875,3.658437378042337
1781021826.217005,-0.0986328050494194,-0.17919921875,0.9575194716453552,0.9791242662770274,-0.9765625,0.682830810546875,-2.4547576904296875,2.7286933779671996
1781021826.227725,-0.1396484375,-0.18896484375,0.9477538466453552,0.9764459801242058,-1.5239715576171875,0.1354217529296875,-0.8678436279296875,1.7589715523938605
1781021826.238445,-0.1445312350988388,-0.189453125,0.9521483778953552,0.9815132694060827,-2.0122528076171875,-0.8411407470703125,1.4514923095703125,2.6198299644990355
1781021826.249075,-0.12451171875,-0.2041015625,0.9736327528953552,1.002557406551669,-2.1343231201171875,-1.0242462158203125,3.7097930908203125,4.4007931408312215
1781021826.259705,-0.1103515625,-0.2119140475988388,0.9770507216453552,1.0058395217844762,-1.338958740234375,-0.965118408203125,5.3577423095703125,5.606216790819134
1781021826.270335,-0.08642578125,-0.21630859375,0.9658202528953552,0.9935127499421551,-0.9136199951171875,-1.5735626220703125,6.4563751220703125,6.70787451715841
1781021826.280983,-0.0776367112994194,-0.220703125,0.9838866591453552,1.011321059985583,0.5512237548828125,-1.8787384033203125,7.1277618408203125,7.391785608059249
1781021826.291629,-0.0712890625,-0.2236328125,0.9760741591453552,1.003899661026988,1.4057159423828125,-1.6345977783203125,6.5174102783203125,6.864734805039023
1781021826.302275,-0.0541992150247097,-0.21044921875,0.9858397841453552,1.0095080527591351,2.0771026611328125,-1.5125274658203125,5.5408477783203125,6.107625471675794
1781021826.310277,-0.01318359375,-0.20947265625,0.9628905653953552,0.9855003002475354,2.1991729736328125,-1.5125274658203125,3.6487579345703125,4.520789263824141
1781021826.318279,-0.015624996274709702,-0.19921875,0.9658202528953552,0.9862763364103364,2.3822784423828125,-0.6580352783203125,1.0852813720703125,2.69927706268156
1781021826.326281,-0.0209960900247097,-0.1904296875,0.9755858778953552,0.9942193454296312,2.5653839111328125,0.0743865966796875,-1.2950897216796875,2.87471483185116
1781021826.334283,-0.0283203087747097,-0.17529296875,0.9829100966453552,0.998820265548144,2.13623046875,0.3204345703125,-3.6144256591796875,4.21072817636139
1781021826.345023,-0.0493164025247097,-0.181640625,0.9555663466453552,0.9739263150000215,2.685546875,0.988006591796875,-5.6285858154296875,6.31421391187475
1781021826.355763,-0.080078125,-0.18896484375,0.9497069716453552,0.971629327608409,2.7484893798828125,1.2950897216796875,-6.6661834716796875,7.325943852953313
1781021826.366503,-0.0966796800494194,-0.189453125,0.9477538466453552,0.9713273397458713,2.2602081298828125,1.2340545654296875,-7.3986053466796875,7.833951272299533
1781021826.374478,-0.099609375,-0.18115234375,0.9853515028953552,1.0068047395061983,0.9174346923828125,1.2340545654296875,-5.7506561279296875,5.9526987986072895
1781021826.382453,-0.1142578125,-0.19189453125,0.9731444716453552,0.998443048718784,1.2836456298828125,0.7457733154296875,-3.9806365966796875,4.248457561980569
1781021826.390428,-0.138671875,-0.1943359375,0.9702147841453552,0.9991561804313867,1.4057159423828125,0.6847381591796875,-2.2106170654296875,2.7077170212699384
1781021826.406367,-0.13525390625,-0.18798828125,0.9672850966453552,0.9946223761988402,1.5888214111328125,0.9288787841796875,-0.8068084716796875,2.009504710655665
1781021826.414331,-0.1108398288488388,-0.185546875,0.9428710341453552,0.9673256419178793,1.8939971923828125,0.7457733154296875,1.3294219970703125,2.4312067063611402
1781021826.422295,-0.1137695237994194,-0.1748046875,0.9516600966453552,0.9742469516834867,1.40380859375,0.499725341796875,2.8553009033203125,3.220737063720376
1781021826.430259,-0.10546875,-0.1875,0.9511718153953552,0.9751962518534709,1.15966796875,0.072479248046875,3.5877227783203125,3.77118519476578
1781021826.440915,-0.1103515625,-0.181640625,0.9570311903953552,0.980346613900478,0.9174346923828125,-0.9021759033203125,4.6253204345703125,4.800957914601322
1781021826.451571,-0.0908203125,-0.17578125,0.9726561903953552,0.992576164195255,0.3070831298828125,-1.2073516845703125,5.1746368408203125,5.322486690755386
1781021826.462227,-0.0771484300494194,-0.17822265625,0.9687499403953552,0.988024110270544,0.3662109375,-2.063751220703125,5.3577423095703125,5.753136727686741
1781021826.470238,-0.0458984337747097,-0.16455078125,0.9589843153953552,0.9740813841806314,0.4901885986328125,-1.8787384033203125,3.8318634033203125,4.29570948645805
1781021826.478252,-0.0415039025247097,-0.17236328125,0.9877929091453552,1.0035768560533325,0.7343292236328125,-2.0008087158203125,2.0618438720703125,2.9654131379586213
1781021826.486266,-0.02392578125,-0.18896484375,0.9721679091453552,0.9906516031148067,0.9174346923828125,-1.6956329345703125,-0.0133514404296875,1.9279615464393016
1781021826.49428,-0.029296867549419403,-0.17333984375,0.9570311903953552,0.973043527941599,0.2460479736328125,-1.3904571533203125,-2.2106170654296875,2.623116183190787
1781021826.504956,-0.024902336299419403,-0.193359375,0.9653319716453552,0.9848217045406081,-0.6694793701171875,-1.0852813720703125,-4.0416717529296875,4.238059560931755
1781021826.515632,-0.0415039025247097,-0.1953125,0.9697265028953552,0.9900702182162061,-1.0967254638671875,-1.0242462158203125,-5.9947967529296875,6.179763358143518
1781021826.526308,-0.0585937425494194,-0.1982421875,0.9599608778953552,0.981966434589469,-1.6460418701171875,-0.7190704345703125,-6.8492889404296875,7.080909201334562
1781021826.534287,-0.0703125,-0.2021484225988388,0.9604491591453552,0.9840073270654384,-2.4394989013671875,-0.5359649658203125,-7.1544647216796875,7.577913881017499
1781021826.542266,-0.09521484375,-0.20556640625,0.9682616591453552,0.9944114110466518,-2.44140625,0.255584716796875,-6.2389373779296875,6.70448563506011
1781021826.550245,-0.1025390550494194,-0.21533203125,0.9702147841453552,0.9990990285586795,-2.5005340576171875,0.3795623779296875,-4.7740936279296875,5.402657507216421
1781021826.558224,-0.1186523362994194,-0.2021484375,0.9804686903953552,1.008097822901421,-2.9888153076171875,0.6847381591796875,-3.2482147216796875,4.466853721336782
1781021826.566268,-0.1240234300494194,-0.216796875,0.9775390028953552,1.00894261402353,-2.3784637451171875,1.2950897216796875,-1.0509490966796875,2.9049683609032817
1781021826.574312,-0.13134765625,-0.21826171875,0.9682616591453552,1.0012097808376565,-1.8901824951171875,1.5392303466796875,0.6580352783203125,2.524882245274262
1781021826.582356,-0.12646484375,-0.208984375,0.9902343153953552,1.0199175579846445,-1.8291473388671875,1.7833709716796875,3.0384063720703125,3.969648006026749
1781021826.5904,-0.1303710788488388,-0.21044921875,0.9868163466453552,1.0173947089891815,-1.2187957763671875,1.5392303466796875,5.1746368408203125,5.534578542129924
1781021826.59998,-0.12548828125,-0.216796875,0.9882811903953552,1.0195331799554663,-0.79345703125,1.232147216796875,6.4563751220703125,6.620614815950916
1781021826.60956,-0.1059570163488388,-0.201171875,0.9716796278953552,0.9979270072863143,-0.8525848388671875,0.8068084716796875,7.4329376220703125,7.525051661685026
1781021826.61914,-0.1030273362994194,-0.18798828125,0.9775390028953552,1.0007680690819067,-0.667572021484375,0.194549560546875,8.043289184570312,8.073289468488262
1781021826.62872,-0.0737304612994194,-0.19482421875,0.9638671278953552,0.986119920380992,-0.667572021484375,0.194549560546875,7.8601837158203125,7.890880177890457
1781021826.6383,-0.0517578125,-0.19287109375,0.9707030653953552,0.9910310646629831,-0.2422332763671875,0.8068084716796875,6.5174102783203125,6.571624883246833
1781021826.647895,-0.0268554650247097,-0.1875,0.9653319716453552,0.9837394377996657,-0.3643035888671875,0.8678436279296875,4.5642852783203125,4.6603186338802205
1781021826.65749,-0.0219726525247097,-0.189453125,0.9589843153953552,0.9777659235244064,-0.6084442138671875,0.6237030029296875,2.4280548095703125,2.5796627600385085
1781021826.667085,-0.0283203125,-0.18798828125,0.9619140028953552,0.9805203633548832,-0.6694793701171875,0.8068084716796875,0.0476837158203125,1.049483812996204
1781021826.67668,-0.0292968712747097,-0.20068359375,0.9599608778953552,0.9811509050887753,-0.4253387451171875,1.0509490966796875,-2.2716522216796875,2.538860151361625
1781021826.686275,-0.03759765625,-0.193359375,0.9658202528953552,0.9857028926399333,-0.9136199951171875,0.9288787841796875,-4.5909881591796875,4.772283475329726
1781021826.694262,-0.0639648362994194,-0.18798828125,0.9731444716453552,0.9931974913701999,-0.9765625,1.2969970703125,-6.2999725341796875,6.505807378659768
1781021826.702249,-0.0703124925494194,-0.1982421875,0.9633788466453552,0.9860743449035839,-0.6084442138671875,1.4171600341796875,-7.2154998779296875,7.378481240219289
1781021826.710236,-0.0869140550494194,-0.19384765625,0.9736327528953552,0.9965398658906424,-0.7305145263671875,1.2340545654296875,-7.4596405029296875,7.596234499845329
1781021826.718223,-0.1118163987994194,-0.208984375,0.9726561903953552,1.0011180953059517,-0.5474090576171875,1.2340545654296875,-6.7882537841796875,6.921194751287457
1781021826.729022,-0.1181640550494194,-0.19970703125,0.9667968153953552,0.9942543560352206,-0.2422332763671875,1.4781951904296875,-5.6896209716796875,5.883495966053377
1781021826.739821,-0.142578125,-0.2080078125,0.9545897841453552,0.9873385578332422,-0.1220703125,0.988006591796875,-4.5299530029296875,4.6380526512082225
1781021826.75062,-0.13671875,-0.20068359375,0.9584960341453552,0.9887773100523451,0.0,0.865936279296875,-2.2716522216796875,2.4311004619440917
1781021826.75854,-0.1435546875,-0.197265625,0.9604491591453552,0.990951190731856,-0.79345703125,0.3204345703125,2.0618438720703125,2.2323647836062364
1781021826.766461,-0.138671875,-0.1845703125,0.9687499403953552,0.9958777717111511,-1.2798309326171875,0.2574920654296875,3.5877227783203125,3.817855957723058
1781021826.774382,-0.1210937350988388,-0.19677734375,0.9575194716453552,0.9850018041980906,-1.3408660888671875,0.0743865966796875,5.4798126220703125,5.641967884261722
1781021826.782303,-0.115234375,-0.19091796875,0.9580077528953552,0.9836195842808716,-1.827239990234375,-0.476837158203125,6.1511993408203125,6.434549944468781
1781021826.792967,-0.109375,-0.20068359375,0.9492186903953552,0.9763467199828595,-2.197265625,-0.965118408203125,7.2498321533203125,7.636720239734871
1781021826.803631,-0.09521484375,-0.201171875,0.9658202528953552,0.991133064055579,-2.1343231201171875,-1.1463165283203125,7.6160430908203125,7.992089158999599
1781021826.814295,-0.08544921875,-0.19677734375,0.9638671278953552,0.9874526480978884,-2.5005340576171875,-1.8787384033203125,7.0667266845703125,7.727933397476466
1781021826.825017,-0.0537109300494194,-0.20751953125,0.9672850966453552,0.9907520769845539,-2.5005340576171875,-2.4280548095703125,6.4563751220703125,7.337090734648812
1781021826.835742,-0.0302734337747097,-0.185546875,0.9555663466453552,0.9738845755303492,-2.6836395263671875,-2.4280548095703125,4.8694610595703125,6.067043948780119
1781021826.846467,-0.0346679650247097,-0.19677734375,0.9721679091453552,0.992488606677332,-3.1719207763671875,-2.0618438720703125,3.0994415283203125,4.890687002029497
1781021826.857068,-0.0283203125,-0.1884765625,0.9843749403953552,1.0026562112659918,-2.25830078125,-0.6561279296875,-0.9899139404296875,2.551539905266503
1781021826.867669,-0.0483398362994194,-0.189453125,0.9804686903953552,0.9997740140608292,-1.155853271484375,-0.293731689453125,-2.7599334716796875,3.0065774326778967
1781021826.87827,-0.0468749962747097,-0.19580078125,0.9648436903953552,0.9856259727247413,-0.7305145263671875,0.1354217529296875,-4.0416717529296875,4.109391814226256
1781021826.886281,-0.0722656175494194,-0.20458984375,0.9921874403953552,1.0156353875893331,-0.7305145263671875,0.7457733154296875,-5.0792694091796875,5.185441836745355
1781021826.894291,-0.0820312425494194,-0.216796875,1.00048828125,1.026989196964869,0.0629425048828125,0.6237030029296875,-5.0792694091796875,5.117806651859076
1781021826.902301,-0.10400390625,-0.2294921875,0.9912108778953552,1.022732849329127,1.3446807861328125,1.1119842529296875,-5.0182342529296875,5.312941785172799
1781021826.910311,-0.1103515550494194,-0.212890625,0.9804686903953552,1.0093655119728921,2.0160675048828125,1.2340545654296875,-4.4078826904296875,5.001684582947222
1781021826.918297,-0.1201171875,-0.20849609375,0.9794921278953552,1.0086146878024778,2.13623046875,1.659393310546875,-3.1261444091796875,4.133986652342866
1781021826.926283,-0.1210937425494194,-0.2021484375,0.9838866591453552,1.0117117392382697,2.6874542236328125,1.6002655029296875,-1.9664764404296875,3.694629815658622
1781021826.934269,-0.1215820163488388,-0.19189453125,0.9677733778953552,0.9940779691684615,2.9926300048828125,1.6002655029296875,-0.0133514404296875,3.3936502894307266
1781021826.942255,-0.1206054612994194,-0.197265625,0.9667968153953552,0.9940601019860353,3.2978057861328125,1.6002655029296875,1.0852813720703125,3.8228534289821634
1781021826.952939,-0.1215820237994194,-0.19873046875,0.9677733778953552,0.995420161883284,3.11279296875,0.926971435546875,2.8553009033203125,4.324523020764379
1781021826.963623,-0.1186523362994194,-0.1923828125,0.9638671278953552,0.9900148300363797,3.2367706298828125,0.3795623779296875,3.8318634033203125,5.030301069609765
1781021826.974307,-0.10546875,-0.1943359375,0.9838866591453552,1.0084260368885636,2.9315948486328125,-0.0476837158203125,4.8084259033203125,5.631827568472479
1781021826.982301,-0.115234375,-0.19091796875,0.9770507216453552,1.0021760048219954,3.2367706298828125,-0.2307891845703125,5.7849884033203125,6.6329509710789445
1781021826.990295,-0.0971679612994194,-0.189453125,0.9555663466453552,0.9790000725824806,3.2367706298828125,-0.5359649658203125,5.8460235595703125,6.703725383255932
1781021826.998289,-0.0874023362994194,-0.1826171875,0.9414061903953552,0.9629298109808953,3.5419464111328125,-0.7190704345703125,6.2122344970703125,7.18709288348218
1781021827.006283,-0.07080078125,-0.189453125,0.9780272841453552,0.9987204842850753,2.62451171875,-1.697540283203125,6.0901641845703125,6.845422161559973
1781021827.014335,-0.0566406212747097,-0.189453125,0.9575194716453552,0.977723982078097,2.1991729736328125,-2.3059844970703125,5.5408477783203125,6.391785382129374
1781021827.022387,-0.0439453087747097,-0.19091796875,0.9521483778953552,0.9720943341485366,2.1991729736328125,-2.0618438720703125,3.8318634033203125,4.875524491011856
1781021827.030439,-0.0356445275247097,-0.1787109375,0.9677733778953552,0.9847809109073828,1.64794921875,-1.697540283203125,2.0618438720703125,3.138244699425139
1781021827.038491,-0.0166015625,-0.203125,0.9667968153953552,0.9880442600213019,1.3427734375,-1.453399658203125,0.2918243408203125,2.0001431240828085
1781021827.049137,-0.0361328087747097,-0.1865234375,0.9624022841453552,0.9809764161971292,1.708984375,-0.476837158203125,-2.2106170654296875,2.8345774075523735
1781021827.059783,-0.0454101525247097,-0.17236328125,0.9575194716453552,0.9739685422310026,1.5888214111328125,-0.1087188720703125,-4.0416717529296875,4.344109094860307
1781021827.070429,-0.0624999962747097,-0.1748046875,0.9384765028953552,0.9566614211898623,1.03759765625,0.011444091796875,-4.9571990966796875,5.0646384616885
1781021827.081037,-0.0781249925494194,-0.1796875,0.9189452528953552,0.9396017719949261,-0.0591278076171875,0.8068084716796875,-5.9337615966796875,5.988652827960426
1781021827.091645,-0.0888671800494194,-0.169921875,0.9204100966453552,0.9401731570833979,-1.77001953125,1.171112060546875,-5.7506561279296875,6.129805747416477
1781021827.102253,-0.1220703050494194,-0.17724609375,0.9106444716453552,0.935730030971936,-3.292083740234375,0.988006591796875,-5.6285858154296875,6.5950701785353205
1781021827.110263,-0.1093749925494194,-0.17431640625,0.9287108778953552,0.9512376113276124,-6.7138671875,1.354217529296875,-3.4313201904296875,7.660540188347981
1781021827.118273,-0.1123046800494194,-0.18212890625,0.9497069716453552,0.9735125123205224,-7.3223114013671875,1.4171600341796875,-1.9664764404296875,7.713080863820442
1781021827.126283,-0.11474609375,-0.1748046875,0.9707030653953552,0.9929691767475946,-7.869720458984375,1.171112060546875,-0.3795623779296875,7.9654297536074745
1781021827.134293,-0.12841796875,-0.19970703125,0.9726561903953552,1.0012163291431926,-7.8716278076171875,0.6237030029296875,1.2073516845703125,7.988067843211551
1781021827.142308,-0.1225585862994194,-0.20458984375,0.9736327528953552,1.0024162552313034,-7.5054168701171875,0.2574920654296875,2.6721954345703125,7.971086061418315
1781021827.150323,-0.1044921875,-0.22900390625,0.9838866591453552,1.0155758781944864,-6.9561004638671875,-0.1697540283203125,3.8318634033203125,7.9435084965807015
1781021827.158338,-0.10498046875,-0.2236328125,0.9785155653953552,1.009220117400868,-6.53076171875,-0.6561279296875,4.1980743408203125,7.791352941451206
1781021827.174321,-0.0722656175494194,-0.2265625,0.9584960341453552,0.9875563443968263,-6.2236785888671875,-1.3294219970703125,4.4422149658203125,7.761108930196524
1781021827.182289,-0.0874023362994194,-0.232421875,0.9956054091453552,1.0261039065750615,-6.1016082763671875,-1.4514923095703125,3.5266876220703125,7.195413752289598
1781021827.190257,-0.0839843675494194,-0.2470703125,1.02099609375,1.0538169370266746,-5.1250457763671875,-2.0618438720703125,3.1604766845703125,6.364425130077783
1781021827.198225,-0.0751953125,-0.2490234375,1.01171875,1.0446252134367864,-3.6602020263671875,-2.3059844970703125,2.6111602783203125,5.052999245361995
1781021827.208908,-0.0776367112994194,-0.23779296875,1.01904296875,1.0492957290902987,-1.5239715576171875,-1.8177032470703125,2.1839141845703125,3.224285280244837
1781021827.219591,-0.0849609375,-0.2490234375,1.01123046875,1.0449009973454615,0.7343292236328125,-1.6345977783203125,1.7566680908203125,2.5093887875092515
1781021827.230274,-0.0747070237994194,-0.2431640625,1.02734375,1.058369066706191,2.2602081298828125,-2.0618438720703125,0.9021759033203125,3.1896178930577377
1781021827.240996,-0.0776367112994194,-0.26220703125,1.04248046875,1.077750209419394,6.77490234375,-2.124786376953125,0.6580352783203125,7.130710297196831
1781021827.251718,-0.06982421875,-0.2646484375,1.03515625,1.0707299747879022,9.3994140625,-2.429962158203125,0.3528594970703125,9.714844858941117
1781021827.26244,-0.07177734375,-0.25,1.02294921875,1.0554985036545723,11.354446411132812,-2.3670196533203125,-0.2574920654296875,11.60140239394577
1781021827.270435,-0.06591796875,-0.2099609375,0.9575194716453552,0.9824827288354768,13.00048828125,-2.124786376953125,-0.1354217529296875,13.173676470513868
1781021827.278432,-0.07763671875,-0.17138671875,0.9443358778953552,0.9628972519134892,13.490676879882812,-1.8787384033203125,-0.6847381591796875,13.638067568836576
1781021827.286429,-0.076171875,-0.15625,0.9311522841453552,0.9472385091993083,13.48876953125,-1.575469970703125,-0.6847381591796875,13.597715817092311
1781021827.294426,-0.0825195237994194,-0.130859375,0.9082030653953552,0.9212852195856577,12.451171875,-1.3275146484375,-0.3185272216796875,12.525790825076001
1781021827.305049,-0.0727538987994194,-0.1396484375,0.9013671278953552,0.9150177676619341,10.986328125,-0.232696533203125,-0.6847381591796875,11.01010534433561
1781021827.315672,-0.08349609375,-0.11767578125,0.9062499403953552,0.91766450385252,8.974075317382812,0.3185272216796875,-0.5016326904296875,8.993726855376371
1781021827.326295,-0.08056640625,-0.10888671875,0.8925780653953552,0.9027972453220583,6.6547393798828125,0.8678436279296875,-0.5626678466796875,6.734634650995434
1781021827.336945,-0.076171875,-0.123046875,0.8950194716453552,0.9066435587443459,0.7953643798828125,0.3185272216796875,-0.3795623779296875,0.9370868083998358
1781021827.347594,-0.07568359375,-0.1240234375,0.9199218153953552,0.9313248444299752,-1.7070770263671875,0.2574920654296875,-0.3185272216796875,1.7555266243098868
1781021827.358243,-0.0615234337747097,-0.1474609375,0.9340819716453552,0.9476491918134496,-3.60107421875,0.3204345703125,-0.1354217529296875,3.6178381519857723
1781021827.366253,-0.07666015625,-0.16357421875,0.9516600966453552,0.9686538309132908,-4.7588348388671875,0.0743865966796875,-0.5016326904296875,4.785778697922566
1781021827.374263,-0.0683593675494194,-0.173828125,0.9682616591453552,0.98611351311281,-5.733489990234375,0.011444091796875,-1.1119842529296875,5.840337953759048
1781021827.382273,-0.08447265625,-0.1826171875,0.9775390028953552,0.998031647296811,-5.8574676513671875,0.3185272216796875,-1.2950897216796875,6.007382480329048
1781021827.390283,-0.07666015625,-0.20361328125,0.9804686903953552,1.0043176791748958,-5.37109375,0.499725341796875,-1.3561248779296875,5.562144206424612
1781021827.400971,-0.0693359300494194,-0.20703125,1.00146484375,1.0249884111245318,-5.1860809326171875,0.4405975341796875,-1.7223358154296875,5.482335477503417
1781021827.411659,-0.0698242112994194,-0.1923828125,0.9999999403953552,1.0207283908169253,-4.0264129638671875,0.7457733154296875,-2.0885467529296875,4.59676046066987
1781021827.422347,-0.0820312425494194,-0.20751953125,1.0009765625,1.0255474436995773,-2.7446746826171875,1.1119842529296875,-2.3937225341796875,3.8078413389744825
1781021827.43302,-0.1030273362994194,-0.21728515625,1.01806640625,1.0460815831885821,-0.4253387451171875,1.0509490966796875,-1.7833709716796875,2.1132484649324765
1781021827.443693,-0.0830078050494194,-0.234375,0.9711913466453552,1.0025141236526,0.0629425048828125,1.2950897216796875,-0.9899139404296875,1.6313027786337901
1781021827.454366,-0.1025390550494194,-0.22314453125,0.9833983778953552,1.0135976071816792,-0.1811981201171875,0.8678436279296875,-0.8678436279296875,1.2406199594599172
1781021827.462349,-0.0722656175494194,-0.2197265625,0.9711913466453552,0.998356005414243,0.7953643798828125,0.7457733154296875,-0.0743865966796875,1.092847519354345
1781021827.470331,-0.0966796800494194,-0.20263671875,0.9462890028953552,0.972559241034144,1.285552978515625,0.499725341796875,0.2918243408203125,1.4097990366359343
1781021827.478313,-0.07958984375,-0.1943359375,0.9687499403953552,0.9912504460771544,1.4667510986328125,0.8068084716796875,0.6580352783203125,1.7986965065926954
1781021827.486295,-0.0854492112994194,-0.1982421875,1.00732421875,1.0301959106387366,1.3427734375,0.682830810546875,0.7801055908203125,1.6964265834738554
1781021827.497069,-0.08349609375,-0.185546875,0.9682616591453552,0.9894088543492475,2.5653839111328125,0.8068084716796875,0.8411407470703125,2.8177388590597254
1781021827.507843,-0.0908203125,-0.17431640625,0.9594725966453552,0.9793988984902389,2.9315948486328125,0.8068084716796875,1.2683868408203125,3.2945399442821586
1781021827.518617,-0.076171875,-0.16455078125,0.9692382216453552,0.9860536721950036,2.8095245361328125,0.1354217529296875,0.9021759033203125,2.9539276448198026
1781021827.529168,-0.0869140550494194,-0.1611328125,0.9575194716453552,0.9748647982203962,2.3193359375,0.255584716796875,1.1463165283203125,2.5997469725993483
1781021827.539718,-0.0712890625,-0.158203125,0.9438475966453552,0.9596659027417342,1.40380859375,0.499725341796875,0.3528594970703125,1.5313111407526134
1781021827.550268,-0.07177734375,-0.158203125,0.9360350966453552,0.9520199147010796,0.6122589111328125,0.4405975341796875,0.1697540283203125,0.7731775937763145
1781021827.56094,-0.0703125,-0.1630859375,0.9409179091453552,0.9575319224010085,0.06103515625,0.377655029296875,-0.0133514404296875,0.38278828667193165
1781021827.571611,-0.080078125,-0.1572265625,0.9472655653953552,0.9635583788452384,-0.79345703125,0.499725341796875,-0.3795623779296875,1.0116160716466034
1781021827.582282,-0.0825195237994194,-0.16064453125,0.9301757216453552,0.9475457827287674,-1.89208984375,0.682830810546875,-0.5626678466796875,2.088745316773004
1781021827.590461,-0.07568359375,-0.169921875,0.9482421278953552,0.9663149502527331,-3.90625,0.743865966796875,-0.8678436279296875,4.070046461847434
1781021827.598638,-0.0947265625,-0.17578125,0.9609374403953552,0.981464688029175,-4.9419403076171875,0.7457733154296875,-0.8068084716796875,5.062597332598413
1781021827.606815,-0.0927734300494194,-0.18359375,0.9667968153953552,0.988437988252575,-5.1860809326171875,-0.0476837158203125,-0.8678436279296875,5.258408669830461
1781021827.614992,-0.08056640625,-0.18408203125,0.9765624403953552,0.9970212334930976,-5.1860809326171875,0.4405975341796875,-0.5016326904296875,5.22888104501226
1781021827.625438,-0.0825195237994194,-0.19580078125,0.9624022841453552,0.9855788016563619,-5.3691864013671875,0.2574920654296875,-0.8068084716796875,5.4355684786744884
1781021827.635884,-0.1069335862994194,-0.208984375,0.9697265028953552,0.9977368146413419,-5.2471160888671875,0.2574920654296875,-0.1354217529296875,5.255175398117049
1781021827.64633,-0.08642578125,-0.21728515625,0.9931640028953552,1.0203220037999694,-4.82177734375,0.011444091796875,0.2918243408203125,4.830613746288671
1781021827.652712,-0.1118163987994194,-0.197265625,0.9653319716453552,0.9916059950039735,-3.6602020263671875,0.0743865966796875,0.5359649658203125,3.6999825248472216
1781021827.659094,-0.0966796800494194,-0.22705078125,0.9804686903953552,1.0110479071964278,-3.0498504638671875,0.3185272216796875,0.8411407470703125,3.1797114962341917
1781021827.665476,-0.083984375,-0.22021484375,0.9780272841453552,1.006024513212634,-2.74658203125,0.072479248046875,1.0242462158203125,2.932242555861477
1781021827.671858,-0.0859375,-0.22509765625,0.9833983778953552,1.0124853472533364,-2.38037109375,0.011444091796875,1.3294219970703125,2.726473978876755
1781021827.67824,-0.0849609375,-0.2236328125,0.9750975966453552,1.0040146008455688,-1.7681121826171875,0.2574920654296875,1.6345977783203125,2.4216590905757696
1781021827.690273,-0.0839843675494194,-0.21435546875,0.9755858778953552,1.0023818863709375,-1.4019012451171875,-0.1087188720703125,1.5125274658203125,2.0651600976839974
1781021827.702306,-0.0693359300494194,-0.228515625,0.9682616591453552,0.9972750386106506,-1.28173828125,-0.293731689453125,1.6956329345703125,2.1457638210693695
1781021827.714339,-0.08544921875,-0.2109375,0.9785155653953552,1.0046337191296273,-1.0356903076171875,-0.2307891845703125,1.2073516845703125,1.6073631049770882
1781021827.726372,-0.0942382737994194,-0.21337890625,0.9633788466453552,0.9912165313617785,-0.2422332763671875,-0.1697540283203125,1.3904571533203125,1.4215711327718297
1781021827.735953,-0.07568359375,-0.2221679538488388,0.9697265028953552,0.9977254614862499,0.3070831298828125,-0.0476837158203125,0.7190704345703125,0.7833492677511065
1781021827.745536,-0.0810546875,-0.2124023288488388,0.9843749403953552,1.0102864123329047,0.67138671875,0.255584716796875,0.4138946533203125,0.8290913445581084
1781021827.755119,-0.0834960862994194,-0.19482421875,0.9726561903953552,0.9954838709659104,1.0395050048828125,0.1354217529296875,0.2307891845703125,1.0733933827155797
1781021827.764702,-0.0888671800494194,-0.2041015625,0.9760741591453552,1.001137147276131,1.3427734375,0.072479248046875,-0.1354217529296875,1.3515297987908206
1781021827.774285,-0.0849609375,-0.2060546875,0.9697265028953552,0.9950107464541561,1.468658447265625,0.194549560546875,-0.0743865966796875,1.483354486290868
1781021827.783883,-0.0849609375,-0.1943359375,0.9599608778953552,0.9831122543201788,1.3427734375,0.3204345703125,-0.3795623779296875,1.4317075179821337
1781021827.793484,-0.0810546875,-0.18603515625,0.9658202528953552,0.9869081530869691,1.2836456298828125,0.5626678466796875,-0.6237030029296875,1.5340621384637287
1781021827.803085,-0.0781249925494194,-0.19482421875,0.9707030653953552,0.9931386770438124,1.3427734375,0.194549560546875,-0.3185272216796875,1.393682039389017
1781021827.812686,-0.0908203125,-0.1845703125,0.9570311903953552,0.9788887724396965,0.54931640625,0.682830810546875,-0.4405975341796875,0.9808835900007392
1781021827.822287,-0.0874023362994194,-0.1923828125,0.9648436903953552,0.9877113251510965,0.3662109375,0.682830810546875,-0.8678436279296875,1.163409183870788
1781021827.832952,-0.08154296875,-0.19677734375,0.9785155653953552,1.0014306219039144,-0.3643035888671875,0.4405975341796875,-0.5016326904296875,0.7605778382877458
1781021827.843619,-0.0908203125,-0.1972656100988388,0.9658202528953552,0.9899347508765982,-0.4253387451171875,0.2574920654296875,-0.8068084716796875,0.9477104630799553
1781021827.854286,-0.0927734300494194,-0.1982421875,0.9775390028953552,1.0017431688859,-0.0591278076171875,0.1354217529296875,-0.8068084716796875,0.8202286624925257
1781021827.864965,-0.0888671800494194,-0.20703125,0.9672850966453552,0.9931766068321951,0.18310546875,-0.293731689453125,-0.5626678466796875,0.660606557462383
1781021827.875647,-0.1088867112994194,-0.2021484375,0.9570311903953552,0.9841895173546836,0.2460479736328125,-0.5359649658203125,-0.4405975341796875,0.7361550360085862
1781021827.886329,-0.09423828125,-0.185546875,0.9667968153953552,0.9889411401766135,0.0629425048828125,-0.4138946533203125,-0.4405975341796875,0.6077801659262051
1781021827.894478,-0.08935546875,-0.18701171875,0.9614257216453552,0.9835126847106007,0.1239776611328125,-0.7190704345703125,-0.0133514404296875,0.729802035688205
1781021827.90263,-0.1010742112994194,-0.18310546875,0.9614257216453552,0.9839121033493027,-0.30517578125,-0.598907470703125,0.0476837158203125,0.6738665688992107
1781021827.910782,-0.08544921875,-0.18505859375,0.9643554091453552,0.9856620147158043,-0.1811981201171875,-0.7801055908203125,0.3528594970703125,0.8751613086944746
1781021827.918934,-0.0947265550494194,-0.1884765625,0.9687499403953552,0.9914499391594874,-0.48828125,-0.904083251953125,0.3528594970703125,1.0864137932833944
1781021827.929384,-0.083984375,-0.1865234375,0.9663085341453552,0.9877229121282457,-0.2422332763671875,-0.9021759033203125,0.7801055908203125,1.217030424246047
1781021827.939834,-0.08056640625,-0.205078125,0.9736327528953552,0.9982528340456357,-0.79345703125,-0.293731689453125,0.2918243408203125,0.8949937495448002
1781021827.950284,-0.0791015625,-0.20556640625,0.9672850966453552,0.9920458975071141,-0.8525848388671875,-0.4138946533203125,0.2307891845703125,0.9754349487423338
1781021827.958298,-0.07421875,-0.19091796875,0.9711913466453552,0.9925576685724649,-0.79345703125,-0.1678466796875,-0.0133514404296875,0.8111256556685463
1781021827.966315,-0.0844726487994194,-0.19384765625,0.9750975966453552,0.9977614270016435,-0.91552734375,-0.293731689453125,-0.6237030029296875,1.1460689588355613
1781021827.974332,-0.0747070237994194,-0.193359375,0.9760741591453552,0.9978425484296958,-0.7915496826171875,-0.5359649658203125,-0.5016326904296875,1.0795576412336054
1781021827.982349,-0.07568359375,-0.1982421875,0.9624022841453552,0.9855182026710096,-0.667572021484375,-0.293731689453125,-0.5626678466796875,0.9211546096855175
1781021827.993009,-0.08642578125,-0.19140625,0.9506835341453552,0.9736041034726786,-0.8525848388671875,-0.3528594970703125,-0.5626678466796875,1.080743187730581
1781021828.003669,-0.08154296875,-0.193359375,0.9672850966453552,0.9897866244020316,-0.5474090576171875,-0.2307891845703125,-0.6847381591796875,0.9065245008893881
1781021828.014329,-0.0859375,-0.19482421875,0.9633788466453552,0.9866308997196128,-0.9136199951171875,-0.1697540283203125,-0.6847381591796875,1.15428950971829
1781021828.025112,-0.0883788987994194,-0.19775390625,0.9545897841453552,0.9788560124884598,-0.9765625,0.011444091796875,-0.4405975341796875,1.071415638661545
1781021828.035896,-0.08154296875,-0.19677734375,0.9638671278953552,0.9871222918175387,-1.1577606201171875,0.1354217529296875,-0.3795623779296875,1.2258940832716025
1781021828.04668,-0.0732421800494194,-0.189453125,0.9604491591453552,0.9816921568463696,-1.0356903076171875,0.1964569091796875,-0.1964569091796875,1.0723082801233312
1781021828.057206,-0.0747070237994194,-0.19873046875,0.9658202528953552,0.9888800228123782,-1.0356903076171875,0.4405975341796875,-0.2574920654296875,1.1545920336537283
1781021828.067731,-0.0834960862994194,-0.2041015625,0.9536132216453552,0.978778432914771,-1.0356903076171875,0.1354217529296875,0.1697540283203125,1.0582107042502014
1781021828.078256,-0.0825195237994194,-0.201171875,0.9672850966453552,0.9914232462935861,-0.9765625,0.377655029296875,0.0476837158203125,1.0481275563183643
1781021828.086269,-0.0830078050494194,-0.19482421875,0.9731444716453552,0.9959201446926293,-0.7915496826171875,0.1354217529296875,-0.0133514404296875,0.80316138613573
1781021828.094282,-0.0893554612994194,-0.20263671875,0.9731444716453552,0.9980261524347527,-0.2422332763671875,-0.0476837158203125,0.1087188720703125,0.26976006019842064
1781021828.102295,-0.0825195237994194,-0.19873046875,0.9565429091453552,0.9804476569679469,-0.4253387451171875,-0.2307891845703125,0.2307891845703125,0.5361346319042665
1781021828.110308,-0.0859375,-0.20556640625,0.9677733778953552,0.9930901833407558,-0.1811981201171875,-0.0476837158203125,0.2307891845703125,0.2972711610685853
1781021828.120967,-0.07666015625,-0.2021484375,0.9648436903953552,0.9887689908344082,0.1239776611328125,-0.1087188720703125,-0.0133514404296875,0.16543432100308253
1781021828.131626,-0.0830078125,-0.201171875,0.9599608778953552,0.9843197180371182,-0.0591278076171875,0.3185272216796875,-0.0133514404296875,0.32424365768067603
1781021828.142285,-0.08740234375,-0.19140625,0.9658202528953552,0.9884757372515036,0.1239776611328125,0.0743865966796875,-0.0133514404296875,0.14519671892675975
1781021828.152934,-0.0908203125,-0.2001953125,0.9619140028953552,0.986714265264132,0.244140625,0.194549560546875,0.5970001220703125,0.6736937895189037
1781021828.163584,-0.076171875,-0.19580078125,0.9614257216453552,0.9841135700316392,0.3681182861328125,0.3185272216796875,0.0476837158203125,0.4891261598920797
1781021828.174234,-0.0869140550494194,-0.1953125,0.9619140028953552,0.9853829583403343,0.4291534423828125,0.1354217529296875,0.4138946533203125,0.6114086295782134
1781021828.184964,-0.08544921875,-0.1972656100988388,0.9594725966453552,0.9832613862173338,0.18310546875,0.194549560546875,0.3528594970703125,0.4425911983623864
1781021828.195695,-0.0883788987994194,-0.2021484375,0.9687499403953552,0.9935548638865866,-0.0591278076171875,0.4405975341796875,0.1697540283203125,0.47585577110066607
1781021828.206426,-0.0917968675494194,-0.19580078125,0.9624022841453552,0.9863988885629348,0.18310546875,0.377655029296875,0.1087188720703125,0.43355590987048226
1781021828.214444,-0.08447265625,-0.1943359375,0.9526366591453552,0.9759194078434746,-0.3643035888671875,0.3795623779296875,0.4749298095703125,0.7087616155095061
1781021828.222462,-0.0888671800494194,-0.1982421875,0.9648436903953552,0.9889998420072923,-0.6694793701171875,0.1354217529296875,0.4138946533203125,0.798655408938171
1781021828.23048,-0.1059570237994194,-0.18359375,0.9746093153953552,0.9973950438952943,-0.79345703125,0.011444091796875,0.5359649658203125,0.9575820968793681
1781021828.238498,-0.0922851487994194,-0.197265625,0.9790038466453552,1.0029350962260588,-0.48828125,-0.232696533203125,0.7190704345703125,0.8997936127465307
1781021828.249087,-0.0869140550494194,-0.21484375,0.9604491591453552,0.9880154235548227,-0.179290771484375,0.011444091796875,0.4138946533203125,0.4512038696904752
1781021828.259676,-0.0737304612994194,-0.19921875,0.9760741591453552,0.998921946613598,-0.3643035888671875,-0.4749298095703125,0.5970001220703125,0.8453901907592577
1781021828.270265,-0.08056640625,-0.2001953125,0.9726561903953552,0.9963077705595887,0.18310546875,-0.110626220703125,0.4138946533203125,0.4659126070845856
1781021828.278272,-0.0869140550494194,-0.20556640625,0.9794921278953552,1.0045976453051462,0.5512237548828125,-0.0476837158203125,0.2918243408203125,0.6255260271137798
1781021828.286279,-0.0849609375,-0.19482421875,0.9726561903953552,0.9956078052259495,0.1239776611328125,0.0133514404296875,-0.0133514404296875,0.12540726606962405
1781021828.294286,-0.0849609375,-0.185546875,0.9716796278953552,0.9928782921335326,0.18310546875,-0.110626220703125,-0.0133514404296875,0.21434559560383143
1781021828.302293,-0.08642578125,-0.19580078125,0.9609374403953552,0.9844836849620008,0.1239776611328125,0.1354217529296875,-0.1964569091796875,0.26889557227843636
1781021828.310284,-0.07861328125,-0.19189453125,0.9692382216453552,0.991174197308828,-0.0591278076171875,0.1964569091796875,-0.5626678466796875,0.5989044335160723
1781021828.318275,-0.0844726487994194,-0.19775390625,0.9663085341453552,0.989946674823684,0.1239776611328125,0.1964569091796875,0.2307891845703125,0.32745904375819007
1781021828.326266,-0.07470703125,-0.19580078125,0.9658202528953552,0.9882954251432852,-0.1220703125,0.011444091796875,-0.0133514404296875,0.12333040741216439
1781021828.334257,-0.0971679612994194,-0.20849609375,0.9604491591453552,0.9876106627184187,-0.1811981201171875,-0.0476837158203125,-0.3185272216796875,0.36954848997041756
1781021828.344938,-0.08935546875,-0.1865234375,0.9697265028953552,0.9915366271348749,0.18310546875,-0.110626220703125,-0.0133514404296875,0.21434559560383143
1781021828.355619,-0.06640625,-0.20556640625,0.9702147841453552,0.9939738753064996,0.18310546875,0.194549560546875,-0.1964569091796875,0.33162096037430355
1781021828.3663,-0.0917968675494194,-0.2001953125,0.9536132216453552,0.9787149761476482,0.308990478515625,0.011444091796875,0.1697540283203125,0.35273575546199404
1781021828.376993,-0.0927734300494194,-0.1884765625,0.9750975966453552,0.997469622052972,0.4291534423828125,-0.0476837158203125,-0.1964569091796875,0.4743856353515421
1781021828.387689,-0.0727538987994194,-0.18017578125,0.9638671278953552,0.9832579937009437,0.18310546875,-0.110626220703125,-0.0133514404296875,0.21434559560383143
1781021828.398385,-0.083984375,-0.1953125,0.9653319716453552,0.9884665717064485,0.244140625,0.011444091796875,0.0476837158203125,0.24901676402780246
1781021828.409036,-0.08837890625,-0.2109375,0.9697265028953552,0.9963307434752035,-0.1811981201171875,0.2574920654296875,-0.1964569091796875,0.3711202495926154
1781021828.419688,-0.08837890625,-0.20166015625,0.9721679091453552,0.9967888910199453,-0.30517578125,0.011444091796875,-0.1964569091796875,0.36312331495380346
1781021828.43034,-0.08935546875,-0.1953125,0.9726561903953552,0.9960880669730904,-0.5474090576171875,0.2574920654296875,-0.0743865966796875,0.6095016044984379
1781021828.438374,-0.0810546875,-0.19189453125,0.9643554091453552,0.9865975515058232,-0.1811981201171875,-0.1697540283203125,-0.1964569091796875,0.3166141279687502
1781021828.446411,-0.08056640625,-0.19677734375,0.9580077528953552,0.9813211112765045,-0.1201629638671875,-0.1697540283203125,-0.2574920654296875,0.3309950630682683
1781021828.454448,-0.0869140550494194,-0.1923828125,0.9692382216453552,0.9919616574287508,0.0,-0.293731689453125,-0.3185272216796875,0.4332873138460989
1781021828.462485,-0.0888671800494194,-0.203125,0.9750975966453552,0.9999862320544637,-0.0591278076171875,-0.2918243408203125,0.0476837158203125,0.30154813924688273
1781021828.473073,-0.08447265625,-0.19189453125,0.9589843153953552,0.9816364184115655,0.4901885986328125,-0.3528594970703125,-0.0133514404296875,0.6041299097577125
1781021828.483661,-0.0781249925494194,-0.205078125,0.9521483778953552,0.977111603320275,0.18310546875,-0.232696533203125,-0.1354217529296875,0.32559843429823127
1781021828.494249,-0.08935546875,-0.2099609375,0.9711913466453552,0.9976375227858211,0.06103515625,-0.293731689453125,-0.1964569091796875,0.3586069057504121
1781021828.502258,-0.0917968675494194,-0.193359375,0.9702147841453552,0.9935447851840874,0.06103515625,-0.293731689453125,-0.0133514404296875,0.3003029414591147
1781021828.510268,-0.08837890625,-0.19091796875,0.9560546278953552,0.9789284720456845,-0.0591278076171875,-0.2307891845703125,-0.1964569091796875,0.308796150417522
1781021828.518278,-0.07568359375,-0.1904296875,0.9628905653953552,0.9844540178046152,-0.2422332763671875,-0.0476837158203125,-0.0133514404296875,0.2472427105003544
1781021828.526288,-0.0971679612994194,-0.18896484375,0.9550780653953552,0.9784290653265988,-0.179290771484375,0.194549560546875,0.2307891845703125,0.3510816998407555
1781021828.536941,-0.08935546875,-0.20458984375,0.9677733778953552,0.993190170573676,-0.2422332763671875,-0.1697540283203125,-0.0743865966796875,0.3050028787997618
1781021828.547594,-0.08349609375,-0.18212890625,0.9624022841453552,0.9830364655960262,-0.4253387451171875,-0.2307891845703125,0.1697540283203125,0.5128285541420905
1781021828.558247,-0.08154296875,-0.193359375,0.9550780653953552,0.9778605292434543,-0.30517578125,-0.1678466796875,0.1087188720703125,0.3648623829444563
1781021828.568929,-0.0839843675494194,-0.193359375,0.9775390028953552,1.0000118619670029,-0.5474090576171875,-0.0476837158203125,0.2307891845703125,0.5959815943721747
1781021828.579613,-0.0947265550494194,-0.2080078125,0.9672850966453552,0.9939219428530492,-0.4253387451171875,-0.4138946533203125,0.1087188720703125,0.6033586207963274
1781021828.590297,-0.09521484375,-0.18017578125,0.9711913466453552,0.992341579506877,0.18310546875,-0.476837158203125,-0.0133514404296875,0.510959439770846
1781021828.600965,-0.08544921875,-0.1953125,0.9721679091453552,0.995268298105233,0.18310546875,-0.6561279296875,0.4749298095703125,0.8304154362851497
1781021828.611635,-0.08544921875,-0.19970703125,0.9580077528953552,0.9823254663925199,0.244140625,-0.476837158203125,0.3528594970703125,0.6414734171353763
1781021828.622305,-0.087890625,-0.201171875,0.9638671278953552,0.988551832475742,0.3681182861328125,-0.3528594970703125,0.1697540283203125,0.5374358821190176
1781021828.630323,-0.0732421800494194,-0.19482421875,0.9584960341453552,0.9808341045367016,0.0629425048828125,0.4405975341796875,0.2918243408203125,0.5322117923734438
1781021828.638341,-0.076171875,-0.1953125,0.9560546278953552,0.9787694206080366,-0.54931640625,0.499725341796875,-0.0133514404296875,0.742732921292012
1781021828.646359,-0.08984375,-0.1962890625,0.9624022841453552,0.9863161014600687,-0.4253387451171875,0.3185272216796875,0.1697540283203125,0.5578432299309709
1781021828.654377,-0.083984375,-0.2001953125,0.9653319716453552,0.989442951297255,-0.4253387451171875,0.3185272216796875,0.1087188720703125,0.5423950886513313
1781021828.662665,-0.08935546875,-0.19140625,0.9663085341453552,0.9891273606046593,-0.8525848388671875,0.1354217529296875,-0.0133514404296875,0.8633760591968513
1781021828.670953,-0.0908203125,-0.19580078125,0.9628905653953552,0.9867849390967086,-0.8525848388671875,0.3795623779296875,-0.0743865966796875,0.936216786845554
1781021828.679241,-0.08544921875,-0.18994140625,0.9682616591453552,0.9904089798482892,-0.6084442138671875,0.2574920654296875,0.1087188720703125,0.6695717424532992
1781021828.687529,-0.08935546875,-0.21484375,0.9799804091453552,1.007225813320078,-0.48828125,-0.049591064453125,0.2918243408203125,0.5709985102172915
1781021828.697912,-0.0830078050494194,-0.20751953125,0.9619140028953552,0.9875389615177254,-0.2422332763671875,0.1354217529296875,0.0476837158203125,0.28158435343705424
1781021828.708295,-0.0795898362994194,-0.18408203125,0.9555663466453552,0.9763850567846917,-0.4253387451171875,0.0743865966796875,0.4749298095703125,0.6418759520981788
1781021828.718678,-0.0893554612994194,-0.1923828125,0.9707030653953552,0.9936095743184953,-0.3032684326171875,-0.0476837158203125,-0.0133514404296875,0.30728446094468465
1781021828.729192,-0.06884765625,-0.201171875,0.9692382216453552,0.9922866790199214,0.0,-0.1678466796875,0.2918243408203125,0.3366510861074536
1781021828.739707,-0.0834960862994194,-0.203125,0.9736327528953552,0.9980942338090667,0.0,0.072479248046875,0.3528594970703125,0.36022640945682244
1781021828.750222,-0.09130859375,-0.1865234375,0.9653319716453552,0.9874178788689861,0.0,-0.1678466796875,0.1087188720703125,0.19998075163964957
1781021828.760912,-0.0869140550494194,-0.19921875,0.9736327528953552,0.9975985669733511,0.06103515625,-0.110626220703125,0.5970001220703125,0.6102233990576619
1781021828.771602,-0.0786132737994194,-0.20703125,0.9697265028953552,0.994691648558326,0.0629425048828125,-0.1697540283203125,0.3528594970703125,0.39659552912836804
1781021828.782292,-0.0932617112994194,-0.1923828125,0.9643554091453552,0.9877703419762166,-0.3032684326171875,-0.0476837158203125,0.3528594970703125,0.4677128431518978
1781021828.790273,-0.0830078125,-0.18115234375,0.9609374403953552,0.9813802692818571,-0.1220703125,0.011444091796875,0.1697540283203125,0.2094004741204671
1781021828.798256,-0.09130859375,-0.20849609375,0.9716796278953552,0.9979825547916493,-0.1220703125,0.072479248046875,0.1697540283203125,0.22129354423991124
1781021828.806239,-0.0839843675494194,-0.212890625,0.9653319716453552,0.9920895159642982,0.0,-0.110626220703125,-0.2574920654296875,0.2802504673792766
1781021828.814222,-0.08349609375,-0.20166015625,0.9721679091453552,0.9963678336148427,0.2460479736328125,0.3185272216796875,-0.2574920654296875,0.4778089158220475
1781021828.825064,-0.0771484300494194,-0.19580078125,0.9687499403953552,0.9913456880489292,0.2460479736328125,0.2574920654296875,-0.0133514404296875,0.35639869535340213
1781021828.835906,-0.0903320237994194,-0.19287109375,0.9746093153953552,0.9976083655340021,0.4291534423828125,0.1354217529296875,-0.2574920654296875,0.5184726531214677
1781021828.846748,-0.0888671800494194,-0.2021484375,0.9653319716453552,0.9902662177184155,0.492095947265625,0.194549560546875,-0.4405975341796875,0.6885739901778573
1781021828.854626,-0.08642578125,-0.19482421875,0.9677733778953552,0.9909647838542027,0.3681182861328125,0.2574920654296875,-0.3185272216796875,0.5507021221092093
1781021828.862504,-0.0820312425494194,-0.19091796875,0.9550780653953552,0.9774215603030056,-0.0591278076171875,0.1354217529296875,-0.4405975341796875,0.4647164037618915
1781021828.870382,-0.0893554612994194,-0.1982421875,0.9575194716453552,0.9819001486652384,0.1239776611328125,0.0743865966796875,0.0476837158203125,0.1522417911743727
1781021828.87826,-0.0869140475988388,-0.19677734375,0.9628905653953552,0.9866273945166462,-0.0591278076171875,0.1964569091796875,-0.2574920654296875,0.32923180064704805
1781021828.888929,-0.0976562425494194,-0.19970703125,0.9565429091453552,0.9820356292293161,-0.6103515625,0.194549560546875,-0.1354217529296875,0.6547653110250442
1781021828.899598,-0.0898437425494194,-0.2119140625,0.9794921278953552,1.0061730947354492,-0.6103515625,0.011444091796875,-0.0743865966796875,0.6149742782009937
1781021828.910267,-0.0996093675494194,-0.20263671875,0.9711913466453552,0.9970939262116586,-0.54931640625,0.011444091796875,0.4138946533203125,0.6878868115174269
1781021828.91831,-0.08984375,-0.21435546875,0.9682616591453552,0.9957664419772394,-0.1811981201171875,-0.0476837158203125,0.1697540283203125,0.2528298353031313
1781021828.926352,-0.0888671800494194,-0.19384765625,0.9643554091453552,0.9876515806049517,-0.6103515625,-0.293731689453125,0.2307891845703125,0.7155913519249714
1781021828.934394,-0.09423828125,-0.19482421875,0.9799804091453552,1.00359301122178,-0.0591278076171875,-0.1697540283203125,0.2307891845703125,0.29253405866534304
1781021828.942436,-0.0893554612994194,-0.197265625,0.9682616591453552,0.9921838367165576,-0.2422332763671875,-0.0476837158203125,0.1087188720703125,0.26976006019842064
1781021828.953038,-0.0932617112994194,-0.2001953125,0.9794921278953552,1.0040820377590867,-0.2422332763671875,0.0743865966796875,-0.3185272216796875,0.4070256956214798
1781021828.96364,-0.08056640625,-0.21044921875,0.9707030653953552,0.9965160614141975,0.18310546875,0.011444091796875,-0.2574920654296875,0.3161656902360833
1781021828.974242,-0.076171875,-0.2070312350988388,0.9653319716453552,0.9902170985840808,0.1239776611328125,-0.1697540283203125,0.0476837158203125,0.21554727403836094
1781021828.984937,-0.08544921875,-0.19921875,0.9819335341453552,1.0055760263728126,-0.30517578125,0.072479248046875,-0.0743865966796875,0.3223644903282227
1781021828.995632,-0.07861328125,-0.1953125,0.9599608778953552,0.982777649183559,-0.1201629638671875,-0.2307891845703125,0.2918243408203125,0.39097855631119555
1781021829.006327,-0.09423828125,-0.2109375,0.9750975966453552,1.002093212003131,0.06103515625,-0.110626220703125,-0.0743865966796875,0.1466179278639039
1781021829.014319,-0.0776367112994194,-0.19287109375,0.9829100966453552,1.004658636469668,0.18310546875,0.072479248046875,-0.1964569091796875,0.27816572622814917
