timestamp,accel_x,accel_y,accel_z,accel_rms,gyro_x,gyro_y,gyro_z,gyro_rms
1782130819.040856,-0.0693359375,-0.18115234375,0.9736327528953552,0.9927660254993167,-0.06103515625,-0.667572021484375,0.3376007080078125,0.7505677399239679
1782130819.051507,-0.07861328125,-0.18701171875,0.9731444716453552,0.9940641798358083,0.1220703125,-0.606536865234375,0.3376007080078125,0.7048137116497992
1782130819.062158,-0.0810546875,-0.181640625,0.9741210341453552,0.9942207844239275,0.1220703125,-0.667572021484375,0.3948211669921875,0.7851352233645204
1782130819.072867,-0.06640625,-0.1845703125,0.9658202528953552,0.9855377979551359,0.30517578125,-0.850677490234375,0.6427764892578125,1.1090293345965208
1782130819.083578,-0.0810546875,-0.19384765625,0.9809569716453552,1.0032065372688552,0.18310546875,-0.850677490234375,0.5207061767578125,1.0140585424872426
1782130819.094289,-0.0751953125,-0.177734375,0.9760741591453552,0.9949696514115018,0.1220703125,-0.667572021484375,0.4596710205078125,0.8196651829602598
1782130819.102791,-0.0683593675494194,-0.18505859375,0.9721679091453552,0.9919829281920812,0.9136199951171875,-0.5474090576171875,0.4596710205078125,1.160023973430705
1782130819.111296,-0.0732421800494194,-0.18017578125,0.9741210341453552,0.9933476321267675,1.0356903076171875,-0.6046295166015625,0.5817413330078125,1.332911941640456
1782130819.119801,-0.0693359375,-0.18505859375,0.9653319716453552,0.9853527139204724,0.4253387451171875,-0.7305145263671875,0.4596710205078125,0.9622172147836651
1782130819.128306,-0.0639648362994194,-0.17919921875,0.9682616591453552,0.9867798644349903,0.3681182861328125,-0.2422332763671875,0.2117156982421875,0.48888809521926224
1782130819.139783,-0.07177734375,-0.1787109375,0.9726561903953552,0.9915390314921244,0.3662109375,0.308990478515625,-0.0934600830078125,0.48818065680009387
1782130819.151262,-0.07421875,-0.18115234375,0.9711913466453552,0.9907256059558062,0.18310546875,0.431060791015625,-0.2765655517578125,0.5439021259898483
1782130819.162741,-0.0703125,-0.1826171875,0.9692382216453552,0.9887950319074782,-0.2460479736328125,0.7953643798828125,0.0324249267578125,0.8331839400699185
1782130819.17422,-0.0727538987994194,-0.17236328125,0.9633788466453552,0.981377110328908,-0.30517578125,1.041412353515625,0.0324249267578125,1.0856902520478622
1782130819.18222,-0.0786132737994194,-0.169921875,0.9863280653953552,1.0039405077032812,-0.244140625,0.980377197265625,0.0324249267578125,1.0108389929009676
1782130819.190226,-0.07080078125,-0.177734375,0.9702147841453552,0.988897864319905,-0.6103515625,0.492095947265625,-0.0934600830078125,0.7895709203594515
1782130819.198231,-0.06640625,-0.173828125,0.9760741591453552,0.9936532449659642,-0.9174346923828125,0.6122589111328125,0.0934600830078125,1.106924647916429
1782130819.206236,-0.0849609375,-0.18994140625,0.9653319716453552,0.9875028679400457,-0.732421875,0.492095947265625,-0.1506805419921875,0.8951563271456152
1782130819.214229,-0.0693359375,-0.19189453125,0.9755858778953552,0.9966939291986844,-0.6103515625,0.308990478515625,0.0324249267578125,0.6848762819186804
1782130819.222222,-0.07080078125,-0.18701171875,0.9790038466453552,0.9992170261368857,-0.6084442138671875,0.2460479736328125,-0.3337860107421875,0.7363131587065769
1782130819.230215,-0.07373046875,-0.19580078125,0.9824218153953552,1.0044534590138612,-0.6103515625,0.125885009765625,-0.0286102294921875,0.6238546391279611
1782130819.238208,-0.06982421875,-0.19677734375,0.9628905653953552,0.9852689914255601,-0.6103515625,0.186920166015625,-0.2765655517578125,0.6956699524405259
1782130819.247821,-0.06689453125,-0.1845703125,0.9799804091453552,0.9994511898418065,-0.244140625,0.003814697265625,-0.0934600830078125,0.26144594815457783
1782130819.257434,-0.07421875,-0.18505859375,0.9750975966453552,0.9952740471628093,-0.67138671875,0.003814697265625,-0.4558563232421875,0.811529214180861
1782130819.267047,-0.07666015625,-0.1865234375,0.9633788466453552,0.98425940404795,-0.1220703125,-0.362396240234375,-0.4558563232421875,0.595010238205818
1782130819.27666,-0.0810546875,-0.18896484375,0.9672850966453552,0.9888973823058683,-0.2460479736328125,-0.4215240478515625,-0.2117156982421875,0.5320203615728974
1782130819.286273,-0.0751953125,-0.1796875,0.9697265028953552,0.9890962658386079,0.1201629638671875,-0.5474090576171875,-0.0286102294921875,0.5611723081890979
1782130819.295942,-0.0610351525247097,-0.1962890625,0.9819335341453552,1.0032188950473526,0.06103515625,-0.789642333984375,-0.5168914794921875,0.9457468516946677
1782130819.30561,-0.07421875,-0.18505859375,0.9750975966453552,0.9952740471628093,-0.1220703125,-0.667572021484375,-0.2765655517578125,0.7328315423626945
1782130819.315278,-0.0615234337747097,-0.1787109375,0.9702147841453552,0.988453063862811,0.48828125,-0.789642333984375,-0.3337860107421875,0.98659348046145
1782130819.324946,-0.07373046875,-0.1826171875,0.9765624403953552,0.9962225751223652,0.3681182861328125,-0.7305145263671875,-0.3337860107421875,0.8835019223442693
1782130819.334614,-0.0732421800494194,-0.1845703125,0.9697265028953552,0.9898485276103585,0.2422332763671875,-0.8525848388671875,-0.2117156982421875,0.9112636306404132
1782130819.344164,-0.0795898362994194,-0.18359375,0.9755858778953552,0.9958960850561075,0.3662109375,-0.667572021484375,-0.2765655517578125,0.8100934261135977
1782130819.353714,-0.0673828050494194,-0.18408203125,0.9716796278953552,0.9912557368874644,0.2422332763671875,-0.6694793701171875,0.0934600830078125,0.7180629319968519
1782130819.363264,-0.06689453125,-0.18212890625,0.9707030653953552,0.9899041660539255,0.06103515625,-0.789642333984375,-0.2117156982421875,0.8198071985539833
1782130819.372813,-0.0673828050494194,-0.1826171875,0.9897460341453552,1.0087054533872595,0.30517578125,-0.423431396484375,-0.0286102294921875,0.5227283713572963
1782130819.382364,-0.0561523400247097,-0.18017578125,0.9589843153953552,0.9773777747696111,0.2422332763671875,-0.6694793701171875,0.2117156982421875,0.7427672071882719
1782130819.392011,-0.06396484375,-0.1865234375,0.9604491591453552,0.9804820657593887,0.3662109375,-0.606536865234375,-0.0934600830078125,0.7146553062482629
1782130819.401654,-0.0688476487994194,-0.1943359375,0.9755858778953552,0.9971330204631993,0.3662109375,-0.484466552734375,-0.0286102294921875,0.6079776613450147
1782130819.411299,-0.0634765550494194,-0.18896484375,0.9702147841453552,0.9904815559053193,0.30517578125,-0.057220458984375,0.2117156982421875,0.37580576801069376
1782130819.420943,-0.0712890625,-0.19921875,0.9721679091453552,0.9949274769327375,0.5474090576171875,0.1239776611328125,0.2117156982421875,0.5998755485127534
1782130819.430587,-0.0722656175494194,-0.1875,0.9702147841453552,0.9908053778891277,0.6103515625,0.614166259765625,0.2117156982421875,0.8913768907498475
1782130819.438515,-0.07958984375,-0.17236328125,0.9726561903953552,0.9910114573837285,0.42724609375,0.553131103515625,0.1544952392578125,0.7157946781405794
1782130819.446444,-0.0722656175494194,-0.18798828125,0.9711913466453552,0.9918540946963654,0.3662109375,0.858306884765625,0.4596710205078125,1.040239686935369
1782130819.454373,-0.0625,-0.193359375,0.9663085341453552,0.9874443179554662,0.2422332763671875,0.9174346923828125,0.0324249267578125,0.9494286444185143
1782130819.462302,-0.07666015625,-0.18115234375,0.9687499403953552,0.9885187900178716,0.18310546875,0.675201416015625,0.3948211669921875,0.8033108481657242
1782130819.472961,-0.06884765625,-0.1875,0.9750975966453552,0.9953449516397147,-0.2460479736328125,0.7343292236328125,0.0324249267578125,0.7751324982770571
1782130819.483622,-0.0791015550494194,-0.19384765625,0.9643554091453552,0.9868208170649624,-0.42724609375,0.675201416015625,0.0934600830078125,0.8044693679251971
1782130819.494282,-0.0722656175494194,-0.185546875,0.9755858778953552,0.9956996371652023,-0.3662109375,0.553131103515625,0.2117156982421875,0.6963390017105311
1782130819.504961,-0.0786132737994194,-0.19482421875,0.9736327528953552,0.9960407926082134,-0.2460479736328125,0.2460479736328125,0.2117156982421875,0.40731160987603016
1782130819.515639,-0.0751953125,-0.19189453125,0.9721679091453552,0.9937747681027536,0.0,0.125885009765625,0.1544952392578125,0.19928827019425963
1782130819.526317,-0.08544921875,-0.19482421875,0.9829100966453552,1.0056690823943604,-0.18310546875,0.064849853515625,0.1544952392578125,0.24819729075975824
1782130819.534729,-0.0825195237994194,-0.18310546875,0.9716796278953552,0.9922189192718994,-0.30517578125,-0.057220458984375,0.0324249267578125,0.3121823413698794
1782130819.543144,-0.0703124925494194,-0.1923828125,0.9780272841453552,0.999245896507292,-0.1220703125,-0.118255615234375,0.0934600830078125,0.19395963199628782
1782130819.551559,-0.0825195237994194,-0.1904296875,0.9873046278953552,1.0088822359190475,-0.06103515625,0.003814697265625,0.0934600830078125,0.11168988015714532
1782130819.559974,-0.06982421875,-0.1865234375,0.9619140028953552,0.9823161218401283,-0.0629425048828125,-0.5474090576171875,-0.0286102294921875,0.551758081512048
1782130819.569224,-0.0703124925494194,-0.18359375,0.9663085341453552,0.9861048092417559,0.0,-0.423431396484375,-0.1506805419921875,0.44944273635666576
1782130819.578474,-0.076171875,-0.18408203125,0.9741210341453552,0.9942837311022231,0.2422332763671875,0.0667572021484375,-0.1506805419921875,0.29298141571323083
1782130819.587724,-0.0639648362994194,-0.1923828125,0.9765624403953552,0.997385004308343,0.1850128173828125,-0.2422332763671875,0.0324249267578125,0.3065258205286427
1782130819.596974,-0.0722656175494194,-0.19287109375,0.9829100966453552,1.0042578535274205,0.244140625,-0.301361083984375,-0.1506805419921875,0.41608625722401305
1782130819.606224,-0.06640625,-0.18701171875,0.9663085341453552,0.9864762319240321,0.30517578125,-0.423431396484375,-0.2117156982421875,0.5632494490653611
1782130819.614222,-0.06982421875,-0.181640625,0.9736327528953552,0.9928894579383076,0.48828125,-0.423431396484375,-0.3948211669921875,0.7573615256502956
1782130819.62222,-0.0595703050494194,-0.1982421875,0.9658202528953552,0.9877536874399984,0.1850128173828125,-0.2422332763671875,-0.4558563232421875,0.5483718539598781
1782130819.630218,-0.0673828050494194,-0.1875,0.9814452528953552,1.001464665800624,0.0591278076171875,-0.3643035888671875,-0.4558563232421875,0.586530638530515
1782130819.638216,-0.0751953125,-0.19677734375,0.9643554091453552,0.9870952401785674,0.06103515625,-0.301361083984375,-0.2117156982421875,0.3733193406734728
1782130819.648892,-0.06884765625,-0.1865234375,0.9790038466453552,0.998989251320722,0.30517578125,-0.301361083984375,-0.4558563232421875,0.6259039445806929
1782130819.659568,-0.07470703125,-0.18017578125,0.9780272841453552,0.9972872310422789,0.0,-0.179290771484375,-0.0934600830078125,0.20218795180546634
1782130819.670244,-0.0727538987994194,-0.18896484375,0.9843749403953552,1.0049850074714235,-0.06103515625,-0.301361083984375,-0.1506805419921875,0.34241556473641616
1782130819.680924,-0.0678710862994194,-0.18603515625,0.9736327528953552,0.993567461839916,0.2422332763671875,0.3070831298828125,0.0934600830078125,0.40213405221895065
1782130819.691605,-0.0673827975988388,-0.1865234375,0.9697265028953552,0.9897984262296631,0.48828125,0.370025634765625,0.0934600830078125,0.6197356989887652
1782130819.702286,-0.0605468712747097,-0.19189453125,0.9687499403953552,0.9894270472151132,0.30517578125,0.308990478515625,0.1544952392578125,0.4609513555986049
1782130819.710287,-0.0644531175494194,-0.1982421875,0.9619140028953552,0.9842422050658007,0.48828125,0.675201416015625,0.2117156982421875,0.8597319746137424
1782130819.71829,-0.0600585900247097,-0.18505859375,0.9658202528953552,0.9852220451549648,0.1220703125,0.492095947265625,-0.0934600830078125,0.515552489689389
1782130819.726293,-0.06591796875,-0.1884765625,0.9614257216453552,0.9819409409212116,0.1220703125,0.370025634765625,0.0324249267578125,0.3909878610044062
1782130819.734296,-0.0585937425494194,-0.18798828125,0.9790038466453552,0.9986097096962752,0.18310546875,0.919342041015625,-0.0934600830078125,0.9420468078502042
1782130819.74244,-0.0727538987994194,-0.19775390625,0.9760741591453552,0.9985592127555392,0.1220703125,0.858306884765625,0.0324249267578125,0.8675501400525326
1782130819.750584,-0.0673828050494194,-0.18017578125,0.9604491591453552,0.9795235279810259,-0.06103515625,0.797271728515625,0.0934600830078125,0.8050480026089013
1782130819.758728,-0.0771484300494194,-0.189453125,0.9741210341453552,0.9953673472621914,-0.3662109375,0.553131103515625,-0.0934600830078125,0.6699248133461465
1782130819.77476,-0.0620117150247097,-0.18408203125,0.9741210341453552,0.9932992681935531,-0.06103515625,0.675201416015625,-0.2765655517578125,0.7321958391762892
1782130819.78265,-0.07177734375,-0.19384765625,0.9750975966453552,0.9967668854315795,-0.06103515625,0.492095947265625,-0.4558563232421875,0.673564175898333
1782130819.79054,-0.0732421800494194,-0.1845703125,0.9677733778953552,0.9879351841885808,-0.1220703125,0.064849853515625,-0.2117156982421875,0.25284422393446654
1782130819.79843,-0.06640625,-0.1806640625,0.9677733778953552,0.9867292457817658,0.0,0.186920166015625,-0.3337860107421875,0.3825601252489503
1782130819.809114,-0.07373046875,-0.19140625,0.9687499403953552,0.9902267324088769,-0.1220703125,-0.118255615234375,-0.2765655517578125,0.32461370295693226
1782130819.819798,-0.07421875,-0.171875,0.9760741591453552,0.9938662901154636,-0.4291534423828125,0.0667572021484375,0.1544952392578125,0.4609750319714009
1782130819.830482,-0.07568359375,-0.177734375,0.9653319716453552,0.9844710914497513,-0.1201629638671875,-0.2422332763671875,-0.0934600830078125,0.28609593702245484
1782130819.841065,-0.0771484300494194,-0.1826171875,0.9628905653953552,0.9830865467276455,-0.30517578125,-0.484466552734375,0.2765655517578125,0.6358683846512422
1782130819.85165,-0.06884765625,-0.18115234375,0.9707030653953552,0.9898588851877704,0.0,-0.301361083984375,0.5207061767578125,0.6016256522572618
1782130819.862235,-0.0771484300494194,-0.173828125,0.9819335341453552,1.0001807650516448,-0.06103515625,-0.301361083984375,0.7648468017578125,0.8243387795062501
1782130819.870623,-0.0678710862994194,-0.189453125,0.9726561903953552,0.9932567823287864,-0.244140625,-0.118255615234375,0.3948211669921875,0.47903318174728143
1782130819.879012,-0.0610351525247097,-0.1904296875,0.9814452528953552,1.001610473265875,-0.0629425048828125,-0.0591278076171875,0.5207061767578125,0.5278188885103263
1782130819.887401,-0.0703125,-0.18408203125,0.9873046278953552,1.006777269384327,0.42724609375,-0.179290771484375,0.5207061767578125,0.697007408768253
1782130819.89579,-0.07666015625,-0.18310546875,0.9799804091453552,0.999882990429945,0.42724609375,-0.301361083984375,0.3376007080078125,0.6223599967962655
1782130819.906062,-0.07373046875,-0.1865234375,0.9765624403953552,0.9969460239901872,0.5474090576171875,-0.1811981201171875,0.3376007080078125,0.6681793719823415
1782130819.916334,-0.06689453125,-0.17578125,0.9711913466453552,0.9892353400286195,0.1220703125,-0.423431396484375,0.1544952392578125,0.4669733265143571
1782130819.926605,-0.0625,-0.1787109375,0.9663085341453552,0.9846806753177774,0.18310546875,-0.179290771484375,0.4596710205078125,0.5262796219884571
1782130819.934541,-0.0654296875,-0.173828125,0.9721679091453552,0.9897513347399007,0.1201629638671875,0.2460479736328125,-0.1506805419921875,0.3125433873068179
1782130819.942479,-0.0654296875,-0.1845703125,0.9672850966453552,0.9869081529984994,0.0,0.308990478515625,0.1544952392578125,0.3454618571805629
1782130819.950417,-0.0737304612994194,-0.18408203125,0.9658202528953552,0.9859671069845074,-0.48828125,1.163482666015625,0.0934600830078125,1.2652451463397187
1782130819.958355,-0.07568359375,-0.18505859375,0.9697265028953552,0.9901233155023156,-0.957489013671875,1.2359619140625,0.0286102294921875,1.5637153224122906
1782130819.968991,-0.06982421875,-0.1796875,0.9721679091453552,0.9910971005670178,-0.957489013671875,1.2969970703125,-0.0934600830078125,1.6148440787944127
1782130819.979627,-0.08349609375,-0.185546875,0.9711913466453552,0.9922761068838617,-1.262664794921875,0.568389892578125,-0.1583099365234375,1.393718583617987
1782130819.990263,-0.08056640625,-0.17919921875,0.9614257216453552,0.981296450649824,-1.3256072998046875,0.2002716064453125,0.0286102294921875,1.340955620024487
1782130820.001,-0.07470703125,-0.1875,0.9697265028953552,0.9905083951869584,-1.6918182373046875,0.0171661376953125,0.0896453857421875,1.694278583806388
1782130820.011738,-0.0624999962747097,-0.1748046875,0.9750975966453552,0.9926118331401552,-2.1190643310546875,-0.2880096435546875,0.2727508544921875,2.1558701775744677
1782130820.022476,-0.06982421875,-0.1875,0.9711913466453552,0.99158676036082,-1.628875732421875,-0.1678466796875,0.2117156982421875,1.651130581279747
1782130820.033081,-0.0712890625,-0.18994140625,0.9794921278953552,1.0002823085755979,-1.3866424560546875,0.2002716064453125,0.2727508544921875,1.4273328434208261
1782130820.043687,-0.07958984375,-0.19970703125,0.9863280653953552,1.0094852619753207,-1.445770263671875,-0.3509521484375,0.2117156982421875,1.50274502251477
1782130820.054293,-0.0810546875,-0.189453125,0.9687499403953552,0.9904235437195507,-0.286102294921875,0.0152587890625,0.0286102294921875,0.28793384489290774
1782130820.062289,-0.0737304612994194,-0.19873046875,0.9741210341453552,0.9969161295201499,0.1392364501953125,-0.3490447998046875,-0.0934600830078125,0.38723874864160135
1782130820.070286,-0.07080078125,-0.20458984375,0.9643554091453552,0.9883577843772796,0.019073486328125,-0.2288818359375,-0.0934600830078125,0.2479626581133882
1782130820.078283,-0.0747070237994194,-0.19873046875,0.9682616591453552,0.9912646363032819,0.0782012939453125,-0.4100799560546875,-0.3414154052734375,0.5393009286943248
1782130820.08628,-0.0615234337747097,-0.19140625,0.9755858778953552,0.9960869894699682,0.507354736328125,-0.102996826171875,-0.2155303955078125,0.5607767167632897
1782130820.096978,-0.07568359375,-0.19873046875,0.9726561903953552,0.9956313927789316,0.446319580078125,-0.4119873046875,-0.0934600830078125,0.6145482030732918
1782130820.107676,-0.0742187425494194,-0.18896484375,0.9750975966453552,0.996007759459045,0.690460205078125,-0.286102294921875,-0.3986358642578125,0.8470539358439125
1782130820.118374,-0.0688476487994194,-0.1787109375,0.9726561903953552,0.9913312577749894,0.263214111328125,-0.4119873046875,0.1468658447265625,0.5104750571508585
1782130820.126371,-0.0625,-0.19775390625,0.9692382216453552,0.9911788878579813,0.0171661376953125,-0.2880096435546875,-0.0362396240234375,0.29078779447086955
1782130820.134369,-0.06494140625,-0.18017578125,0.9716796278953552,0.9903746753939295,-0.2269744873046875,-0.2880096435546875,0.1468658447265625,0.39501461873577626
1782130820.142367,-0.07666015625,-0.18603515625,0.9697265028953552,0.9903814160892215,-0.408172607421875,0.0762939453125,-0.0934600830078125,0.42562945229007126
1782130820.150365,-0.0649413987994194,-0.18798828125,0.9770507216453552,0.9970883069382891,-0.469207763671875,0.1373291015625,0.3948211669921875,0.6284098674678799
1782130820.159948,-0.0693359375,-0.1904296875,0.9750975966453552,0.9959348678974441,-0.3490447998046875,0.5054473876953125,0.0286102294921875,0.614921034955144
1782130820.169531,-0.06494140625,-0.17138671875,0.9697265028953552,0.986894261827109,0.019073486328125,-0.0457763671875,0.2727508544921875,0.27722247798440236
1782130820.179114,-0.0615234337747097,-0.1796875,0.9775390028953552,0.9958188754694934,-0.2269744873046875,-0.1049041748046875,0.1468658447265625,0.2899859998791751
1782130820.188697,-0.0786132737994194,-0.18310546875,0.9707030653953552,0.9909450543151013,-0.286102294921875,-0.102996826171875,-0.1583099365234375,0.3428190563009848
1782130820.19828,-0.0727538987994194,-0.17919921875,0.9819335341453552,1.0007991583081561,-0.4100799560546875,0.0171661376953125,0.0286102294921875,0.41143503967550515
1782130820.207906,-0.0703124925494194,-0.193359375,0.9770507216453552,0.9984787464821733,0.141143798828125,0.4425048828125,0.3948211669921875,0.6096030652528015
1782130820.217532,-0.0722656175494194,-0.19482421875,0.9741210341453552,0.9960374414929205,0.1392364501953125,0.8106231689453125,0.2117156982421875,0.8493057446974613
1782130820.227158,-0.07568359375,-0.18408203125,0.9848632216453552,1.0047734898680942,0.2613067626953125,0.3833770751953125,0.2727508544921875,0.5381934918241162
1782130820.236784,-0.0625,-0.18359375,0.9624022841453552,0.9817489860281291,-0.164031982421875,0.8087158203125,0.0286102294921875,0.8256793048832978
1782130820.24641,-0.0751953125,-0.18408203125,0.9775390028953552,0.9975585353415327,0.0782012939453125,1.0547637939453125,0.5168914794921875,1.177208097561452
1782130820.256024,-0.0751953125,-0.1962890625,0.9765624403953552,0.9989283913624807,-0.286102294921875,1.1138916015625,0.2117156982421875,1.169372720766656
1782130820.26564,-0.0742187425494194,-0.17431640625,0.9667968153953552,0.985185623876096,-0.2841949462890625,0.6885528564453125,0.1468658447265625,0.7592373673381
1782130820.275255,-0.0683593675494194,-0.1845703125,0.9667968153953552,0.9866282408519963,-0.469207763671875,0.5035400390625,0.2117156982421875,0.7200916839619821
1782130820.284872,-0.0620117150247097,-0.16796875,0.9770507216453552,0.9933212302395322,-0.6542205810546875,0.6885528564453125,0.0286102294921875,0.9502253153995255
1782130820.294487,-0.0683593675494194,-0.1826171875,0.9697265028953552,0.9891367603723067,-0.8983612060546875,0.3833770751953125,-0.0934600830078125,0.9812062094407945
1782130820.304043,-0.07275390625,-0.181640625,0.9726561903953552,0.9921423850634695,-0.347137451171875,0.2593994140625,0.0896453857421875,0.4425254356609796
1782130820.313598,-0.0795898362994194,-0.18408203125,0.9658202528953552,0.9864225753571043,-0.347137451171875,-0.0457763671875,-0.0934600830078125,0.3624012595381229
1782130820.323153,-0.0781249925494194,-0.19775390625,0.9692382216453552,0.9922866784333202,-0.5321502685546875,0.0171661376953125,0.0286102294921875,0.5331952080034067
1782130820.332708,-0.0791015550494194,-0.1923828125,0.9736327528953552,0.995604811191285,-0.347137451171875,-0.2288818359375,-0.1583099365234375,0.44491947679358945
1782130820.342263,-0.0751953125,-0.1875,0.9628905653953552,0.9838540674049986,-0.774383544921875,-0.0457763671875,0.2727508544921875,0.822288501114343
1782130820.351896,-0.0834960862994194,-0.20361328125,0.9775390028953552,1.0020042249962606,-0.3490447998046875,0.2002716064453125,0.0896453857421875,0.41228301420716584
1782130820.361532,-0.07421875,-0.18994140625,0.9731444716453552,0.9942818128446822,-0.164031982421875,-0.0457763671875,-0.2765655517578125,0.32479296708709443
1782130820.371168,-0.0537109300494194,-0.189453125,0.9667968153953552,0.9866475727622501,-0.1659393310546875,-0.2880096435546875,0.2117156982421875,0.39409256939652176
1782130820.380804,-0.0732421875,-0.1865234375,0.9711913466453552,0.9916491529595637,0.1392364501953125,-0.1049041748046875,0.2117156982421875,0.27425391854378517
1782130820.39044,-0.0703124925494194,-0.20263671875,0.9780272841453552,1.00127062022563,-0.102996826171875,-0.5340576171875,0.1468658447265625,0.5633786125020336
1782130820.39999,-0.06689453125,-0.19140625,0.9565429091453552,0.9777962813830287,-0.102996826171875,-0.5340576171875,0.1468658447265625,0.5633786125020336
1782130820.409543,-0.0673828050494194,-0.19140625,0.9770507216453552,0.9979002493351227,0.0171661376953125,-0.4711151123046875,0.4520416259765625,0.6531353281983506
1782130820.419096,-0.0703125,-0.189453125,0.9687499403953552,0.9896023349025203,0.019073486328125,-0.4119873046875,0.0896453857421875,0.42205880193314976
1782130820.428649,-0.0625,-0.18310546875,0.9721679091453552,0.9912337293788024,0.019073486328125,-0.1678466796875,-0.0362396240234375,0.1727704144585742
1782130820.438202,-0.0703125,-0.177734375,0.9716796278953552,0.9903002852568238,0.019073486328125,-0.102996826171875,-0.3414154052734375,0.35712270025890847
1782130820.446245,-0.07568359375,-0.173828125,0.9692382216453552,0.9876066796565227,0.2613067626953125,-0.1049041748046875,-0.2765655517578125,0.39468292912268205
1782130820.45429,-0.06982421875,-0.2001953125,0.9765624403953552,0.9993136567974803,0.0782012939453125,0.0171661376953125,-0.2765655517578125,0.287921209842552
1782130820.462335,-0.0830078050494194,-0.18798828125,0.9609374403953552,0.9826650771956986,-0.2269744873046875,0.0171661376953125,-0.4596710205078125,0.51294204474316
1782130820.47038,-0.0722656175494194,-0.19482421875,0.9672850966453552,0.9893529470737735,0.141143798828125,0.0762939453125,-0.5245208740234375,0.548511153328072
1782130820.478425,-0.0751953125,-0.18115234375,0.9687499403953552,0.9884062695491642,0.019073486328125,0.4425048828125,-0.2765655517578125,0.5221713067688771
1782130820.48647,-0.07666015625,-0.189453125,0.9536132216453552,0.9752678824945347,0.0782012939453125,0.6275177001953125,0.1468658447265625,0.6492021894451543
1782130820.496046,-0.0693359300494194,-0.19287109375,0.9672850966453552,0.9887604301307539,0.019073486328125,0.0762939453125,0.3299713134765625,0.3392132540003468
1782130820.505622,-0.0791015550494194,-0.189453125,0.9687499403953552,0.9902656156807154,-0.102996826171875,0.2593994140625,0.3948211669921875,0.48350817585902367
1782130820.515198,-0.0771484300494194,-0.19775390625,0.9790038466453552,1.0017519750130899,0.1392364501953125,0.0171661376953125,0.0896453857421875,0.16648651756593313
1782130820.524774,-0.064453125,-0.2060546875,0.9755858778953552,0.9991899442607692,0.019073486328125,0.5035400390625,0.1468658447265625,0.5248675501181417
1782130820.53435,-0.0776367112994194,-0.1982421875,0.9716796278953552,0.9947304776234769,-0.1010894775390625,0.3833770751953125,0.4520416259765625,0.6012808793483851
1782130820.542352,-0.0644531175494194,-0.19287109375,0.9707030653953552,0.9917751279065733,0.202178955078125,0.4425048828125,-0.1583099365234375,0.5116140510105657
1782130820.550354,-0.07080078125,-0.1875,0.9658202528953552,0.9863963511329805,-0.1010894775390625,0.2002716064453125,-0.0934600830078125,0.2430279529871697
1782130820.558356,-0.0771484300494194,-0.18017578125,0.9741210341453552,0.9936432868854669,-0.164031982421875,0.0762939453125,-0.3986358642578125,0.4377645595764579
1782130820.566358,-0.0678710862994194,-0.19482421875,0.9731444716453552,0.9947729003450629,-0.0438690185546875,-0.1049041748046875,-0.5245208740234375,0.5367043170747882
1782130820.57436,-0.07666015625,-0.18994140625,0.9741210341453552,0.9954226773230145,-0.0438690185546875,-0.1659393310546875,-0.4596710205078125,0.49067076484596317
1782130820.582362,-0.0722656175494194,-0.1943359375,0.9790038466453552,1.0007183958687904,0.0782012939453125,0.2613067626953125,-0.3986358642578125,0.4830188597535283
1782130820.592033,-0.0673828050494194,-0.19091796875,0.9721679091453552,0.9930259597714481,0.202178955078125,-0.286102294921875,-0.3414154052734375,0.4891782210954118
1782130820.601704,-0.08447265625,-0.1875,0.9770507216453552,0.998458808525239,0.019073486328125,-0.4119873046875,-0.3986358642578125,0.5735920931959865
1782130820.611375,-0.076171875,-0.1806640625,0.9731444716453552,0.9926992599543616,0.4444122314453125,-0.6542205810546875,0.0286102294921875,0.791407193147327
1782130820.621046,-0.07177734375,-0.189453125,0.9750975966453552,0.9959215815673537,0.1392364501953125,-0.4711151123046875,-0.0362396240234375,0.4925947101362439
1782130820.630717,-0.0859375,-0.18798828125,0.9633788466453552,0.9853038363658765,0.0782012939453125,-0.7152557373046875,0.2727508544921875,0.7694798507746722
1782130820.640231,-0.0712890625,-0.181640625,0.9746093153953552,0.9939510876989484,0.202178955078125,-0.4119873046875,0.2117156982421875,0.5054042005982246
1782130820.649745,-0.0795898362994194,-0.1923828125,0.9721679091453552,0.9942113116232535,-0.0438690185546875,-0.5321502685546875,0.5779266357421875,0.7868339058607354
1782130820.659259,-0.07666015625,-0.18701171875,0.9809569716453552,1.0015621512046717,0.019073486328125,-0.3509521484375,0.2117156982421875,0.4103105473367498
1782130820.668773,-0.0732421800494194,-0.18310546875,0.9682616591453552,0.9881410173631417,0.4444122314453125,-0.4711151123046875,0.2117156982421875,0.6813774412043866
1782130820.678287,-0.0639648362994194,-0.18896484375,0.9721679091453552,0.9924261463848708,0.446319580078125,-0.2288818359375,0.3299713134765625,0.6003908144706099
1782130820.686348,-0.08056640625,-0.1748046875,0.9804686903953552,0.9991829048945922,0.6275177001953125,-0.1659393310546875,-0.2155303955078125,0.6839354333831852
1782130820.694412,-0.06640625,-0.18017578125,0.9780272841453552,0.9966997896663016,0.507354736328125,-0.102996826171875,-0.4596710205078125,0.692325517203255
1782130820.702475,-0.0791015550494194,-0.189453125,0.9790038466453552,1.0002989924667045,0.934600830078125,0.0762939453125,-0.2155303955078125,0.9621605006763794
1782130820.710538,-0.0693359300494194,-0.17919921875,0.9721679091453552,0.9909744067171866,0.995635986328125,0.0762939453125,-0.3414154052734375,1.055308609990912
1782130820.718601,-0.07958984375,-0.181640625,0.9672850966453552,0.9874048400077621,1.483917236328125,-0.2288818359375,-0.3414154052734375,1.539792758150215
1782130820.726664,-0.0771484300494194,-0.17041015625,0.9829100966453552,1.0005517276481117,0.873565673828125,-0.2288818359375,-0.3414154052734375,0.9654368753424184
1782130820.736167,-0.0712890625,-0.17236328125,0.9672850966453552,0.9851049128634014,0.8106231689453125,-0.1049041748046875,-0.0362396240234375,0.8181858702469466
1782130820.74567,-0.0795898362994194,-0.18359375,0.9736327528953552,0.9939828693653723,0.446319580078125,0.0762939453125,-0.3414154052734375,0.5670858952667455
1782130820.755172,-0.08056640625,-0.1875,0.9667968153953552,0.9881008440815343,-0.1659393310546875,0.2002716064453125,0.2117156982421875,0.33536266163847206
1782130820.764676,-0.07080078125,-0.189453125,0.9692382216453552,0.990115128404837,-0.469207763671875,0.3204345703125,-0.2155303955078125,0.6076903740632006
1782130820.774179,-0.07568359375,-0.1884765625,0.9633788466453552,0.9845558506953611,-0.4711151123046875,0.6885528564453125,-0.2155303955078125,0.8616889441954164
1782130820.782212,-0.0595703087747097,-0.18701171875,0.9643554091453552,0.9841256829212663,-0.774383544921875,0.4425048828125,0.0286102294921875,0.8923558657790454
1782130820.790247,-0.08837890625,-0.18701171875,0.9785155653953552,1.0001384532857274,-0.774383544921875,0.385284423828125,0.1468658447265625,0.8773160993835611
1782130820.798281,-0.0722656100988388,-0.1865234375,0.9653319716453552,0.9858393006065861,-1.1425018310546875,0.5054473876953125,0.2117156982421875,1.2671270783048976
1782130820.806315,-0.0722656175494194,-0.18994140625,0.9721679091453552,0.9931820079220516,-1.323699951171875,0.1373291015625,0.2727508544921875,1.358467471636552
1782130820.814348,-0.08544921875,-0.20068359375,0.9716796278953552,0.995859815964203,-1.323699951171875,0.0762939453125,0.0286102294921875,1.3262054411196504
1782130820.822383,-0.0712890625,-0.1953125,0.9619140028953552,0.9841278636714562,-1.445770263671875,0.0762939453125,0.1468658447265625,1.4552120112741087
1782130820.832049,-0.06982421875,-0.19189453125,0.9702147841453552,0.9914714620310174,-0.957489013671875,0.2593994140625,-0.3986358642578125,1.069104213625071
1782130820.841715,-0.0786132737994194,-0.19287109375,0.9833983778953552,1.0052122538394563,-0.8983612060546875,0.3223419189453125,-0.0362396240234375,0.9551285147050836
1782130820.851381,-0.08056640625,-0.1972656100988388,0.9760741591453552,0.9990622757841572,-0.6542205810546875,-0.2880096435546875,-0.2765655517578125,0.7664480594763968
1782130820.861047,-0.07080078125,-0.19482421875,0.9653319716453552,0.9873373498039396,-0.1659393310546875,0.2002716064453125,-0.3414154052734375,0.4291958258150805
1782130820.870713,-0.0693359300494194,-0.18798828125,0.9721679091453552,0.9926013845724772,0.2613067626953125,0.2002716064453125,-0.0362396240234375,0.3312148108521879
1782130820.881406,-0.06494140625,-0.189453125,0.9716796278953552,0.99210441591843,0.141143798828125,-0.0457763671875,-0.2765655517578125,0.3138559417306327
1782130820.892099,-0.0781249925494194,-0.19775390625,0.9692382216453552,0.9922866784333202,0.3871917724609375,0.0171661376953125,0.1468658447265625,0.41446558517211485
1782130820.902792,-0.06689453125,-0.18408203125,0.9809569716453552,1.0003187755710223,0.3871917724609375,-0.2880096435546875,-0.2155303955078125,0.5285076866325547
1782130820.910689,-0.0800781175494194,-0.19287109375,0.9736327528953552,0.9957773351634228,0.7495880126953125,-0.1659393310546875,-0.1583099365234375,0.7838878021563035
1782130820.918588,-0.07470703125,-0.18994140625,0.9677733778953552,0.9890622777608102,0.4444122314453125,-0.3490447998046875,-0.0362396240234375,0.5662577276101903
1782130820.926486,-0.0722656175494194,-0.18408203125,0.9589843153953552,0.9791626171802226,0.4444122314453125,-0.7762908935546875,0.1468658447265625,0.9064763423396023
1782130820.934386,-0.0620117150247097,-0.18115234375,0.9707030653953552,0.9894069262009253,0.1392364501953125,-0.1049041748046875,0.0286102294921875,0.17666414516262152
1782130820.945006,-0.0678710862994194,-0.18701171875,0.9633788466453552,0.9837065972478923,-0.1659393310546875,-0.2880096435546875,-0.0362396240234375,0.3343631659150503
1782130820.955626,-0.064453125,-0.17724609375,0.9741210341453552,0.9922107499096731,0.0171661376953125,-0.4711151123046875,-0.3414154052734375,0.5820726795540728
1782130820.966246,-0.07177734375,-0.18701171875,0.9682616591453552,0.9887648914663945,0.2613067626953125,-0.3490447998046875,-0.0362396240234375,0.43752349291250503
1782130820.977057,-0.0673828050494194,-0.1904296875,0.9736327528953552,0.994366454486606,0.202178955078125,-0.4119873046875,-0.2155303955078125,0.5070140239558543
1782130820.987868,-0.0722656175494194,-0.1826171875,0.9565429091453552,0.9764966429468502,0.4444122314453125,-1.0814666748046875,-0.0362396240234375,1.1697801975245905
1782130820.998678,-0.0693359375,-0.1728515625,0.9653319716453552,0.9831332312400004,-0.164031982421875,-0.7171630859375,0.2727508544921875,0.7846160919295925
1782130821.006598,-0.07421875,-0.1806640625,0.9775390028953552,0.9968602853520706,0.019073486328125,-0.4119873046875,0.2117156982421875,0.4635955931483356
1782130821.014518,-0.0703125,-0.185546875,0.9658202528953552,0.9859920138527307,-0.164031982421875,-0.3509521484375,0.7610321044921875,0.8539577072770964
1782130821.022438,-0.0673828050494194,-0.17431640625,0.9785155653953552,0.9962024712001244,0.202178955078125,0.0762939453125,0.6351470947265625,0.6709015784058211
1782130821.030358,-0.0678710862994194,-0.1708984375,0.9750975966453552,0.9922842754367079,0.385284423828125,0.4425048828125,0.6351470947265625,0.864677101869286
1782130821.041002,-0.0693359375,-0.18994140625,0.9829100966453552,1.0034926348133368,0.2613067626953125,0.6885528564453125,0.7610321044921875,1.0590354689136297
1782130821.051646,-0.0771484300494194,-0.1904296875,0.9702147841453552,0.9917318556518471,0.263214111328125,0.7476806640625,0.6999969482421875,1.057498828067233
1782130821.06229,-0.06201171875,-0.18359375,0.9643554091453552,0.9836327940086672,0.2613067626953125,0.6885528564453125,0.6351470947265625,0.9725215125069967
1782130821.070272,-0.0776367112994194,-0.18212890625,0.9697265028953552,0.9897312200041313,0.019073486328125,0.9918212890625,0.1468658447265625,1.002817452812602
1782130821.078254,-0.0820312425494194,-0.177734375,0.9702147841453552,0.9897653056078802,-0.1659393310546875,0.6885528564453125,0.2727508544921875,0.7589689890477046
1782130821.086236,-0.07958984375,-0.1767578125,0.9770507216453552,0.9960953670084225,0.141143798828125,0.6256103515625,0.2117156982421875,0.6753765030055207
1782130821.094218,-0.07666015625,-0.1884765625,0.9746093153953552,0.9956221732281246,-0.4100799560546875,0.4444122314453125,-0.2765655517578125,0.6649483485468023
1782130821.104925,-0.0673828050494194,-0.17333984375,0.9741210341453552,0.9917151471123241,-0.4100799560546875,0.3833770751953125,-0.2765655517578125,0.6258051266666246
1782130821.115632,-0.07666015625,-0.18115234375,0.9711913466453552,0.9909114910027086,-0.0438690185546875,0.3833770751953125,-0.0934600830078125,0.39703558995396243
1782130821.126338,-0.0732421800494194,-0.1845703125,0.9599608778953552,0.9802833795818229,-0.6542205810546875,0.2002716064453125,-0.2155303955078125,0.7173330024552566
1782130821.137024,-0.0737304612994194,-0.17822265625,0.9775390028953552,0.9963844630993982,-0.4100799560546875,0.1392364501953125,-0.0934600830078125,0.4430430526897283
1782130821.14771,-0.0693359375,-0.18017578125,0.9624022841453552,0.9815747250750952,-0.408172607421875,0.0762939453125,-0.0934600830078125,0.42562945229007126
1782130821.158396,-0.076171875,-0.18408203125,0.9809569716453552,1.000981982350216,-0.5893707275390625,0.0171661376953125,-0.2155303955078125,0.6277785295397195
1782130821.166379,-0.07080078125,-0.185546875,0.9833983778953552,1.0032510967325636,-0.530242919921875,-0.2288818359375,0.0896453857421875,0.5844490945619321
1782130821.174363,-0.06689453125,-0.1923828125,0.9833983778953552,1.0042700804583313,-0.2269744873046875,-0.1659393310546875,0.3299713134765625,0.43351395271150245
1782130821.182347,-0.0776367112994194,-0.18994140625,0.9672850966453552,0.9888102219039966,-0.1659393310546875,-0.1659393310546875,0.0896453857421875,0.25121309354135973
1782130821.190331,-0.0673828050494194,-0.18798828125,0.9755858778953552,0.9958151643013416,-0.1010894775390625,-0.6542205810546875,0.1468658447265625,0.6780805464632504
1782130821.200971,-0.0712890625,-0.18359375,0.9672850966453552,0.9871318319573155,0.0782012939453125,-0.5321502685546875,0.0896453857421875,0.5452849217449651
1782130821.211611,-0.0639648362994194,-0.1884765625,0.9721679091453552,0.9923332900123222,0.019073486328125,-0.5340576171875,-0.0934600830078125,0.542509099898358
1782130821.222251,-0.06591796875,-0.1865234375,0.9667968153953552,0.9868293943734869,-0.0438690185546875,-0.4711151123046875,-0.1583099365234375,0.498934841269744
1782130821.232907,-0.06591796875,-0.1845703125,0.9614257216453552,0.9811986532307133,0.507354736328125,-0.3509521484375,-0.3414154052734375,0.7050820646743923
1782130821.243562,-0.0605468712747097,-0.19482421875,0.9780272841453552,0.9990794604862235,0.324249267578125,-0.4119873046875,-0.6427764892578125,0.829477390825826
1782130821.254217,-0.06591796875,-0.173828125,0.9755858778953552,0.9931410779914365,0.0782012939453125,-0.3490447998046875,-0.1583099365234375,0.3911646081222972
1782130821.262236,-0.068359375,-0.17626953125,0.9677733778953552,0.986067575149123,0.202178955078125,-0.102996826171875,-0.2765655517578125,0.357733393041613
1782130821.270252,-0.07763671875,-0.181640625,0.9702147841453552,0.9901199443112312,-0.0438690185546875,-0.5931854248046875,-0.3414154052734375,0.6858264488540047
1782130821.27827,-0.06640625,-0.18212890625,0.9692382216453552,0.9884348531031949,0.0782012939453125,-0.0438690185546875,-0.1583099365234375,0.18193946566297126
1782130821.286287,-0.07568359375,-0.1875,0.9682616591453552,0.9891485717190472,0.019073486328125,0.1373291015625,-0.2765655517578125,0.3093728889799103
1782130821.296962,-0.0703125,-0.18115234375,0.9794921278953552,0.9985814177678949,0.0782012939453125,0.0171661376953125,-0.2155303955078125,0.2299205733418601
1782130821.307637,-0.0620117150247097,-0.1826171875,0.9677733778953552,0.9868028176559398,0.2613067626953125,-0.1659393310546875,-0.2155303955078125,0.3771875358610563
1782130821.318312,-0.0795898362994194,-0.1787109375,0.9770507216453552,0.9964438036798696,0.0782012939453125,0.0782012939453125,0.0286102294921875,0.11423410165549504
1782130821.32901,-0.0678710862994194,-0.189453125,0.9775390028953552,0.9980388134283026,0.202178955078125,0.385284423828125,0.3299713134765625,0.5460782772080397
1782130821.339707,-0.0771484300494194,-0.1826171875,0.9760741591453552,0.9960028521951192,0.1392364501953125,0.1392364501953125,0.2117156982421875,0.2891316568765179
1782130821.350404,-0.0624999962747097,-0.1845703125,0.9785155653953552,0.9977300043156355,-0.102996826171875,0.2593994140625,0.1468658447265625,0.315382273700813
1782130821.361014,-0.0537109337747097,-0.185546875,0.9697265028953552,0.9887780325466744,-0.164031982421875,0.0762939453125,0.0286102294921875,0.18315513255214194
1782130821.371624,-0.0722656175494194,-0.18505859375,0.9785155653953552,0.9984797015070052,-0.164031982421875,0.568389892578125,-0.1583099365234375,0.6124015000343137
1782130821.382234,-0.0727538987994194,-0.185546875,0.9809569716453552,1.0009981782363082,-0.2269744873046875,0.1392364501953125,-0.2155303955078125,0.34257489449457845
1782130821.392909,-0.0839843675494194,-0.19384765625,0.9746093153953552,0.9972430022224759,-0.102996826171875,0.2593994140625,-0.1583099365234375,0.3208713733250484
1782130821.403582,-0.0732421875,-0.18603515625,0.9843749403953552,1.004473753101148,-0.041961669921875,0.0762939453125,-0.0362396240234375,0.09431255580960171
1782130821.414255,-0.07666015625,-0.18408203125,0.9775390028953552,0.9976700235884838,-0.164031982421875,-0.4119873046875,-0.2155303955078125,0.49304500998253226
1782130821.422253,-0.07080078125,-0.1826171875,0.9638671278953552,0.9835657720931842,0.019073486328125,-0.4119873046875,-0.1583099365234375,0.4417684609684523
1782130821.430252,-0.0795898362994194,-0.17431640625,0.9833983778953552,1.0018947655204609,-0.0438690185546875,-0.6542205810546875,0.0286102294921875,0.6563136481104748
1782130821.438251,-0.0712890625,-0.18798828125,0.9658202528953552,0.9865244473515625,-0.102996826171875,-0.0457763671875,-0.0934600830078125,0.1464192921379948
1782130821.44625,-0.08154296875,-0.16796875,0.9726561903953552,0.990415479202305,0.019073486328125,-0.5340576171875,0.0286102294921875,0.5351634157790451
1782130821.456932,-0.06689453125,-0.18896484375,0.9682616591453552,0.9887938263639874,-0.041961669921875,-0.2288818359375,0.3299713134765625,0.40376818136425874
1782130821.467614,-0.0683593675494194,-0.19384765625,0.9760741591453552,0.99748217082647,0.0782012939453125,-0.4100799560546875,0.1468658447265625,0.44255009781919874
1782130821.478296,-0.0693359375,-0.19140625,0.9746093153953552,0.9956440842105523,0.3871917724609375,-0.4711151123046875,0.5168914794921875,0.7994021011199077
1782130821.486274,-0.0654296800494194,-0.18310546875,0.9687499403953552,0.9880714056856067,-0.1659393310546875,0.0171661376953125,0.4520416259765625,0.481842473729523
1782130821.494252,-0.0581054650247097,-0.18212890625,0.9755858778953552,0.9941403264662438,0.3871917724609375,0.0171661376953125,0.3948211669921875,0.5532593414031882
1782130821.502232,-0.0795898362994194,-0.1884765625,0.9741210341453552,0.9953741737750689,0.690460205078125,-0.2288818359375,0.3948211669921875,0.8276508584685452
1782130821.510211,-0.076171875,-0.18408203125,0.9780272841453552,0.9981110746319174,0.5054473876953125,-0.2880096435546875,0.4520416259765625,0.7367280693200499
1782130821.520886,-0.07080078125,-0.17041015625,0.9853515028953552,1.0024818982090873,0.6275177001953125,-0.7762908935546875,0.3299713134765625,1.0513263447625563
1782130821.531563,-0.0693359375,-0.18115234375,0.9750975966453552,0.9942026789637363,0.507354736328125,-0.591278076171875,0.4520416259765625,0.9007553627104472
1782130821.542239,-0.080078125,-0.177734375,0.9687499403953552,0.9881692472325581,0.5054473876953125,-0.2880096435546875,0.2727508544921875,0.6425104241448011
1782130821.552885,-0.0605468712747097,-0.1669921875,0.9682616591453552,0.9844201109679279,0.1392364501953125,-0.2880096435546875,0.5168914794921875,0.6078759292940562
1782130821.563534,-0.0751953125,-0.20361328125,0.9804686903953552,1.0042069289588413,0.019073486328125,0.3204345703125,0.3948211669921875,0.5088475858615608
1782130821.574183,-0.0673828050494194,-0.18359375,0.9594725966453552,0.9792010882187433,-0.164031982421875,0.3204345703125,0.4520416259765625,0.5778636835138035
1782130821.582205,-0.06689453125,-0.20703125,0.9702147841453552,0.9943105873729485,-0.286102294921875,0.5035400390625,-0.2155303955078125,0.617948578351291
1782130821.590227,-0.07177734375,-0.19287109375,0.9746093153953552,0.9960996755021708,-0.7152557373046875,0.5664825439453125,0.0896453857421875,0.9168039798816815
1782130821.598249,-0.080078125,-0.1845703125,0.9824218153953552,1.0028117120000986,-0.7152557373046875,0.2002716064453125,-0.0362396240234375,0.7436483015813445
1782130821.606271,-0.0678710862994194,-0.17822265625,0.9702147841453552,0.9887803228879947,-1.0776519775390625,0.5054473876953125,-0.2155303955078125,1.209654577889747
1782130821.616933,-0.0654296875,-0.18994140625,0.9721679091453552,0.9927080262527481,-0.652313232421875,0.3204345703125,-0.1583099365234375,0.7438097223390445
1782130821.627595,-0.0683593675494194,-0.197265625,0.9663085341453552,0.988604528161055,-1.0776519775390625,0.3223419189453125,-0.2765655517578125,1.1583292285970779
1782130821.638257,-0.0800781175494194,-0.19287109375,0.9687499403953552,0.9910036381015885,-1.0204315185546875,0.5054473876953125,-0.3986358642578125,1.2065107119542762
1782130821.64891,-0.08154296875,-0.1875,0.9648436903953552,0.9862701722389721,-1.1425018310546875,0.0171661376953125,-0.5817413330078125,1.2821965874141121
1782130821.659564,-0.0624999962747097,-0.19580078125,0.9619140028953552,0.9836273402252576,-0.835418701171875,0.1373291015625,-0.4596710205078125,0.9633696774854188
1782130821.67022,-0.0825195237994194,-0.18408203125,0.9702147841453552,0.9909653845677089,-0.7152557373046875,-0.3490447998046875,-0.2765655517578125,0.8425624881497334
1782130821.680896,-0.07080078125,-0.1796875,0.9814452528953552,1.000267530570041,-0.530242919921875,-0.4119873046875,-0.3986358642578125,0.7808979738887277
1782130821.691571,-0.0791015550494194,-0.1923828125,0.9677733778953552,0.9898755040507026,-0.1659393310546875,-0.9593963623046875,-0.3986358642578125,1.0520873508729764
1782130821.702246,-0.0727538987994194,-0.18505859375,0.9833983778953552,1.0033006441533163,0.019073486328125,-0.6561279296875,-0.4596710205078125,0.8013520481607368
1782130821.710268,-0.0771484300494194,-0.18359375,0.9716796278953552,0.9918769301506153,0.141143798828125,-0.9002685546875,-0.2765655517578125,0.9523095856526163
1782130821.718292,-0.0747070237994194,-0.18896484375,0.9736327528953552,0.9946102699494997,0.568389892578125,-0.8392333984375,-0.2765655517578125,1.0506513558060215
1782130821.726316,-0.0678710862994194,-0.18310546875,0.9726561903953552,0.9920656035545361,0.1392364501953125,-0.5931854248046875,-0.2155303955078125,0.6463041765697197
1782130821.734339,-0.0683593675494194,-0.17822265625,0.9770507216453552,0.9955221901094278,0.202178955078125,-0.774383544921875,-0.4596710205078125,0.9229537646149703
1782130821.745548,-0.0673828050494194,-0.17626953125,0.9697265028953552,0.9879174461872197,0.019073486328125,-0.7171630859375,-0.0362396240234375,0.7183313998855037
1782130821.756758,-0.0654296875,-0.1826171875,0.9628905653953552,0.9822363880981729,0.0782012939453125,-0.5931854248046875,-0.0362396240234375,0.5994144650613621
1782130821.767967,-0.0712890625,-0.189453125,0.9750975966453552,0.9958865095923041,-0.286102294921875,-0.286102294921875,0.0896453857421875,0.4144216952621963
1782130821.775976,-0.083984375,-0.18603515625,0.9726561903953552,0.9938423010314604,0.0782012939453125,-0.4100799560546875,0.3299713134765625,0.5321297590343764
1782130821.783986,-0.0644531175494194,-0.18408203125,0.9667968153953552,0.9862740394279704,0.2613067626953125,-0.2269744873046875,0.0286102294921875,0.3472998522158133
1782130821.791996,-0.0610351525247097,-0.19140625,0.9702147841453552,0.9907968357625065,0.263214111328125,-0.4119873046875,-0.0362396240234375,0.49023312615049347
1782130821.800006,-0.0654296875,-0.18896484375,0.9677733778953552,0.9882176213480488,0.0171661376953125,0.0171661376953125,0.0286102294921875,0.037521964212238315
1782130821.809278,-0.0795898362994194,-0.16845703125,0.9736327528953552,0.9912986688835609,0.263214111328125,0.0762939453125,0.2117156982421875,0.3463032939141329
1782130821.81855,-0.07568359375,-0.17724609375,0.9770507216453552,0.9958776515115992,0.324249267578125,-0.0457763671875,0.4520416259765625,0.5581887628153847
1782130821.827821,-0.0791015625,-0.17724609375,0.9809569716453552,0.999974907264778,0.5702972412109375,0.2002716064453125,0.4520416259765625,0.7547776436120288
1782130821.837094,-0.0605468675494194,-0.18310546875,0.9804686903953552,0.9992559175215261,0.324249267578125,0.568389892578125,0.5779266357421875,0.873042870545431
1782130821.846366,-0.0654296875,-0.185546875,0.9794921278953552,0.999056312445692,0.1392364501953125,0.8716583251953125,0.3299713134765625,0.9423672811928143
1782130821.855948,-0.080078125,-0.19189453125,0.9677733778953552,0.9898592466558863,0.202178955078125,0.6256103515625,0.3948211669921875,0.7669083359592006
1782130821.865529,-0.0712890625,-0.17578125,0.9599608778953552,0.9785223887951223,0.1392364501953125,0.6885528564453125,0.5168914794921875,0.8721631881440614
1782130821.875109,-0.0654296875,-0.18115234375,0.9677733778953552,0.9867535288082084,-0.0438690185546875,0.6885528564453125,0.2117156982421875,0.7217015060190242
1782130821.884689,-0.0732421800494194,-0.17529296875,0.9746093153953552,0.9929528485718659,-0.1010894775390625,0.9937286376953125,0.2117156982421875,1.02104810108392
1782130821.894269,-0.0688476487994194,-0.1884765625,0.9726561903953552,0.9931381968645804,-0.4100799560546875,0.5664825439453125,0.1468658447265625,0.7145891262115693
1782130821.903869,-0.0776367112994194,-0.1845703125,0.9746093153953552,0.9949658169269636,-0.469207763671875,0.2593994140625,0.3299713134765625,0.6295435244868922
1782130821.913468,-0.0771484300494194,-0.18798828125,0.9775390028953552,0.9984357647480706,-0.8373260498046875,0.3223419189453125,0.1468658447265625,0.9091692926722257
1782130821.923067,-0.0727538987994194,-0.193359375,0.9760741591453552,0.9976982218297369,-0.652313232421875,-0.102996826171875,0.0286102294921875,0.6610139519145948
1782130821.932666,-0.0703125,-0.19384765625,0.9804686903953552,1.0019179678673555,-0.8373260498046875,0.2002716064453125,-0.2765655517578125,0.9042743690102089
1782130821.942265,-0.0703124925494194,-0.17822265625,0.9677733778953552,0.9865558639896191,-0.530242919921875,-0.0457763671875,-0.2155303955078125,0.5742006455133213
1782130821.950258,-0.0693359375,-0.16552734375,0.9760741591453552,0.9924351555186096,-0.4100799560546875,-0.2269744873046875,-0.5245208740234375,0.703423866194026
1782130821.958251,-0.0703125,-0.19384765625,0.9702147841453552,0.9918858245101028,-0.5321502685546875,-0.5321502685546875,-0.3414154052734375,0.8263971778773677
1782130821.966244,-0.080078125,-0.17724609375,0.9785155653953552,0.9976579552001483,-0.469207763671875,-0.4119873046875,-0.2155303955078125,0.66056249976924
1782130821.974237,-0.06982421875,-0.1796875,0.9741210341453552,0.9930129950532944,-0.4100799560546875,-0.4100799560546875,-0.2765655517578125,0.6425104241448011
1782130821.984935,-0.0727538987994194,-0.166015625,0.9760741591453552,0.9927613417564006,-0.2269744873046875,-0.2269744873046875,-0.2155303955078125,0.3866370224929392
1782130821.995633,-0.0747070237994194,-0.18310546875,0.9780272841453552,0.9978206856063185,-0.1010894775390625,-0.4711151123046875,-0.2155303955078125,0.5278464576927016
1782130822.006331,-0.0732421800494194,-0.18359375,0.9775390028953552,0.9973232094757944,-0.2269744873046875,-0.4711151123046875,-0.2765655517578125,0.59157025901256
1782130822.016981,-0.076171875,-0.177734375,0.9604491591453552,0.9797215165038871,-0.0438690185546875,-0.5321502685546875,-0.0934600830078125,0.5420730451033373
1782130822.02763,-0.0620117150247097,-0.17529296875,0.9716796278953552,0.9893100509750976,-0.1659393310546875,-0.2880096435546875,-0.5245208740234375,0.6209730780458088
1782130822.038279,-0.0629882737994194,-0.1826171875,0.9726561903953552,0.9916534800629937,0.141143798828125,-0.4119873046875,-0.2765655517578125,0.5158910888844742
1782130822.046273,-0.0654296875,-0.1787109375,0.9843749403953552,1.002602945570596,-0.4100799560546875,-0.3490447998046875,-0.4596710205078125,0.7080220969173227
1782130822.054267,-0.0673828050494194,-0.18603515625,0.9570311903953552,0.9772708023709911,-0.286102294921875,-0.3509521484375,-0.4596710205078125,0.6452281617746969
1782130822.062261,-0.0693359300494194,-0.19384765625,0.9833983778953552,1.0047172511093119,-0.1659393310546875,-0.1659393310546875,-0.4596710205078125,0.5161096494703893
1782130822.070255,-0.0781249925494194,-0.1953125,0.9794921278953552,1.0018259907419391,-0.1659393310546875,0.2002716064453125,-0.7648468017578125,0.8078584084468131
1782130822.080927,-0.07666015625,-0.18505859375,0.9721679091453552,0.9925894953348305,-0.3490447998046875,0.0171661376953125,-0.2765655517578125,0.4456629365037798
1782130822.091599,-0.080078125,-0.19091796875,0.9648436903953552,0.9868057173480855,-0.286102294921875,0.2593994140625,-0.3414154052734375,0.5154678051377772
1782130822.102271,-0.076171875,-0.19091796875,0.9687499403953552,0.9903172584321884,-0.1010894775390625,0.0171661376953125,-0.0362396240234375,0.10875232917898889
1782130822.113001,-0.0600585862994194,-0.1923828125,0.9965819716453552,1.0167565129086897,-0.4100799560546875,0.0171661376953125,-0.2155303955078125,0.4635877457708982
1782130822.123731,-0.06640625,-0.17333984375,0.9838866591453552,1.0012439510501652,-0.3490447998046875,-0.1049041748046875,0.1468658447265625,0.39294622343190116
1782130822.134461,-0.06689453125,-0.19091796875,0.9780272841453552,0.9987301525615028,-0.286102294921875,-0.0457763671875,0.2117156982421875,0.3588502972475087
1782130822.142425,-0.0688476487994194,-0.18310546875,0.9692382216453552,0.9887822519289149,-0.2269744873046875,0.1392364501953125,0.3948211669921875,0.4762225959100327
1782130822.150387,-0.0771484300494194,-0.1875,0.9780272841453552,0.9988220556194329,-0.286102294921875,0.4425048828125,0.2117156982421875,0.5678808249577062
1782130822.158349,-0.0732421800494194,-0.1787109375,0.9760741591453552,0.9949988845580846,-0.469207763671875,0.2593994140625,0.4520416259765625,0.7012742780977104
1782130822.166311,-0.0688476487994194,-0.1943359375,0.9663085341453552,0.9880580137377345,-0.1010894775390625,0.5054473876953125,0.0286102294921875,0.5162506071945405
1782130822.17699,-0.07275390625,-0.1865234375,0.9790038466453552,0.9992660583437488,-0.286102294921875,0.3204345703125,0.0286102294921875,0.4305245431360629
1782130822.187669,-0.0693359300494194,-0.19287109375,0.9790038466453552,1.0002276049712593,-0.164031982421875,0.568389892578125,-0.2155303955078125,0.6296244218817889
1782130822.198348,-0.064453125,-0.1806640625,0.9711913466453552,0.989952696142643,-0.3223419189453125,0.7534027099609375,0.0972747802734375,0.8252165406504383
1782130822.206318,-0.083984375,-0.18115234375,0.9755858778953552,0.9958098975402433,-0.0782012939453125,0.4482269287109375,-0.3299713134765625,0.5620532801379322
1782130822.214291,-0.0732421800494194,-0.1884765625,0.9619140028953552,0.9829376279888635,-0.1392364501953125,0.5702972412109375,-0.5741119384765625,0.8211152478776133
1782130822.222264,-0.0654296875,-0.1806640625,0.9746093153953552,0.9933699538141642,0.225067138671875,0.324249267578125,-0.3910064697265625,0.5555887542084745
1782130822.230237,-0.0678710862994194,-0.173828125,0.9716796278953552,0.9894362034327099,-0.1392364501953125,0.2651214599609375,-0.2079010009765625,0.36455315634604973
1782130822.240961,-0.0688476487994194,-0.18310546875,0.9770507216453552,0.9964415306976495,-0.324249267578125,0.14495849609375,-0.4520416259765625,0.574884496860236
1782130822.251685,-0.08349609375,-0.185546875,0.9780272841453552,0.9989677717656931,-0.2002716064453125,0.0820159912109375,-0.0247955322265625,0.21783057081341273
1782130822.262409,-0.06640625,-0.185546875,0.9785155653953552,0.9981633857151443,-0.2002716064453125,-0.0400543212890625,-0.2079010009765625,0.29143762833438347
1782130822.273081,-0.07861328125,-0.18603515625,0.9604491591453552,0.9814538780059272,-0.4444122314453125,-0.2841949462890625,0.1583099365234375,0.5507549681632476
1782130822.283754,-0.0742187425494194,-0.197265625,0.9653319716453552,0.9880728536059304,-0.4444122314453125,-0.2231597900390625,0.0362396240234375,0.49861391245916975
1782130822.294427,-0.0810546875,-0.1826171875,0.9882811903953552,1.0082750670453937,0.1049041748046875,-0.3452301025390625,0.5245208740234375,0.6366402884493683
1782130822.302479,-0.0722656175494194,-0.1826171875,0.9643554091453552,0.9841507566415394,-0.2002716064453125,-0.3452301025390625,0.5245208740234375,0.6591014241629497
1782130822.310533,-0.0678710862994194,-0.189453125,0.9594725966453552,0.9803502612031627,-0.2613067626953125,-0.4673004150390625,0.7076263427734375,0.8873477013622647
1782130822.318587,-0.0673828050494194,-0.19384765625,0.9707030653953552,0.992160167219933,-0.2613067626953125,-0.1010894775390625,0.8907318115234375,0.9337577130922398
1782130822.326641,-0.0654296875,-0.1904296875,0.9916991591453552,1.011934648155354,0.225067138671875,-0.164031982421875,0.4634857177734375,0.5407224045174694
1782130822.337174,-0.0751953125,-0.1943359375,0.9824218153953552,1.0042775587409498,0.0438690185546875,0.2040863037109375,0.2193450927734375,0.30280023096941727
1782130822.347709,-0.083984375,-0.1826171875,0.9833983778953552,1.003730432965827,0.2880096435546875,-0.4062652587890625,0.4634857177734375,0.680308772440427
1782130822.358243,-0.0732421875,-0.17724609375,0.9785155653953552,0.9971325425942184,0.8983612060546875,-0.4062652587890625,0.2193450927734375,1.0100577145721745
1782130822.368894,-0.07177734375,-0.16552734375,0.9643554091453552,0.9810874801732218,0.2269744873046875,-0.4673004150390625,0.3414154052734375,0.6216522940848296
1782130822.379544,-0.0634765550494194,-0.1845703125,0.9653319716453552,0.9848661273381263,-0.1983642578125,0.019073486328125,0.4024505615234375,0.44908644059773534
1782130822.390196,-0.064453125,-0.18017578125,0.9697265028953552,0.9884265313562606,-0.0782012939453125,0.3871917724609375,0.0362396240234375,0.3966689065020394
1782130822.398213,-0.0625,-0.18408203125,0.9643554091453552,0.9837549488450015,-0.6866455078125,0.507354736328125,0.1583099365234375,0.8683046227423427
1782130822.40623,-0.0629882737994194,-0.1923828125,0.9711913466453552,0.9920641617256715,-0.6885528564453125,1.0585784912109375,0.0362396240234375,1.26333161462966
1782130822.414249,-0.0673828050494194,-0.1826171875,0.9711913466453552,0.990505987556641,-0.8716583251953125,1.3637542724609375,-0.0247955322265625,1.6187120713567797
1782130822.422267,-0.08056640625,-0.1904296875,0.9628905653953552,0.9848414352700513,-1.0547637939453125,0.8754730224609375,-0.3299713134765625,1.4099151541111425
1782130822.430261,-0.0732421800494194,-0.1826171875,0.9746093153953552,0.99427198078001,-1.0547637939453125,0.5092620849609375,-0.3910064697265625,1.2348119660760906
1782130822.438255,-0.07373046875,-0.1767578125,0.9643554091453552,0.9831891280164694,-1.2378692626953125,0.3871917724609375,-0.2079010009765625,1.313567891810064
1782130822.446249,-0.08154296875,-0.1923828125,0.9750975966453552,0.9972340373661147,-1.3580322265625,0.324249267578125,-0.2689361572265625,1.4218705189190197
1782130822.454242,-0.0771484300494194,-0.19970703125,0.9731444716453552,0.9964160482869072,-1.6040802001953125,0.4482269287109375,-0.3299713134765625,1.697899212555834
1782130822.46489,-0.09130859375,-0.19189453125,0.9770507216453552,0.9998944359701024,-1.667022705078125,0.019073486328125,-0.2079010009765625,1.6800450361028287
1782130822.475537,-0.0727538987994194,-0.17724609375,0.9682616591453552,0.9870359406379617,-1.5430450439453125,0.3871917724609375,-0.3910064697265625,1.638228169600823
1782130822.486184,-0.0737304612994194,-0.20263671875,0.9682616591453552,0.9919820871770356,-1.1768341064453125,0.2040863037109375,-0.5130767822265625,1.2999375053883526
1782130822.494231,-0.0869140550494194,-0.1982421875,0.9760741591453552,0.9997873684045178,-1.117706298828125,0.202178955078125,0.0362396240234375,1.13642290132939
1782130822.502278,-0.0776367112994194,-0.19873046875,0.9897460341453552,1.0124813431651187,-0.5664825439453125,-0.1621246337890625,-0.3910064697265625,0.7071583477864203
1782130822.510325,-0.07470703125,-0.2041015625,0.9853515028953552,1.0090372503487,-0.5054473876953125,-0.2231597900390625,0.0972747802734375,0.5610166989453519
1782130822.518372,-0.07568359375,-0.19677734375,0.9794921278953552,1.0019252257455102,-0.0171661376953125,-0.2231597900390625,-0.3910064697265625,0.4505341580187701
1782130822.528995,-0.0541992150247097,-0.1904296875,0.9731444716453552,0.9930816600282979,0.4100799560546875,-0.4062652587890625,-0.5741119384765625,0.8141385316750919
1782130822.539618,-0.0703125,-0.18701171875,0.9746093153953552,0.9948771523467016,0.7152557373046875,-0.2231597900390625,-0.1468658447265625,0.7635185904644348
1782130822.550241,-0.07568359375,-0.185546875,0.9809569716453552,1.0012153761328313,0.8983612060546875,-0.4673004150390625,-0.2689361572265625,1.0477352676623533
1782130822.558259,-0.0781249925494194,-0.19921875,0.9604491591453552,0.9839990915216483,0.713348388671875,-0.652313232421875,-0.3910064697265625,1.0427197783592026
1782130822.566277,-0.0615234337747097,-0.181640625,0.9653319716453552,0.9841972693695764,0.7762908935546875,-0.4062652587890625,-0.3910064697265625,0.9594608232142198
1782130822.574295,-0.07470703125,-0.1826171875,0.9711913466453552,0.9910311849217547,0.4100799560546875,-0.4062652587890625,-0.0858306884765625,0.583595697329169
1782130822.582313,-0.0781249925494194,-0.19384765625,0.9619140028953552,0.9843571390814567,0.3490447998046875,-0.1010894775390625,-0.1468658447265625,0.3919450613122479
1782130822.592978,-0.0786132737994194,-0.1943359375,0.9624022841453552,0.9849693700565837,-0.2613067626953125,-0.2841949462890625,0.0362396240234375,0.38776449305720034
1782130822.603643,-0.0585937425494194,-0.18505859375,0.9736327528953552,0.99279436304668,-0.1392364501953125,0.1430511474609375,-0.0247955322265625,0.20115973322531805
1782130822.614308,-0.0727538987994194,-0.1787109375,0.9750975966453552,0.9940050563031322,-0.2002716064453125,-0.0400543212890625,0.2193450927734375,0.29970874983206863
1782130822.624937,-0.0727538987994194,-0.17822265625,0.9775390028953552,0.9963126754051497,0.2880096435546875,0.1430511474609375,0.1583099365234375,0.3584344034442618
1782130822.635569,-0.083984375,-0.181640625,0.9619140028953552,0.9825096645126178,0.0438690185546875,-0.1010894775390625,0.1583099365234375,0.1928875560012282
1782130822.646201,-0.0703125,-0.18408203125,0.9741210341453552,0.9938520166754164,0.041961669921875,0.019073486328125,0.2193450927734375,0.22413578328131692
1782130822.654235,-0.0683593675494194,-0.189453125,0.9726561903953552,0.9932902669504156,0.1659393310546875,0.2651214599609375,0.2193450927734375,0.3820176957242741
1782130822.66227,-0.0742187425494194,-0.19287109375,0.9653319716453552,0.987204890603084,0.4100799560546875,0.7534027099609375,0.0362396240234375,0.8585420922026241
1782130822.670305,-0.0722656175494194,-0.1845703125,0.9804686903953552,1.0003036401921817,-0.019073486328125,0.873565673828125,0.2803802490234375,0.9176567268940713
1782130822.678339,-0.07666015625,-0.181640625,0.9667968153953552,0.9866945720258451,-0.1392364501953125,0.8754730224609375,0.0972747802734375,0.8917971658382451
1782130822.688958,-0.0688476487994194,-0.18896484375,0.9716796278953552,0.9922746646899365,-0.0782012939453125,1.3027191162109375,0.2193450927734375,1.323368734646514
1782130822.699576,-0.0541992112994194,-0.18896484375,0.9667968153953552,0.9865806347874164,0.164031982421875,1.300811767578125,0.2803802490234375,1.3407575582369173
1782130822.710194,-0.07421875,-0.181640625,0.9697265028953552,0.9893792144165999,-0.2613067626953125,1.0585784912109375,0.3414154052734375,1.1425559615365695
1782130822.720912,-0.0634765550494194,-0.197265625,0.9790038466453552,1.0006955239202306,-0.5664825439453125,0.8144378662109375,0.0362396240234375,0.9927360277849988
1782130822.731631,-0.0722656175494194,-0.18505859375,0.9741210341453552,0.9941734213732244,-0.446319580078125,0.812530517578125,-0.0247955322265625,0.9273736183304375
1782130822.74235,-0.07568359375,-0.185546875,0.9833983778953552,1.0036075023794893,-0.507354736328125,0.45013427734375,0.0362396240234375,0.6792223542137886
1782130822.75032,-0.07958984375,-0.19140625,0.9658202528953552,0.9878155985152592,-0.4444122314453125,0.5702972412109375,-0.2079010009765625,0.7523057895550618
1782130822.75829,-0.07421875,-0.20458984375,0.9658202528953552,0.9900374679374816,-0.5664825439453125,0.2040863037109375,-0.0858306884765625,0.6082109823420707
1782130822.76626,-0.0791015550494194,-0.1884765625,0.9648436903953552,0.9862574803360331,-0.3833770751953125,0.0209808349609375,-0.2689361572265625,0.4687694890719326
1782130822.77423,-0.0786132737994194,-0.18896484375,0.9755858778953552,0.9968227345620561,-0.3833770751953125,0.0820159912109375,-0.4520416259765625,0.598369648474218
1782130822.783841,-0.0693359375,-0.1962890625,0.9702147841453552,0.992297130732701,-0.4444122314453125,-0.4062652587890625,-0.5130767822265625,0.7910761508332238
1782130822.793452,-0.0747070237994194,-0.1923828125,0.9707030653953552,0.9923994796040133,-0.4444122314453125,-0.4062652587890625,-0.2079010009765625,0.637005901200454
1782130822.803062,-0.07861328125,-0.1904296875,0.9755858778953552,0.9971014587388237,-0.2002716064453125,-0.0400543212890625,-0.3910064697265625,0.4411339075271168
1782130822.812674,-0.07177734375,-0.18603515625,0.9638671278953552,0.9842768445280061,-0.2613067626953125,-0.4673004150390625,-0.2079010009765625,0.5743463487592143
1782130822.822284,-0.0634765550494194,-0.1943359375,0.9809569716453552,1.0020340861789943,-0.0782012939453125,-0.3452301025390625,-0.3910064697265625,0.5274327686462816
1782130822.831897,-0.06689453125,-0.197265625,0.9672850966453552,0.9894589750515238,0.164031982421875,-0.469207763671875,-0.1468658447265625,0.5182972053701035
1782130822.841512,-0.0595703087747097,-0.181640625,0.9716796278953552,0.9903046185920577,0.0438690185546875,-0.2841949462890625,-0.3910064697265625,0.48536307817264374
1782130822.851126,-0.0673828050494194,-0.1884765625,0.9663085341453552,0.9868211794394613,0.0438690185546875,-0.2231597900390625,-0.5130767822265625,0.5612241683491486
1782130822.860739,-0.0727538987994194,-0.19921875,0.9746093153953552,0.9974189479839861,-0.019073486328125,0.14495849609375,0.1583099365234375,0.21549663448074013
1782130822.870354,-0.0732421800494194,-0.19775390625,0.9790038466453552,1.0014587141374962,-0.0171661376953125,0.2651214599609375,-0.3299713134765625,0.42363325239249255
1782130822.880984,-0.0820312425494194,-0.16943359375,0.9619140028953552,0.9801609135297159,0.2269744873046875,-0.0400543212890625,-0.1468658447265625,0.27329716955797395
1782130822.891611,-0.064453125,-0.18017578125,0.9755858778953552,0.9941757000752757,-0.1392364501953125,-0.0400543212890625,0.0362396240234375,0.14934673771555673
1782130822.902238,-0.0712890625,-0.18115234375,0.9824218153953552,1.0015243009747454,-0.1392364501953125,0.0820159912109375,0.0972747802734375,0.1886154679620679
1782130822.912912,-0.0859375,-0.17431640625,0.9785155653953552,0.9976292773947428,0.1049041748046875,0.1430511474609375,0.1583099365234375,0.23776154584666992
1782130822.923586,-0.07275390625,-0.19677734375,0.9711913466453552,0.9935930181350702,0.0438690185546875,0.0820159912109375,-0.1468658447265625,0.1738409904208753
1782130822.93426,-0.0712890625,-0.19677734375,0.9819335341453552,1.0039904974274518,0.469207763671875,0.080108642578125,-0.0858306884765625,0.48367367841348635
1782130822.942367,-0.08056640625,-0.19189453125,0.9770507216453552,0.9989707551312034,0.2269744873046875,0.2040863037109375,-0.0247955322265625,0.30624084585178585
1782130822.950472,-0.0649413987994194,-0.18359375,0.9653319716453552,0.9847790949232201,0.1068115234375,0.324249267578125,-0.3299713134765625,0.47479190892583456
1782130822.958577,-0.0781249925494194,-0.193359375,0.9819335341453552,1.003835060077314,0.2880096435546875,0.1430511474609375,-0.4520416259765625,0.5547565386599093
1782130822.966682,-0.0654296800494194,-0.19287109375,0.9780272841453552,0.999008343492901,0.1049041748046875,0.2040863037109375,-0.3910064697265625,0.4533675822352925
1782130822.977224,-0.06640625,-0.1884765625,0.9755858778953552,0.9958418598350492,-0.019073486328125,0.14495849609375,-0.6351470947265625,0.6517580804332723
1782130822.987766,-0.0844726487994194,-0.1884765625,0.9624022841453552,0.9843155995590049,0.347137451171875,0.507354736328125,-0.2689361572265625,0.6709991767092397
1782130822.998307,-0.0693359300494194,-0.1943359375,0.9750975966453552,0.9966891445096459,0.2269744873046875,0.3871917724609375,-0.0247955322265625,0.4494993937338143
1782130823.006307,-0.0859375,-0.18359375,0.9707030653953552,0.9916432625260214,0.1049041748046875,0.5092620849609375,-0.0858306884765625,0.5269911423872078
1782130823.014306,-0.0703125,-0.1972656100988388,0.9667968153953552,0.9892187072849551,-0.019073486328125,0.324249267578125,0.0362396240234375,0.3268251761339995
1782130823.022305,-0.076171875,-0.18408203125,0.9794921278953552,0.999546485852015,0.1659393310546875,0.2651214599609375,0.1583099365234375,0.3505528292921781
1782130823.030304,-0.0673828050494194,-0.17626953125,0.9643554091453552,0.9826457882733372,0.347137451171875,0.202178955078125,0.0362396240234375,0.40335350529275
1782130823.041014,-0.0820312425494194,-0.17626953125,0.9672850966453552,0.9866308988641652,0.225067138671875,0.324249267578125,0.0972747802734375,0.40651591274160603
1782130823.051726,-0.08154296875,-0.18359375,0.9687499403953552,0.9893595745772263,0.164031982421875,0.385284423828125,-0.0247955322265625,0.4194822963132283
1782130823.062437,-0.07666015625,-0.1865234375,0.9653319716453552,0.9861711756960856,0.1049041748046875,0.0820159912109375,0.0972747802734375,0.1649057051257189
1782130823.070383,-0.06494140625,-0.19189453125,0.9785155653953552,0.999266535560146,0.652313232421875,-0.164031982421875,-0.0858306884765625,0.6780751813289483
1782130823.07833,-0.0791015625,-0.17626953125,0.9692382216453552,0.9883070044957117,0.0438690185546875,-0.2841949462890625,0.0972747802734375,0.3035681820653149
1782130823.086277,-0.0644531175494194,-0.18798828125,0.9672850966453552,0.9874888639581626,0.0438690185546875,-0.7114410400390625,-0.0858306884765625,0.7179413286092222
1782130823.094223,-0.0849609300494194,-0.19775390625,0.9692382216453552,0.9928482751006051,-0.0171661376953125,-0.7114410400390625,0.3414154052734375,0.7893082469436531
1782130823.104953,-0.0688476487994194,-0.18896484375,0.9833983778953552,1.0037529977867492,-0.0782012939453125,-0.7724761962890625,0.3414154052734375,0.8481741537950593
1782130823.115682,-0.0712890625,-0.19140625,0.9697265028953552,0.9910035183534147,-0.0782012939453125,-0.7114410400390625,0.4634857177734375,0.8526915071739267
1782130823.126411,-0.0595703050494194,-0.17919921875,0.9604491591453552,0.978837866322769,-0.2613067626953125,-0.7724761962890625,0.6465911865234375,1.0407117086654254
1782130823.137027,-0.0556640587747097,-0.18115234375,0.9731444716453552,0.9914256511606455,-0.0782012939453125,-0.5893707275390625,-0.1468658447265625,0.6124074405180686
1782130823.14764,-0.06689453125,-0.173828125,0.9731444716453552,0.9908083861403729,-0.019073486328125,-0.591278076171875,-0.2689361572265625,0.6498463032948738
1782130823.158255,-0.0522460900247097,-0.19091796875,0.9721679091453552,0.992113787973208,0.1049041748046875,-0.3452301025390625,-0.6961822509765625,0.7841290940689406
1782130823.168927,-0.0800781175494194,-0.18359375,0.9912108778953552,1.0112458526033132,0.2880096435546875,-0.0400543212890625,-0.7572174072265625,0.8111301407550723
1782130823.179599,-0.06396484375,-0.17578125,0.9697265028953552,0.9876031791692349,0.7762908935546875,0.0209808349609375,-1.1234283447265625,1.3657082384560244
1782130823.190271,-0.0810546875,-0.19775390625,0.9716796278953552,0.994905909656643,0.8983612060546875,0.5092620849609375,-1.0013580322265625,1.4384431293685014
1782130823.198291,-0.0820312425494194,-0.19091796875,0.9765624403953552,0.998425257861979,0.7762908935546875,0.1430511474609375,-0.2689361572265625,0.8339171654724565
1782130823.206311,-0.0810546875,-0.189453125,0.9633788466453552,0.9851706202997139,1.3866424560546875,-0.1621246337890625,0.3414154052734375,1.4372286445700417
1782130823.214331,-0.0869140550494194,-0.19580078125,0.9707030653953552,0.9940605816906649,0.835418701171875,0.019073486328125,0.8907318115234375,1.221348174849513
1782130823.222351,-0.0751953050494194,-0.17822265625,0.9531249403953552,0.9725558087358948,0.2899169921875,0.019073486328125,0.7076263427734375,0.7649514371688353
1782130823.232991,-0.0629882737994194,-0.17724609375,0.9707030653953552,0.9887609122299503,0.1049041748046875,-0.1010894775390625,1.3179779052734375,1.326005176139796
1782130823.243631,-0.07568359375,-0.17333984375,0.9604491591453552,0.9788959572381578,-0.4444122314453125,0.2040863037109375,1.0128021240234375,1.1246873313267922
1782130823.254271,-0.0683593675494194,-0.1943359375,0.9672850966453552,0.988979230281392,-0.5664825439453125,0.5092620849609375,0.8296966552734375,1.1263422586165555
1782130823.264912,-0.06982421875,-0.17236328125,0.9770507216453552,0.9945916925628445,-0.812530517578125,0.385284423828125,0.4024505615234375,0.9851986519026892
1782130823.275553,-0.07177734375,-0.1845703125,0.9624022841453552,0.9825662032964244,-0.8716583251953125,0.7534027099609375,-0.0247955322265625,1.1523969358155983
1782130823.286194,-0.0751953125,-0.181640625,0.9614257216453552,0.9813190459344276,-0.995635986328125,0.385284423828125,-0.2079010009765625,1.0876386949365149
1782130823.296916,-0.08056640625,-0.18994140625,0.9775390028953552,0.9990751652432929,-0.7495880126953125,0.4482269287109375,-0.8182525634765625,1.1967985737099263
1782130823.307637,-0.06787109375,-0.19140625,0.9877929091453552,1.0084531071218572,-0.995635986328125,0.324249267578125,-1.0013580322265625,1.4488431638728818
1782130823.318358,-0.0590820237994194,-0.193359375,0.9604491591453552,0.9814994247271088,-0.812530517578125,0.385284423828125,-1.0013580322265625,1.345870661670355
1782130823.326334,-0.0830078050494194,-0.1943359375,0.9648436903953552,0.9877145838747418,-0.6275177001953125,0.1430511474609375,-0.5741119384765625,0.8624654269880163
1782130823.33431,-0.08642578125,-0.18896484375,0.9580077528953552,0.9802836234711578,-1.0547637939453125,0.1430511474609375,-0.5741119384765625,1.2093778605998693
1782130823.342286,-0.0981445237994194,-0.19873046875,0.9780272841453552,1.0028277595350803,-0.812530517578125,0.507354736328125,0.0362396240234375,0.9586073131474206
1782130823.350262,-0.07763671875,-0.181640625,0.9799804091453552,0.9996911418319936,-0.1983642578125,0.324249267578125,0.4024505615234375,0.5535814490867488
1782130823.36097,-0.0742187425494194,-0.189453125,0.9775390028953552,0.9984905660543458,-0.0782012939453125,0.0209808349609375,0.5245208740234375,0.5307332522997689
1782130823.371678,-0.0629882737994194,-0.20361328125,0.9755858778953552,0.9985958622418146,0.2269744873046875,0.0820159912109375,0.7076263427734375,0.7476490364391897
1782130823.382386,-0.07373046875,-0.181640625,0.9741210341453552,0.9936504857528635,0.4100799560546875,-0.5283355712890625,0.3414154052734375,0.750911795888958
1782130823.390352,-0.0522460900247097,-0.185546875,0.9790038466453552,0.9978004953353841,0.7762908935546875,-0.4673004150390625,-0.3299713134765625,0.9643019739838051
1782130823.398318,-0.06494140625,-0.1806640625,0.9765624403953552,0.9952542839474057,0.7152557373046875,-0.1010894775390625,-0.8792877197265625,1.137961662921177
1782130823.406284,-0.0600585862994194,-0.193359375,0.9760741591453552,0.9968528707086054,0.7762908935546875,-0.3452301025390625,-0.9403228759765625,1.2672878466236077
1782130823.41425,-0.0791015625,-0.18603515625,0.9692382216453552,0.9900953827026738,0.652313232421875,0.019073486328125,-1.0013580322265625,1.1952381602751971
1782130823.423831,-0.06689453125,-0.19140625,0.9672850966453552,0.9883074870921671,0.2880096435546875,0.1430511474609375,-1.0623931884765625,1.1099966092253553
1782130823.433412,-0.0810546875,-0.181640625,0.9731444716453552,0.993263983898556,-0.0782012939453125,0.0820159912109375,-0.8182525634765625,0.826062541715214
1782130823.442993,-0.0859375,-0.18994140625,0.9770507216453552,0.9990450962705272,-0.1392364501953125,-0.0400543212890625,-1.0623931884765625,1.0722268531604289
1782130823.452574,-0.08642578125,-0.18798828125,0.9731444716453552,0.9948965635913714,0.1068115234375,-0.164031982421875,-0.4520416259765625,0.4926020954196443
1782130823.462155,-0.0908203125,-0.18798828125,0.9687499403953552,0.9909916094831132,-0.3833770751953125,-0.7114410400390625,0.0362396240234375,0.8089744406262384
1782130823.470169,-0.08056640625,-0.177734375,0.9721679091453552,0.9915598304917017,-0.019073486328125,-0.896453857421875,0.4634857177734375,1.0093623367984497
1782130823.478183,-0.07421875,-0.181640625,0.9716796278953552,0.9912936188480228,-0.2002716064453125,-0.9555816650390625,0.3414154052734375,1.0343159642319357
1782130823.486197,-0.07177734375,-0.17626953125,0.9736327528953552,0.9920603168323427,-0.263214111328125,-0.652313232421875,0.2193450927734375,0.7368218857490035
1782130823.49421,-0.080078125,-0.1796875,0.9814452528953552,1.00096697657345,-0.507354736328125,-0.469207763671875,0.5855560302734375,0.9057817720368025
1782130823.504959,-0.0703125,-0.18115234375,0.9863280653953552,1.0052875568159154,-0.019073486328125,-0.34332275390625,0.7076263427734375,0.7867460531946704
1782130823.515707,-0.0624999962747097,-0.18701171875,0.9868163466453552,1.0063230765965043,0.1049041748046875,-0.1010894775390625,0.4634857177734375,0.48584254542035693
1782130823.526454,-0.0566406212747097,-0.19140625,0.9672850966453552,0.9876664268414016,0.1659393310546875,0.0820159912109375,0.5245208740234375,0.556223544711567
1782130823.534407,-0.0673828050494194,-0.18603515625,0.9721679091453552,0.9920987679406429,0.2269744873046875,0.2651214599609375,0.2803802490234375,0.4476828011678465
1782130823.542359,-0.07470703125,-0.1845703125,0.9643554091453552,0.9846972610515587,0.4100799560546875,0.6923675537109375,0.1583099365234375,0.8201222078395007
1782130823.550311,-0.0673828050494194,-0.19287109375,0.9697265028953552,0.9910142237315793,0.3490447998046875,0.6313323974609375,-0.0858306884765625,0.7264845321401071
1782130823.558263,-0.07568359375,-0.1787109375,0.9809569716453552,0.9999710924645123,0.2880096435546875,0.6923675537109375,-0.0247955322265625,0.7502914118064824
1782130823.568944,-0.0615234375,-0.18798828125,0.9658202528953552,0.9858668714141852,0.1049041748046875,0.9975433349609375,-0.2079010009765625,1.024363420482935
1782130823.579625,-0.0751953125,-0.18994140625,0.9726561903953552,0.9938773251989431,-0.0782012939453125,0.8754730224609375,-0.2689361572265625,0.9191817622730559
1782130823.590306,-0.06884765625,-0.17236328125,0.9716796278953552,0.9892473905759068,-0.2002716064453125,0.8754730224609375,-0.7572174072265625,1.1747084451948038
1782130823.598352,-0.06396484375,-0.17626953125,0.9755858778953552,0.9934436340487102,-0.995635986328125,0.45013427734375,-1.1844635009765625,1.6114793421130207
1782130823.606401,-0.06396484375,-0.171875,0.9716796278953552,0.9888345747028762,-1.3599395751953125,0.5092620849609375,-1.8558502197265625,2.3564726939687417
1782130823.61445,-0.0673828050494194,-0.17919921875,0.9692382216453552,0.987965349956763,-2.0313262939453125,0.6313323974609375,-2.2220611572265625,3.076105150187884
1782130823.622499,-0.0771484300494194,-0.17431640625,0.9667968153953552,0.9854106616054069,-2.460479736328125,0.812530517578125,-2.4662017822265625,3.577194096709678
1782130823.633098,-0.0732421875,-0.17626953125,0.9731444716453552,0.9916882213532625,-2.643585205078125,0.385284423828125,-2.3441314697265625,3.5541439434996067
1782130823.643697,-0.080078125,-0.17138671875,0.9619140028953552,0.9803389528288533,-3.1299591064453125,0.2651214599609375,-2.6493072509765625,4.10922891874239
1782130823.654295,-0.0825195237994194,-0.18505859375,0.9726561903953552,0.993537226098356,-3.131866455078125,0.45013427734375,-2.3441314697265625,3.9377862699041724
1782130823.664993,-0.09228515625,-0.1865234375,0.9746093153953552,0.9965795805936957,-2.643585205078125,0.019073486328125,-2.5272369384765625,3.6572986038316655
1782130823.675688,-0.0800781175494194,-0.1923828125,0.9721679091453552,0.9942505192494094,-2.2144317626953125,-0.4673004150390625,-2.4662017822265625,3.347271865293738
1782130823.686383,-0.07080078125,-0.1875,0.9780272841453552,0.9983518263409698,-1.8482208251953125,-0.4062652587890625,-2.4051666259765625,3.0603591583172176
1782130823.694401,-0.0751953125,-0.19189453125,0.9785155653953552,0.9999852788249542,-1.117706298828125,-1.140594482421875,-1.8558502197265625,2.4483470305147557
1782130823.702418,-0.0727538987994194,-0.19873046875,0.9677733778953552,0.9906423370536396,-0.995635986328125,-0.957489013671875,-1.7337799072265625,2.2167699464032045
1782130823.710435,-0.0781249925494194,-0.189453125,0.9750975966453552,0.9963991790525825,-0.8716583251953125,-1.4438629150390625,-1.8558502197265625,2.5077297285326674
1782130823.718452,-0.076171875,-0.2041015625,0.9760741591453552,1.0000901791874917,0.2899169921875,-1.323699951171875,-1.7948150634765625,2.2489096325050166
1782130823.72914,-0.07177734375,-0.2001953125,0.9687499403953552,0.9918198411197382,0.225067138671875,-1.811981201171875,-1.5506744384765625,2.3955213011899557
1782130823.739828,-0.0585937462747097,-0.19580078125,0.9780272841453552,0.9991539128549489,0.2269744873046875,-1.5048980712890625,-1.3675689697265625,2.0460890767060307
1782130823.750516,-0.06201171875,-0.2080078125,0.9711913466453552,0.995150910727706,0.225067138671875,-1.140594482421875,-1.3675689697265625,1.7949528899667928
1782130823.761095,-0.0644531175494194,-0.1982421875,0.9726561903953552,0.9947433005459397,0.835418701171875,-1.262664794921875,-1.2454986572265625,1.960488126910228
1782130823.771675,-0.05615234375,-0.18798828125,0.9790038466453552,0.9984694343555788,0.408172607421875,-0.835418701171875,-1.4286041259765625,1.7045348434322287
1782130823.782255,-0.0590820237994194,-0.18310546875,0.9697265028953552,0.9886292473116743,0.347137451171875,-0.835418701171875,-1.0623931884765625,1.3953881550289888
1782130823.79031,-0.0595703050494194,-0.20263671875,0.9716796278953552,0.9943699313114327,0.2880096435546875,-0.2841949462890625,-0.8792877197265625,0.9679169470252492
1782130823.798364,-0.06591796875,-0.18603515625,0.9628905653953552,0.9829102191413388,0.041961669921875,-0.164031982421875,-0.8792877197265625,0.8954407669197447
1782130823.806418,-0.07080078125,-0.17041015625,0.9741210341453552,0.9914454907573972,-0.2613067626953125,0.1430511474609375,-0.5130767822265625,0.5932896758583944
1782130823.814472,-0.068359375,-0.18212890625,0.9804686903953552,0.9995813100932784,-0.507354736328125,0.45013427734375,-0.5741119384765625,0.8886136472143997
1782130823.825063,-0.06640625,-0.18408203125,0.9687499403953552,0.9883179808564614,-0.507354736328125,0.63323974609375,-0.2689361572265625,0.8548263339247619
1782130823.835654,-0.06640625,-0.18359375,0.9658202528953552,0.9853553754767733,-0.507354736328125,0.812530517578125,-0.2689361572265625,0.9949579524453017
1782130823.846245,-0.07177734375,-0.18310546875,0.9692382216453552,0.9889905611583023,-0.629425048828125,0.812530517578125,-0.1468658447265625,1.038244340430185
1782130823.856925,-0.0600585900247097,-0.1904296875,0.9755858778953552,0.9958103761590129,-0.7495880126953125,0.8754730224609375,-0.0247955322265625,1.1528009456327644
1782130823.867607,-0.07373046875,-0.185546875,0.9716796278953552,0.991980405104464,-0.6885528564453125,0.6923675537109375,0.1583099365234375,0.9892117576902945
1782130823.878289,-0.0678710862994194,-0.20263671875,0.9697265028953552,0.9929942671329403,-0.7495880126953125,0.9975433349609375,0.2803802490234375,1.278901082157624
1782130823.888924,-0.078125,-0.19677734375,0.9687499403953552,0.9916154928470561,-0.3833770751953125,0.7534027099609375,0.4634857177734375,0.9640604938185962
1782130823.899559,-0.0791015625,-0.19970703125,0.9819335341453552,1.005153431571428,-0.4444122314453125,0.4482269287109375,0.4634857177734375,0.7830891530724968
1782130823.910194,-0.0776367112994194,-0.19287109375,0.9736327528953552,0.9955839769985747,-0.4444122314453125,0.3871917724609375,0.4634857177734375,0.7498257868995991
1782130823.920916,-0.0747070237994194,-0.1923828125,0.9809569716453552,1.0024314770446923,-0.141143798828125,-0.164031982421875,0.5855560302734375,0.6242627073552218
1782130823.931638,-0.07080078125,-0.181640625,0.9814452528953552,1.0006202335086118,0.1049041748046875,-0.3452301025390625,0.2803802490234375,0.4569483489772437
1782130823.942362,-0.078125,-0.17724609375,0.9633788466453552,0.9826588907338948,0.0438690185546875,-0.5283355712890625,0.4024505615234375,0.6656045531310778
1782130823.952989,-0.07568359375,-0.18359375,0.9765624403953552,0.9965484791985332,0.2880096435546875,-1.0776519775390625,0.2193450927734375,1.1368357881409865
1782130823.963616,-0.0727538987994194,-0.18115234375,0.9785155653953552,0.9977985834614248,0.0438690185546875,-1.1997222900390625,0.0362396240234375,1.2010709281116099
1782130823.974242,-0.0776367112994194,-0.19775390625,0.9760741591453552,0.9989268394281111,0.0438690185546875,-1.1997222900390625,0.4634857177734375,1.2868865818655049
1782130823.982239,-0.0595703087747097,-0.19189453125,0.9741210341453552,0.9946275292669049,0.0438690185546875,-1.0776519775390625,0.5855560302734375,1.2272465685722616
1782130823.990236,-0.06396484375,-0.17578125,0.9609374403953552,0.9789746234918969,-0.0171661376953125,-1.1997222900390625,0.5855560302734375,1.3351045330196185
1782130823.998233,-0.07666015625,-0.185546875,0.9726561903953552,0.9931588428307657,0.164031982421875,-1.079559326171875,0.8907318115234375,1.4091692552854493
1782130824.00623,-0.076171875,-0.1972656100988388,0.9633788466453552,0.9863136811544376,0.2880096435546875,-1.0166168212890625,1.0128021240234375,1.4636350154785045
1782130824.016903,-0.0688476487994194,-0.1923828125,0.9711913466453552,0.9924534130574779,0.469207763671875,-0.591278076171875,1.3790130615234375,1.5720822856020353
1782130824.027575,-0.0703125,-0.18994140625,0.9746093153953552,0.9954320183316792,0.2880096435546875,-0.3452301025390625,1.1959075927734375,1.2776260598989
1782130824.038249,-0.0771484225988388,-0.1962890625,0.9672850966453552,0.9900109763830056,0.4100799560546875,-0.2231597900390625,1.5010833740234375,1.572010546407905
1782130824.046252,-0.0624999962747097,-0.1865234375,0.9707030653953552,0.9904350980448413,0.8983612060546875,-0.3452301025390625,1.3179779052734375,1.6319627566314503
1782130824.054257,-0.0649413987994194,-0.18310546875,0.9765624403953552,0.9957003555061704,0.5931854248046875,-0.1621246337890625,0.8907318115234375,1.0823846382602536
1782130824.062262,-0.0537109300494194,-0.18798828125,0.9707030653953552,0.9901963941875581,0.8373260498046875,0.1430511474609375,0.8296966552734375,1.1874237172312765
1782130824.070267,-0.0688476487994194,-0.1943359375,0.9682616591453552,0.989968229752919,0.8983612060546875,0.3261566162109375,0.4634857177734375,1.0621911341289572
1782130824.080922,-0.06884765625,-0.1962890625,0.9775390028953552,0.999425784143021,0.5321502685546875,0.5702972412109375,0.4024505615234375,0.8777182384604768
1782130824.091577,-0.0678710862994194,-0.20263671875,0.9707030653953552,0.9939479691156721,0.469207763671875,0.568389892578125,-0.0247955322265625,0.7374536011799881
1782130824.102232,-0.0683593675494194,-0.1943359375,0.9609374403953552,0.9827717049698457,0.3490447998046875,0.9365081787109375,0.0972747802734375,1.0041624489794554
1782130824.112913,-0.07470703125,-0.1943359375,0.9643554091453552,0.986574352124612,-0.019073486328125,1.12152099609375,0.1583099365234375,1.13279970805164
1782130824.123596,-0.08154296875,-0.19140625,0.9794921278953552,1.0013443148590784,-0.324249267578125,0.995635986328125,0.2803802490234375,1.0839933988908668
1782130824.134281,-0.0791015625,-0.1826171875,0.9672850966453552,0.9875457217529555,-0.1983642578125,0.812530517578125,0.4024505615234375,0.9281813805737593
1782130824.142396,-0.0776367112994194,-0.18994140625,0.9663085341453552,0.987854938698877,-0.7495880126953125,0.9975433349609375,0.7076263427734375,1.4344720056133573
1782130824.150512,-0.09130859375,-0.19775390625,0.9731444716453552,0.9972231592896617,-0.5664825439453125,0.6923675537109375,0.5855560302734375,1.0691824758272124
1782130824.158628,-0.0771484300494194,-0.20166015625,0.9682616591453552,0.9920430129025558,-0.6885528564453125,0.9365081787109375,0.1583099365234375,1.1731217502516655
1782130824.166744,-0.06884765625,-0.19189453125,0.9853515028953552,1.006221195937012,-0.6275177001953125,0.7534027099609375,0.3414154052734375,1.0382478443959922
1782130824.174657,-0.0708007737994194,-0.19287109375,0.9677733778953552,0.9893418617130804,-0.2613067626953125,0.5092620849609375,0.2193450927734375,0.6129774589108913
1782130824.18257,-0.0683593675494194,-0.2099609375,0.9794921278953552,1.0040724212010836,0.0438690185546875,0.0820159912109375,-0.2079010009765625,0.2277585120480039
1782130824.190483,-0.0703125,-0.18896484375,0.9687499403953552,0.9895089725948503,0.1068115234375,-0.164031982421875,-0.5130767822265625,0.5491475004552542
1782130824.198396,-0.0747070237994194,-0.20849609375,0.9672850966453552,0.9923165919736453,0.4100799560546875,-0.2841949462890625,-0.4520416259765625,0.6732562435429708
1782130824.209103,-0.0683593675494194,-0.20361328125,0.9648436903953552,0.9884607823929467,0.7781982421875,-0.164031982421875,-0.5741119384765625,0.9808687543714916
1782130824.21981,-0.0654296875,-0.1943359375,0.9687499403953552,0.9902140918136623,0.8373260498046875,-0.0400543212890625,-0.5130767822265625,0.9828362258257543
1782130824.230517,-0.0732421800494194,-0.1953125,0.9721679091453552,0.9942946410228173,0.957489013671875,-0.164031982421875,-0.6961822509765625,1.1951407570384267
1782130824.241273,-0.0625,-0.189453125,0.9667968153953552,0.9871650413334471,0.957489013671875,-0.286102294921875,-0.4520416259765625,1.0968050720512912
1782130824.252029,-0.0859375,-0.19287109375,0.9682616591453552,0.9910172315764683,1.0204315185546875,-0.3452301025390625,-0.5741119384765625,1.220683753336741
1782130824.262785,-0.0595703087747097,-0.19189453125,0.9794921278953552,0.9998884744911016,0.835418701171875,-0.469207763671875,-0.5741119384765625,1.116998142191374
1782130824.270747,-0.076171875,-0.19580078125,0.9550780653953552,0.9779131921998294,0.5321502685546875,-0.4062652587890625,-0.1468658447265625,0.6854231869210559
1782130824.278709,-0.0825195237994194,-0.19775390625,0.9809569716453552,1.0040879739668447,0.2899169921875,0.019073486328125,0.0362396240234375,0.2927951000087198
1782130824.286671,-0.0737304612994194,-0.18994140625,0.9760741591453552,0.9971131745609246,0.347137451171875,-0.469207763671875,-0.3299713134765625,0.6704784882556009
1782130824.294633,-0.06884765625,-0.1865234375,0.9858397841453552,1.0056893518933643,0.7762908935546875,-0.2231597900390625,-0.2689361572265625,0.8513251435086385
1782130824.305165,-0.0629882737994194,-0.189453125,0.9672850966453552,0.9876742719139293,1.140594482421875,-0.34332275390625,0.1583099365234375,1.20161904224386
1782130824.315697,-0.06396484375,-0.1904296875,0.9775390028953552,0.9979666674288049,1.3256072998046875,-0.2231597900390625,-0.2689361572265625,1.3708981223451813
1782130824.326229,-0.06982421875,-0.18505859375,0.9614257216453552,0.9815607586319185,0.8373260498046875,-0.0400543212890625,-0.0858306884765625,0.8426661079097759
1782130824.334289,-0.0585937425494194,-0.197265625,0.9760741591453552,0.997530810363219,0.7152557373046875,-0.2841949462890625,0.0972747802734375,0.7757705331609088
1782130824.342349,-0.0712890625,-0.1953125,0.9711913466453552,0.9931977320187544,0.8983612060546875,0.0820159912109375,0.2193450927734375,0.9283812520091803
1782130824.350409,-0.0683593675494194,-0.1884765625,0.9677733778953552,0.988322684504691,0.7762908935546875,0.2651214599609375,0.2803802490234375,0.8669083134854567
1782130824.358469,-0.0795898362994194,-0.1787109375,0.9633788466453552,0.9830416793748026,0.7152557373046875,0.6923675537109375,0.2803802490234375,1.0342034051488058
1782130824.370434,-0.07470703125,-0.19140625,0.9575194716453552,0.9793166146028828,0.6542205810546875,0.9365081787109375,0.6465911865234375,1.312681339837585
1782130824.382399,-0.0751953125,-0.19482421875,0.9604491591453552,0.9828903288447498,0.652313232421875,0.995635986328125,0.7076263427734375,1.3847521841294073
1782130824.394364,-0.064453125,-0.1875,0.9697265028953552,0.9897878286481002,0.5931854248046875,0.9365081787109375,0.4024505615234375,1.1793570161167164
1782130824.406329,-0.0727538987994194,-0.18115234375,0.9799804091453552,0.9992351593820806,0.652313232421875,1.178741455078125,0.7686614990234375,1.5510591449694395
1782130824.414315,-0.07666015625,-0.18310546875,0.9755858778953552,0.9955763141976022,0.1049041748046875,0.7534027099609375,0.5855560302734375,0.9599460369507881
1782130824.422301,-0.0654296875,-0.18603515625,0.9589843153953552,0.9790510918954167,0.4100799560546875,0.8754730224609375,0.1583099365234375,0.9796329003339763
1782130824.430287,-0.0810546875,-0.193359375,0.9707030653953552,0.993087182192003,-0.141143798828125,0.507354736328125,-0.0858306884765625,0.5335703397927739
1782130824.438273,-0.07080078125,-0.1904296875,0.9604491591453552,0.9817019933818908,0.1659393310546875,0.5702972412109375,-0.0247955322265625,0.5944658302561064
1782130824.446266,-0.06591796875,-0.2001953125,0.9716796278953552,0.9942759380664679,-0.0171661376953125,0.2651214599609375,0.1583099365234375,0.3092670380387283
1782130824.454259,-0.0732421800494194,-0.1904296875,0.9687499403953552,0.9900021867833139,0.041961669921875,0.324249267578125,-0.0858306884765625,0.3380314724281507
1782130824.462252,-0.0849609375,-0.1826171875,0.9707030653953552,0.9913787567016091,-0.019073486328125,-0.164031982421875,-0.2689361572265625,0.31558983792535183
1782130824.480904,-0.0781249925494194,-0.1826171875,0.9711913466453552,0.9912947005961826,-0.0782012939453125,0.4482269287109375,-0.0858306884765625,0.46302238507519455
1782130824.491563,-0.08447265625,-0.18505859375,0.9765624403953552,0.9975251940505513,0.3490447998046875,0.0820159912109375,-0.0858306884765625,0.3686811660084736
1782130824.502222,-0.09033203125,-0.18505859375,0.9731444716453552,0.9946942855392285,0.4100799560546875,0.4482269287109375,-0.1468658447265625,0.6250140209040922
1782130824.510486,-0.07568359375,-0.19384765625,0.9711913466453552,0.9932358994696837,0.5321502685546875,-0.2231597900390625,-0.3910064697265625,0.69704394379489
1782130824.518748,-0.0786132737994194,-0.208984375,0.9614257216453552,0.987012631151646,0.8373260498046875,-0.2231597900390625,-0.0247955322265625,0.8669083134854567
1782130824.527009,-0.0810546875,-0.19775390625,0.9697265028953552,0.9929984693948485,0.5931854248046875,-0.3452301025390625,-0.2689361572265625,0.7371427463955943
1782130824.535272,-0.0703124925494194,-0.19287109375,0.9702147841453552,0.9916954334809915,0.8373260498046875,-0.1010894775390625,-0.3299713134765625,0.9056572551843719
1782130824.545601,-0.07568359375,-0.19921875,0.9746093153953552,0.9976369251235043,0.7152557373046875,-0.1010894775390625,-0.1468658447265625,0.7371427463955943
1782130824.55593,-0.0781249925494194,-0.18408203125,0.9697265028953552,0.9901308999862736,0.469207763671875,0.019073486328125,-0.0858306884765625,0.4773747274993011
1782130824.566259,-0.0732421800494194,-0.19287109375,0.9682616591453552,0.989997129447166,0.469207763671875,-0.102996826171875,-0.3299713134765625,0.5827909911871403
1782130824.574369,-0.0634765550494194,-0.193359375,0.9794921278953552,1.000410890359708,0.4100799560546875,0.0820159912109375,-0.1468658447265625,0.4432400811291481
1782130824.58248,-0.08544921875,-0.1953125,0.9633788466453552,0.9866850276582544,0.1049041748046875,0.1430511474609375,-0.1468658447265625,0.23030000657531488
1782130824.590591,-0.0732421800494194,-0.18359375,0.9726561903953552,0.9925377306137332,0.652313232421875,-0.102996826171875,-0.2689361572265625,0.7130550862717023
1782130824.598701,-0.0747070237994194,-0.1884765625,0.9746093153953552,0.9954736921045108,0.4100799560546875,-0.2231597900390625,-0.3910064697265625,0.6089761256536435
1782130824.609324,-0.07568359375,-0.1865234375,0.9604491591453552,0.9813162519813637,0.1659393310546875,0.0820159912109375,-0.3299713134765625,0.3783431671414691
1782130824.619948,-0.0629882737994194,-0.1806640625,0.9829100966453552,1.0013587190425897,0.2880096435546875,0.1430511474609375,-0.1468658447265625,0.35352901142287574
1782130824.630571,-0.0576171875,-0.1787109375,0.9711913466453552,0.9891764105943679,0.0438690185546875,0.2040863037109375,-0.2689361572265625,0.3404443666961386
1782130824.641114,-0.0712890625,-0.19287109375,0.9638671278953552,0.9855563045679792,0.2880096435546875,0.5702972412109375,-0.4520416259765625,0.7826430410658737
1782130824.651657,-0.0654296875,-0.1875,0.9702147841453552,0.9903302587422874,-0.019073486328125,0.385284423828125,-0.2689361572265625,0.4702494463463724
1782130824.662199,-0.076171875,-0.18994140625,0.9653319716453552,0.98678554297778,0.0438690185546875,0.4482269287109375,-0.3299713134765625,0.5583125810225301
1782130824.67022,-0.0742187425494194,-0.189453125,0.9799804091453552,1.0008808673496463,-0.1392364501953125,0.3871917724609375,-0.2689361572265625,0.4915596753073064
1782130824.678241,-0.06689453125,-0.18994140625,0.9560546278953552,0.9770327873922712,0.1049041748046875,0.4482269287109375,-0.1468658447265625,0.4831995880175593
1782130824.686262,-0.07666015625,-0.1982421875,0.9677733778953552,0.9908390663594394,0.3490447998046875,0.7534027099609375,-0.2689361572265625,0.8727969822994173
1782130824.694283,-0.0834960862994194,-0.18505859375,0.9672850966453552,0.9883616431955774,-0.0782012939453125,0.4482269287109375,-0.5130767822265625,0.6857627916826083
1782130824.705075,-0.0698242112994194,-0.1884765625,0.9692382216453552,0.9898593664726586,0.2269744873046875,0.5092620849609375,-0.5741119384765625,0.80029357548796
1782130824.715867,-0.0781249925494194,-0.177734375,0.9853515028953552,1.0042960752565064,-0.2613067626953125,0.7534027099609375,-0.3910064697265625,0.8881345207651925
1782130824.726659,-0.0590820237994194,-0.18359375,0.9863280653953552,1.0050076632353813,-0.3833770751953125,0.6923675537109375,-0.3910064697265625,0.8827439439526105
1782130824.734555,-0.0649413987994194,-0.1923828125,0.9726561903953552,0.9936239713985572,-0.2613067626953125,0.2040863037109375,-0.2689361572265625,0.4269181423370149
1782130824.74245,-0.08935546875,-0.18115234375,0.9731444716453552,0.993886680731545,0.2269744873046875,0.3871917724609375,-0.1468658447265625,0.4722334834548636
1782130824.750345,-0.0820312350988388,-0.181640625,0.9716796278953552,0.9919091387063069,-0.0782012939453125,0.1430511474609375,-0.2079010009765625,0.2642004908618996
1782130824.75824,-0.06982421875,-0.181640625,0.9692382216453552,0.9885805321129327,-0.1392364501953125,-0.2231597900390625,-0.0858306884765625,0.27668391358666106
1782130824.768909,-0.0673828050494194,-0.189453125,0.9770507216453552,0.997527464111291,-0.263214111328125,-0.164031982421875,0.2193450927734375,0.37986896343777915
1782130824.779577,-0.0751953125,-0.18115234375,0.9731444716453552,0.9927137902547786,0.0438690185546875,-0.2231597900390625,0.3414154052734375,0.41023074194562203
1782130824.790247,-0.0639648362994194,-0.1884765625,0.9770507216453552,0.9971173589715191,-0.324249267578125,-0.102996826171875,0.2803802490234375,0.4408616764574516
1782130824.800949,-0.0629882737994194,-0.18798828125,0.9707030653953552,0.990742932193563,-0.2613067626953125,-0.4673004150390625,0.4024505615234375,0.6697890388745658
1782130824.811651,-0.0810546875,-0.17919921875,0.9755858778953552,0.9952135587476609,0.0438690185546875,-0.3452301025390625,0.5245208740234375,0.6294683961680633
1782130824.822353,-0.0786132737994194,-0.19384765625,0.9711913466453552,0.9934634328700273,-0.0782012939453125,-0.2841949462890625,0.2193450927734375,0.36741594902065994
1782130824.833093,-0.0795898362994194,-0.19775390625,0.9628905653953552,0.9862045378148941,0.0438690185546875,-0.0400543212890625,0.3414154052734375,0.3465448288474444
1782130824.843831,-0.0737304612994194,-0.18408203125,0.9804686903953552,1.0003205626188707,0.652313232421875,0.202178955078125,0.0362396240234375,0.6838875590464545
1782130824.854569,-0.0698242112994194,-0.1982421875,0.9741210341453552,0.9965375931457816,0.469207763671875,0.45013427734375,0.4634857177734375,0.7984959634899231
1782130824.862503,-0.064453125,-0.1962890625,0.9741210341453552,0.9957888282883127,0.469207763671875,0.507354736328125,-0.0858306884765625,0.6963703476232342
1782130824.870437,-0.0742187425494194,-0.18408203125,0.9721679091453552,0.9922222833351378,0.8373260498046875,0.1430511474609375,0.2193450927734375,0.8773202460875964
1782130824.878371,-0.0629882737994194,-0.1787109375,0.9721679091453552,0.9904622988233379,1.0204315185546875,0.2651214599609375,0.1583099365234375,1.0661294051819878
1782130824.886305,-0.0678710862994194,-0.1845703125,0.9677733778953552,0.9875515154030178,0.5931854248046875,0.2040863037109375,-0.0247955322265625,0.627801709125986
1782130824.897018,-0.0678710862994194,-0.17724609375,0.9667968153953552,0.9852505997784003,0.5931854248046875,0.7534027099609375,0.0362396240234375,0.9595821496498161
1782130824.907731,-0.0629882737994194,-0.1748046875,0.9780272841453552,0.995520753144274,0.164031982421875,0.63323974609375,-0.1468658447265625,0.6704242266187687
1782130824.918444,-0.0673828050494194,-0.1962890625,0.9697265028953552,0.9916850956282001,0.041961669921875,0.812530517578125,-0.5130767822265625,0.9618806621397332
1782130824.929065,-0.06982421875,-0.1796875,0.9687499403953552,0.9877446361263128,-0.7495880126953125,1.0585784912109375,-0.3910064697265625,1.3547533613905383
1782130824.939685,-0.07568359375,-0.1806640625,0.9707030653953552,0.9902686256818694,-0.812530517578125,1.178741455078125,-0.3299713134765625,1.4691896840207255
1782130824.950305,-0.0834960862994194,-0.19970703125,0.9667968153953552,0.9907323437824209,-0.7495880126953125,0.5702972412109375,-0.2689361572265625,0.9795140574657949
1782130824.958286,-0.07666015625,-0.17333984375,0.9643554091453552,0.9828045767778324,-1.422882080078125,0.324249267578125,-0.2079010009765625,1.4740942397077124
1782130824.966268,-0.0888671800494194,-0.1787109375,0.9614257216453552,0.9819238224594395,-1.3599395751953125,0.2040863037109375,-0.3299713134765625,1.414202225730906
1782130824.97425,-0.0732421800494194,-0.1787109375,0.9677733778953552,0.9868572982369368,-1.3599395751953125,0.2651214599609375,0.0362396240234375,1.386015276634275
1782130824.982232,-0.0776367112994194,-0.1982421875,0.9726561903953552,0.995684432217648,-1.3599395751953125,-0.1010894775390625,-0.0247955322265625,1.3639169876022244
1782130824.990237,-0.0722656175494194,-0.2001953125,0.9707030653953552,0.9937630118869946,-1.4209747314453125,0.2040863037109375,-0.3910064697265625,1.4878529719486735
1782130824.998241,-0.0688476487994194,-0.19482421875,0.9702147841453552,0.9919743960057509,-1.1768341064453125,0.2651214599609375,-0.2079010009765625,1.2241122206855926
1782130825.006247,-0.0781249925494194,-0.189453125,0.9741210341453552,0.9954435143178787,-1.1768341064453125,0.0820159912109375,0.0362396240234375,1.1802450793189565
1782130825.014252,-0.076171875,-0.20361328125,0.9799804091453552,1.003803828021743,-0.2613067626953125,-0.0400543212890625,-0.3299713134765625,0.42280804226230095
1782130825.023882,-0.0732421875,-0.19580078125,0.9765624403953552,0.9986874205470034,-0.019073486328125,0.080108642578125,-0.3299713134765625,0.3400915468133056
1782130825.033512,-0.0722656175494194,-0.20458984375,0.9780272841453552,1.0018067139813887,0.2269744873046875,-0.0400543212890625,-0.2079010009765625,0.3103942537293657
1782130825.043142,-0.07275390625,-0.20166015625,0.9790038466453552,1.0022018166216875,0.2880096435546875,-0.4062652587890625,-0.3910064697265625,0.6331564377367345
1782130825.052772,-0.0747070237994194,-0.19287109375,0.9760741591453552,0.9977480455308346,0.5321502685546875,-0.1010894775390625,-0.2689361572265625,0.6047558577275106
1782130825.062402,-0.0629882737994194,-0.18212890625,0.9672850966453552,0.9862955537364376,0.469207763671875,0.080108642578125,-0.2689361572265625,0.546717456067997
1782130825.071998,-0.0732421800494194,-0.1953125,0.9648436903953552,0.9871346091037279,0.4100799560546875,-0.0400543212890625,-0.2689361572265625,0.49203310424760266
1782130825.081594,-0.076171875,-0.1806640625,0.9687499403953552,0.9883916759240862,0.469207763671875,-0.03814697265625,-0.5130767822265625,0.6963181036514577
1782130825.09119,-0.0751953125,-0.18212890625,0.9711913466453552,0.9909782567304958,0.652313232421875,-0.102996826171875,-0.2689361572265625,0.7130550862717023
1782130825.100786,-0.0786132737994194,-0.1884765625,0.9721679091453552,0.9933850738768579,0.2269744873046875,-0.4673004150390625,-0.5741119384765625,0.7742684377425068
1782130825.110382,-0.0776367112994194,-0.189453125,0.9716796278953552,0.9930162359098218,-0.019073486328125,-0.102996826171875,-0.0858306884765625,0.1354217529296875
1782130825.119946,-0.0810546875,-0.18994140625,0.9702147841453552,0.9919497605968602,-0.324249267578125,0.019073486328125,-0.0858306884765625,0.3359587660562236
1782130825.129513,-0.07666015625,-0.18603515625,0.9736327528953552,0.9942065159853983,-0.2613067626953125,-0.0400543212890625,-0.4520416259765625,0.5236670741031617
1782130825.13908,-0.0712890625,-0.20068359375,0.9877929091453552,1.0104904089551705,0.0438690185546875,-0.2841949462890625,-0.1468658447265625,0.3228944636137966
1782130825.148647,-0.0634765550494194,-0.19775390625,0.9682616591453552,0.9902860804075718,0.2880096435546875,-0.1010894775390625,0.2193450927734375,0.37587352523609147
1782130825.158214,-0.0673828050494194,-0.19580078125,0.9658202528953552,0.9877687731738063,0.2880096435546875,-0.3452301025390625,0.0362396240234375,0.4510506499596136
1782130825.167832,-0.06591796875,-0.1928710788488388,0.9780272841453552,0.9990404397186234,0.2880096435546875,-0.3452301025390625,0.1583099365234375,0.47665020138638836
1782130825.17745,-0.0771484300494194,-0.193359375,0.9770507216453552,0.9989834036795557,0.347137451171875,0.324249267578125,0.0362396240234375,0.4763982660342253
1782130825.187068,-0.0727538987994194,-0.19384765625,0.9775390028953552,0.9992259733442579,0.2880096435546875,0.0820159912109375,0.3414154052734375,0.45413726620135053
1782130825.196686,-0.0703125,-0.1875,0.9702147841453552,0.9906648399082649,0.6542205810546875,-0.0400543212890625,0.2803802490234375,0.712896907955074
1782130825.206304,-0.06982421875,-0.2099609375,0.9643554091453552,0.9894141559265424,0.8983612060546875,0.5092620849609375,0.4634857177734375,1.1319097748066107
1782130825.214272,-0.0634765625,-0.1875,0.9692382216453552,0.9892463061771154,0.4100799560546875,0.6313323974609375,-0.0858306884765625,0.757702496713552
1782130825.22224,-0.0747070237994194,-0.1787109375,0.9741210341453552,0.9931920900568592,0.4100799560546875,0.6923675537109375,-0.0247955322265625,0.8050796346995003
1782130825.230208,-0.07666015625,-0.1875,0.9628905653953552,0.9839671084358772,0.164031982421875,0.690460205078125,0.3414154052734375,0.7875317549228109
1782130825.248867,-0.07666015625,-0.17578125,0.9682616591453552,0.9870696368436996,-0.1392364501953125,0.4482269287109375,-0.3910064697265625,0.6108847911453197
1782130825.259558,-0.08154296875,-0.17919921875,0.9667968153953552,0.9866395988463945,-0.1983642578125,0.324249267578125,-0.3910064697265625,0.545318279237441
1782130825.270249,-0.0771484300494194,-0.1884765625,0.9785155653953552,0.9994838701009128,-0.1983642578125,0.019073486328125,-0.6961822509765625,0.7241421844037306
1782130825.278248,-0.08154296875,-0.18359375,0.9848632216453552,1.005142520313062,-0.629425048828125,-0.286102294921875,-0.4520416259765625,0.826058137704233
1782130825.286248,-0.07666015625,-0.17822265625,0.9682616591453552,0.9875073343160526,-0.507354736328125,-0.102996826171875,-0.6351470947265625,0.8194077169612535
1782130825.294248,-0.068359375,-0.17724609375,0.9721679091453552,0.9905552107137068,-0.2613067626953125,-0.2231597900390625,-0.5741119384765625,0.6690934419211558
1782130825.302248,-0.0732421800494194,-0.1943359375,0.9672850966453552,0.9893287278425759,-0.2613067626953125,-0.5283355712890625,-0.5741119384765625,0.822814813928967
1782130825.312914,-0.07861328125,-0.18701171875,0.9677733778953552,0.9888067262623706,0.2880096435546875,-0.2841949462890625,-0.2079010009765625,0.4549056478917336
1782130825.32358,-0.0629882737994194,-0.19775390625,0.9667968153953552,0.9888226394717937,-0.1392364501953125,-0.3452301025390625,-0.0247955322265625,0.37307563734519283
1782130825.334246,-0.0737304612994194,-0.19482421875,0.9780272841453552,0.9999650122217839,0.347137451171875,-0.469207763671875,0.2803802490234375,0.6475132581951607
1782130825.342987,-0.0771484300494194,-0.17529296875,0.9731444716453552,0.991811306573078,0.164031982421875,-0.286102294921875,-0.0858306884765625,0.3407754708032469
1782130825.351729,-0.0566406212747097,-0.185546875,0.9726561903953552,0.991814431995752,0.1659393310546875,-0.7114410400390625,0.0362396240234375,0.7314352503072984
1782130825.360471,-0.0571289025247097,-0.189453125,0.9711913466453552,0.9911452112958837,0.469207763671875,-0.469207763671875,0.0972747802734375,0.670652095991036
1782130825.369213,-0.0693359375,-0.19189453125,0.9750975966453552,0.9962159938167069,0.5321502685546875,-0.5283355712890625,-0.2079010009765625,0.7781678549125649
1782130825.378881,-0.0722656175494194,-0.18603515625,0.9794921278953552,0.9996180407784424,0.5931854248046875,-0.3452301025390625,-0.5130767822265625,0.8569133890655535
1782130825.388549,-0.07080078125,-0.18603515625,0.9736327528953552,0.9937718890656749,0.530242919921875,-0.164031982421875,-0.4520416259765625,0.7158251720916642
1782130825.398217,-0.07080078125,-0.1972656100988388,0.9814452528953552,1.0035742403948524,0.4100799560546875,-0.1621246337890625,-0.1468658447265625,0.4647790266204993
1782130825.408879,-0.07666015625,-0.17529296875,0.9667968153953552,0.9855457811324969,-0.019073486328125,0.019073486328125,-0.3910064697265625,0.39193577934330975
1782130825.419544,-0.0742187425494194,-0.18798828125,0.9555663466453552,0.9767062293617755,0.1049041748046875,0.1430511474609375,-0.4520416259765625,0.4856028709726475
1782130825.430209,-0.06982421875,-0.185546875,0.9614257216453552,0.9816529338761258,0.2269744873046875,0.4482269287109375,-0.5741119384765625,0.7629084580801172
1782130825.440943,-0.07568359375,-0.19482421875,0.9672850966453552,0.989608478524046,-0.019073486328125,0.507354736328125,-0.3910064697265625,0.6408265644644576
1782130825.451677,-0.0727538987994194,-0.18994140625,0.9731444716453552,0.9941735413360493,-0.0782012939453125,0.3261566162109375,-0.2689361572265625,0.4299072427125185
1782130825.462411,-0.08056640625,-0.18701171875,0.9697265028953552,0.990875279328092,0.0438690185546875,0.7534027099609375,0.0362396240234375,0.7555484395555299
1782130825.470384,-0.0795898362994194,-0.1884765625,0.9687499403953552,0.9901183786143902,-0.141143798828125,0.690460205078125,0.0362396240234375,0.7056700199764199
1782130825.478355,-0.0727538987994194,-0.18896484375,0.9760741591453552,0.9968558602502622,-0.1392364501953125,0.5702972412109375,0.3414154052734375,0.6791098669242139
1782130825.486326,-0.0688476487994194,-0.19384765625,0.9692382216453552,0.9908277564123227,-0.019073486328125,0.507354736328125,0.0972747802734375,0.5169477819205107
1782130825.494297,-0.0688476487994194,-0.18310546875,0.9731444716453552,0.9926115927820323,0.2269744873046875,0.5702972412109375,0.1583099365234375,0.6338914711700157
1782130825.503889,-0.06982421875,-0.18994140625,0.9736327528953552,0.9944414999600848,0.0438690185546875,0.6923675537109375,0.5245208740234375,0.8697237880539604
1782130825.513482,-0.0634765550494194,-0.17919921875,0.9804686903953552,0.998729435776845,0.1659393310546875,0.2651214599609375,0.0362396240234375,0.31486276450551637
1782130825.523075,-0.064453125,-0.19189453125,0.9794921278953552,1.000191254238355,0.0438690185546875,0.2040863037109375,-0.2079010009765625,0.2946159132810059
1782130825.532668,-0.076171875,-0.19921875,0.9819335341453552,1.004830199770969,-0.2613067626953125,0.3871917724609375,-0.2079010009765625,0.5112939654433675
1782130825.542261,-0.0791015625,-0.1826171875,0.9599608778953552,0.98037287878132,0.1049041748046875,0.5092620849609375,-0.4520416259765625,0.6889806881805527
1782130825.552931,-0.08349609375,-0.185546875,0.9790038466453552,0.9999238832232065,-0.1392364501953125,0.0820159912109375,-0.3910064697265625,0.42308329114411214
1782130825.563601,-0.0751953125,-0.1845703125,0.9672850966453552,0.9876036621390863,0.164031982421875,0.385284423828125,-0.3299713134765625,0.5331337976711554
1782130825.574271,-0.0654296875,-0.1796875,0.9780272841453552,0.9965470436438698,-0.0171661376953125,0.2651214599609375,-0.6351470947265625,0.688473599170503
1782130825.582262,-0.07470703125,-0.18994140625,0.9755858778953552,0.9967079228516582,-0.019073486328125,-0.164031982421875,-0.0858306884765625,0.1861107095852364
1782130825.590254,-0.07861328125,-0.1865234375,0.9692382216453552,0.9901483580877962,-0.0782012939453125,-0.2231597900390625,-0.3299713134765625,0.4059517237091715
1782130825.598246,-0.0742187425494194,-0.1796875,0.9702147841453552,0.989501261634408,-0.0782012939453125,-0.5893707275390625,0.0972747802734375,0.6024414326155618
1782130825.606238,-0.07568359375,-0.1875,0.9667968153953552,0.9877147050750614,0.041961669921875,-0.469207763671875,0.2803802490234375,0.5482059752274133
1782130825.616897,-0.07666015625,-0.1767578125,0.9731444716453552,0.9920333999064634,-0.019073486328125,-0.469207763671875,0.3414154052734375,0.5805895299854251
1782130825.627556,-0.06787109375,-0.18115234375,0.9731444716453552,0.9921858796147308,0.1049041748046875,-0.4673004150390625,0.3414154052734375,0.5881658292906501
1782130825.638215,-0.0727538987994194,-0.1943359375,0.9687499403953552,0.9907250039292055,-0.2613067626953125,-0.5283355712890625,0.4634857177734375,0.7498257868995991
1782130825.648897,-0.0590820237994194,-0.1884765625,0.9780272841453552,0.9977732551440688,-0.1392364501953125,-0.5283355712890625,0.3414154052734375,0.6442745873541478
1782130825.659579,-0.0517578087747097,-0.20556640625,0.9760741591453552,0.9988279042452767,0.225067138671875,-0.164031982421875,0.9517669677734375,0.9916763933420211
1782130825.670261,-0.07080078125,-0.19970703125,0.9633788466453552,0.9864048109777414,0.1049041748046875,0.1430511474609375,0.4634857177734375,0.4962736415137337
1782130825.678273,-0.0595703087747097,-0.19482421875,0.9741210341453552,0.9951969086886667,0.347137451171875,-0.286102294921875,0.0362396240234375,0.4513006132446859
1782130825.686285,-0.0732421800494194,-0.18994140625,0.9843749403953552,1.0052045453662544,0.469207763671875,-0.03814697265625,0.0972747802734375,0.4807010504357613
1782130825.694296,-0.07421875,-0.19140625,0.9697265028953552,0.9912185762021818,0.835418701171875,0.019073486328125,-0.2689361572265625,0.8778467182898174
1782130825.702307,-0.07080078125,-0.1796875,0.9663085341453552,0.9854199771894243,0.7762908935546875,-0.2231597900390625,0.0362396240234375,0.8085426109090192
1782130825.71295,-0.0751953125,-0.1875,0.9653319716453552,0.9862435807155764,0.6542205810546875,0.0820159912109375,0.1583099365234375,0.6780805464632504
1782130825.723593,-0.0732421800494194,-0.185546875,0.9726561903953552,0.9929008633670647,0.5931854248046875,0.1430511474609375,-0.0247955322265625,0.6106941930369135
1782130825.734236,-0.0771484300494194,-0.18505859375,0.9716796278953552,0.9921491131108638,0.2269744873046875,0.0820159912109375,0.0972747802734375,0.2602045802417472
1782130825.744927,-0.0786132737994194,-0.18359375,0.9604491591453552,0.9809940362507535,0.0438690185546875,0.6923675537109375,0.2193450927734375,0.7276053806455854
1782130825.755617,-0.07568359375,-0.18603515625,0.9628905653953552,0.9836134030457616,-0.2613067626953125,0.6313323974609375,0.2193450927734375,0.7176169521672878
1782130825.766307,-0.0581054612994194,-0.17529296875,0.9575194716453552,0.9751653234739261,-0.2613067626953125,0.5092620849609375,0.4024505615234375,0.6997110474185724
1782130825.774372,-0.0683593675494194,-0.1953125,0.9716796278953552,0.9934693125883972,-1.1157989501953125,0.2651214599609375,0.1583099365234375,1.1577386241249945
1782130825.782436,-0.08056640625,-0.201171875,0.9814452528953552,1.0050849981657688,-1.1768341064453125,-0.2231597900390625,-0.0247955322265625,1.1980624459524696
1782130825.7905,-0.0678710862994194,-0.17822265625,0.9638671278953552,0.9825526142622134,-1.0547637939453125,-0.1010894775390625,-0.6351470947265625,1.2353775032056489
1782130825.798563,-0.0683593675494194,-0.1904296875,0.9790038466453552,0.9996924530872014,-0.8716583251953125,0.0209808349609375,-1.0013580322265625,1.3277598954715453
1782130825.80937,-0.0639648362994194,-0.18408203125,0.9580077528953552,0.9776280218567517,-1.117706298828125,0.019073486328125,-1.3675689697265625,1.766317087977056
1782130825.820176,-0.0703125,-0.19091796875,0.9628905653953552,0.9841502727608538,-1.2378692626953125,0.2651214599609375,-1.4896392822265625,1.9549002253849488
1782130825.830982,-0.0800781175494194,-0.20263671875,0.9814452528953552,1.0053402056651535,-0.8716583251953125,0.5092620849609375,-1.0623931884765625,1.465542696062607
1782130825.838799,-0.0859375,-0.1865234375,0.9770507216453552,0.9984009010967367,-0.507354736328125,0.690460205078125,-0.6961822509765625,1.1039990261978954
1782130825.846615,-0.0878906175494194,-0.1943359375,0.9775390028953552,1.000536715687569,-0.2613067626953125,0.5092620849609375,-0.4520416259765625,0.7293632339408122
1782130825.854431,-0.076171875,-0.18505859375,0.9741210341453552,0.9944649952744237,-0.019073486328125,0.385284423828125,0.3414154052734375,0.5151430520576833
1782130825.862247,-0.0830078050494194,-0.197265625,0.9687499403953552,0.9921091016222799,0.1659393310546875,0.2651214599609375,0.7076263427734375,0.773666782994854
1782130825.872941,-0.0869140550494194,-0.18994140625,0.9760741591453552,0.9981746114406403,0.5931854248046875,0.0820159912109375,0.7076263427734375,0.9270008694720521
1782130825.883637,-0.07177734375,-0.18798828125,0.9638671278953552,0.9846478666002256,0.5931854248046875,-0.0400543212890625,1.1348724365234375,1.28117475156018
1782130825.894332,-0.0581054612994194,-0.1904296875,0.9711913466453552,0.9913890973341317,0.957489013671875,-0.102996826171875,0.8907318115234375,1.3117914154177273
1782130825.905166,-0.0673828050494194,-0.19384765625,0.9750975966453552,0.9964600740789838,0.8983612060546875,-0.3452301025390625,-0.0247955322265625,0.9627312702211156
1782130825.915998,-0.0615234375,-0.18798828125,0.9697265028953552,0.9896940020363875,0.652313232421875,-0.164031982421875,-0.1468658447265625,0.6884683150277667
1782130825.92683,-0.0605468675494194,-0.18310546875,0.9570311903953552,0.9762695505062906,0.5931854248046875,-0.2841949462890625,-0.4520416259765625,0.7981086062137753
1782130825.937304,-0.06640625,-0.18603515625,0.9692382216453552,0.9891620694801612,0.164031982421875,-0.469207763671875,-1.0623931884765625,1.1729201608245163
1782130825.947776,-0.0693359375,-0.1796875,0.9638671278953552,0.9829216195213609,0.0438690185546875,-0.2841949462890625,-1.2454986572265625,1.278263730001898
1782130825.958248,-0.083984375,-0.19091796875,0.9672850966453552,0.9895168034086035,-0.019073486328125,-0.591278076171875,-1.0623931884765625,1.2159987040139557
