timestamp,accel_x,accel_y,accel_z,accel_rms,gyro_x,gyro_y,gyro_z,gyro_rms
1782811888.364259,-0.0483398362994194,-0.9296875,-0.0375976599752903,0.9317022976602141,92.73529052734375,-61.24114990234375,61.73133850097656,127.1261999104604
1782811888.372383,-0.0175781212747097,-0.859375,-0.0366210974752903,0.8603345196798994,77.29339599609375,-54.83245849609375,55.56678771972656,109.85688629678141
1782811888.380507,-0.03173828125,-0.87158203125,-0.0400390662252903,0.8730782797199649,62.21771240234375,-47.69134521484375,54.22401428222656,95.31921039256079
1782811888.388631,-0.020019523799419403,-0.84716796875,-0.0385742150247097,0.8482819806372931,50.19569396972656,-41.46766662597656,49.89051818847656,82.0258427181354
1782811888.399077,-0.0439453087747097,-0.84912109375,-0.0444335900247097,0.8514177387962885,36.27967834472656,-32.80067443847656,48.24256896972656,68.69821515304874
1782811888.409523,-0.0654296875,-0.88720703125,-0.0541992150247097,0.8912659060095819,19.372940063476562,-25.903701782226562,47.26600646972656,57.274671018887716
1782811888.419969,-0.029785148799419403,-0.9013671875,-0.0385742150247097,0.9026837385571074,3.07464599609375,-17.90618896484375,48.85292053222656,52.12190418407631
1782811888.430459,-0.07568359375,-0.87744140625,-0.0322265662252903,0.881288817207824,-9.01031494140625,-5.69915771484375,55.74989318847656,56.76016882047249
1782811888.440948,-0.05224609375,-0.89697265625,-0.0312500037252903,0.8990362412634683,-18.34869384765625,5.04302978515625,59.90028381347656,62.850224472662255
1782811888.451437,-0.0483398362994194,-0.93603515625,-0.0410156287252903,0.9381795325571473,-28.72467041015625,6.08062744140625,58.61854553222656,65.56077028655938
1782811888.459449,-0.0361328087747097,-1.07568359375,-0.0039062537252902985,1.076297371803458,-31.225204467773438,13.956069946289062,46.04530334472656,57.35813144191378
1782811888.467461,-0.09423828125,-1.17822265625,-0.012695316225290298,1.182053574254492,-30.79986572265625,20.36285400390625,47.87635803222656,60.4600960150412
1782811888.475473,-0.0537109300494194,-1.25537109375,-0.007812503725290298,1.256543864035117,-30.79986572265625,21.09527587890625,51.35536193847656,63.49027951405433
1782811888.483485,-0.0219726525247097,-1.25390625,0.0068359337747097015,1.2541173833571586,-25.12359619140625,24.94049072265625,51.23329162597656,62.27417870922189
1782811888.491474,-0.0449218712747097,-1.16552734375,0.0214843712747097,1.1665905630326443,-15.600204467773438,32.01866149902344,47.87635803222656,59.671657611091454
1782811888.499463,-0.0537109300494194,-1.146484375,0.012695308774709702,1.1478120303389399,-6.8111419677734375,32.07969665527344,41.34559631347656,52.772691109289596
1782811888.507452,-0.0351562462747097,-1.09130859375,0.0366210900247097,1.0924886785131132,5.153656005859375,27.19879150390625,38.23280334472656,47.20256011167432
1782811888.515441,-0.0297851525247097,-1.02001953125,0.0395507775247097,1.0212204773922227,20.227432250976562,27.990341186523438,37.86659240722656,51.2492637580372
1782811888.52613,-0.06689453125,-0.9946288466453552,0.0415039025247097,0.9977394423470526,33.28895568847656,29.882431030273438,39.81971740722656,59.88926572850753
1782811888.536819,-0.0634765550494194,-1.0400390625,-0.0063476599752902985,1.0419936743349179,41.34559631347656,26.102066040039062,40.97938537597656,63.79722730548976
1782811888.547508,-0.0541992112994194,-1.1337890625,0.011230465024709702,1.135139337744393,49.76654052734375,22.98736572265625,42.99354553222656,69.66758569348114
1782811888.555532,-0.0346679650247097,-1.16552734375,-0.010253909975290298,1.1660879038467324,58.12835693359375,24.57427978515625,43.35975646972656,76.56937761189137
1782811888.563556,-0.0532226525247097,-1.16943359375,-0.012207034975290298,1.17070773151786,63.625335693359375,25.73394775390625,41.71180725097656,80.31372406529327
1782811888.57158,-0.0454101525247097,-1.23193359375,-0.009765621274709702,1.2328089181706094,65.14739990234375,25.91705322265625,38.41590881347656,79.94785432860122
1782811888.579604,-0.0229492150247097,-1.23291015625,-0.0346679650247097,1.233610954739623,65.75965881347656,27.257919311523438,37.56141662597656,80.48718476508267
1782811888.590338,-0.0371093712747097,-1.19921875,-0.015136722475290298,1.199888259862251,64.53704833984375,30.12847900390625,36.89002990722656,80.20991311592489
1782811888.601072,-0.02392578125,-1.14501953125,-0.0195312462747097,1.1454360041195824,60.38856506347656,33.36143493652344,33.16688537597656,76.54937241410146
1782811888.611806,-0.0180664025247097,-1.0849609375,-0.0170898474752903,1.0852459139235644,53.42864990234375,35.37750244140625,29.626846313476562,70.59701361857512
1782811888.62238,-0.0170898400247097,-0.9916991591453552,-0.013671878725290298,0.9919406258186796,47.44720458984375,37.14752197265625,25.415420532226562,65.39968817149966
1782811888.632957,-0.0268554650247097,-0.908203125,-0.010742191225290298,0.9086635939299976,41.34559631347656,37.57667541503906,21.936416625976562,60.02225624010304
1782811888.643532,-0.011718746274709702,-0.8623046875,-0.0034179724752902985,0.8623910862448461,34.328460693359375,38.00201416015625,16.870498657226562,53.91854985761133
1782811888.651526,-0.01904296875,-0.86865234375,-0.0234375037252903,0.8691771082708372,17.96722412109375,38.42926025390625,6.0062408447265625,42.84511775412612
1782811888.659518,-0.02880859375,-0.93701171875,-0.0288085974752903,0.9378970260306698,7.2269439697265625,36.65733337402344,0.5741119384765625,37.36734421595628
1782811888.66751,-0.0395507775247097,-1.00830078125,-0.0332031287252903,1.0096222943404716,-6.20269775390625,35.37750244140625,-2.9659271240234375,36.03939319859641
1782811888.675502,-0.010253902524709702,-1.0478515625,-0.0288085974752903,1.0482976556489911,-21.33941650390625,37.69683837890625,-3.8814544677734375,43.49124060403386
1782811888.686178,-0.0385742112994194,-1.044921875,-0.0292968712747097,1.046043976751157,-36.47422790527344,41.23497009277344,-5.1021575927734375,55.287648457311356
1782811888.696854,-0.0307617150247097,-0.9794921278953552,-0.0073242224752902985,0.9800024265046999,-49.10850524902344,41.05186462402344,-8.398056030273438,64.55562114944075
1782811888.70753,-0.0205078087747097,-0.90283203125,0.0073242150247097015,0.9030946190723701,-57.04498291015625,38.91754150390625,-12.304306030273438,70.14343204331327
1782811888.718184,-0.0371093712747097,-0.81591796875,0.0170898400247097,0.8169402057663708,-60.52207946777344,37.75596618652344,-14.135360717773438,72.72031015062406
1782811888.728834,-0.0356445275247097,-0.77001953125,0.0268554650247097,0.7713117572360886,-60.46295166015625,35.01129150390625,-14.806747436523438,71.41987696628217
1782811888.739486,-0.0444335900247097,-0.78173828125,0.0249023400247097,0.7833959476745423,-58.75205993652344,30.008316040039062,-17.675399780273438,68.29877989932322
1782811888.747477,-0.0341796800494194,-0.86083984375,0.0258789025247097,0.861906726224879,-54.47959899902344,21.215438842773438,-27.624130249023438,64.66230837513355
1782811888.755468,-0.0322265625,-0.92138671875,0.0351562462747097,0.922620181045042,-51.42974853515625,16.57867431640625,-32.01866149902344,62.809761667020524
1782811888.763459,-0.0551757775247097,-0.9912108778953552,0.0327148400247097,0.9932842652742363,-47.70660400390625,12.24517822265625,-31.347274780273438,58.38249816032289
1782811888.77145,-0.0522460900247097,-1.00048828125,0.0288085900247097,1.0022656283145008,-43.00498962402344,9.618759155273438,-29.455184936523438,53.00525992667442
1782811888.78212,-0.0434570237994194,-1.0048828125,0.0297851525247097,1.0062629552390039,-37.93907165527344,6.0176849365234375,-29.455184936523438,48.40654511224728
1782811888.79279,-0.0561523400247097,-0.9531249403953552,0.0317382775247097,0.9553049542183562,-32.14263916015625,0.46539306640625,-33.84971618652344,46.68157161872826
1782811888.80346,-0.0512695275247097,-0.90673828125,0.0341796837747097,0.9088295362276416,-23.78082275390625,-4.72259521484375,-36.90147399902344,44.1536999550046
1782811888.814195,-0.0502929612994194,-0.91650390625,0.0395507775247097,0.9187344861985876,-14.93072509765625,-10.21575927734375,-37.57286071777344,41.70141666744212
1782811888.824929,-0.0625,-0.9208984375,0.0390624962747097,0.9238430931739183,-6.626129150390625,-16.50238037109375,-38.36631774902344,42.28721417933496
1782811888.835663,-0.0576171837747097,-0.9921874403953552,0.0288085900247097,0.9942764160954574,0.45013427734375,-21.62933349609375,-41.05186462402344,46.40351578772916
1782811888.843679,-0.07470703125,-1.1201171875,0.015624996274709702,1.122714476062228,10.828018188476562,-27.124404907226562,-43.67637634277344,52.541461436628644
1782811888.851694,-0.0786132737994194,-1.11767578125,0.015624996274709702,1.1205460005367227,13.26751708984375,-29.44183349609375,-44.46983337402344,54.958299188151855
1782811888.85971,-0.0732421800494194,-1.0244140625,0.0058593712747097015,1.027045724696754,14.001846313476562,-30.416488647460938,-44.71397399902344,55.8619186263118
1782811888.867724,-0.0732421800494194,-0.9453125,0.0175781212747097,0.9483085626219927,15.03753662109375,-30.96771240234375,-43.37120056152344,55.37316820638766
1782811888.878318,-0.0820312425494194,-0.85498046875,0.013183590024709702,0.8590078775797757,14.42718505859375,-32.24945068359375,-41.47911071777344,54.4856620042903
1782811888.888912,-0.0722656175494194,-0.8212890625,0.011718746274709702,0.8245455552461481,13.513565063476562,-34.50584411621094,-38.36631774902344,53.34082916974664
1782811888.899506,-0.0673828050494194,-0.85693359375,-0.0019531287252902985,0.8595809683941563,11.13128662109375,-36.15570068359375,-34.94834899902344,51.502692468647744
1782811888.910141,-0.0791015625,-0.9340819716453552,-0.0068359412252902985,0.9374502210972331,5.5789947509765625,-35.97450256347656,-32.07969665527344,48.522128504584046
1782811888.920773,-0.08544921875,-1.00830078125,-0.0214843787252903,1.0121430793042836,-2.9048919677734375,-34.26551818847656,-27.868270874023438,44.26290383128061
1782811888.931406,-0.0605468712747097,-1.10546875,-0.0175781287252903,1.1072651315097037,-13.525009155273438,-30.969619750976562,-23.595809936523438,41.216567866949404
1782811888.939424,-0.2236327975988388,-1.8867186307907104,-0.10888671875,1.9030436509588522,-31.591415405273438,-27.791976928710938,-19.933700561523438,46.5592517872767
1782811888.947443,-0.19189453125,-2.68701171875,-0.08642578125,2.6952411586884315,-72.54600524902344,-22.668838500976562,5.3348541259765625,76.19225541431453
1782811888.95546,0.021484375,-1.9340819120407104,0.0224609337747097,1.9343316454006079,-87.31842041015625,3.39508056640625,27.246475219726562,91.53361965352596
1782811888.963478,-0.19970703125,-1.61865234375,0.0439453087747097,1.6315175446256658,-89.08653259277344,16.332626342773438,17.602920532226562,92.2660705997596
1782811888.974143,-0.126953125,-1.39990234375,0.0214843712747097,1.4058112413098276,-78.40347290039062,20.48492431640625,-14.501571655273438,82.32273238640836
1782811888.984808,-0.09423828125,-1.24169921875,0.0498046837747097,1.2462657461485545,-70.04356384277344,31.591415405273438,-13.769149780273438,78.06220499561122
1782811888.995473,0.05029296875,-0.94873046875,-0.014648433774709702,0.9501754899240115,-64.48936462402344,36.23390197753906,3.5037994384765625,74.05437470287102
1782811889.00615,-0.177734375,-0.7001953125,-0.012695316225290298,0.7225123907295109,-52.22320556640625,35.74371337890625,32.80067443847656,71.2794534867058
1782811889.016826,0.04931640625,-0.859375,0.115234375,0.8684678806565362,-35.43853759765625,31.53228759765625,23.950576782226562,53.139488484583026
1782811889.027502,-0.008789058774709702,-0.84033203125,0.0576171837747097,0.8423508236863219,-20.421981811523438,28.360366821289062,30.115127563476562,46.13337897350175
1782811889.035715,-0.012207027524709702,-0.7060546875,0.0424804650247097,0.7074367980041943,-8.03375244140625,35.68267822265625,-2.9048919677734375,36.69104932781103
1782811889.043929,-0.0581054612994194,-0.45361328125,0.0585937462747097,0.4610580014073229,-6.08062744140625,23.41461181640625,-2.4166107177734375,24.311686160269332
1782811889.052143,-0.00390625,-0.57177734375,0.0297851525247097,0.5725659306366284,4.177093505859375,26.03912353515625,5.5179595947265625,26.943124219823794
1782811889.060357,-0.0688476487994194,-0.6123046875,0.0258789025247097,0.6167063699002664,0.93841552734375,31.95953369140625,12.659072875976562,34.38814539275674
1782811889.071048,0.008789066225290298,-0.544921875,0.0024414025247097015,0.5449982183318729,0.6961822509765625,29.882431030273438,13.025283813476562,32.60525068799868
1782811889.081739,0.0263671875,-0.662109375,0.0385742150247097,0.6637559966616673,0.51116943359375,34.88922119140625,9.973526000976562,36.29036057171197
1782811889.09243,0.023925788700580597,-0.75927734375,0.0468749962747097,0.7610990693548078,2.4051666259765625,39.70909118652344,1.8558502197265625,39.825129370742836
1782811889.102784,0.02685546875,-0.90673828125,0.0278320275247097,0.9075627519032072,3.9920806884765625,35.86387634277344,-21.886825561523438,42.20411671524008
1782811889.113138,0.03466796875,-1.025390625,-0.0058593787252902985,1.025993242772187,-0.3414154052734375,41.35704040527344,-35.43663024902344,54.46353017357928
1782811889.123492,-0.1113281100988388,-1.263671875,-0.0336914025247097,1.2690136588580427,-8.090972900390625,56.86187744140625,-38.24424743652344,69.0026043756494
1782811889.131503,-0.076171875,-1.2529296875,0.014160152524709702,1.2553228534044085,-43.86138916015625,106.17828369140625,-11.266708374023438,115.43217967402637
1782811889.139516,-0.0253906212747097,-1.283203125,-0.0419921912252903,1.2841410700473614,-52.83164978027344,129.06455993652344,-14.928817749023438,140.25588561446352
1782811889.147529,-0.19189453125,-1.3759765625,-0.0156250037252903,1.3893808521835864,-64.12315368652344,132.29942321777344,-4.2476654052734375,147.08147022604916
1782811889.155542,-0.017578125,-1.4521484375,-0.007812503725290298,1.4522758382024623,-65.28282165527344,148.29444885253906,-8.520126342773438,162.25191190444994
1782811889.1662,-0.1240234375,-1.7109375,0.0410156212747097,1.715917021054374,-67.05474853515625,179.66461181640625,8.264541625976562,191.9479478622798
1782811889.176858,-0.2495117038488388,-1.8369139432907104,-0.009277347475290298,1.8538055438987,-53.38096618652344,198.15635681152344,-5.5904388427734375,205.29666899946852
1782811889.187516,-0.0966796800494194,-1.79736328125,0.0585937462747097,1.800915031983111,-33.79058837890625,210.06011962890625,-14.196395874023438,213.23366379939887
1782811889.198167,-0.2343749850988388,-1.8520506620407104,0.0595703087747097,1.8677719106178432,-10.290145874023438,231.36329650878906,-7.6045989990234375,231.7168358135819
1782811889.208818,-0.32568359375,-1.70263671875,0.0458984337747097,1.7341131063159212,19.61517333984375,244.66705322265625,-0.5855560302734375,245.45277515985597
1782811889.219469,-0.255859375,-1.57080078125,0.0502929650247097,1.5922966107110752,47.44720458984375,245.52154541015625,15.710830688476562,250.55717248744622
1782811889.230121,-0.10986328125,-1.13671875,0.0522460900247097,1.143210003057815,124.65667724609375,271.33941650390625,22.729873657226562,299.4678835654845
1782811889.240774,-0.408203125,-1.12939453125,0.0205078087747097,1.2010755049945498,148.09417724609375,284.27886962890625,40.06385803222656,323.03478724761595
1782811889.251427,-0.35791015625,-1.04150390625,-0.0170898474752903,1.1014182355343662,164.33143615722656,264.1964111328125,53.67469787597656,315.7301660548641
1782811889.259536,-0.33447265625,-1.03369140625,0.015624996274709702,1.0865698420454242,173.24256896972656,263.1588134765625,85.71815490722656,326.51669313271253
1782811889.267643,-0.3623046875,-1.11669921875,-0.011718753725290298,1.1740609698521653,183.19129943847656,277.0748291015625,106.47010803222656,348.80567228187624
1782811889.27575,-0.3369140326976776,-1.25390625,-0.008789066225290298,1.298410257546815,193.62831115722656,272.3751220703125,119.34852600097656,354.85800070313076
1782811889.283857,-0.25927734375,-1.2138671875,0.0073242150247097015,1.241270290467368,206.56585693359375,277.13775634765625,122.64442443847656,366.76483486011574
1782811889.294415,-0.37451171875,-1.341796875,-0.0234375037252903,1.393279296416091,216.94374084472656,295.083984375,124.10926818847656,386.70693680952803
1782811889.304973,-0.42041015625,-1.35009765625,-0.0371093787252903,1.4145265946171777,219.20204162597656,290.3804931640625,112.08534240722656,380.70131316525
1782811889.315531,-0.3388671875,-1.2373046875,-0.013671878725290298,1.282942235933291,221.45843505859375,292.27447509765625,97.98622131347656,379.56489144743813
1782811889.323511,-0.31884765625,-1.02294921875,-0.0302734412252903,1.0719167007193118,231.89926147460938,303.56597900390625,75.52528381347656,389.40164300651776
1782811889.331491,-0.314453125,-0.90576171875,-0.0322265662252903,0.9593349834890276,232.74993896484375,299.90386962890625,72.35145568847656,386.457757389824
1782811889.339471,-0.3203125,-0.86767578125,-0.0424804724752903,0.9258865748922877,231.65321350097656,302.0382080078125,73.45008850097656,387.66635902887026
1782811889.347451,-0.34033203125,-0.8896483778953552,-0.0400390662252903,0.9533641773272064,226.40228271484375,298.13385009765625,73.32801818847656,381.4692444273763
1782811889.358134,-0.32080078125,-0.9111328125,-0.0502929724752903,0.9672670398319022,218.46961975097656,292.2115478515625,69.23866271972656,371.3631051506845
1782811889.368817,-0.302734375,-0.92138671875,-0.0517578162252903,0.971226265520009,208.58001708984375,289.46685791015625,63.13514709472656,362.3295905060072
1782811889.3795,-0.3134765625,-0.85009765625,-0.0483398400247097,0.9073424494269923,197.16835021972656,279.8824462890625,56.05506896972656,346.9174438195916
1782811889.390147,-0.322265625,-0.779296875,-0.0434570275247097,0.8444212607950428,183.49647521972656,265.1729736328125,50.43983459472656,326.3921556613691
1782811889.400795,-0.3037109375,-0.771484375,-0.0454101599752903,0.830355681051952,170.25184631347656,251.32179260253906,45.12977600097656,306.8957987526053
1782811889.411443,-0.33837890625,-0.7705078125,-0.0371093787252903,0.842353654534637,155.23910522460938,236.54937744140625,41.04042053222656,285.9005139490243
1782811889.419508,-0.3486328125,-0.74609375,-0.0449218787252903,0.8247537189542902,120.14198303222656,202.79502868652344,32.92274475097656,237.9996362787591
1782811889.42757,-0.3876953125,-0.71923828125,-0.0375976599752903,0.8179394504396669,101.76849365234375,187.59918212890625,33.22792053222656,215.99623639915032
1782811889.435633,-0.37744140625,-0.72509765625,-0.0327148474752903,0.8181068924636634,81.93397521972656,171.97227478027344,36.46278381347656,193.9514738068184
1782811889.443696,-0.35400390625,-0.701171875,-0.0336914025247097,0.7861907367397281,62.15858459472656,159.03282165527344,39.02626037597656,175.1518683925219
1782811889.454293,-0.31591796875,-0.662109375,-0.0229492224752903,0.7339752409000163,42.62733459472656,143.77403259277344,39.51454162597656,155.07888670786133
1782811889.46489,-0.29541015625,-0.62255859375,-0.011718753725290298,0.6891906066223632,22.363662719726562,124.24278259277344,37.50038146972656,131.6916134270207
1782811889.475487,-0.26611328125,-0.58056640625,-0.0053710974752902985,0.6386724349866453,3.9920806884765625,104.04396057128906,32.98377990722656,109.22001728873524
1782811889.486142,-0.25048828125,-0.59765625,-0.0190429724752903,0.648305488954348,-13.219833374023438,84.26475524902344,27.063369750976562,89.48597070989865
1782811889.496797,-0.240234375,-0.611328125,0.0048828087747097015,0.656854986408101,-31.713485717773438,63.51280212402344,18.396377563476562,73.33517517177388
1782811889.507452,-0.2578125,-0.65673828125,-0.008789066225290298,0.705584653249039,-47.27745056152344,43.18809509277344,9.973526000976562,64.80617339599593
1782811889.515458,-0.33642578125,-0.72216796875,-0.0175781287252903,0.7968800863289637,-78.46832275390625,8.21685791015625,5.8841705322265625,79.11648306503028
1782811889.523465,-0.3330078125,-0.7451171875,-0.0073242224752902985,0.8161785775973374,-91.40777587890625,-6.18743896484375,11.743545532226562,92.36653481504814
1782811889.531472,-0.3349609375,-0.767578125,0.0048828087747097015,0.8374955817500919,-100.56304931640625,-17.84515380859375,21.509170532226562,104.37442607866511
1782811889.539479,-0.32373046875,-0.72021484375,0.0053710900247097015,0.7896452913574457,-108.00933837890625,-31.08978271484375,31.335830688476562,116.68130120650068
1782811889.550128,-0.2802734375,-0.69140625,0.0058593712747097015,0.7460764937584241,-113.31748962402344,-44.64149475097656,39.81971740722656,128.1379194566679
1782811889.560777,-0.28369140625,-0.7138671875,0.0170898400247097,0.7683613980421796,-116.36734008789062,-57.82318115234375,47.44911193847656,138.3340028389898
1782811889.571426,-0.255859375,-0.732421875,-0.0004882849752902985,0.7758260508491084,-116.18614196777344,-75.76942443847656,51.05018615722656,147.80509724559943
1782811889.58211,-0.25390625,-0.78466796875,0.00048827752470970154,0.8247256776566706,-117.34580993652344,-95.11756896972656,51.78260803222656,159.68352930402241
1782811889.592792,-0.21044921875,-0.82861328125,-0.0029296912252902985,0.854925392433195,-113.50250244140625,-108.78753662109375,43.72596740722656,163.1854969359872
1782811889.603474,-0.2260742038488388,-0.81640625,0.0161132775247097,0.8472829211057763,-113.01422119140625,-128.92913818359375,34.50965881347656,174.8881168509938
1782811889.614141,-0.1738281100988388,-0.82666015625,0.0180664025247097,0.8449317254618821,-106.78672790527344,-160.97068786621094,9.485244750976562,193.40356117926564
1782811889.624809,-0.2260742038488388,-0.810546875,0.0185546837747097,0.8416888133438221,-104.16412353515625,-172.50823974609375,2.1610260009765625,201.5289742084744
1782811889.635475,-0.25341796875,-0.78173828125,-0.0009765662252902985,0.8217885135110325,-100.07476806640625,-183.49456787109375,-1.2569427490234375,209.01386448467662
1782811889.643687,-0.28759765625,-0.83056640625,-0.0043945349752902985,0.8789609086922935,-100.68321228027344,-185.69374084472656,1.8558502197265625,211.24090229882358
1782811889.651901,-0.32373046875,-0.86669921875,-0.0346679650247097,0.9258352013063176,-103.85894775390625,-183.98284912109375,7.1048736572265625,211.39264185148198
1782811889.660113,-0.2822265625,-0.912109375,-0.0356445349752903,0.9554401485268775,-110.81504821777344,-182.27195739746094,8.630752563476562,213.48894878850572
1782811889.668326,-0.25927734375,-0.83935546875,-0.0195312462747097,0.8787057604702676,-118.14117431640625,-175.43792724609375,9.302139282226562,211.7128554917984
1782811889.676126,-0.25634765625,-0.7841796875,-0.0039062537252902985,0.8250255523137645,-124.91226196289062,-167.25921630859375,11.011123657226562,209.04536223759067
1782811889.683924,-0.2099609375,-0.81396484375,0.0048828087747097015,0.8406225097856773,-129.43077087402344,-161.95106506347656,12.170791625976562,207.6742643974966
1782811889.691723,-0.19482421875,-0.802734375,0.0024414025247097015,0.8260417141188913,-136.08551025390625,-154.13665771484375,12.537002563476562,205.99648488711048
1782811889.707515,-0.21533203125,-0.89990234375,0.015136715024709702,0.9254302956521001,-150.48789978027344,-136.80458068847656,4.6024322509765625,203.42881718245414
1782811889.715508,-0.2353515625,-0.8896484375,-0.009765621274709702,0.920304334270063,-159.76715087890625,-124.71771240234375,-1.5010833740234375,202.68769952351005
1782811889.723499,-0.2431640475988388,-1.052734375,0.0014648400247097015,1.080453869495403,-168.25103759765625,-111.41204833984375,-10.168075561523438,202.05060239601482
1782811889.731491,-0.26806640625,-1.12109375,0.0209960900247097,1.1528883858575287,-174.96490478515625,-96.33636474609375,-17.919540405273438,200.53559037564239
1782811889.742152,-0.2568359375,-1.12060546875,0.008789058774709702,1.1496949869152497,-180.15098571777344,-79.24461364746094,-26.281356811523438,198.55678322101053
1782811889.752813,-0.234375,-1.119140625,0.0410156212747097,1.1441545613853668,-181.19049072265625,-66.06292724609375,-37.14561462402344,196.40290468940657
1782811889.763474,-0.0561523400247097,-0.435546875,-0.10546875,0.45163904042839204,-198.88877868652344,-63.31825256347656,-60.46104431152344,217.30505119382087
1782811889.774149,0.068359375,-0.8798828125,0.0722656100988388,0.8854880497704405,-224.09629821777344,-12.537002563476562,-66.19834899902344,234.00544591607772
1782811889.784823,-0.3134765625,-0.89111328125,0.0434570275247097,0.9456420826603696,-223.36196899414062,32.75299072265625,-69.49424743652344,236.2049491881713
1782811889.795497,-0.2446288913488388,-1.10986328125,0.0703125,1.1386762688340477,-210.30235290527344,4.1294097900390625,-81.64024353027344,225.63080690896487
1782811889.803783,-0.27197265625,-1.18701171875,0.09521484375,1.2214875409384438,-157.81402587890625,10.84136962890625,-68.21250915527344,172.26650418696295
1782811889.812073,-0.37939453125,-1.154296875,0.0312499962747097,1.2154497308586407,-130.22613525390625,-8.38470458984375,-58.93516540527344,143.18695225325027
1782811889.820361,-0.2412109225988388,-0.9819335341453552,0.0419921837747097,1.0119977856489308,-105.50689697265625,-41.22161865234375,-56.31065368652344,126.49828801893538
1782811889.82865,-0.181640625,-0.49609375,-0.1591796875,0.5517612693475782,-112.34092712402344,-38.72108459472656,-50.81748962402344,129.23708272382524
1782811889.83896,-0.19921875,-0.43408203125,-0.13525390625,0.49639595018651417,-200.23345947265625,-12.59613037109375,-23.534774780273438,202.0049168131104
1782811889.84927,-0.4658202826976776,-0.796875,-0.009765621274709702,0.923089198699901,-235.87799072265625,-6.18743896484375,-1.5010833740234375,235.9639043574185
1782811889.859581,-0.8237304091453552,-1.0283203125,0.06494140625,1.3191633099417976,-228.61099243164062,-14.06097412109375,21.631240844726562,230.062181668992
1782811889.870234,-0.767578125,-1.2236328125,0.0473632775247097,1.4452324096362696,-196.93756103515625,-37.98675537109375,1.3675689697265625,200.57234798193437
1782811889.880887,-0.58349609375,-1.11181640625,-0.07080078125,1.2576232199088024,-152.62413024902344,-43.17665100097656,4.4803619384765625,158.6770996994549
1782811889.891541,-0.55224609375,-1.0009765625,-0.09765625,1.1473737707915903,-151.09634399414062,-12.22991943359375,-9.923934936523438,151.91497813702316
1782811889.899525,-0.697265625,-0.9868163466453552,-0.0190429724752903,1.2084487943697992,-170.69053649902344,14.196395874023438,31.885147094726562,174.22244261687067
1782811889.90751,-0.6591796875,-0.9594725966453552,-0.0024414099752902985,1.1640925584371054,-141.94107055664062,-20.65277099609375,50.19569396972656,151.96516756706046
1782811889.915495,-0.51171875,-0.861328125,0.00048827752470970154,1.0018694807371464,-118.68858337402344,-39.26658630371094,42.56629943847656,132.06337293574379
1782811889.92348,-0.3906249701976776,-1.03466796875,0.0493164025247097,1.1070491319075078,-86.03477478027344,-32.67860412597656,26.025772094726562,95.6410709488414
1782811889.934182,-0.1484375,-0.8173828125,-0.0249023474752903,0.8311248284622715,-49.53575134277344,3.3931732177734375,7.7152252197265625,50.247676421601824
1782811889.944885,-0.15087890625,-0.7841796875,0.0429687462747097,0.7997177875946079,-26.462554931640625,42.27447509765625,11.743545532226562,51.237768491220756
1782811889.955586,-0.0839843675494194,-0.89990234375,0.013671871274709702,0.9039162142276083,-5.3462982177734375,56.31065368652344,4.8465728759765625,56.77113608057439
1782811889.963581,-0.0512695275247097,-0.8945311903953552,0.0444335900247097,0.8971003059665191,18.45550537109375,61.50054931640625,13.330459594726562,65.57914605824648
1782811889.971578,0.0039062537252902985,-0.859375,0.0322265587747097,0.8599879072019712,39.20936584472656,61.19346618652344,4.3582916259765625,72.80803101144718
1782811889.979575,-0.0620117150247097,-0.7861328125,0.0493164025247097,0.7901154088153484,59.28802490234375,79.75006103515625,6.6165924072265625,99.59378207004416
1782811889.987572,-0.07861328125,-0.716796875,0.0849609375,0.7260827562334311,86.02142333984375,102.88238525390625,-4.9800872802734375,134.1986279298896
1782811889.998291,-0.0634765625,-0.72607421875,0.078125,0.7330187997215619,101.95350646972656,130.52940368652344,-14.013290405273438,166.21917764269713
1782811890.00901,-0.06201171875,-0.92041015625,0.015136715024709702,0.9226209563695255,124.41635131835938,153.84674072265625,-21.093368530273438,198.98034652274472
1782811890.019729,-0.083984375,-0.7421875,-0.064453125,0.7496998504219247,149.80697631835938,158.60748291015625,-29.943466186523438,220.21597343519036
1782811890.030315,-0.57568359375,-0.7275390625,-0.11376953125,0.9347021952564029,65.02723693847656,42.33360290527344,-17.065048217773438,79.44741247812341
1782811890.040905,-0.623046875,-0.86767578125,0.1337890625,1.076544556931896,80.46913146972656,-73.81629943847656,-5.4073333740234375,109.33145218326152
1782811890.051493,-0.56494140625,-0.5390625,-0.0009765662252902985,0.780863704550013,127.64930725097656,-129.35447692871094,-4.7359466552734375,181.79481712600122
1782811890.059519,-0.58544921875,-0.48388671875,-0.11328125,0.7679386602582198,118.00575256347656,-162.43934631347656,1.3675689697265625,200.78289049047228
1782811890.067545,-0.57666015625,-0.65234375,-0.1435546875,0.8824382427533156,96.03118896484375,-176.41448974609375,11.316299438476562,201.17683783019706
1782811890.075572,-0.716796875,-1.12109375,0.0258789025247097,1.3309089652920336,80.53016662597656,-192.09861755371094,30.054092407226562,210.45245323653646
1782811890.083597,-0.67431640625,-1.388671875,0.1733398288488388,1.5534345459076397,82.42034912109375,-190.81878662109375,52.63710021972656,214.41918663293876
1782811890.094241,-0.8095703125,-1.28857421875,0.0429687462747097,1.5223908569302893,92.79823303222656,-163.90419006347656,80.89637756347656,204.98858377275604
1782811890.104885,-0.56591796875,-1.373046875,0.0317382775247097,1.4854387185480347,67.28363037109375,-135.03265380859375,98.71864318847656,180.29496671698644
1782811890.11553,-0.5625,-0.91748046875,-0.0415039099752903,1.076986181471683,58.31146240234375,-122.82562255859375,111.23085021972656,175.66633782546197
1782811890.126177,-0.5029296875,-0.935546875,-0.06982421875,1.0644536849554147,65.57655334472656,-127.09617614746094,65.33241271972656,157.23246004454955
1782811890.136825,-0.54833984375,-1.02783203125,-0.0361328162252903,1.1655131269598151,84.25331115722656,-127.77137756347656,53.79676818847656,162.22896668890425
1782811890.147473,-0.36474609375,-0.85986328125,-0.0473632849752903,0.9352260989255758,127.95257568359375,-117.14935302734375,22.668838500976562,174.95630533871696
1782811890.15816,-0.33447265625,-0.7275390625,0.0771484225988388,0.8044482111060963,162.68348693847656,-80.34706115722656,6.8607330322265625,181.5726764048051
1782811890.168847,-0.25732421875,-0.5927734375,0.0585937462747097,0.6488677283263279,192.46673583984375,-52.26898193359375,-6.7501068115234375,199.55213559164312
1782811890.179534,-0.36474609375,-0.6201171875,0.08984375,0.7250220262535866,232.26165771484375,-52.20794677734375,2.6493072509765625,238.07176686886513
1782811890.18752,-0.37744140625,-0.64599609375,0.0034179650247097015,0.748187577267323,299.0360107421875,-109.82704162597656,-16.454696655273438,318.9910215584958
1782811890.195508,-0.619140625,-0.7353515625,-0.0600585974752903,0.963163573401362,326.80511474609375,-120.26214599609375,-23.534774780273438,349.02500255390225
1782811890.203494,-0.77392578125,-0.89892578125,-0.1220703125,1.1924469951629688,343.5306396484375,-150.47645568847656,-33.05625915527344,376.49592343499717
1782811890.211481,-0.9116210341453552,-1.08251953125,-0.13037109375,1.4212311801813025,344.13909912109375,-166.89300537109375,-37.26768493652344,384.2835868550749
1782811890.222133,-0.9848632216453552,-1.18212890625,-0.17822265625,1.5489182133160857,333.64105224609375,-149.62005615234375,-32.75108337402344,367.1173469193241
1782811890.232785,-0.9443358778953552,-1.1865234375,-0.142578125,1.5231338220083366,305.2005615234375,-122.58338928222656,-23.717880249023438,329.752343320933
1782811890.243437,-0.8681640625,-1.03857421875,-0.14501953125,1.361387495062536,263.6356201171875,-74.48387145996094,-8.153915405273438,274.0767659592369
1782811890.254109,-0.74658203125,-0.87646484375,-0.1552734375,1.1617595242166747,208.58192443847656,-7.5931549072265625,23.889541625976562,210.08280606228286
1782811890.26478,-0.6669921875,-0.69873046875,-0.22021484375,0.9907559858781912,146.69418334960938,49.47662353515625,49.64637756347656,162.57885013193953
1782811890.275451,-0.55224609375,-0.88818359375,-0.103515625,1.050981126799116,88.09661865234375,103.18756103515625,71.55799865722656,153.39241878980923
1782811890.283467,-0.4545898139476776,-0.638671875,-0.11279296875,0.7920075231084855,1.5506744384765625,209.08546447753906,102.50282287597656,232.86469192332748
1782811890.291481,-0.36962890625,-0.7314453125,-0.0439453087747097,0.8207124732067245,-23.96392822265625,244.78912353515625,106.83631896972656,268.160369756554
1782811890.299495,-0.4404296576976776,-0.7119140625,-0.0444335900247097,0.8383163243593861,-38.73252868652344,272.80615234375,112.08534240722656,297.46685448567024
1782811890.307509,-0.4536132514476776,-0.765625,-0.0624999962747097,0.8921058637001961,-45.69244384765625,282.44781494140625,102.50282287597656,303.92662977680965
1782811890.318207,-0.568359375,-0.244140625,-0.37451171875,0.7231155173323695,-66.93077087402344,294.2867431640625,106.28700256347656,319.9708458685422
1782811890.328903,-0.9350585341453552,-0.73974609375,-0.31396484375,1.2329366036448939,-159.15489196777344,269.5675048828125,97.68104553222656,327.93064203012153
1782811890.3396,-0.8671874403953552,-1.7856444120407104,0.57080078125,2.0655153242973707,-257.24029541015625,162.26959228515625,68.44520568847656,311.751080743649
1782811890.350224,-0.4072265625,-2.03759765625,1.8720701932907104,2.796834727074265,-252.17437744140625,-16.07513427734375,-1.0738372802734375,252.68850331287325
1782811890.360849,-0.50927734375,-2.03955078125,2.03466796875,2.925577642998352,-157.01866149902344,-135.82801818847656,-22.802352905273438,208.86373041284756
1782811890.371475,-0.6826171875,-1.63916015625,1.16162109375,2.1218331244357747,-61.31744384765625,-217.91839599609375,-57.16514587402344,233.48685217013653
1782811890.379457,-0.2456054538488388,-0.734375,0.375,0.8603799623336739,65.51361083984375,-324.85198974609375,-85.72959899902344,342.30163977375867
1782811890.387442,0.025390625,-1.0078125,0.0400390587747097,1.0089270762655274,-14.501571655273438,-316.4310302734375,-74.92637634277344,325.50400054721456
1782811890.395427,-0.076171875,-0.79150390625,0.12353515625,0.8046996476821251,-94.21348571777344,-179.77333068847656,-25.548934936523438,204.5663202834527
1782811890.403413,-0.4072265625,-0.9345703125,0.3627929389476776,1.0820692485983545,-115.88096618652344,-56.23817443847656,-10.290145874023438,129.21694041650804
1782811890.414129,-0.3662109375,-1.07421875,0.5908203125,1.2795018621552643,-85.48545837402344,-7.4100494384765625,-24.755477905273438,89.30568913801652
1782811890.424846,-0.4780273139476776,-1.18212890625,0.6845703125,1.4472647914698265,-56.37359619140625,-13.81683349609375,-38.42735290527344,69.60997548280662
1782811890.435563,-0.5244140625,-1.1005859375,0.56884765625,1.3453204714088112,-8.579254150390625,-14.73236083984375,-55.15098571777344,57.72588053320977
1782811890.446182,-0.4526366889476776,-1.11328125,0.3974609076976776,1.2658002555422956,19.311904907226562,1.8672943115234375,-43.79844665527344,47.903448608700835
1782811890.456802,-0.4589843451976776,-0.9624022841453552,0.29736328125,1.1069370834426429,24.37591552734375,23.41461181640625,-14.440536499023438,36.75538598204102
1782811890.467422,-0.4409179389476776,-0.9780272841453552,0.33349609375,1.1234614554870657,24.013519287109375,41.48101806640625,-0.6465911865234375,47.93476868141105
1782811890.475431,-0.4433593451976776,-0.80810546875,0.28955078125,0.9661478212573147,34.69085693359375,52.28424072265625,6.3114166259765625,63.06291590592992
1782811890.483443,-0.4453125,-0.71435546875,0.26123046875,0.8813899909759737,40.18592834472656,54.96788024902344,2.4051666259765625,68.13340973778716
1782811890.491455,-0.4667968451976776,-0.7177734375,0.2392577975988388,0.8890119774102697,42.62542724609375,57.35015869140625,-0.9517669677734375,71.46239297842226
1782811890.499467,-0.50390625,-0.77294921875,0.2304687350988388,0.9510456568500572,42.201995849609375,62.29400634765625,-3.1490325927734375,75.30915008684292
1782811890.510161,-0.52197265625,-0.734375,0.2426757663488388,0.9330882177322125,39.88075256347656,68.39561462402344,-4.5528411865234375,79.30424255799228
1782811890.520855,-0.546875,-0.71630859375,0.25927734375,0.9377606347502321,35.79139709472656,74.31602478027344,-3.1490325927734375,82.54581789167132
1782811890.531549,-0.572265625,-0.72216796875,0.30126953125,0.969421400168542,33.40911865234375,77.49176025390625,-0.4024505615234375,84.38781951697614
1782811890.539518,-0.5986328125,-0.7578125,0.31982421875,1.0173143861446952,32.61756896972656,76.08604431152344,2.8934478759765625,82.83335068123812
1782811890.54749,-0.62255859375,-0.7861328125,0.283203125,1.0420115217937387,34.75189208984375,72.42584228515625,6.2503814697265625,80.57458596266923
1782811890.555462,-0.66455078125,-0.74951171875,0.2480468600988388,1.0319509688974846,31.27288818359375,68.64166259765625,16.565322875976562,77.22746468387649
1782811890.563434,-0.8134765028953552,-0.80908203125,0.2416992038488388,1.1725085326749847,17.66204833984375,57.83843994140625,22.851943969726562,64.64862279747464
1782811890.574114,-0.81591796875,-0.90185546875,0.1591796725988388,1.2265413105199847,10.33782958984375,33.72955322265625,28.955459594726562,45.63958941062564
1782811890.584794,-0.78369140625,-0.87109375,0.1728515625,1.184421463913018,8.937835693359375,10.35308837890625,35.18104553222656,37.74622246799713
1782811890.595474,-0.73876953125,-0.84130859375,0.1630859375,1.1314493330375872,7.7762603759765625,-8.138656616210938,35.54725646972656,37.28693336111317
1782811890.606124,-0.658203125,-0.7314453125,0.1445312350988388,0.9945515958748365,-2.47955322265625,-26.32904052734375,26.514053344726562,37.448118564775726
1782811890.616776,-0.6142578125,-0.70947265625,0.1435546875,0.9493534950095979,-9.252548217773438,-21.566390991210938,21.814346313476562,32.040358518473155
1782811890.627426,-0.609375,-0.63330078125,0.1640624850988388,0.894049366183807,-14.13726806640625,-14.06097412109375,19.311904907226562,27.75829628707892
1782811890.638107,-0.61669921875,-0.69921875,0.1645507663488388,0.9467321381808125,-16.637802124023438,-7.2269439697265625,16.626358032226562,24.606522714018546
1782811890.648788,-0.6787109375,-0.720703125,0.2075195163488388,1.0114968515682836,-16.454696655273438,-3.1375885009765625,15.100479125976562,22.552737604392533
1782811890.659469,-0.8330078125,-0.708984375,0.2666015625,1.125893979381548,-18.041610717773438,-1.2454986572265625,10.705947875976562,21.01590597904258
1782811890.667549,-0.77783203125,-0.84765625,0.2475585788488388,1.1767875921185693,-14.379501342773438,-10.705947875976562,15.405654907226562,23.637292186511214
1782811890.675632,-0.6865234375,-0.8525390625,0.2290038913488388,1.1182933718743513,-13.341903686523438,-19.372940063476562,15.100479125976562,27.95248952271652
1782811890.683715,-0.1108398362994194,-1.42626953125,-0.48876953125,1.5117625143392468,-35.43853759765625,-43.90716552734375,6.1283111572265625,56.75636818319021
1782811890.691798,-0.18212890625,-0.42431640625,0.1835937350988388,0.49691247787943393,-18.407821655273438,-49.89051818847656,-0.7686614990234375,53.18366801666791
1782811890.702357,0.8017578125,-0.7841796875,0.3178710639476776,1.1656737903408532,-31.713485717773438,-28.039932250976562,-13.952255249023438,44.57183419542747
1782811890.712916,0.3173828125,-1.43359375,0.72900390625,1.6393198544021943,-28.23638916015625,28.05328369140625,26.269912719726562,47.69055161115628
1782811890.723475,-0.51123046875,-1.42431640625,0.59423828125,1.6257776453728885,0.6351470947265625,64.79454040527344,17.663955688476562,67.16212629694667
1782811890.734158,-0.71435546875,-1.4482421875,0.6455078125,1.7390771993751033,18.701553344726562,83.47129821777344,-28.295516967773438,90.09906772070217
1782811890.744843,-0.9409179091453552,-1.1396484375,0.4770507514476776,1.552965708669529,23.39935302734375,82.92388916015625,-31.591415405273438,91.77101199645064
1782811890.755528,-0.857421875,-0.990234375,0.4042968451976776,1.3708363608385032,20.471572875976562,76.57432556152344,-40.19737243652344,88.87373842715955
1782811890.763824,-0.7255859375,-0.2646484375,0.08154296875,0.7766356957554222,30.054092407226562,64.12315368652344,-21.947860717773438,74.1399750419057
1782811890.772121,-0.72265625,-0.201171875,0.2128906100988388,0.7797593159580294,30.847549438476562,57.10411071777344,-8.214950561523438,65.421221174442
1782811890.780418,-0.9355468153953552,-0.2890625,0.0234374962747097,0.9794663286373186,44.39735412597656,91.65000915527344,-0.5245208740234375,101.83871736081694
1782811890.788715,-0.80224609375,-0.31298828125,-0.1123046875,0.8684312304215203,39.93988037109375,111.73248291015625,-13.708114624023438,119.44561184016348
1782811890.798976,-0.5703125,-0.62353515625,0.1118163913488388,0.8523821584889248,52.69622802734375,72.73101806640625,-22.375106811523438,92.55992027931315
1782811890.809237,-1.07275390625,-0.896484375,0.0175781212747097,1.3981395382226063,17.114639282226562,46.42295837402344,-15.478134155273438,51.841822680975326
1782811890.819498,-1.01904296875,-1.04931640625,0.2626953125,1.486109793990236,-3.27301025390625,24.75738525390625,-14.135360717773438,28.695803584393353
1782811890.827488,-1.0478515625,-0.974609375,0.4379882514476776,1.4965594005176595,1.6727447509765625,33.30421447753906,4.6024322509765625,33.662310669243595
1782811890.83548,-1.09130859375,-0.79345703125,0.4409179389476776,1.4194848136273013,14.85443115234375,28.29742431640625,15.161514282226562,35.37329307730085
1782811890.843472,-0.60205078125,-1.0498046875,0.26171875,1.2381646615867659,30.847549438476562,19.933700561523438,14.917373657226562,39.64154085381965
1782811890.851465,-0.56591796875,-0.8271484375,0.4628905951976776,1.1039499029101265,53.06434631347656,29.577255249023438,24.682998657226562,65.57354116147081
1782811890.862137,-0.560546875,-1.08349609375,0.9472655653953552,1.5445027146714752,57.09266662597656,37.57667541503906,16.565322875976562,70.32772596705692
1782811890.87281,-0.1201171800494194,-1.53564453125,1.20166015625,1.9536170030023365,49.40223693847656,-21.387100219726562,-20.971298217773438,57.773561594147836
1782811890.883483,-0.34033203125,-1.09912109375,1.04052734375,1.5513188657759494,63.92860412597656,-34.68894958496094,-33.84971618652344,80.2246404461371
1782811890.89416,-0.8432616591453552,-1.16943359375,0.36376953125,1.4869409631325186,106.71424865722656,22.317886352539062,-71.56944274902344,130.41550541682906
1782811890.904838,-0.9697265028953552,-1.34326171875,0.7373046875,1.8133779908464567,104.63714599609375,1.74713134765625,-80.23643493652344,131.87065739381433
1782811890.915516,-1.1005859375,-1.3330078125,0.5791015625,1.8230627673502442,101.52435302734375,-26.87835693359375,-70.34873962402344,126.40642980386336
1782811890.923504,-1.01171875,-1.23583984375,0.55224609375,1.689926239977272,107.13958740234375,-24.55902099609375,-63.51280212402344,126.9484648771949
1782811890.931493,-0.8925780653953552,-1.18896484375,0.3471679389476776,1.5267149636823356,102.86712646484375,-48.66790771484375,-47.21641540527344,123.20552273416175
1782811890.939482,-0.7470703125,-1.193359375,0.2983398139476776,1.4391759080479263,100.67367553710938,-70.76263427734375,-41.11289978027344,129.74131910984676
1782811890.947471,-0.6279296875,-1.060546875,0.3872070014476776,1.2918918795650878,110.92567443847656,-60.99891662597656,-36.47422790527344,131.7411946980122
1782811890.958133,-0.61181640625,-1.140625,0.4257812201976776,1.362583704971804,120.20111083984375,-53.91693115234375,-40.99082946777344,137.96952784029907
1782811890.968793,-0.5576171875,-1.22705078125,0.541015625,1.4523389597665506,130.76019287109375,-46.16546630859375,-49.65782165527344,147.293508243651
1782811890.979455,-0.52978515625,-1.25732421875,0.6064453125,1.493088215709761,140.22254943847656,-32.00721740722656,-56.43272399902344,154.50397300758783
1782811890.990128,-0.63232421875,-1.2607421875,0.63134765625,1.5452846482161309,142.96722412109375,-34.38568115234375,-67.23594665527344,161.68696534919712
1782811891.000804,-0.642578125,-1.32763671875,0.6845703125,1.6260880715564363,138.69476318359375,-43.78509521484375,-69.61631774902344,161.24454593709234
1782811891.01148,-0.609375,-1.2275390625,0.6689453125,1.5250173348864273,134.42611694335938,-57.82318115234375,-69.79942321777344,162.129148139933
1782811891.022126,-0.46142578125,-1.17578125,0.59375,1.3956770263759934,134.36317443847656,-71.80213928222656,-72.85118103027344,168.86771280559944
1782811891.032774,-0.34228515625,-1.13330078125,0.5927734375,1.3239751270988869,137.53890991210938,-78.14788818359375,-76.02500915527344,175.51024524063038
1782811891.043422,-0.283203125,-1.1689453125,0.60595703125,1.3467817482230748,142.54188537597656,-85.04676818847656,-82.98301696777344,185.5729586198277
1782811891.05143,-0.8134765625,-1.14794921875,0.625,1.5395312684598361,169.39735412597656,-70.82557678222656,-79.68711853027344,200.15434736990957
1782811891.05944,-0.85986328125,-1.029296875,0.68310546875,1.5051411896439946,176.66053771972656,-80.70945739746094,-83.83750915527344,211.54595255446523
1782811891.06745,-0.4184570014476776,-1.1201171875,0.681640625,1.376373029902825,182.70301818847656,-75.03700256347656,-73.70567321777344,210.81620163871463
1782811891.07546,-0.53369140625,-1.029296875,0.56005859375,1.2876118213278005,185.87493896484375,-54.34417724609375,-63.39073181152344,203.76743462913728
1782811891.086155,-0.50830078125,-0.90771484375,0.548828125,1.176234769327307,189.96810913085938,-63.19427490234375,-61.49864196777344,209.43610441150656
1782811891.09685,-0.4941405951976776,-0.8125,0.4843749701976776,1.067216140046765,199.60975646972656,-61.97547912597656,-46.78916931152344,214.1827286586393
1782811891.107545,-0.4863280951976776,-0.8388671875,0.4531249701976776,1.0702968808042972,202.90565490722656,-50.98915100097656,-33.17832946777344,211.82870404976524
1782811891.11553,-0.4072265625,-0.6513671875,0.3178710639476776,0.8313571431415352,207.11708068847656,-47.57118225097656,-22.802352905273438,213.72985236435542
1782811891.123516,-0.29296875,-0.548828125,0.2119140475988388,0.6572294598063153,202.72254943847656,-43.84422302246094,-15.966415405273438,208.02325438318817
1782811891.131503,-0.30712890625,-0.564453125,0.08056640625,0.6476314084358686,189.90516662597656,-47.38807678222656,-14.440536499023438,196.2603659090081
1782811891.13949,-0.2724609375,-0.44921875,0.09228515625,0.5334313431726977,174.76654052734375,-36.82708740234375,-22.192001342773438,179.97795136636378
1782811891.150146,-0.283203125,-0.30419921875,0.0449218712747097,0.4180420424032702,151.20887756347656,-32.98377990722656,-27.379989624023438,157.16780275484683
1782811891.160802,-0.2783203125,-0.314453125,0.1142578125,0.4351985890253419,124.04823303222656,-29.439926147460938,-33.97178649902344,131.94224360651432
1782811891.171458,-0.34814453125,-0.32080078125,0.181640625,0.5070612118278061,98.47450256347656,-21.203994750976562,-35.13145446777344,106.68203289000839
1782811891.182208,-0.341796875,-0.380859375,0.1728515625,0.5401450082559753,46.71478271484375,-2.09808349609375,-28.478622436523438,54.75129965885469
1782811891.192959,-0.38232421875,-0.38232421875,0.0458984337747097,0.5426327328023689,15.52581787109375,7.24029541015625,-19.201278686523438,25.732508649376626
1782811891.203711,-0.43603515625,-0.2236328125,0.07177734375,0.4952678864901577,-21.886825561523438,8.520126342773438,-12.182235717773438,26.458128300028566
1782811891.214303,-0.4809570014476776,-0.19384765625,0.08740234375,0.5258666378162363,-57.95860290527344,12.914657592773438,-10.534286499023438,60.30720706112378
1782811891.224895,-0.4960937201976776,-0.23388671875,0.1450195163488388,0.5673117630979146,-91.03965759277344,16.515731811523438,-14.318466186523438,93.62695726025818
1782811891.235487,-0.4101562201976776,-0.36279296875,0.2646484375,0.6081822577258199,-118.01719665527344,15.966415405273438,-16.271591186523438,120.19879286833368
1782811891.246151,-0.2075195163488388,-0.49365234375,0.564453125,0.7780516155614547,-137.91465759277344,13.219833374023438,-16.576766967773438,139.53496327613647
1782811891.256816,-0.158203125,-0.62890625,0.7255859375,0.9731527386523566,-126.56211853027344,11.083602905273438,-16.881942749023438,128.16324001527923
1782811891.267481,-0.1689453125,-0.669921875,0.7890624403953552,1.0487885259011522,-105.32188415527344,12.182235717773438,-22.985458374023438,108.48703814633431
1782811891.275659,-0.1416015625,-0.63720703125,0.8056640625,1.0369080888781241,-77.36968994140625,12.61138916015625,-29.088973999023438,83.61390115581325
1782811891.28384,-0.0981445237994194,-0.59716796875,0.796875,1.000625652318496,-45.87554931640625,11.26861572265625,-33.36143493652344,57.8319381173656
1782811891.292021,-0.0859375,-0.51708984375,0.76708984375,0.9290823369325503,-15.050888061523438,7.9708099365234375,-37.08457946777344,40.808443694734216
1782811891.300202,-0.0908203125,-0.52099609375,0.685546875,0.8658289534819346,12.048721313476562,4.8580169677734375,-38.42735290527344,40.563942922938665
1782811891.310677,-0.27001953125,-0.4091796875,0.623046875,0.7927962994151354,33.41102600097656,-0.7572174072265625,-40.25840759277344,52.32216947476105
1782811891.321152,-0.2890625,-0.35888671875,0.5361328125,0.7069619497826964,47.44720458984375,-0.63323974609375,-35.68077087402344,59.3696524002885
1782811891.331627,-0.3037109375,-0.2783203125,0.4594726264476776,0.6171042248777379,52.33192443847656,-2.8896331787109375,-31.225204467773438,61.00814445134507
1782811891.342246,-0.2373046725988388,-0.2529296875,0.4824218451976776,0.5941529863427615,48.78997802734375,-11.25335693359375,-24.755477905273438,55.856366552990444
1782811891.352867,-0.1127929612994194,-0.28564453125,0.4897460639476776,0.5780711526308567,45.80116271972656,-13.147354125976562,-21.886825561523438,52.4369388899968
1782811891.363488,-0.166015625,-0.27978515625,0.5341796875,0.6254509252847702,38.90419006347656,-14.673233032226562,-21.947860717773438,47.016469052874605
1782811891.371486,-0.18017578125,-0.271484375,0.58349609375,0.668307391429795,35.305023193359375,-18.33343505859375,-20.910263061523438,44.942169563044345
1782811891.379485,-0.25341796875,-0.29931640625,0.61279296875,0.7275480743464513,31.335830688476562,-15.405654907226562,-20.055770874023438,40.26788339866835
1782811891.387484,-0.0454101525247097,2.869140625,1.6806639432907104,3.325456554859075,117.02919006347656,-25.167465209960938,-19.079208374023438,121.21571195264796
1782811891.395483,-0.0922851487994194,-1.68115234375,1.27587890625,2.1125001147925992,98.96087646484375,-30.96771240234375,-24.267196655273438,106.49484079348659
1782811891.403511,-0.142578125,-0.7646484375,1.322265625,1.5340802253325436,141.38031005859375,1.44195556640625,-31.103134155273438,144.76835380151468
1782811891.41154,-0.2373046725988388,-0.54052734375,0.64599609375,0.8750967204366221,144.49310302734375,3.45611572265625,-26.098251342773438,146.8717817741364
1782811891.419567,-0.1166992112994194,-0.30712890625,0.3945312201976776,0.5134216149354215,133.56971740722656,9.252548217773438,-27.563095092773438,136.69748815491036
1782811891.427595,-0.4101562201976776,-0.1826171875,0.13427734375,0.46862305447108726,93.16253662109375,9.25445556640625,-25.548934936523438,97.04458384628134
1782811891.435688,-0.2309570163488388,-0.052734375,0.2841796875,0.36997317807510866,42.86956787109375,9.98687744140625,-30.187606811523438,53.37442435746843
1782811891.443779,-0.06689453125,-0.2021484375,0.3901366889476776,0.44446091521966874,-9.19342041015625,0.22125244140625,-27.441024780273438,28.940935929445796
1782811891.451871,-0.06689453125,-0.37255859375,0.7919921875,0.8777963369422146,-41.17584228515625,-4.35638427734375,-26.159286499023438,48.9768960021145
1782811891.459963,-0.08154296875,-0.12841796875,0.4936523139476776,0.5165588422593653,-56.92100524902344,-3.3206939697265625,-26.891708374023438,63.041191504233595
1782811891.469479,-0.1586913913488388,-0.36767578125,0.3955077826976776,0.562845310880762,-75.96588134765625,-4.90570068359375,-27.379989624023438,80.89836129326002
1782811891.478996,-0.2031249850988388,-0.421875,0.3310546875,0.5734417854605001,-103.06549072265625,-4.11224365234375,-24.450302124023438,106.0057696529496
1782811891.488511,-0.16064453125,-0.40576171875,0.4487304389476776,0.6259458799781829,-125.83160400390625,-3.74603271484375,-23.046493530273438,127.97955380191591
1782811891.498027,-0.1079101487994194,-0.3544921875,0.560546875,0.671953949526836,-142.98057556152344,-4.8465728759765625,-21.276473999023438,144.63617321533982
1782811891.507543,-0.3896484076976776,-0.4335937201976776,1.08251953125,1.2295031237674499,-140.66123962402344,4.5528411865234375,-15.905380249023438,141.63083638919412
1782811891.515535,-0.37109375,-0.57177734375,1.18408203125,1.366268699357485,-117.04063415527344,4.6749114990234375,-19.750595092773438,118.78741872568385
1782811891.523527,-0.3847655951976776,-0.75634765625,1.41162109375,1.6470520491722893,-77.00347900390625,-2.46429443359375,-28.112411499023438,82.0116833509159
1782811891.531519,-0.25732421875,-0.740234375,1.23046875,1.4588406452431675,-37.02545166015625,11.02447509765625,-27.196884155273438,47.24503814764862
1782811891.539511,-0.1972656100988388,-0.71630859375,0.9804686903953552,1.2301750181390259,-10.412216186523438,15.478134155273438,-22.985458374023438,29.602671830554534
1782811891.547503,-0.125,-0.72265625,0.8491210341453552,1.121990902945358,-8.459091186523438,10.229110717773438,-29.394149780273438,32.252239783982986
1782811891.555496,-0.10986328125,-0.7841796875,0.8461913466453552,1.1588992699937704,-13.58795166015625,-3.44085693359375,-36.29112243652344,38.90395217017081
1782811891.56509,-0.146484375,-0.728515625,0.8598632216453552,1.1364670905603076,-12.914657592773438,-9.115219116210938,-37.63389587402344,40.818938238665105
1782811891.574685,-0.0600585900247097,-0.6005859375,0.8095702528953552,1.0098091388631614,-16.27349853515625,-8.14056396484375,-41.29600524902344,45.12710477935424
1782811891.58428,-0.15771484375,-0.708984375,0.7797850966453552,1.0656442243466782,-21.64459228515625,-4.60052490234375,-41.78428649902344,47.281918349409246
1782811891.593875,-0.2226562350988388,-0.7001953125,0.80126953125,1.087144027433788,-24.145126342773438,-4.6634674072265625,-40.44151306152344,47.33129021136152
1782811891.60347,-0.2509765625,-0.701171875,0.7558593153953552,1.061110049846512,-22.43804931640625,-5.69915771484375,-36.77940368652344,43.45884249862617
1782811891.613071,-0.2568359375,-0.767578125,0.69287109375,1.0654629178551174,-19.87457275390625,-9.54437255859375,-29.027938842773438,36.451542123034315
1782811891.622672,-0.29833984375,-0.69091796875,0.62451171875,0.9779515267979694,-19.69146728515625,-9.60540771484375,-19.994735717773438,29.661544087157086
1782811891.632273,-1.37890625,-0.1591796875,1.8486326932907104,2.311744677490342,-3.63922119140625,-0.32806396484375,-14.806747436523438,15.250945101665101
1782811891.641874,-0.30224609375,-0.4780273139476776,0.6123046875,0.8335345490149991,30.847549438476562,4.5528411865234375,5.0907135009765625,31.59454119271215
1782811891.651475,-0.3349609375,-0.59033203125,0.3544921875,0.7657384982937485,27.429580688476562,-12.475967407226562,15.710830688476562,33.983258531426955
1782811891.662116,0.01220703125,-0.27734375,0.72802734375,0.7791613315120827,-2.5997161865234375,-15.283584594726562,32.19032287597656,35.72902698331225
1782811891.672759,-0.0224609337747097,-0.505859375,0.9843749403953552,1.1069743556649276,-0.22125244140625,-17.72308349609375,27.307510375976562,32.555441391362
1782811891.683402,0.27099609375,-0.27099609375,0.9975585341453552,1.0686443724185082,12.77923583984375,-20.65277099609375,10.156631469726562,26.32494978683299
1782811891.694102,-0.0820312425494194,-0.74462890625,1.0166015625,1.262806426042691,50.50086975097656,-19.861221313476562,-8.092880249023438,54.86620698018981
1782811891.704801,-0.0693359300494194,-0.6171875,0.8930663466453552,1.08779381357983,65.51361083984375,-22.78900146484375,-2.9048919677734375,69.42485282939805
1782811891.7155,-0.0595703087747097,-0.4907226264476776,0.6884765625,0.8475596114180038,67.52777099609375,-16.19720458984375,0.9403228759765625,69.44950323319253
1782811891.726156,-0.20068359375,-0.44384765625,0.60498046875,0.7767084487296394,7.53021240234375,12.00103759765625,13.757705688476562,19.748505463844875
1782811891.736814,-0.18017578125,-0.46435546875,0.8671874403953552,1.0000516838076559,-8.947372436523438,9.801864624023438,14.062881469726562,19.336407599580646
1782811891.747472,0.0356445349752903,-0.5146484375,1.5224609375,1.607488990104808,1.4896392822265625,-0.8792877197265625,10.766983032226562,10.905049092116418
1782811891.758173,-0.251953125,-0.81005859375,1.00048828125,1.3117362934004961,27.18353271484375,-7.16400146484375,5.9452056884765625,28.73347940165893
1782811891.768874,-0.322265625,-0.7333984375,1.060546875,1.329092952075342,31.335830688476562,-28.894424438476562,-5.1631927490234375,42.93577305617391
1782811891.779575,-0.18212890625,-0.40283203125,0.7431640625,0.8647181087986571,37.929534912109375,-34.69085693359375,-5.5294036865234375,51.69796396923705
1782811891.787549,-0.14892578125,-0.34814453125,0.5634765625,0.6788883114673735,11.499404907226562,-27.303695678710938,-10.534286499023438,31.443589219100165
1782811891.795522,-0.0678710862994194,-0.37255859375,0.6376953125,0.7416614468319851,2.8324127197265625,-26.575088500976562,-13.280868530273438,29.843581547260925
1782811891.803495,-0.1733398288488388,-0.2465820163488388,0.4218749701976776,0.5184861401535196,-3.63922119140625,-18.57757568359375,-7.1773529052734375,20.245608014739176
1782811891.811468,-0.1137695237994194,-0.3203125,0.4208984076976776,0.5410167019642158,-20.236968994140625,-15.70892333984375,-1.6841888427734375,25.673754665514338
1782811891.822125,-0.1835937350988388,-0.37451171875,0.53857421875,0.6811959161289758,-37.02545166015625,-9.30023193359375,8.020401000976562,39.00904019421229
1782811891.832782,-0.2426757663488388,-0.7138671875,0.728515625,1.048443086119269,-36.29112243652344,-10.217666625976562,10.400772094726562,39.11038658909897
1782811891.843439,-0.142578125,-0.70849609375,0.9145507216453552,1.1656321285249323,-36.90338134765625,-11.68060302734375,9.485244750976562,39.85305396025333
1782811891.851454,-0.26416015625,-0.6357421875,0.8984374403953552,1.1318739114501521,-30.370712280273438,-15.649795532226562,14.062881469726562,36.946730570420286
1782811891.859469,-0.1884765475988388,-0.52978515625,0.9648436903953552,1.1167448534349027,-25.304794311523438,-10.705947875976562,10.217666625976562,29.314683118724503
1782811891.867484,-0.02392578125,-0.57763671875,1.033203125,1.1839532589449868,-17.492294311523438,-1.4896392822265625,7.1659088134765625,18.961794076383406
1782811891.875499,-0.0087890625,-0.703125,0.8496093153953552,1.102859012771439,-4.61578369140625,4.55474853515625,0.9403228759765625,6.55251100078777
1782811891.886168,-0.1074218675494194,-0.7041015625,0.8046874403953552,1.074625676537079,3.9920806884765625,5.5294036865234375,-1.1959075927734375,6.92395900639942
1782811891.896837,-0.1132812425494194,-0.56689453125,0.669921875,0.8848713850488178,1.60980224609375,8.46099853515625,-2.7828216552734375,9.051190852506839
1782811891.907506,-0.1015624925494194,-0.654296875,0.69970703125,0.9633323777950707,-4.7359466552734375,7.2994232177734375,-7.1773529052734375,11.279413316330006
1782811891.915762,-0.2138671725988388,-0.66259765625,0.7988280653953552,1.0596702787408452,-15.172958374023438,7.2994232177734375,-10.778427124023438,19.991866756256204
1782811891.924021,-0.1962890625,-0.783203125,0.8837890028953552,1.19708793858499,-17.49420166015625,4.43267822265625,-7.8487396240234375,19.679899431591114
1782811891.93228,-0.20166015625,-0.6806640625,0.9707030653953552,1.2025950381428145,-12.731552124023438,0.6465911865234375,-5.2852630615234375,13.800163233770808
1782811891.940539,-0.13427734375,-0.68310546875,1.0087890625,1.2256911760718283,-6.5059661865234375,-2.7103424072265625,-4.4307708740234375,8.324979430766867
1782811891.950893,-0.0341796800494194,-0.68603515625,0.9843749403953552,1.200335998551073,2.89154052734375,-3.13568115234375,-6.0176849365234375,7.376044665381053
1782811891.961247,0.0166015662252903,-0.73193359375,0.9042968153953552,1.163509831499117,8.996963500976562,-3.9920806884765625,-5.8345794677734375,11.442219104132525
1782811891.971601,0.0849609375,-0.79541015625,0.80078125,1.1318773290061475,12.90130615234375,-4.29534912109375,-9.496688842773438,16.585560692513262
1782811891.982346,0.0859375,-0.6943359375,0.73388671875,1.0139414992828213,14.184951782226562,-2.2220611572265625,-13.891220092773438,19.9778980004509
1782811891.993094,0.07470703125,-0.7744140625,0.73388671875,1.0695269967016185,15.89202880859375,-6.18743896484375,-16.576766967773438,23.782980967504997
1782811892.003842,0.0473632849752903,-0.87744140625,0.73681640625,1.146754166630666,14.551162719726562,-4.8465728759765625,-19.628524780273438,24.909929550039283
1782811892.011748,-1.0029296875,0.05615234375,0.8144530653953552,1.2931955921318927,22.851943969726562,30.248641967773438,-4.9190521240234375,38.228114757190504
1782811892.019655,-0.0830078050494194,-0.42822265625,0.33154296875,0.5478920323863923,1.0623931884765625,43.18809509277344,43.90907287597656,61.59827041287104
1782811892.027562,-0.2861328125,-0.67578125,0.66796875,0.9923379138263766,-11.63482666015625,21.82769775390625,44.64149475097656,51.0360718928214
1782811892.035469,-0.17578125,-0.46875,0.8393554091453552,0.9773142346313847,-7.91168212890625,18.10455322265625,34.99794006347656,40.18986651119341
1782811892.046214,-0.10888671875,-0.541015625,0.8671874403953552,1.0278950728521516,-4.1866302490234375,22.558212280273438,31.518936157226562,38.98517860171018
1782811892.056959,-0.0493164025247097,-0.55615234375,0.8549804091453552,1.0211410465939348,1.6727447509765625,24.206161499023438,27.673721313476562,36.804499464803094
1782811892.067704,-0.0434570237994194,-0.61669921875,0.9272460341453552,1.1144467897403862,4.4803619384765625,26.220321655273438,16.992568969726562,31.5646370325506
1782811892.078286,-0.07861328125,-0.57373046875,0.9541015028953552,1.116089770846486,5.2127838134765625,28.417587280273438,7.2269439697265625,29.781892167214107
1782811892.08887,-0.0737304612994194,-0.71142578125,1.05078125,1.2711034806427683,0.99945068359375,30.00640869140625,8.813858032226562,31.29005525141944
1782811892.099454,-0.06298828125,-0.52978515625,1.001953125,1.1351431187541647,4.90570068359375,31.28814697265625,20.654678344726562,37.81044535182926
1782811892.110122,0.189453125,0.2031249850988388,0.8461913466453552,0.8906132950282906,25.783538818359375,-2.76947021484375,7.3490142822265625,26.953086097683165
1782811892.120792,-0.0087890625,-0.48876953125,0.728515625,0.8773299938832105,0.99945068359375,11.81793212890625,-19.811630249023438,23.090325129724594
1782811892.131462,-0.2568359375,-0.37451171875,0.8149413466453552,0.932927180837137,6.73675537109375,-3.92913818359375,-19.262313842773438,20.781211090146698
1782811892.139512,-0.13427734375,-0.34814453125,0.67041015625,0.767257973100956,11.74163818359375,-28.09906005859375,-23.168563842773438,38.26493948704942
1782811892.147562,-0.1889648288488388,-0.53076171875,0.77734375,0.9600411523973269,8.874893188476562,-40.00282287597656,-14.196395874023438,43.3650460966619
1782811892.155612,-0.07373046875,-0.5146484375,0.8852538466453552,1.0266321489431764,7.106781005859375,-43.23577880859375,-13.525009155273438,45.85591322938753
1782811892.163662,0.01513671875,-0.54541015625,1.00439453125,1.1430265671453457,10.27679443359375,-35.66741943359375,-17.797470092773438,41.16463597051976
1782811892.171637,0.1318359375,-0.54296875,1.04150390625,1.1819163103312667,14.06097412109375,-11.61956787109375,-19.140243530273438,26.440012729633782
1782811892.179612,0.12353515625,-0.6884765625,1.0107421875,1.229170729204781,15.588760375976562,22.680282592773438,-22.008895874023438,35.23912833969201
1782811892.187587,0.197265625,-0.80078125,0.8076171875,1.1543005928715506,24.988174438476562,42.33360290527344,-36.41319274902344,61.17567656255746
1782811892.195562,0.2646484375,-0.76025390625,0.5908203125,0.9985456620015796,30.542373657226562,57.10411071777344,-54.66270446777344,84.74507247749872
1782811892.206207,0.1728515625,-0.71142578125,0.4794921576976776,0.8751668607639567,25.415420532226562,57.40928649902344,-57.59239196777344,85.19773113015705
1782811892.216851,-0.2368163913488388,-0.7841796875,0.3740234375,0.9005072555501151,16.323089599609375,40.80963134765625,-75.10948181152344,87.02472937506933
1782811892.227494,-0.1103515625,-0.4726562201976776,0.39892578125,0.628269964890627,1.60980224609375,20.17974853515625,-82.31163024902344,84.76448659943397
1782811892.238294,-0.0722656175494194,-0.39697265625,0.4003905951976776,0.5684384205986873,-27.56500244140625,28.48052978515625,-87.86582946777344,96.39177311626625
1782811892.249094,-0.0507812462747097,-0.42626953125,0.4194335639476776,0.6001741104139348,-44.04258728027344,17.004013061523438,-82.61680603027344,95.15472974676976
1782811892.259894,-0.2167968600988388,-0.4091796875,0.6591796875,0.805572315576889,-52.46734619140625,16.09039306640625,-87.68272399902344,103.44072337957255
1782811892.270761,-0.30517578125,-0.48388671875,1.1552734375,1.2891607073740867,-47.52159118652344,16.149520874023438,-96.10557556152344,108.42227772635692
1782811892.281628,-0.1879882663488388,-0.6865234375,1.447265625,1.6128334718216568,-32.93609619140625,11.75689697265625,-85.05821228027344,91.96689912719292
1782811892.292495,-0.0673828050494194,-0.76220703125,1.34912109375,1.5510086158704801,-10.107040405273438,2.1762847900390625,-81.45713806152344,82.11061942535372
1782811892.302833,-0.0205078087747097,-0.50146484375,0.671875,0.8386319665758943,12.170791625976562,18.716812133789062,-76.87950134277344,80.05563660335228
1782811892.313173,-0.138671875,-0.39453125,0.4736327826976776,0.6318328964121159,6.9828033447265625,20.727157592773438,-76.26914978027344,79.34329091128357
1782811892.323511,-0.12646484375,-0.4658203125,0.408203125,0.6321484884914897,-9.069442749023438,11.877059936523438,-78.46641540527344,79.87676565226283
1782811892.331489,-0.1416015625,-0.30615234375,0.5185546875,0.618610720901507,-22.375106811523438,3.8814544677734375,-77.06260681152344,80.33900959185357
1782811892.339467,-0.014648433774709702,-0.4868163764476776,0.638671875,0.8031852369819272,-33.84971618652344,5.5942535400390625,-72.91221618652344,80.58095449800007
1782811892.347445,-0.1318359375,-0.6220703125,0.8203124403953552,1.0379136225995567,-32.93418884277344,19.750595092773438,-58.62998962402344,70.08724908685777
1782811892.355423,-0.0576171875,-0.5078125,0.8183593153953552,0.9648343093744204,-29.150009155273438,24.511337280273438,-56.43272399902344,68.08216379471061
1782811892.363483,-0.3095703125,-0.98486328125,0.63330078125,1.2111396866867687,-12.121200561523438,12.853622436523438,-67.54112243652344,69.81362569569657
1782811892.371543,-0.029296867549419403,-0.51904296875,0.71875,0.8870543795940706,-12.243270874023438,-8.691787719726562,-69.12803649902344,70.73987761983912
1782811892.379603,-0.2358398288488388,-0.45361328125,0.8403319716453552,0.9836377668467245,-17.917633056640625,-15.03753662109375,-47.70469665527344,53.13103768001161
1782811892.398307,0.095703125,-0.39111328125,0.77197265625,0.8706724234191571,-14.013290405273438,-12.716293334960938,-52.89268493652344,56.17572913596791
1782811892.408951,-0.0351562462747097,-0.56103515625,0.7177734375,0.9116990269717065,-21.276473999023438,11.266708374023438,-47.94883728027344,53.653686359341144
1782811892.419595,-0.14208984375,-0.7392578125,0.76318359375,1.0719798667924456,-17.37213134765625,11.32965087890625,-40.99082946777344,45.93909051183105
1782811892.427572,-0.1083984300494194,-0.66650390625,0.7597655653953552,1.0164749829898478,-13.525009155273438,2.6645660400390625,-36.77940368652344,39.27786043521482
1782811892.435549,-0.06640625,-0.63525390625,0.7700194716453552,1.0004435527094662,-14.74761962890625,-6.91986083984375,-36.96250915527344,40.393116267693145
1782811892.443527,-0.015624996274709702,-0.609375,0.751953125,0.9679956267106016,-18.04351806640625,-11.68060302734375,-35.13145446777344,41.18524158380474
1782811892.451503,0.0029296912252902985,-0.6142578125,0.71435546875,0.9421385137234296,-20.36285400390625,-11.37542724609375,-33.11729431152344,40.506806227245754
1782811892.462161,0.0166015625,-0.65185546875,0.72265625,0.9733566764967435,-22.43804931640625,-11.80267333984375,-33.23936462402344,41.80459921708756
1782811892.47282,-0.013671875,-0.666015625,0.7861328125,1.030421531121762,-22.49908447265625,-11.61956787109375,-32.44590759277344,41.15774628350621
1782811892.483477,0.0185546912252903,-0.71044921875,0.8212890625,1.0860930407525315,-18.89801025390625,-9.11712646484375,-25.793075561523438,33.2496546366298
1782811892.49412,-0.07568359375,-0.73291015625,0.8398436903953552,1.117238885733129,-16.332626342773438,-11.377334594726562,-18.774032592773438,27.36170180247453
1782811892.504761,-0.1279296875,-0.6328125,0.7626953125,0.9992606290700992,-17.126083374023438,-32.19032287597656,-16.820907592773438,40.15547971122055
1782811892.515402,-0.0454101525247097,-0.85009765625,0.7705077528953552,1.148220494672478,-15.539169311523438,-36.09657287597656,-12.243270874023438,41.16219185098856
1782811892.523417,-0.0258789025247097,-0.833984375,0.70654296875,1.0933446949750512,-12.731552124023438,-27.791976928710938,-10.290145874023438,32.25482139465987
1782811892.531434,0.03125,-0.72412109375,0.7177734375,1.0200620709026793,-13.89312744140625,-21.44622802734375,-10.473251342773438,27.616094589801897
1782811892.539449,-0.0273437462747097,-0.62255859375,0.7309569716453552,0.9605336941040964,-16.942977905273438,-11.987686157226562,-3.0269622802734375,20.974546964093012
1782811892.547466,-0.0781249925494194,-0.56591796875,0.73291015625,0.9292598984941577,-20.66802978515625,-7.71331787109375,0.1468658447265625,22.060922404944616
1782811892.558126,-0.0537109337747097,-0.74072265625,0.724609375,1.0375999538487353,-21.093368530273438,-9.424209594726562,0.8792877197265625,23.119668452063234
1782811892.568788,-0.04296875,-0.7353515625,0.67626953125,0.9999643557871694,-22.741317749023438,-6.6165924072265625,5.4569244384765625,24.30483187295603
1782811892.579448,0.03955078125,-0.82666015625,0.7460936903953552,1.1142652615407698,-27.624130249023438,7.4253082275390625,6.5555572509765625,29.346262200828956
1782811892.590121,0.0273437537252903,-0.736328125,0.783203125,1.0753296813273456,-24.389266967773438,19.876480102539062,14.917373657226562,34.820092494438796
1782811892.60079,0.013671878725290298,-0.4560546875,0.72216796875,0.8542244279737631,-25.182723999023438,19.933700561523438,9.180068969726562,33.40352784327439
1782811892.61146,-0.0214843712747097,-0.7666015625,0.693359375,1.0338697968007875,-24.511337280273438,20.181655883789062,14.307022094726562,34.825217453707225
1782811892.619466,-0.08154296875,-0.75830078125,0.75390625,1.0724010277811125,-25.55084228515625,19.69146728515625,20.044326782226562,37.97860531241231
1782811892.627472,-0.0234374962747097,-0.83984375,0.8867186903953552,1.2215387331321685,-24.145126342773438,14.318466186523438,23.706436157226562,36.74235587601543
1782811892.635478,-0.0434570275247097,-0.79052734375,0.8559569716453552,1.1659692670761101,-18.957138061523438,9.866714477539062,25.720596313476562,33.440607243077444
1782811892.643484,-0.0087890625,-0.673828125,0.8037108778953552,1.048843536905275,-16.21246337890625,7.66754150390625,22.302627563476562,28.618916082927488
1782811892.654177,0.0732421875,-0.7421875,0.67822265625,1.008063824684152,-12.73345947265625,9.68170166015625,17.724990844726562,23.875754179160328
1782811892.664871,0.05615234375,-0.744140625,0.6201171875,0.9702802078353031,-12.243270874023438,10.412216186523438,16.016006469726562,22.68974197402726
1782811892.675563,0.01611328125,-0.69091796875,0.64599609375,0.9460117496704396,-16.576766967773438,17.614364624023438,17.724990844726562,29.987169667335284
1782811892.686219,-0.0068359375,-0.66552734375,0.75732421875,1.0082228660498296,-19.81353759765625,43.92242431640625,11.804580688476562,49.60951274901747
1782811892.696874,-0.0415039025247097,-0.673828125,0.70068359375,0.9729976436334321,-13.219833374023438,53.50303649902344,9.973526000976562,56.007232835991225
1782811892.70753,-0.1557617038488388,-0.74658203125,0.5859375,0.9617531864660077,-10.04791259765625,47.27935791015625,13.574600219726562,50.20525871950262
1782811892.715575,-0.2260742038488388,-0.73681640625,0.60302734375,0.9785959020327195,-10.65826416015625,33.79058837890625,23.096084594726562,42.29458099458027
1782811892.723624,-0.2548828125,-0.64892578125,0.7001953125,0.9881009024010684,-19.750595092773438,13.830184936523438,25.476455688476562,35.07719795456923
1782811892.731671,-0.17529296875,-0.728515625,0.77685546875,1.0793363980192234,-22.558212280273438,-7.7152252197265625,23.828506469726562,33.707497119346975
1782811892.739719,-0.1591796725988388,-0.81201171875,0.7700194716453552,1.1303234874446317,-19.38629150390625,-13.81683349609375,22.363662719726562,32.66292387975843
1782811892.750309,-0.1171874925494194,-0.8095703125,0.8369140028953552,1.170282892096477,-16.454696655273438,-14.364242553710938,21.509170532226562,30.65506358080685
1782811892.760899,-0.07666015625,-0.84619140625,0.8422850966453552,1.1963949429843401,-9.01031494140625,-17.23480224609375,19.372940063476562,27.45059180615861
1782811892.771489,0.01025390625,-0.72216796875,0.8203124403953552,1.0929520655313607,0.93841552734375,-16.19720458984375,11.926651000976562,20.136411406363113
1782811892.779485,0.025390625,-1.05908203125,0.7949218153953552,1.324462202309286,9.60540771484375,9.68170166015625,6.1893463134765625,14.976889269564559
1782811892.787479,0.10791015625,-0.892578125,0.65625,1.1131057333202516,16.933441162109375,16.39556884765625,4.1751861572265625,23.937173744541198
1782811892.795475,-0.1015624925494194,-0.646484375,0.67724609375,0.9417639080531942,4.848480224609375,27.19879150390625,-4.3087005615234375,27.961525714636235
1782811892.803469,-0.1894531100988388,-0.53662109375,0.751953125,0.9430207746284461,2.46429443359375,6.69097900390625,-3.2711029052734375,7.844874843045218
1782811892.814235,-0.2607421875,-0.5771484375,0.5986328125,0.8714631670085872,3.5037994384765625,3.5762786865234375,7.1048736572265625,8.691697730242488
1782811892.825001,-0.2260742038488388,-0.6875,0.60107421875,0.9407741557312304,-6.9942474365234375,1.1997222900390625,14.001846313476562,15.697468934919044
1782811892.835767,-0.1318359375,-0.8017578125,0.68115234375,1.0602663909213605,-4.31060791015625,-10.94818115234375,8.874893188476562,14.737969337955084
1782811892.846341,-0.01220703125,-0.93115234375,0.8129882216453552,1.236181033432051,-1.7452239990234375,-6.4334869384765625,2.5272369384765625,7.128989236737301
1782811892.856917,-0.1176757737994194,-0.5517578125,0.8598632216453552,1.028420649020821,1.48773193359375,-0.02288818359375,1.9779205322265625,2.475083797972551
1782811892.867493,-0.1171874925494194,-0.6865234375,0.8017578125,1.0620089117100768,4.9686431884765625,9.069442749023438,1.3065338134765625,10.423494496471227
1782811892.875583,0.20849609375,-0.9375,0.251953125,0.9929034435967449,3.688812255859375,-60.93597412109375,-9.557723999023438,61.791183561954
1782811892.883671,-0.4858398139476776,-0.8466796875,0.8940429091453552,1.3237142975109477,-13.891220092773438,-32.37342834472656,-14.623641967773438,38.14257152918039
1782811892.891759,0.234375,-0.8017578125,0.9111327528953552,1.2360866166771864,-12.731552124023438,16.820907592773438,7.7762603759765625,22.483451184511953
1782811892.899848,0.1259765625,-0.7724609375,0.8564452528953552,1.160200183360477,-4.7359466552734375,31.713485717773438,8.874893188476562,33.27067922660857
1782811892.910432,-0.27734375,-0.68798828125,0.7431640625,1.0500191686787892,1.0623931884765625,19.628524780273438,-5.7125091552734375,20.47047691642314
1782811892.921017,-0.25439453125,-0.6689453125,0.63720703125,0.9582469458965515,3.9920806884765625,1.6231536865234375,-3.2711029052734375,5.410309633493305
1782811892.931602,-0.1748046875,-0.7099609375,0.630859375,0.965704283190896,3.37982177734375,-9.72747802734375,2.5272369384765625,10.603487660306062
1782811892.942235,-0.1235351487994194,-0.73291015625,0.73974609375,1.048638409243948,2.7103424072265625,-11.499404907226562,1.6117095947265625,11.923920370519534
1782811892.952869,-0.0927734300494194,-0.71728515625,0.734375,1.030733498691452,6.801605224609375,-8.32366943359375,2.2220611572265625,10.976468569518682
1782811892.963503,-0.0688476487994194,-0.6982421875,0.6953125,0.9877963473339245,8.32366943359375,-8.75091552734375,2.0999908447265625,12.258546282263008
1782811892.971509,0.07958984375,-0.56201171875,0.7460936903953552,0.9374686715236081,7.5931549072265625,0.0972747802734375,9.057998657226562,11.820017068614337
1782811892.979514,-0.09521484375,-0.6279296875,0.8251952528953552,1.0413014761898756,7.4710845947265625,-3.3779144287109375,3.7479400634765625,9.015235195415968
1782811892.98752,-0.3740234375,-0.4794921875,0.8403319716453552,1.037286899677337,12.90130615234375,-3.56292724609375,3.9310455322265625,13.949597484296753
1782811892.995526,-0.1992187350988388,-0.5654296875,0.7119140625,0.9307096584359609,18.82171630859375,-0.45013427734375,4.9686431884765625,19.471698457074005
1782811893.006182,-0.0922851487994194,-0.70751953125,0.5693359375,0.9128219133643509,14.73236083984375,-2.34222412109375,6.3114166259765625,16.197606291531116
1782811893.016838,0.10693359375,-0.73876953125,0.6416015625,0.984310814112126,10.889053344726562,-2.8324127197265625,4.9076080322265625,12.275123671765765
1782811893.027494,-0.1933593600988388,-0.5712890625,0.4785155951976776,0.7698936354570993,9.97161865234375,28.78570556640625,8.569717407226562,31.646328064142345
1782811893.035487,0.1318359375,-0.9072265625,0.2124023288488388,0.9410395844078402,1.91497802734375,28.05328369140625,10.705947875976562,30.08772484982632
1782811893.043483,-0.158203125,-0.77001953125,0.6884765625,1.044968078162224,-7.85064697265625,18.83697509765625,10.339736938476562,22.877378535922666
1782811893.051479,-0.67431640625,-1.0361328125,1.7485350370407104,2.14141275718532,-8.15582275390625,6.38580322265625,11.133193969726562,15.206706926852302
1782811893.059475,0.0532226525247097,-0.9785155653953552,1.4541015625,1.7534927192685172,20.95794677734375,-11.61956787109375,15.344619750976562,28.455355312049566
1782811893.070138,-0.1176757737994194,-0.60791015625,0.7553710341453552,0.9767229622759029,37.62054443359375,-20.89691162109375,6.1893463134765625,43.47751472391161
1782811893.080801,0.0312500037252903,-1.18017578125,1.0107421875,1.5541528904757613,52.516937255859375,-28.95355224609375,-9.130477905273438,60.6605515403696
1782811893.091465,-0.02880859375,-0.90478515625,0.7890624403953552,1.2008687059320278,63.31825256347656,-40.18592834472656,-10.534286499023438,75.73031847723348
1782811893.099471,-0.22900390625,-0.64013671875,0.69482421875,0.9721103346489652,69.11468505859375,-35.66741943359375,-10.839462280273438,78.52705547978972
1782811893.107478,-0.0468749962747097,-0.7978515625,0.53759765625,0.9632110989107936,68.87435913085938,-30.29632568359375,-6.5670013427734375,75.52926718993746
1782811893.115485,-0.1220703050494194,-0.4951171875,0.3471679389476776,0.616901747903138,71.13075256347656,-34.68894958496094,-1.9283294677734375,79.16202143762357
1782811893.123492,-0.24462890625,-0.2197265625,0.25830078125,0.41814155215129967,62.160491943359375,-33.22601318359375,1.1844635009765625,70.49324552396448
1782811893.134141,0.02099609375,-0.2236328125,0.36328125,0.4271132606007234,46.83685302734375,-29.01458740234375,8.691787719726562,55.77709437930622
1782811893.14479,-0.012695308774709702,-0.6787109375,0.7988280653953552,1.0483014764896117,33.83827209472656,-30.359268188476562,7.0438385009765625,46.00358120977578
1782811893.155439,-0.14501953125,-0.5625,0.7695311903953552,0.9641655290639995,39.27040100097656,-26.636123657226562,11.377334594726562,48.79642631116471
1782811893.166162,-0.07177734375,-0.8173828125,0.51123046875,0.9667591434398541,14.062881469726562,-26.453018188476562,-30.370712280273438,42.66036768386557
1782811893.176885,-0.017578125,-0.6513671875,0.9042968153953552,1.114603487238559,15.893936157226562,-19.250869750976562,-6.5059661865234375,25.798077229887593
1782811893.187608,-0.1118163987994194,-0.6494140625,0.7597655653953552,1.0057262281425041,10.217666625976562,-10.583877563476562,0.0858306884765625,14.711442569148078
1782811893.198232,-0.1733398288488388,-0.51708984375,0.63037109375,0.8335444310954968,4.60052490234375,-4.41741943359375,4.2362213134765625,7.656630776400922
1782811893.208857,-0.1689452975988388,-0.5322265625,0.6845703125,0.8834274957050376,-5.5294036865234375,1.5621185302734375,10.339736938476562,11.828976261201106
1782811893.219482,-0.1357421875,-0.423828125,0.8383788466453552,0.9491761224929212,-19.933700561523438,12.426376342773438,24.255752563476562,33.76549687934888
1782811893.227474,-0.1103515625,-0.62841796875,0.82080078125,1.0396155699558745,-53.93028259277344,54.78477478027344,40.00282287597656,86.66067600883598
1782811893.235468,-0.3564452826976776,-0.66796875,1.0126953125,1.2644316060955858,-41.96929931640625,60.95123291015625,63.25721740722656,97.35476584370865
1782811893.243462,-0.6376953125,-1.00341796875,1.0341796875,1.5757634840395454,-21.886825561523438,25.793075561523438,57.45887756347656,66.67712119563654
1782811893.251456,-0.84912109375,-0.90283203125,0.8081054091453552,1.4795765140039832,0.02288818359375,-49.27825927734375,48.18153381347656,68.9188476535501
1782811893.262125,-0.7490234375,-0.9365234375,1.0224609375,1.57592468970586,11.133193969726562,-78.02772521972656,43.23768615722656,89.89867304450901
1782811893.272794,-0.52099609375,-0.7626953125,0.9873046278953552,1.3520027728062607,21.694183349609375,-77.47650146484375,75.09803771972656,110.05889850344623
1782811893.283463,-0.4965820014476776,-0.68994140625,0.6796875,1.08838776448298,21.875381469726562,-51.96571350097656,99.69520568847656,114.53428190449915
1782811893.291451,-0.60791015625,-0.6591796875,0.52685546875,1.0400237033050157,15.58685302734375,-37.49847412109375,111.16981506347656,118.35460840184439
1782811893.29944,-0.8056640625,-0.666015625,0.53125,1.1725604278023989,7.16400146484375,-45.61614990234375,124.53651428222656,132.82130641756464
1782811893.307429,-0.81689453125,-0.7236328125,0.6181640625,1.254228021804377,-0.4634857177734375,-65.39344787597656,141.38221740722656,155.77371165605228
1782811893.315418,-0.703125,-0.7392578125,0.6953125,1.2346442206658301,-3.025054931640625,-80.77239990234375,158.71620178222656,178.1127851994349
1782811893.326097,-0.61181640625,-0.74560546875,0.7021484375,1.193004299351123,-1.8062591552734375,-84.25331115722656,175.25672912597656,194.46543167624515
1782811893.336776,-0.5859375,-0.72412109375,0.66064453125,1.141983059852675,0.02288818359375,-81.56585693359375,189.78309631347656,206.5686645827744
1782811893.347455,-0.6083984375,-0.70458984375,0.59765625,1.1062497456868197,-0.0362396240234375,-80.04188537597656,201.86805725097656,217.15758625048048
1782811893.358143,-0.544921875,-0.70263671875,0.54736328125,1.0441478679047564,-4.12750244140625,-86.38763427734375,222.98622131347656,239.17088980079214
1782811893.368831,-0.4990234076976776,-0.69921875,0.556640625,1.0236112578426224,-6.2007904052734375,-88.52577209472656,232.62977600097656,248.98167564879574
1782811893.379519,-0.4433593451976776,-0.69677734375,0.548828125,0.9916039968295987,-8.153915405273438,-90.60096740722656,240.01502990722656,256.6753517830034
1782811893.387496,-0.37353515625,-0.6787109375,0.5078125,0.9263101990116976,-10.16998291015625,-91.75872802734375,244.53163146972656,261.3786745525256
1782811893.395471,-0.271484375,-0.6533203125,0.4931640326976776,0.8624047540110585,-12.914657592773438,-92.00477600097656,246.78993225097656,263.6985738455369
1782811893.403447,-0.1455077975988388,-0.6376953125,0.4711913764476776,0.8061322124721194,-16.57867431640625,-91.20941162109375,245.26405334472656,262.199285036097
1782811893.411423,0.0458984412252903,-0.6142578125,0.4511718451976776,0.7635282319752648,-21.15631103515625,-91.39251708984375,238.42811584472656,256.2189456341978
1782811893.422235,0.2158203125,-0.58154296875,0.4267577826976776,0.7529228625053163,-25.671005249023438,-91.15028381347656,224.20692443847656,243.38471545258025
1782811893.433047,0.33837890625,-0.57861328125,0.3657226264476776,0.7635749163832095,-33.11729431152344,-88.22059631347656,203.69911193847656,224.4392055790286
1782811893.443859,0.4619140625,-0.51806640625,0.3046875,0.7580183870304822,-43.37120056152344,-80.53016662597656,178.61366271972656,200.67139628036597
1782811893.45454,0.7255859375,-0.515625,0.279296875,0.9329259551044335,-72.24082946777344,-56.60438537597656,118.79920959472656,150.12010553658615
1782811893.465221,0.76171875,-0.5419921875,0.31201171875,0.9855568466861395,-86.64512634277344,-44.64149475097656,82.72743225097656,127.84392445242189
1782811893.475903,0.78515625,-0.55908203125,0.3281249701976776,1.0181891035794457,-99.27940368652344,-33.65516662597656,45.31288146972656,114.20300987304765
1782811893.483888,0.77734375,-0.580078125,0.4003905951976776,1.0493171901242868,-108.61778259277344,-22.851943969726562,9.424209594726562,111.39501678734042
1782811893.491873,0.724609375,-0.5869140625,0.4755859076976776,1.0467611087056914,-115.15045166015625,-14.42718505859375,-24.206161499023438,118.5483379924396
1782811893.499858,0.66943359375,-0.62255859375,0.54736328125,1.065517292564407,-117.83599853515625,-9.30023193359375,-55.88340759277344,130.7469774372472
1782811893.507843,0.62548828125,-0.6943359375,0.61279296875,1.1175210094823818,-117.77496337890625,-5.76019287109375,-84.14268493652344,144.85894259293056
1782811893.518385,0.55908203125,-0.73193359375,0.65234375,1.128650464710168,-115.02838134765625,-2.76947021484375,-109.28916931152344,158.69253608640696
1782811893.528927,0.505859375,-0.78369140625,0.666015625,1.1461425479623526,-110.26573181152344,1.0738372802734375,-130.28526306152344,170.6866559208589
1782811893.539469,0.458984375,-0.830078125,0.67138671875,1.162091423344802,-104.46739196777344,5.4073333740234375,-147.74131774902344,181.0253358206639
1782811893.547472,0.34716796875,-0.91650390625,0.591796875,1.1448705385139735,-95.61729431152344,14.932632446289062,-174.77989196777344,199.7840361978379
1782811893.555475,0.31640625,-0.9599609375,0.6005859375,1.1757301496889903,-92.44537353515625,19.87457275390625,-184.42344665527344,207.25142558355387
1782811893.563477,0.25634765625,-0.9892578125,0.580078125,1.1750896866029712,-88.90342712402344,25.487899780273438,-191.74766540527344,212.8864006412305
1782811893.571478,0.20556640625,-1.0439453125,0.5830078125,1.2132507870614788,-86.58409118652344,31.656265258789062,-196.08116149902344,216.6719775871747
1782811893.582139,0.1494140625,-1.06689453125,0.58251953125,1.2247111933723929,-84.08355712890625,37.45269775390625,-198.46153259277344,218.7686656437982
1782811893.5928,0.1279296875,-1.0908203125,0.58544921875,1.2445905940675555,-81.82144165039062,41.60308837890625,-199.07188415527344,219.21491814550845
1782811893.603461,0.1103515625,-1.107421875,0.57177734375,1.2511954313377718,-78.28330993652344,44.04258728027344,-198.94981384277344,218.28663389459396
1782811893.611493,0.1142578125,-1.10009765625,0.5595703125,1.2395114503849394,-75.17051696777344,46.42295837402344,-197.42393493652344,216.29125680715637
1782811893.619525,0.07568359375,-1.08935546875,0.53759765625,1.2171419735034776,-72.05772399902344,48.25401306152344,-195.16563415527344,213.565891751682
1782811893.627557,0.0610351599752903,-1.07666015625,0.525390625,1.1995656262361698,-69.55337524414062,49.65972900390625,-192.05284118652344,210.20954902289677
1782811893.635589,0.0620117224752903,-1.07080078125,0.4956054389476776,1.181560204968195,-67.05474853515625,49.96490478515625,-187.78038024902344,205.55851288081115
1782811893.646253,0.0390625,-1.07763671875,0.52490234375,1.1993119890081811,-64.30625915527344,49.04747009277344,-182.22618103027344,199.36732516118252
1782811893.656917,0.0263671912252903,-1.0615234375,0.53271484375,1.1879866758034427,-60.34088134765625,47.88970947265625,-176.30577087402344,192.40106828879877
1782811893.667582,0.0400390625,-1.060546875,0.57275390625,1.2059891532359561,-56.55670166015625,47.21832275390625,-169.77500915527344,185.07237568054603
1782811893.675562,0.0166015662252903,-1.0458984375,0.560546875,1.18675690545214,-52.71148681640625,48.01177978515625,-162.51182556152344,177.4647156137623
1782811893.683543,0.0283203162252903,-1.03955078125,0.55322265625,1.1779317359239845,-48.74229431152344,49.77989196777344,-155.61485290527344,170.49877226480035
1782811893.691524,0.0439453125,-1.01123046875,0.537109375,1.1458641857270686,-46.30088806152344,52.22129821777344,-148.35166931152344,163.9483272569469
1782811893.699505,0.06005859375,-1.01953125,0.5146484375,1.1436406859809516,-44.83604431152344,54.42237854003906,-141.88194274902344,158.4378484886025
1782811893.710143,0.064453125,-1.00341796875,0.4692382514476776,1.1095883750086406,-42.69981384277344,56.67686462402344,-135.65635681152344,153.095356654579
1782811893.720781,0.08544921875,-1.00146484375,0.4843749701976776,1.115729588209526,-42.51670837402344,59.24034118652344,-129.36973571777344,148.50460273858184
1782811893.731419,0.08203125,-0.9833983778953552,0.560546875,1.134907174484347,-44.34776306152344,61.74278259277344,-123.14414978027344,144.71826738862626
1782811893.739435,0.078125,-0.990234375,0.67822265625,1.2027691401542717,-42.21153259277344,61.86485290527344,-110.69297790527344,133.6488266553779
1782811893.747453,0.07763671875,-0.9921874403953552,0.6689453125,1.1991460328468238,-38.48838806152344,59.72862243652344,-104.28428649902344,126.19063659538925
1782811893.755471,0.1083984375,-0.9638671875,0.634765625,1.1591883259734987,-34.21783447265625,57.65533447265625,-97.20420837402344,118.08325840174184
1782811893.763489,0.10595703125,-0.9267578125,0.61865234375,1.119302308551388,-32.32574462890625,56.55670166015625,-90.06309509277344,111.15293683110282
1782811893.774132,0.076171875,-0.90966796875,0.64013671875,1.1149318304734075,-29.638290405273438,56.12754821777344,-82.37266540527344,103.99031653502617
1782811893.784773,0.07763671875,-0.88623046875,0.6572265625,1.1060644910197044,-26.279449462890625,54.05426025390625,-74.74327087402344,95.91156894044269
1782811893.795415,0.044921875,-0.85205078125,0.677734375,1.0896478292268983,-21.64459228515625,50.45318603515625,-66.62559509277344,86.33065665078036
1782811893.806117,0.07275390625,-0.81103515625,0.6513671875,1.0427609354496148,-16.51763916015625,47.34039306640625,-58.81309509277344,77.28470336035834
1782811893.816819,0.0693359375,-0.76708984375,0.638671875,1.0005678710259585,-11.754989624023438,45.32432556152344,-50.45127868652344,68.83172081077967
1782811893.827521,0.087890625,-0.76318359375,0.61962890625,0.9869721076062012,-7.9708099365234375,44.10743713378906,-42.51670837402344,61.779206149942475
1782811893.838169,0.12353515625,-0.72705078125,0.54443359375,0.9166633576998087,-2.66265869140625,42.27447509765625,-28.478622436523438,51.04167838121446
1782811893.848815,0.1249999925494194,-0.724609375,0.517578125,0.8992056827855133,-1.3179779052734375,41.54014587402344,-21.947860717773438,47.000312499819806
1782811893.859461,0.15771484375,-0.724609375,0.4877929389476776,0.8876230447460173,-0.8907318115234375,40.07530212402344,-16.393661499023438,43.307913605210544
1782811893.867474,0.15380859375,-0.7216796875,0.4956054389476776,0.8888776102343733,-1.1348724365234375,37.63389587402344,-11.266708374023438,39.30059505515545
1782811893.875487,0.1875,-0.7138671875,0.54296875,0.9162847127753048,-1.31988525390625,34.70611572265625,-6.8111419677734375,35.392770738429775
1782811893.8835,0.16748046875,-0.71337890625,0.59326171875,0.9428248184203523,-0.0972747802734375,32.38487243652344,-2.7217864990234375,32.49919301858185
1782811893.891513,0.15673828125,-0.716796875,0.60009765625,0.947882822850859,3.25775146484375,29.15191650390625,0.6961822509765625,29.341640209504103
1782811893.902165,0.17578125,-0.7255859375,0.556640625,0.9312479723197828,5.8231353759765625,26.342391967773438,4.7855377197265625,27.399487065594677
1782811893.912817,0.19921875,-0.71826171875,0.537109375,0.9187352652892765,7.1048736572265625,23.595809936523438,7.5321197509765625,25.76769885319101
1782811893.923469,0.2041015625,-0.73193359375,0.5224609375,0.9221440585332155,7.4710845947265625,22.069931030273438,9.912490844726562,25.32106702825485
1782811893.934147,0.21533203125,-0.73583984375,0.53271484375,0.9336023050977661,7.778167724609375,17.86041259765625,13.513565063476562,23.708873276380878
1782811893.944825,0.21142578125,-0.74267578125,0.53125,0.9372805020549988,7.8983306884765625,15.966415405273438,15.161514282226562,23.391912360652423
1782811893.955503,0.22021484375,-0.7412109375,0.51708984375,0.9301989775240914,7.7762603759765625,14.501571655273438,16.443252563476562,23.26255275704478
1782811893.963504,0.2099609375,-0.7548828125,0.509765625,0.9347687672977899,7.4710845947265625,13.036727905273438,18.518447875976562,23.84756363306232
1782811893.971508,0.20556640625,-0.76708984375,0.4995116889476776,0.9381877760652719,6.6165924072265625,10.717391967773438,20.349502563476562,23.93207137410387
1782811893.97951,0.193359375,-0.779296875,0.5048828125,0.9484714659087359,4.60052490234375,8.39996337890625,22.729873657226562,24.665185395969218
1782811893.987513,0.1943359375,-0.78173828125,0.52978515625,0.9641335533828003,3.200531005859375,5.77545166015625,24.927139282226562,25.786847682370784
1782811893.998166,0.19189453125,-0.82080078125,0.53369140625,0.9976792824998273,1.247406005859375,3.82232666015625,27.002334594726562,27.300041692385054
1782811894.008819,0.18798828125,-0.830078125,0.5380859375,1.0069288771438123,-0.5855560302734375,3.6411285400390625,28.650283813476562,28.88666570413473
1782811894.019472,0.18994140625,-0.84716796875,0.5556640625,1.0307928285733425,-3.2100677490234375,4.7359466552734375,30.420303344726562,30.953652147365393
1782811894.030133,0.18896484375,-0.8759765625,0.583984375,1.0696169409965977,-6.9942474365234375,10.900497436523438,31.213760375976562,33.7940701658716
1782811894.040795,0.1708984375,-0.8754882216453552,0.60400390625,1.0772681286220933,-7.91168212890625,14.68658447265625,31.335830688476562,35.499644540730145
1782811894.051457,0.16162109375,-0.8681640625,0.63037109375,1.084987526747207,-7.2994232177734375,17.740249633789062,31.518936157226562,36.89771500871899
1782811894.062159,0.14453125,-0.88134765625,0.654296875,1.1071437910401234,-5.28717041015625,20.17974853515625,31.885147094726562,38.10300548697599
1782811894.072862,0.123046875,-0.8740234375,0.6669921875,1.1063164470135194,-2.60162353515625,21.27838134765625,32.61756896972656,39.03131772423055
1782811894.083565,0.0869140625,-0.8798827528953552,0.650390625,1.0976136288288576,0.1468658447265625,20.727157592773438,34.26551818847656,40.04700198737517
1782811894.091599,0.06005859375,-0.876953125,0.59423828125,1.0610244827681627,5.57708740234375,16.02935791015625,38.72108459472656,42.277258793555205
1782811894.099633,0.0576171912252903,-0.8828125,0.544921875,1.0390464381992064,7.16400146484375,11.87896728515625,41.46766662597656,43.726424003721434
1782811894.107667,0.0463867224752903,-0.89404296875,0.52978515625,1.0402580784479156,7.22503662109375,8.03375244140625,43.97010803222656,45.2781705994359
1782811894.115701,0.0419921912252903,-0.87451171875,0.5244140625,1.020560727885771,7.5321197509765625,3.6983489990234375,47.69325256347656,48.42578810246863
1782811894.126294,0.0239257849752903,-0.8623046875,0.513671875,1.0039923368418566,8.508682250976562,-1.0623931884765625,50.86708068847656,51.584748237274454
1782811894.136887,0.0209960974752903,-0.8408203125,0.52001953125,0.9888579002583027,9.30023193359375,-5.08880615234375,54.28504943847656,55.31054921633497
1782811894.14748,0.013183597475290298,-0.82177734375,0.4750976264476776,0.9493205805203072,10.156631469726562,-9.241104125976562,57.94715881347656,59.55189655110285
1782811894.155484,0.0180664099752903,-0.81201171875,0.4238280951976776,0.9161439192810352,10.097503662109375,-14.36614990234375,62.21961975097656,64.65003422411341
1782811894.163487,0.0375976599752903,-0.79833984375,0.4125976264476776,0.8994425448602313,9.17816162109375,-20.28656005859375,65.57655334472656,69.2536462457221
1782811894.17149,0.0390625,-0.80224609375,0.4287109076976776,0.9104491837671943,8.020401000976562,-25.293350219726562,69.23866271972656,74.1489906389174
1782811894.179493,0.008789066225290298,-0.81494140625,0.3994140326976776,0.907600304551327,6.9217681884765625,-28.223037719726562,72.47352600097656,78.08240969641203
1782811894.190175,0.0009765625,-0.83642578125,0.3320312201976776,0.8999187587776731,4.41741943359375,-30.96771240234375,77.23426818847656,83.32853645958322
1782811894.200857,0.01513671875,-0.8291015625,0.27587890625,0.8739265942332652,-0.46539306640625,-34.56878662109375,81.38465881347656,88.42330173289707
1782811894.21154,0.0307617224752903,-0.8251953125,0.2578125,0.8650785354508973,-6.50787353515625,-39.14642333984375,85.71815490722656,94.45844037962483
1782811894.222576,0.0703125,-0.84033203125,0.2802734375,0.8886253260902861,-18.774032592773438,-44.33250427246094,90.35682678222656,102.38257361980887
1782811894.233612,0.08447265625,-0.83349609375,0.296875,0.8888116412240782,-23.229598999023438,-44.27528381347656,91.33338928222656,104.1234989048969
1782811894.244648,0.1025390625,-0.833984375,0.28173828125,0.8862396155691888,-28.17535400390625,-43.41888427734375,91.15028381347656,104.82091549119447
1782811894.2524,0.11962890625,-0.8408203125,0.259765625,0.8881261470392646,-32.81402587890625,-42.25921630859375,89.99061584472656,104.6943771055122
1782811894.260153,0.14599609375,-0.87158203125,0.2343749850988388,0.9142766158161411,-38.42735290527344,-40.00282287597656,87.24403381347656,103.38476060522761
1782811894.267906,0.19384765625,-0.8803710341453552,0.2109374850988388,0.9258102906187656,-44.83604431152344,-37.43934631347656,83.09364318847656,101.57031584187962
1782811894.275659,0.24365234375,-0.91552734375,0.2319335788488388,0.9753717069745408,-51.73492431640625,-34.87396240234375,76.50184631347656,98.71792206603195
1782811894.286267,0.26513671875,-0.9501953125,0.27587890625,1.0243426098919177,-58.20465087890625,-31.51702880859375,68.50624084472656,95.25864540047151
1782811894.296875,0.26220703125,-0.955078125,0.34130859375,1.0475773519211156,-63.14659118652344,-28.100967407226562,59.65614318847656,91.30176212879984
1782811894.307483,0.24658203125,-0.9819335341453552,0.4155273139476776,1.0943761292403702,-64.91851806640625,-25.10833740234375,51.23329162597656,86.4273843517239
1782811894.315676,0.18798828125,-1.06591796875,0.5068359375,1.1951583064736482,-60.46104431152344,-22.180557250976562,36.64588928222656,74.09747769316482
1782811894.323869,0.16357421875,-1.0556640625,0.53564453125,1.1950306279554967,-57.34825134277344,-22.668838500976562,30.847549438476562,68.95121084808103
1782811894.33206,0.12060546875,-1.05810546875,0.5615234375,1.2039275031964678,-53.74908447265625,-23.09417724609375,26.514053344726562,64.22849935262178
1782811894.340252,0.11083984375,-1.02978515625,0.587890625,1.190948498449136,-50.14801025390625,-23.21624755859375,23.706436157226562,60.13162394617707
1782811894.35077,0.10498046875,-1.03857421875,0.57177734375,1.1902044519732515,-47.09434509277344,-22.363662719726562,20.471572875976562,56.00978526985566
1782811894.361289,0.11572265625,-1.005859375,0.5537109375,1.1540106662211036,-44.956207275390625,-19.12689208984375,17.419815063476562,51.868569774480356
1782811894.371806,0.1123046875,-0.9882811903953552,0.54443359375,1.1338959353164968,-42.15240478515625,-14.48822021484375,14.673233032226562,46.925872626766306
1782811894.382363,0.1240234375,-0.9619140028953552,0.57275390625,1.1263691220643948,-38.30528259277344,-9.729385375976562,12.231826782226562,41.371163879408726
1782811894.392919,0.1220703125,-0.9619140028953552,0.6123046875,1.146776674202299,-33.176422119140625,-6.37054443359375,9.973526000976562,35.223998096467575
1782811894.403476,0.0693359375,-0.9794921875,0.62109375,1.1618820352736339,-26.647567749023438,-3.5037994384765625,7.1048736572265625,27.800156602598747
1782811894.41414,0.89794921875,-1.04736328125,0.9716796278953552,1.6874370926441549,-38.67149353027344,42.33360290527344,17.786026000976562,60.03299982268727
1782811894.424804,-0.4956054389476776,-1.0302734375,1.0009765625,1.5195532849515028,-26.22222900390625,-7.65228271484375,-3.5152435302734375,27.541235661428264
1782811894.435469,-0.2124023288488388,-1.14501953125,0.732421875,1.3757275454183855,-5.1021575927734375,-24.805068969726562,-9.679794311523438,27.111286885867088
1782811894.443596,0.263671875,-1.041015625,0.7421875,1.305403644209869,1.247406005859375,1.99127197265625,21.448135375976562,21.57646164037926
1782811894.451721,-0.1210937425494194,-0.984375,0.62109375,1.170220185007372,7.8983306884765625,62.84141540527344,32.55653381347656,71.21344684643984
1782811894.459846,0.14306640625,-0.87158203125,0.31884765625,0.9390351759605623,17.53997802734375,52.28424072265625,19.067764282226562,58.35128354943808
1782811894.467971,0.091796875,-0.79736328125,0.06494140625,0.8052529135565172,14.245986938476562,60.70518493652344,23.218154907226562,66.53683445524536
1782811894.478478,0.04150390625,-0.7431640625,0.0068359337747097015,0.7443534966775429,0.0858306884765625,97.38731384277344,27.307510375976562,101.143444608892
1782811894.488985,-0.015136715024709702,-0.7822265625,0.2241210788488388,0.8138413685766245,-11.63482666015625,111.42730712890625,27.002334594726562,115.24122543160087
1782811894.499492,-0.57763671875,-0.5703125,0.638671875,1.0328708972667069,-24.20806884765625,46.54693603515625,18.701553344726562,55.69915573058039
1782811894.510152,-0.2705078125,-1.07275390625,0.9306640028953552,1.4457215867114162,9.17816162109375,18.34869384765625,17.724990844726562,27.11251587557999
1782811894.520815,0.1337890625,-0.9609375,1.2685546875,1.5970383174266989,40.36903381347656,27.624130249023438,21.753311157226562,53.534643076719426
1782811894.531478,-0.3857421576976776,-0.7744140625,1.173828125,1.4582135027025465,79.79774475097656,11.693954467773438,13.086318969726562,81.7048369597161
1782811894.539497,-0.5263671875,-0.7578125,0.9633788466453552,1.333956897128481,105.12542724609375,-20.34759521484375,7.0438385009765625,107.30794819363905
1782811894.547518,-0.37158203125,-0.59619140625,0.541015625,0.8866878285667223,113.42811584472656,-82.11708068847656,2.6493072509765625,140.05774249855864
1782811894.555539,-0.26416015625,-0.8193359375,1.06982421875,1.3731772739355528,101.58538818359375,-86.81488037109375,32.49549865722656,137.5222599408567
1782811894.56356,-0.14892578125,-0.83544921875,1.017578125,1.3249979343038327,108.85047912597656,-68.50624084472656,45.55702209472656,136.44403285878698
1782811894.574194,0.0288085974752903,-0.9790038466453552,0.8505859375,1.2972181405251968,128.56292724609375,-72.47161865234375,48.30360412597656,155.2861872277576
1782811894.584828,-0.033203125,-0.97900390625,0.62548828125,1.1622334902865274,136.68251037597656,-48.78807067871094,49.52430725097656,153.3461492568984
1782811894.595462,-0.0600585900247097,-0.9790038466453552,0.4057616889476776,1.0614603686430455,132.53211975097656,-11.865615844726562,36.34071350097656,137.9355032717171
1782811894.606129,-0.1230468675494194,-1.20556640625,0.35400390625,1.2624775867842262,101.46522521972656,18.228530883789062,19.922256469726562,104.99698838498487
1782811894.616796,-0.125,-1.0322265625,0.591796875,1.1963863161998853,94.38514709472656,34.70420837402344,15.527725219726562,101.7548442161853
1782811894.627463,-0.01416015625,-1.17138671875,0.74755859375,1.3896730572254732,87.85438537597656,32.38487243652344,9.607315063476562,94.12477620291803
1782811894.63546,0.01171875,-1.11181640625,0.865234375,1.4088660596344382,84.98382568359375,24.94049072265625,6.7386627197265625,88.82391727770502
1782811894.643458,-0.1347656100988388,-1.0185546875,0.9995116591453552,1.4334011922211574,87.12005615234375,36.04888916015625,15.771865844726562,95.59381960091777
1782811894.651456,-0.2666015625,-0.86962890625,0.9687499403953552,1.3288368126782977,106.34803771972656,12.002944946289062,23.523330688476562,109.5779307201019
1782811894.659454,-0.0419921875,-1.171875,1.0693359375,1.5869888804478245,130.09071350097656,10.049819946289062,32.80067443847656,134.53801270928943
1782811894.670113,-0.2089843600988388,-1.11474609375,0.63720703125,1.300909726680235,142.54188537597656,32.50694274902344,24.011611938476562,148.16021031744765
1782811894.680772,-0.25341796875,-0.84814453125,0.34521484375,0.9501279393429051,132.41004943847656,35.68077087402344,16.809463500976562,138.15967814690012
1782811894.691432,-0.1240234300494194,-0.72021484375,0.177734375,0.752117504393895,119.35043334960938,36.23199462890625,13.330459594726562,125.4391666447736
1782811894.702109,-0.083984375,-0.43603515625,-0.6357421875,0.7754664155831558,20.166397094726562,59.91172790527344,18.030166625976562,65.73572560593057
1782811894.712787,-0.34521484375,-0.626953125,-1.18505859375,1.3844158984616328,-95.86334228515625,73.09722900390625,21.020889282226562,122.37182301635522
1782811894.723465,-0.15478515625,-0.77294921875,-0.55810546875,0.9658626473832754,-174.10850524902344,-10.274887084960938,12.781143188476562,174.87910831732378
1782811894.734133,-0.2080077975988388,-1.21142578125,0.2822265625,1.2611389693129218,-218.36090087890625,-16.99066162109375,27.856826782226562,220.78534465254936
1782811894.744803,-0.4760741889476776,-1.36181640625,0.61083984375,1.566625632506496,-239.72320556640625,27.13775634765625,37.25624084472656,244.11411386582813
1782811894.755473,-0.21826171875,-1.08251953125,0.55517578125,1.2360043938012404,-237.58697509765625,18.34869384765625,35.18104553222656,240.87746110151102
1782811894.763478,-0.455078125,-0.6904296875,1.1396484375,1.408043967470851,-175.02403259277344,27.441024780273438,45.25184631347656,182.85007908340182
1782811894.771483,-0.474609375,-0.39501953125,2.083984375,2.1735421238501456,-99.28131103515625,47.88970947265625,41.83387756347656,117.89943301912358
1782811894.779488,0.1884765625,-1.4326171875,2.23583984375,2.662122316391989,-16.39556884765625,39.10064697265625,52.14881896972656,67.20992926239278
1782811894.787493,0.24951171875,-1.6044921875,1.35009765625,2.1117326911694714,69.78607177734375,-15.52581787109375,44.88563537597656,84.41485116840559
1782811894.798153,0.41455078125,-1.65283203125,1.5615234375,2.311290012011215,119.40765380859375,-28.16009521484375,20.227432250976562,124.33956637390162
1782811894.808813,-0.4340820014476776,-1.62646484375,1.23388671875,2.0871730897659577,140.52581787109375,3.88336181640625,32.86170959472656,144.36924168542646
1782811894.819474,-0.45458984375,-1.35400390625,0.71826171875,1.59871148141327,168.84613037109375,5.28717041015625,25.720596313476562,170.87574136476846
1782811894.827471,-0.0380859337747097,-0.65771484375,-0.15380859375,0.6765326581562275,181.60438537597656,-4.6634674072265625,30.420303344726562,184.1936360779863
1782811894.835469,0.12451171875,-0.7099609375,-0.0312500037252903,0.7214736749284679,134.91439819335938,4.24957275390625,38.84315490722656,140.45904880645418
1782811894.843467,-0.27490234375,-0.5302734375,-0.0634765625,0.6006583813650868,92.92030334472656,17.980575561523438,54.71229553222656,109.3202595752743
1782811894.851465,-0.4980468451976776,-0.61865234375,0.0019531212747097015,0.7942198669898918,44.09027099609375,7.24029541015625,59.53407287597656,74.43574213600213
1782811894.862183,-0.40576171875,-0.39990234375,0.13720703125,0.5859950736688285,14.123916625976562,4.5528411865234375,62.46376037597656,64.20229547325127
1782811894.872901,-0.44580078125,-0.28759765625,0.4130859375,0.6723769331289239,-8.703231811523438,6.3228607177734375,67.46864318847656,68.32087986344614
1782811894.883619,-0.4389648139476776,-0.55908203125,0.517578125,0.879289452358699,-22.80426025390625,7.48443603515625,67.52967834472656,71.66804396545552
1782811894.894264,-0.27783203125,-0.51171875,0.5908203125,0.8295271896403765,-35.07232666015625,16.76177978515625,65.69862365722656,76.33697995975915
1782811894.904911,-0.1982421725988388,-0.501953125,0.60400390625,0.8099861834989731,-39.28184509277344,19.262313842773438,64.96620178222656,78.32437336154773
1782811894.915558,-0.146484375,-0.533203125,0.67578125,0.8731801317485807,-38.30528259277344,20.421981811523438,66.18690490722656,79.15212187187831
1782811894.923754,-0.1611328125,-0.63037109375,0.75927734375,0.9999167884538128,-30.61676025390625,24.75738525390625,68.81141662597656,79.28004283001638
1782811894.931949,-0.32470703125,-0.79638671875,0.8984374403953552,1.2437267771696232,-16.21246337890625,30.61676025390625,69.48280334472656,77.64077496972511
1782811894.940144,-0.3896484076976776,-0.81982421875,1.01708984375,1.3632348959477905,5.51605224609375,38.06304931640625,69.23866271972656,79.20362978336829
1782811894.948339,-0.4135741889476776,-0.7666015625,1.0546875,1.36787692722972,33.59413146972656,46.60606384277344,73.14491271972656,93.01004845122038
1782811894.958727,-0.365234375,-0.71630859375,0.9677733778953552,1.258204856581284,61.05804443359375,51.06353759765625,76.25770568847656,110.23070052808461
1782811894.969115,-0.302734375,-0.66455078125,0.9082030653953552,1.165379187500852,82.48519897460938,58.14361572265625,82.23915100097656,130.18358597206577
1782811894.979503,-0.08544921875,-0.52197265625,0.77880859375,0.9414349943339256,98.16932678222656,60.52207946777344,88.52577209472656,145.38552592657405
1782811894.990148,-0.29638671875,-0.41943359375,0.50146484375,0.7177998440614511,97.00965881347656,66.13731384277344,89.86854553222656,147.8559219697423
1782811895.000794,-0.3828125,-0.3544921875,0.4633788764476776,0.697803772053933,83.76502990722656,71.02012634277344,86.69471740722656,139.91573395233624
1782811895.01144,-0.4531249701976776,-0.35302734375,0.4077148139476776,0.7044018125787413,74.73182678222656,77.06260681152344,78.57704162597656,133.03323935575887
1782811895.022129,-0.29638671875,-0.375,0.3369140326976776,0.5847915461769291,55.99212646484375,82.92388916015625,80.83534240722656,128.63064254521353
1782811895.03282,-0.28466796875,-0.3896484375,0.3125,0.5749069553227221,35.24017333984375,80.97076416015625,79.67567443847656,118.9384192047632
1782811895.043509,-0.1635742038488388,-0.33740234375,0.310546875,0.4868636598731109,16.01409912109375,73.15826416015625,73.93836975097656,105.24003756660078
1782811895.051524,-0.4521484076976776,-0.28955078125,0.4453124701976776,0.6975536062695026,-6.93511962890625,89.27154541015625,59.53407287597656,107.52585985420865
1782811895.059541,-0.52783203125,-0.26611328125,0.3325195014476776,0.6782272115701011,-14.804840087890625,89.08843994140625,53.73573303222656,105.08787953771018
1782811895.067556,-0.57666015625,-0.17138671875,0.3520507514476776,0.6970294647753712,-17.73834228515625,84.51080322265625,48.73085021972656,99.15351941056511
1782811895.075572,-0.4482421576976776,-0.0751953125,0.4355468451976776,0.6295049017450873,-21.093368530273438,82.18955993652344,47.57118225097656,97.2783189578692
1782811895.086221,-0.37841796875,0.07421875,0.4174804389476776,0.5683295688492584,-15.356063842773438,81.51817321777344,46.53358459472656,95.11254258372458
1782811895.09687,-0.27099609375,0.18896484375,0.4731445014476776,0.5770721915422646,0.26702880859375,81.33697509765625,40.18592834472656,90.72311535297314
1782811895.107519,-0.2387695163488388,0.1865234375,0.4521484076976776,0.5442793926448255,21.93450927734375,88.29498291015625,35.18104553222656,97.54400375770548
1782811895.11558,-0.22998046875,0.18603515625,0.4199218451976776,0.5136481786608943,47.32513427734375,83.90045166015625,24.316787719726562,99.34918363103482
1782811895.123643,-0.22412109375,0.15087890625,0.3310546875,0.42730775224727113,70.88661193847656,83.77647399902344,18.274307250976562,111.2535826539007
1782811895.131706,-0.25244140625,-0.0322265662252903,0.3291015625,0.41602049661055396,88.76800537109375,70.59478759765625,10.461807250976562,113.8983416230338
1782811895.139769,-0.29736328125,-0.0585937462747097,0.2236327975988388,0.3766560450864354,107.56683349609375,40.99273681640625,7.6541900634765625,115.36730371124797
1782811895.150358,-0.17041015625,-0.34521484375,0.29931640625,0.4876507159319069,118.55316162109375,14.01519775390625,4.1141510009765625,119.44958826591706
1782811895.160948,-0.5458984375,-0.30029296875,0.1733398288488388,0.6467052399748858,128.32069396972656,-5.5789947509765625,13.635635375976562,129.163680016521
1782811895.171536,-0.65869140625,-0.4287109375,0.1503906100988388,0.8001779628342888,132.46917724609375,-25.35247802734375,8.081436157226562,135.1152865990643
1782811895.182654,-0.8173827528953552,-0.0234375037252903,0.080078125,0.821630322843052,142.60482788085938,-45.37200927734375,44.70252990722656,156.18281704752087
1782811895.193773,-0.55859375,-0.3916015625,0.10546875,0.6902915460282463,148.46229553222656,-49.15809631347656,53.67469787597656,165.34371720733927
1782811895.204892,-0.31787109375,-0.3193359375,0.0859375,0.45869677034733436,154.13665771484375,-48.60687255859375,46.10633850097656,168.067045435436
1782811895.21255,-0.21484375,-0.56298828125,0.1411132663488388,0.6188914247899464,161.52191162109375,-52.08587646484375,28.406143188476562,172.07316883142363
1782811895.220208,-0.20166015625,-0.69775390625,0.1416015475988388,0.7399853583607546,168.29872131347656,-56.66160583496094,6.0062408447265625,177.6825036424031
1782811895.227866,-0.2548828125,-0.740234375,0.181640625,0.803682458866648,169.21234130859375,-66.00189208984375,-13.525009155273438,182.1317986602714
1782811895.235524,-0.46142578125,-0.31640625,0.15283203125,0.5799864622706605,163.23280334472656,-75.46043395996094,-19.079208374023438,180.84037539604702
1782811895.246171,-0.65966796875,-0.34716796875,0.1630859375,0.7630756519055013,141.74842834472656,-97.19276428222656,-19.506454467773438,172.9726918704911
1782811895.256819,-0.76220703125,-0.1865234375,0.099609375,0.790994676854178,114.28451538085938,-112.87689208984375,-1.9893646240234375,160.64277386582762
1782811895.267465,-0.9272460341453552,-0.0043945349752902985,0.08349609375,0.9310081188944848,87.55111694335938,-111.04583740234375,23.950576782226562,143.4224745659441
1782811895.278137,-0.6171875,-0.1142578125,0.0478515587747097,0.6294958534817403,34.38568115234375,-84.19036865234375,77.05116271972656,119.19427384983716
1782811895.28881,-0.4311523139476776,-0.3134765625,0.1025390625,0.5428389562270122,17.17376708984375,-98.28948974609375,89.99061584472656,134.3654457467277
1782811895.299483,-0.3710937201976776,-0.42236328125,0.2333984225988388,0.6087496317781597,1.79290771484375,-101.03607177734375,95.36170959472656,138.9437223306597
1782811895.310156,-0.40283203125,-0.5439453125,0.3876952826976776,0.7800370379781693,-3.27301025390625,-116.11175537109375,96.58241271972656,151.0655975999913
1782811895.320831,-0.4687499701976776,-0.5859375,0.54052734375,0.9247805673823408,-5.40924072265625,-134.78851318359375,95.97206115722656,165.55313254120534
1782811895.331506,-0.56689453125,-0.4501953125,0.66357421875,0.9820264623460015,-0.83160400390625,-136.31439208984375,100.42762756347656,169.31631177790086
1782811895.339495,-0.4282226264476776,-0.3662109375,0.8178710341453552,0.993175763417719,14.85443115234375,-83.51898193359375,106.59217834472656,136.22762918129962
1782811895.347483,-0.46533203125,-0.400390625,0.9023436903953552,1.09136184993404,16.86859130859375,-67.64984130859375,106.89735412597656,127.62482016029922
1782811895.355471,-0.30712890625,-0.4086913764476776,0.9628905653953552,1.090190371982988,14.978408813476562,-79.24461364746094,107.26356506347656,134.1996047417639
1782811895.363459,-0.1074218675494194,-0.3544921875,0.9374999403953552,1.0080229694147027,12.048721313476562,-96.21620178222656,110.25428771972656,146.82893833053555
1782811895.374267,-0.2329101413488388,-0.29638671875,0.8427733778953552,0.9232330082290575,15.649795532226562,-108.36219787597656,115.32020568847656,159.01582269933184
1782811895.385076,-0.2587890625,-0.298828125,0.8530272841453552,0.9401731620595459,23.39935302734375,-119.59075927734375,112.51258850097656,165.85705290345638
1782811895.395883,-0.2509765625,-0.17431640625,0.8525390028953552,0.9056479425637967,33.351898193359375,-131.18743896484375,110.80360412597656,174.92836231600907
1782811895.403765,-0.3227538764476776,-0.0869140625,0.8378905653953552,0.9021001710457685,44.09027099609375,-140.70892333984375,106.59217834472656,181.9473703801212
1782811895.411648,-0.310546875,-0.22705078125,1.01416015625,1.0846714900667047,59.35096740722656,-136.73973083496094,102.31971740722656,180.80269879425455
1782811895.419531,-0.259765625,-0.48681640625,1.0634765625,1.1981029973723554,76.80511474609375,-123.37493896484375,98.84071350097656,175.75519298479256
1782811895.427414,-0.1894531100988388,-0.4375,1.05419921875,1.1569938304672298,90.04974365234375,-100.42572021484375,100.12245178222656,167.98448429366084
1782811895.438117,-0.09130859375,-0.46533203125,0.9448241591453552,1.0571489253196926,100.00038146972656,-79.30946350097656,103.84559631347656,164.5417125491439
1782811895.448821,-0.2041015475988388,-0.3779296875,0.9316405653953552,1.0258861698630437,90.84701538085938,-68.44329833984375,108.97254943847656,157.52041716034202
1782811895.459523,-0.9374999403953552,-0.32421875,0.67041015625,1.1972776259898983,89.43939208984375,-58.12835693359375,93.40858459472656,141.78672156866548
1782811895.470171,-0.0654296875,0.28076171875,0.7998046278953552,0.8501738819351189,68.99452209472656,-43.35594177246094,127.09999084472656,150.9781091376704
1782811895.480819,-0.32275390625,0.2099609375,0.748046875,0.8413250302188675,51.17225646972656,-67.16346740722656,135.82801818847656,159.93367910285244
1782811895.491467,-0.4677734076976776,0.220703125,0.7431640625,0.905436167891126,49.03602600097656,-94.75135803222656,137.78114318847656,174.25841475591105
1782811895.502137,-0.56591796875,0.0053710900247097015,0.7421875,0.9333457457547174,49.64447021484375,-99.08294677734375,147.97401428222656,184.87377495954107
1782811895.512807,-0.54736328125,-0.2001953125,0.7822265625,0.9754809684910852,42.74940490722656,-90.66200256347656,143.64051818847656,175.15624109404695
1782811895.523477,-0.50732421875,-0.11865234375,0.8784179091453552,1.0213100727570268,28.528213500976562,-86.20643615722656,142.60292053222656,169.05916581128574
1782811895.531472,-0.55224609375,0.01806640625,0.9433593153953552,1.0932652656332391,-11.32965087890625,-44.70062255859375,139.18495178222656,146.62522787291584
