timestamp,accel_x,accel_y,accel_z,accel_rms,gyro_x,gyro_y,gyro_z,gyro_rms
58.892949,-0.0434570275247097,-0.111328125,0.9667968153953552,0.9741552991776514,0.2155303955078125,0.1964569091796875,-0.3871917724609375,0.4847330576860139
58.902547,-0.0405273400247097,-0.12255859375,0.9838866591453552,0.9923185135004104,0.0324249267578125,0.3795623779296875,0.0362396240234375,0.3826647161213698
58.912145,-0.0390624925494194,-0.11865234375,0.9868163466453552,0.9946912882940251,-0.0896453857421875,0.1354217529296875,-0.3261566162109375,0.3643535160384536
58.921743,-0.0263671837747097,-0.1220703125,0.9873046278953552,0.995171752933956,-0.396728515625,0.0762939453125,-0.5092620849609375,0.6500478077650318
58.931341,-0.0400390587747097,-0.119140625,0.9824218153953552,0.9904293201019752,-0.152587890625,-0.1068115234375,-0.1468658447265625,0.23719473487342282
58.942089,-0.0253906212747097,-0.11962890625,0.9726561903953552,0.9803141453501998,-0.030517578125,0.0152587890625,-0.5092620849609375,0.5104037856413591
58.952838,-0.0419921837747097,-0.111328125,0.9790038466453552,0.9862078009530176,-0.518798828125,0.0152587890625,-0.3871917724609375,0.6475357313453595
58.963587,-0.0439453050494194,-0.1240234375,0.9804686903953552,0.9892582351089051,-0.2117156982421875,-0.3528594970703125,-0.5702972412109375,0.7032583486086014
58.971521,-0.0385742112994194,-0.123046875,0.9882811903953552,0.9966585245277834,0.0324249267578125,-0.2269744873046875,-0.1468658447265625,0.27228362071509554
58.979457,-0.0283203087747097,-0.1279296875,0.9902343153953552,0.9988653784266679,0.400543212890625,-0.4119873046875,-0.5702972412109375,0.8095723241003374
58.987393,-0.0346679612994194,-0.1201171875,0.9780272841453552,0.9859854840748455,0.274658203125,-0.4730224609375,-0.1468658447265625,0.5663540883956514
58.995329,-0.0336914025247097,-0.12109375,0.9907225966453552,0.9986641429413894,0.3376007080078125,-0.1697540283203125,-0.0209808349609375,0.37845853618858677
59.006485,-0.0317382775247097,-0.12158203125,0.9780272841453552,0.9860663654723504,0.274658203125,-0.2288818359375,0.1010894775390625,0.3715415263938811
59.017641,-0.0346679650247097,-0.13037109375,0.9780272841453552,0.9872871205567635,0.152587890625,-0.4119873046875,0.2841949462890625,0.523243128082253
59.028797,-0.03759765625,-0.134765625,0.9726561903953552,0.9826675033558092,-0.2117156982421875,0.1354217529296875,0.3414154052734375,0.4239422920713996
59.039026,-0.0336913987994194,-0.130859375,0.9912108778953552,1.0003790735698808,-0.213623046875,-0.4119873046875,0.3414154052734375,0.5761361161547286
59.049257,-0.0209960900247097,-0.1318359375,0.9721679091453552,0.9812909832383467,0.0324249267578125,0.0133514404296875,0.5893707275390625,0.5904129836959218
59.059488,-0.0341796800494194,-0.13427734375,0.9814452528953552,0.9911778044345344,-0.5168914794921875,-0.1697540283203125,0.2841949462890625,0.613807786850932
59.06745,-0.0317382775247097,-0.126953125,0.9936522841453552,1.0022321467578172,-0.087738037109375,0.0762939453125,0.1621246337890625,0.1995072082116093
59.075415,-0.0253906212747097,-0.1181640625,0.9887694716453552,0.9961287554192252,0.0324249267578125,0.0133514404296875,0.5245208740234375,0.5256917196638233
59.08338,-0.0366210900247097,-0.123046875,0.9873046278953552,0.9956164251083092,0.274658203125,0.0762939453125,0.2841949462890625,0.40252287156314936
59.091345,-0.0205078087747097,-0.12353515625,0.9653319716453552,0.9734204233172637,0.274658203125,-0.1068115234375,0.1621246337890625,0.3363483714307697
59.102199,-0.0351562425494194,-0.125,0.9770507216453552,0.9856414530943304,-0.0286102294921875,0.1354217529296875,0.2841949462890625,0.3161081522112141
59.113053,-0.0444335862994194,-0.12890625,0.9731444716453552,0.9826501552304401,0.091552734375,0.1373291015625,-0.0820159912109375,0.18430357598759534
59.123907,-0.0292968712747097,-0.1171875,0.9848632216453552,0.9922433079504266,-0.1506805419921875,0.0133514404296875,-0.1468658447265625,0.2108375275985128
59.131749,-0.0263671837747097,-0.134765625,0.9790038466453552,0.9885876459921256,-0.4558563232421875,0.2613067626953125,-0.0820159912109375,0.5318014991371336
59.139594,-0.0375976525247097,-0.1123046875,0.9794921278953552,0.9866259447829316,-0.2727508544921875,-0.0438690185546875,0.2841949462890625,0.39633860133907356
59.147439,-0.0380859337747097,-0.12744140625,0.9790038466453552,0.9879981690898376,-0.2117156982421875,0.1354217529296875,0.2193450927734375,0.3335788628982871
59.155284,-0.030273430049419403,-0.11962890625,0.9873046278953552,0.9949864240486471,-0.030517578125,0.0762939453125,0.1621246337890625,0.1817594166671973
59.167315,-0.0502929650247097,-0.1240234375,0.9790038466453552,0.9881091676159549,0.217437744140625,0.0762939453125,0.3414154052734375,0.4119034081266338
59.179348,-0.0405273362994194,-0.125,0.9804686903953552,0.9892352186578828,0.335693359375,0.2593994140625,0.5893707275390625,0.7261790013656172
59.191381,-0.0439453087747097,-0.12646484375,0.9707030653953552,0.9798923349205033,0.0324249267578125,0.1964569091796875,0.4673004150390625,0.5079531188361437
59.203414,-0.0263671837747097,-0.123046875,0.9770507216453552,0.9851212486263731,0.2155303955078125,-0.0438690185546875,0.5893707275390625,0.6290752710579469
59.21404,-0.0234374962747097,-0.12158203125,0.9833983778953552,0.991162890851811,-0.1506805419921875,0.3185272216796875,0.4062652587890625,0.5377877622119939
59.224666,-0.0366210900247097,-0.119140625,0.9916991591453552,0.9995012831455461,-0.152587890625,0.2593994140625,0.4062652587890625,0.505591318042843
59.235292,-0.0336914025247097,-0.11767578125,0.9848632216453552,0.9924405601579109,-0.030517578125,0.0152587890625,0.4673004150390625,0.46854437475435495
59.24335,-0.0356445237994194,-0.1201171875,0.9824218153953552,0.9903793688150531,-0.0896453857421875,0.1964569091796875,0.4673004150390625,0.5147827602445343
59.25141,-0.0361328087747097,-0.12353515625,0.9726561903953552,0.9811353522394691,-0.152587890625,0.0762939453125,0.2841949462890625,0.3314673407033894
59.25947,-0.0346679650247097,-0.12548828125,0.9672850966453552,0.9760069849761567,-0.087738037109375,0.0762939453125,0.3414154052734375,0.3606704981075918
59.26753,-0.0322265587747097,-0.13427734375,0.9877929091453552,0.9973985098709841,-0.270843505859375,0.0762939453125,0.3414154052734375,0.4424267732806974
59.278135,-0.0390624925494194,-0.12890625,0.9775390028953552,0.986775152603105,-0.213623046875,-0.1068115234375,0.3414154052734375,0.4166629173003324
59.28874,-0.0405273400247097,-0.14404296875,0.9589843153953552,0.970588357291643,0.152587890625,-0.0457763671875,0.4673004150390625,0.49370863680307625
59.299345,-0.0283203087747097,-0.13671875,0.9731444716453552,0.983109464497507,0.091552734375,0.0152587890625,0.2193450927734375,0.23817431334839842
59.307348,-0.0234374962747097,-0.12744140625,0.9672850966453552,0.9759257586777894,0.400543212890625,-0.1068115234375,0.1621246337890625,0.4451156746431446
59.315352,-0.029296867549419403,-0.10986328125,0.9824218153953552,0.9889797118141151,0.400543212890625,0.0762939453125,-0.0209808349609375,0.40828400277227295
59.323356,-0.0288085900247097,-0.13232421875,0.9687499403953552,0.9781697606975048,0.0324249267578125,-0.1087188720703125,-0.0209808349609375,0.11537488658780375
59.33136,-0.030273430049419403,-0.1201171875,0.9843749403953552,0.9921384190616883,0.0324249267578125,0.1964569091796875,0.4062652587890625,0.45243580046082715
59.342028,-0.02392578125,-0.11962890625,0.9809569716453552,0.9885140861103702,-0.087738037109375,0.0762939453125,0.2193450927734375,0.24825591427182697
59.352696,-0.0297851525247097,-0.11083984375,0.9760741591453552,0.9827987537765587,-0.0896453857421875,-0.0438690185546875,0.5245208740234375,0.5339315810664583
59.363364,-0.0366210900247097,-0.13232421875,0.9848632216453552,0.9943874337762237,0.2155303955078125,-0.0438690185546875,0.3414154052734375,0.40613091625082076
59.374043,-0.0327148400247097,-0.1171875,0.9853515028953552,0.9928347068733181,0.091552734375,0.0762939453125,-0.0209808349609375,0.12100770512055893
59.384725,-0.0380859337747097,-0.12255859375,0.9873046278953552,0.9956111567861496,-0.2727508544921875,0.0133514404296875,0.2841949462890625,0.39412949278632914
59.395407,-0.0371093712747097,-0.12255859375,0.9750975966453552,0.9834698965001062,-0.152587890625,0.3814697265625,0.1010894775390625,0.4231090865464557
59.406058,-0.0332031212747097,-0.1220703125,0.9833983778953552,0.9915018800302129,-0.0896453857421875,0.1964569091796875,0.2193450927734375,0.30780494159952904
59.416708,-0.0234375,-0.1240234375,0.9931640028953552,1.0011522691892036,-0.087738037109375,-0.2288818359375,-0.0209808349609375,0.24601840055895174
59.427358,-0.0253906212747097,-0.1240234375,0.9858397841453552,0.9939348956052366,-0.1506805419921875,0.1354217529296875,0.1010894775390625,0.22641280743528916
59.435362,-0.0341796837747097,-0.12646484375,0.9750975966453552,0.9838581861585535,-0.3337860107421875,-0.1697540283203125,-0.0820159912109375,0.3833486062482421
59.443365,-0.0468749962747097,-0.12646484375,0.9863280653953552,0.9955067426024848,-0.213623046875,-0.1678466796875,-0.1468658447265625,0.3088314918940804
59.451368,-0.0419921837747097,-0.12548828125,0.9794921278953552,0.988390348414137,-0.213623046875,0.1983642578125,0.1010894775390625,0.3085486467362692
59.459371,-0.0390624962747097,-0.1259765625,0.9780272841453552,0.9868806115469426,0.030517578125,0.0762939453125,-0.0820159912109375,0.11609785303904115
59.46735,-0.030273430049419403,-0.1103515625,0.9814452528953552,0.9880934836056638,-0.087738037109375,-0.2288818359375,0.1010894775390625,0.26514890240588845
59.475329,-0.0278320275247097,-0.12890625,0.9731444716453552,0.9820395133288254,-0.213623046875,0.0762939453125,0.1010894775390625,0.2483438235926672
59.483308,-0.0346679650247097,-0.1162109375,0.9843749403953552,0.9918169554267272,0.030517578125,0.0762939453125,0.2193450927734375,0.23423142058603094
59.491287,-0.0356445275247097,-0.12939453125,0.9755858778953552,0.9847747367843663,0.091552734375,0.2593994140625,0.1010894775390625,0.29306832250625153
59.502051,-0.0375976525247097,-0.12646484375,0.9672850966453552,0.9762414651981829,-0.0896453857421875,0.1964569091796875,0.1621246337890625,0.2700296450957546
59.512815,-0.0375976525247097,-0.1171875,0.9799804091453552,0.9876781337765439,-0.3337860107421875,0.3185272216796875,0.1010894775390625,0.47232591966489107
59.523579,-0.0351562462747097,-0.13134765625,0.9887694716453552,0.9980747649912461,-0.213623046875,0.0762939453125,0.3414154052734375,0.4099024898747637
59.53415,-0.0366210900247097,-0.12548828125,0.9785155653953552,0.9872087543608336,-0.1506805419921875,0.1354217529296875,0.3414154052734375,0.39699893684950127
59.544722,-0.0346679650247097,-0.1376953125,0.9819335341453552,0.9921468300421136,-0.213623046875,0.0762939453125,-0.0209808349609375,0.22780642590401898
59.555294,-0.0390624925494194,-0.1201171875,0.9687499403953552,0.9769495708955953,0.091552734375,0.2593994140625,0.2841949462890625,0.3955208296458617
59.566125,-0.0385742150247097,-0.1162109375,0.9775390028953552,0.9851778794923517,0.030517578125,0.0762939453125,-0.1468658447265625,0.16829041866133967
59.576955,-0.0317382775247097,-0.1279296875,0.9794921278953552,0.9883208749252714,0.0324249267578125,0.1964569091796875,0.1010894775390625,0.22330646096520831
59.587785,-0.0307617150247097,-0.1279296875,0.9628905653953552,0.971838736098997,0.091552734375,-0.1068115234375,-0.0209808349609375,0.14223501729966856
59.595673,-0.0405273400247097,-0.11865234375,0.9746093153953552,0.9826414206729989,-0.030517578125,0.0152587890625,-0.0820159912109375,0.08883004014736189
59.603564,-0.033203125,-0.12451171875,0.9731444716453552,0.9816393320918647,0.2155303955078125,-0.4749298095703125,-0.0820159912109375,0.5279567200259506
59.611455,-0.0439453087747097,-0.13134765625,0.9697265028953552,0.979567704338668,-0.087738037109375,-0.1068115234375,0.2841949462890625,0.31602758137714626
59.619346,-0.01904296875,-0.123046875,0.9697265028953552,0.9776874032755738,0.2155303955078125,-0.1697540283203125,-0.0820159912109375,0.28635014288985455
59.627347,-0.0351562462747097,-0.1240234375,0.9809569716453552,0.989390900969415,0.091552734375,-0.0457763671875,-0.0209808349609375,0.10448719730226393
59.635348,-0.0307617150247097,-0.1337890625,0.9790038466453552,0.9885819784430083,0.091552734375,-0.1068115234375,0.1010894775390625,0.17323304297881378
59.643349,-0.0415039025247097,-0.1337890625,0.9726561903953552,0.9826912800487317,0.152587890625,-0.2899169921875,-0.1468658447265625,0.3590327325908888
59.65135,-0.0444335900247097,-0.12646484375,0.9780272841453552,0.9871702331208814,-0.213623046875,-0.1068115234375,0.1621246337890625,0.28866573155890135
59.662022,-0.0253906212747097,-0.130859375,0.9858397841453552,0.9948110070148334,0.2765655517578125,-0.3528594970703125,0.4062652587890625,0.6050204869182209
59.672694,-0.0346679650247097,-0.12890625,0.9907225966453552,0.9996749234584872,-0.030517578125,-0.2288818359375,0.2193450927734375,0.3184815334058225
59.683366,-0.0361328087747097,-0.1240234375,0.9790038466453552,0.9874897086378512,0.2155303955078125,-0.2269744873046875,0.1621246337890625,0.35249846262958007
59.69403,-0.0327148400247097,-0.126953125,0.9877929091453552,0.9964548098448579,0.152587890625,-0.2288818359375,0.1010894775390625,0.29306832250625153
59.704695,-0.0361328087747097,-0.12548828125,0.9902343153953552,0.9988077332437593,0.5207061767578125,0.2613067626953125,0.0362396240234375,0.5837203586422207
59.71536,-0.0346679612994194,-0.11474609375,0.9711913466453552,0.9785607622270374,0.274658203125,0.4425048828125,-0.0209808349609375,0.5212368898038743
59.723372,-0.010742183774709702,-0.13232421875,0.9799804091453552,0.9889320986239375,0.457763671875,0.5645751953125,-0.3871917724609375,0.8235351838944542
59.731384,-0.0341796800494194,-0.13037109375,0.9838866591453552,0.9930749370808128,0.0324249267578125,0.3795623779296875,-0.2689361572265625,0.46631065962368773
59.739396,-0.029296867549419403,-0.1337890625,0.9746093153953552,0.9841855197818347,-0.2117156982421875,0.6237030029296875,-0.4520416259765625,0.798855809493316
59.747408,-0.0371093712747097,-0.13232421875,0.9877929091453552,0.9973071922241642,-0.213623046875,0.3814697265625,-0.4520416259765625,0.6288844011862287
59.758055,-0.0268554650247097,-0.11572265625,0.9672850966453552,0.9745529269174985,-0.5168914794921875,0.3185272216796875,-0.3871917724609375,0.7201068401175242
59.768702,-0.033203125,-0.119140625,0.9765624403953552,0.9843633150550095,-0.6389617919921875,0.1354217529296875,-0.5092620849609375,0.8282264750484483
59.779349,-0.0336913987994194,-0.1157226487994194,0.9819335341453552,0.9893029400933785,-0.6389617919921875,-0.1697540283203125,-0.4520416259765625,0.80089339700885
59.790008,-0.0390624925494194,-0.1396484375,0.9750975966453552,0.9858209205550026,-0.396728515625,0.2593994140625,-0.5092620849609375,0.6957222450840173
59.800666,-0.0322265587747097,-0.1337890625,0.9765624403953552,0.9862110647959799,-0.0896453857421875,0.0133514404296875,-0.5702972412109375,0.5774543267473362
59.811324,-0.0390624962747097,-0.1376953125,0.9711913466453552,0.9816814704875013,-0.213623046875,0.0762939453125,-0.5092620849609375,0.55749748288783
59.819331,-0.0405273400247097,-0.12353515625,0.9775390028953552,0.9861469983226819,-0.213623046875,-0.1068115234375,-0.2689361572265625,0.35968064217996
59.827337,-0.0468749962747097,-0.12255859375,0.9887694716453552,0.9974381896817298,-0.213623046875,0.1983642578125,-0.0209808349609375,0.29227278417485353
59.835343,-0.0434570237994194,-0.1210937425494194,0.9746093153953552,0.9830643544842481,-0.152587890625,0.0762939453125,0.2193450927734375,0.2778778511873906
59.843349,-0.0493163987994194,-0.12890625,0.9877929091453552,0.9973884698739253,-0.1506805419921875,-0.0438690185546875,-0.0209808349609375,0.15833291495980548
59.85401,-0.0390624925494194,-0.12841796875,0.9814452528953552,0.9905815652700575,-0.0286102294921875,0.1354217529296875,0.3414154052734375,0.3684047710822575
59.864671,-0.0224609337747097,-0.11767578125,0.9873046278953552,0.9945463846912398,-0.1506805419921875,-0.0438690185546875,0.4062652587890625,0.4355233369441353
59.875332,-0.0312499962747097,-0.1201171875,0.9799804091453552,0.9878088394566923,0.2155303955078125,0.0133514404296875,0.4062652587890625,0.46009028771345034
59.886002,-0.0283203087747097,-0.10693359375,0.9785155653953552,0.9847484679258844,0.1544952392578125,0.1354217529296875,0.2841949462890625,0.35067734117864124
59.896672,-0.029785148799419403,-0.1201171875,0.9750975966453552,0.9829194355619699,-0.030517578125,-0.0457763671875,0.2841949462890625,0.2894711831318334
59.907342,-0.02392578125,-0.1259765625,0.9760741591453552,0.984460919213684,0.0324249267578125,0.0133514404296875,0.1621246337890625,0.16587354737279428
59.915347,-0.0341796837747097,-0.12744140625,0.9848632216453552,0.9936624820126725,0.2155303955078125,-0.2269744873046875,-0.0820159912109375,0.32356976386753505
59.92335,-0.0317382775247097,-0.11279296875,0.9785155653953552,0.9855061053999948,-0.213623046875,-0.4730224609375,-0.3261566162109375,0.612995263444748
59.931353,-0.0366210900247097,-0.126953125,0.9916991591453552,1.0004626042144045,-0.0286102294921875,-0.1697540283203125,-0.0209808349609375,0.17342194439639752
59.939356,-0.0258789025247097,-0.1240234375,0.9814452528953552,0.989588962689069,0.2155303955078125,-0.2269744873046875,-0.0209808349609375,0.3137052194507416
59.950038,-0.0273437462747097,-0.12060546875,0.9809569716453552,0.9887213660948009,0.0324249267578125,-0.2269744873046875,-0.2040863037109375,0.30695278647516505
59.96072,-0.03759765625,-0.125,0.9736327528953552,0.9823437897528955,0.152587890625,0.1983642578125,-0.2040863037109375,0.3229282621655837
59.971402,-0.0170898400247097,-0.1328125,0.9726561903953552,0.98183057983683,-0.213623046875,-0.4730224609375,-0.3261566162109375,0.612995263444748
59.982067,-0.0434570237994194,-0.1279296875,0.9794921278953552,0.988766578354225,-0.2727508544921875,-0.2269744873046875,0.1010894775390625,0.36895735388058715
59.992732,-0.0341796800494194,-0.1201171875,0.9838866591453552,0.9917808968241923,-0.4558563232421875,-0.1087188720703125,-0.1468658447265625,0.4911154211907558
60.003397,-0.0322265587747097,-0.1171875,0.9907225966453552,0.9981496504785368,-0.213623046875,-0.1068115234375,0.1621246337890625,0.28866573155890135
60.011443,-0.0415039025247097,-0.11865234375,0.9750975966453552,0.983166453651515,0.152587890625,0.2593994140625,0.2841949462890625,0.41392981032730464
60.019488,-0.0366210900247097,-0.119140625,0.9833983778953552,0.9912658384142996,0.2155303955078125,0.1964569091796875,0.1621246337890625,0.3336660987176068
60.027533,-0.02734375,-0.12451171875,0.9682616591453552,0.9766173710010783,0.335693359375,0.2593994140625,0.2193450927734375,0.47758806231754697
60.035578,-0.0341796837747097,-0.11083984375,0.9902343153953552,0.9970043736774535,0.3986358642578125,0.4444122314453125,-0.0820159912109375,0.6026104932251741
60.045134,-0.0302734337747097,-0.12890625,0.9853515028953552,0.9942086734381819,0.091552734375,0.3814697265625,0.1621246337890625,0.4244825701209008
60.05469,-0.0297851525247097,-0.13037109375,0.9790038466453552,0.9880952935536601,0.3986358642578125,-0.0438690185546875,-0.0820159912109375,0.40934296851886587
60.064246,-0.0405273400247097,-0.12109375,0.9760741591453552,0.9843916526108158,-0.213623046875,0.0152587890625,-0.1468658447265625,0.25968675966837257
60.073802,-0.0214843712747097,-0.12939453125,0.9838866591453552,0.9925912960381454,-0.5779266357421875,0.0133514404296875,-0.1468658447265625,0.5964453316181436
60.083358,-0.0375976525247097,-0.12109375,0.9970702528953552,1.0051001785758666,-0.4558563232421875,0.2613067626953125,-0.0820159912109375,0.5318014991371336
60.092944,-0.0424804650247097,-0.12548828125,0.9897460341453552,0.998573537976174,-0.396728515625,-0.0457763671875,-0.0820159912109375,0.40769549141143724
60.102533,-0.0512695275247097,-0.14208984375,0.9707030653953552,0.9823861406379091,-0.396728515625,-0.1068115234375,-0.0820159912109375,0.41896162051358365
60.112122,-0.0415039025247097,-0.11279296875,0.9843749403953552,0.9916848546804464,0.274658203125,0.0152587890625,-0.1468658447265625,0.3118325440597155
60.121711,-0.0351562462747097,-0.13525390625,0.9965819716453552,1.0063325528951925,0.2155303955078125,-0.1697540283203125,-0.1468658447265625,0.311190227780331
60.1313,-0.0341796837747097,-0.12646484375,0.9848632216453552,0.9935377057954666,-0.213623046875,-0.0457763671875,-0.0820159912109375,0.23336003248919007
60.140916,-0.0341796837747097,-0.1279296875,0.9838866591453552,0.9927573791067963,0.091552734375,-0.1068115234375,0.2193450927734375,0.2605817998908727
60.150534,-0.0356445275247097,-0.126953125,0.9794921278953552,0.9883281119641879,-0.213623046875,-0.2899169921875,0.4673004150390625,0.5899630042730523
60.160152,-0.0322265587747097,-0.130859375,0.9838866591453552,0.9930738568505662,-0.152587890625,0.0762939453125,0.2193450927734375,0.2778778511873906
60.16977,-0.0454101525247097,-0.13623046875,0.9833983778953552,0.9938275465166871,-0.3337860107421875,-0.0438690185546875,-0.0820159912109375,0.34650283486639444
60.179388,-0.0410156212747097,-0.12548828125,0.9843749403953552,0.9931886090758334,-0.1277923583984375,0.5779266357421875,0.1926422119140625,0.6224476724805551
60.188977,-0.0351562462747097,-0.1279296875,0.9707030653953552,0.9797277212388731,-0.2498626708984375,0.0286102294921875,0.0705718994140625,0.2612092887456437
60.198564,-0.0273437462747097,-0.1328125,0.9887694716453552,0.9980240020532676,-0.06866455078125,-0.034332275390625,-0.0514984130859375,0.09244248059122188
60.208151,-0.0297851525247097,-0.1337890625,0.9755858778953552,0.9851672313391265,0.05340576171875,-0.034332275390625,-0.1125335693359375,0.1292079128604122
60.217738,-0.024414055049419403,-0.11962890625,0.9726561903953552,0.9802893379043418,0.2384185791015625,0.2117156982421875,-0.1735687255859375,0.36303313656539876
60.227325,-0.0356445275247097,-0.11474609375,0.9843749403953552,0.9916810080120032,0.0553131103515625,-0.0934600830078125,-0.3566741943359375,0.3728415322865486
60.23693,-0.0356445275247097,-0.12158203125,0.9897460341453552,0.9978225968436446,0.23651123046875,-0.156402587890625,-0.6618499755859375,0.7200310561495475
60.246532,-0.0371093712747097,-0.11376953125,0.9785155653953552,0.9858059258283248,-0.0667572021484375,-0.1544952392578125,-0.6618499755859375,0.6829133862907668
60.256134,-0.0346679650247097,-0.1279296875,0.9838866591453552,0.9927743100962124,0.2994537353515625,-0.1544952392578125,-0.7839202880859375,0.8532715491811922
60.265736,-0.0395507775247097,-0.1328125,0.9790038466453552,0.9887628410824616,-0.3108978271484375,-0.2765655517578125,-0.8449554443359375,0.9418575615546464
60.275338,-0.0380859337747097,-0.12353515625,0.9741210341453552,0.9826613161947608,-0.25177001953125,-0.156402587890625,-0.7228851318359375,0.7812892076965555
60.284941,-0.0410156212747097,-0.126953125,0.9799804091453552,0.9890202118483291,-0.3108978271484375,-0.5817413330078125,-0.7839202880859375,1.0245054687643524
60.294545,-0.0390624962747097,-0.12109375,0.9785155653953552,0.9867534072022583,-0.1888275146484375,-0.2155303955078125,-0.4177093505859375,0.5065474146049761
60.304149,-0.0400390587747097,-0.123046875,0.9843749403953552,0.9928432318111402,-0.12969970703125,-0.278472900390625,-0.4787445068359375,0.5688281577783787
60.313753,-0.0351562462747097,-0.13427734375,0.9799804091453552,0.9897615717966533,0.2384185791015625,-0.5817413330078125,-0.4177093505859375,0.7548162021031611
60.323357,-0.0380859337747097,-0.12255859375,0.9892577528953552,0.9975480183515162,0.2994537353515625,-0.7038116455078125,0.1316070556640625,0.7761081039835765
60.331366,-0.0410156212747097,-0.11962890625,0.9692382216453552,0.9774538795755903,0.4825592041015625,-0.2765655517578125,0.0705718994140625,0.560653442751532
60.339375,-0.0361328087747097,-0.12744140625,0.9692382216453552,0.9782482416008618,0.0553131103515625,-0.0934600830078125,-0.1125335693359375,0.15639095728358973
60.347384,-0.0361328087747097,-0.12548828125,0.9873046278953552,0.9959032668209371,0.1773834228515625,-0.1544952392578125,0.0095367431640625,0.23542431294588553
60.355393,-0.0341796837747097,-0.12109375,0.9824218153953552,0.9904466519892462,-0.0057220458984375,-0.3986358642578125,0.2536773681640625,0.4725415338364261
60.364983,-0.0341796837747097,-0.1181640625,0.9877929091453552,0.9954224368615,-0.43487548828125,-0.156402587890625,0.2536773681640625,0.5271913001230062
60.374573,-0.03759765625,-0.11962890625,0.9819335341453552,0.989908139397415,-0.4940032958984375,-0.1544952392578125,0.2536773681640625,0.5764201960640286
60.384163,-0.0410156212747097,-0.12109375,0.9848632216453552,0.9931271534034708,-0.5550384521484375,0.0896453857421875,0.3757476806640625,0.6762324290305969
60.393753,-0.0273437462747097,-0.1259765625,0.9868163466453552,0.99520062136543,-0.3719329833984375,-0.1544952392578125,0.0095367431640625,0.4028571366665464
60.403343,-0.0400390587747097,-0.119140625,0.9853515028953552,0.9933353909989769,-0.7991790771484375,0.0286102294921875,0.0095367431640625,0.7997478928097286
60.411347,-0.0434570237994194,-0.1279296875,0.9882811903953552,0.9974739240454416,0.1163482666015625,-0.1544952392578125,0.0095367431640625,0.1936405111661666
60.419351,-0.0410156212747097,-0.13037109375,0.9912108778953552,1.0005887805348421,0.2994537353515625,-0.2155303955078125,-0.0514984130859375,0.3725291633605718
60.427355,-0.0385742112994194,-0.1157226487994194,0.9814452528953552,0.9889967065937852,0.3604888916015625,-0.0934600830078125,0.0095367431640625,0.3725291633605718
60.435359,-0.0361328087747097,-0.130859375,0.9702147841453552,0.9796665163562336,0.2994537353515625,-0.3376007080078125,-0.1125335693359375,0.4650920144346344
60.446115,-0.0322265587747097,-0.130859375,0.9716796278953552,0.9809811549579872,-0.06866455078125,-0.339508056640625,0.1316070556640625,0.37054143919195914
60.456871,-0.0327148400247097,-0.11669921875,0.9760741591453552,0.9835698920595399,-0.0057220458984375,0.2727508544921875,0.0705718994140625,0.28179099244367417
60.467627,-0.033203125,-0.11474609375,0.9794921278953552,0.986749178945501,-0.25177001953125,-0.156402587890625,-0.2346038818359375,0.3780064729685739
60.478198,-0.0361328087747097,-0.12548828125,0.9833983778953552,0.9920308756526909,-0.3719329833984375,-0.0934600830078125,0.3757476806640625,0.5368940778029796
60.488769,-0.0356445275247097,-0.12353515625,0.9848632216453552,0.9932205356927735,-0.25177001953125,-0.034332275390625,0.1926422119140625,0.31886967507024916
60.49934,-0.0366210900247097,-0.125,0.9853515028953552,0.9939233816007818,-0.4940032958984375,0.0286102294921875,0.2536773681640625,0.5560665506113096
60.509985,-0.0341796837747097,-0.1171875,0.9731444716453552,0.9807707803728182,0.0553131103515625,-0.0934600830078125,0.6809234619140625,0.6895296137785694
60.520631,-0.0351562462747097,-0.12939453125,0.9809569716453552,0.9900785254661175,0.05340576171875,-0.156402587890625,0.4978179931640625,0.5245347454664363
60.531277,-0.0400390587747097,-0.1328125,0.9721679091453552,0.982014628178148,0.1773834228515625,-0.2765655517578125,0.1316070556640625,0.3539403907753439
60.539305,-0.0439453087747097,-0.11767578125,0.9848632216453552,0.9928415508054498,-0.0057220458984375,-0.1544952392578125,0.4978179931640625,0.5212717861926609
60.547334,-0.0273437462747097,-0.13232421875,0.9814452528953552,0.9907028635059865,0.23651123046875,-0.034332275390625,0.2536773681640625,0.34852327668318683
60.555363,-0.02880859375,-0.11376953125,0.9741210341453552,0.9811652411694544,0.1773834228515625,-0.1544952392578125,0.1926422119140625,0.3040471665169855
60.563392,-0.0356445275247097,-0.12744140625,0.9814452528953552,0.990326526353942,-0.25177001953125,-0.156402587890625,0.3147125244140625,0.4323122543448457
60.574086,-0.0415039025247097,-0.1201171875,0.9921874403953552,1.0002932717638249,-0.3719329833984375,-0.2155303955078125,0.3147125244140625,0.532758358498943
60.58478,-0.02734375,-0.125,0.9741210341453552,0.9824889158807232,-0.43487548828125,-0.339508056640625,0.4978179931640625,0.7431050835175628
60.595474,-0.0336913987994194,-0.13525390625,0.9926757216453552,1.0024139952400266,-0.0667572021484375,-0.3986358642578125,0.3757476806640625,0.5518635663238539
60.603428,-0.029296867549419403,-0.115234375,0.9736327528953552,0.9808659465698851,0.05340576171875,-0.461578369140625,0.1316070556640625,0.48293600336260145
60.611383000000004,-0.0307617150247097,-0.123046875,0.9731444716453552,0.9813750451547281,-0.12969970703125,-0.156402587890625,0.3147125244140625,0.3746034657153463
60.619338,-0.0449218675494194,-0.12451171875,0.9770507216453552,0.9859762953326596,0.179290771484375,0.148773193359375,0.1316070556640625,0.2675800084131324
60.627293,-0.0229492150247097,-0.12744140625,0.9672850966453552,0.9759141543647382,-0.3108978271484375,-0.0934600830078125,0.3757476806640625,0.4965667785563883
60.637978,-0.03271484375,-0.12451171875,0.9814452528953552,0.989852622130433,-0.1888275146484375,0.2117156982421875,0.1316070556640625,0.3127295705094843
60.648663,-0.0317382775247097,-0.13037109375,0.9873046278953552,0.9963806344010268,-0.0057220458984375,0.0286102294921875,-0.1735687255859375,0.17600394751932677
60.659348,-0.013183590024709702,-0.1162109375,0.9799804091453552,0.9869348465573937,-0.0057220458984375,-0.0934600830078125,0.0705718994140625,0.1172515326637549
60.667122,-0.0312499962747097,-0.1259765625,0.9746093153953552,0.9832141039579776,-0.1277923583984375,-0.0934600830078125,-0.0514984130859375,0.16648651756593313
60.674896,-0.0366210900247097,-0.1298828125,0.9716796278953552,0.9810055802513888,-0.12969970703125,0.026702880859375,0.1926422119140625,0.2337650094888553
60.68267,-0.033203125,-0.119140625,0.9833983778953552,0.9911454513250677,-0.1888275146484375,0.0896453857421875,0.0095367431640625,0.2092440559331346
60.690444,-0.0234374962747097,-0.11669921875,0.9775390028953552,0.984759120836224,-0.0667572021484375,0.3337860107421875,0.1926422119140625,0.39112740484017944
60.698218,-0.02880859375,-0.1298828125,0.9765624403953552,0.9855829138371335,-0.61798095703125,0.331878662109375,0.1316070556640625,0.7136976437661343
60.708525,-0.0317382775247097,-0.1240234375,0.9858397841453552,0.9941173025922607,0.0553131103515625,0.3948211669921875,0.3147125244140625,0.5079244698819981
60.718832,-0.0356445275247097,-0.11376953125,0.9760741591453552,0.9833284307567929,-0.308990478515625,0.637054443359375,0.5588531494140625,0.9020145909170508
60.729139,-0.0361328087747097,-0.1298828125,0.9819335341453552,0.9911450904544942,-0.61798095703125,0.637054443359375,0.4978179931640625,1.0176254622281606
60.739446,-0.0341796837747097,-0.13720703125,0.9765624403953552,0.9867462795462212,-0.4329681396484375,0.3948211669921875,0.4367828369140625,0.7308381561456669
60.750064,-0.0366210900247097,-0.12890625,0.9755858778953552,0.9847465311807457,-0.3108978271484375,0.3948211669921875,0.6198883056640625,0.7979992007074661
60.760685,-0.02392578125,-0.13525390625,0.9882811903953552,0.9977804234667901,-0.1888275146484375,0.3948211669921875,0.4367828369140625,0.6183193598910479
60.771306,-0.0380859375,-0.12890625,0.9790038466453552,0.9881881863646815,-0.2498626708984375,0.3948211669921875,0.4978179931640625,0.6827428963610447
60.779363000000004,-0.0205078087747097,-0.1328125,0.9868163466453552,0.9959248126156292,0.05340576171875,0.453948974609375,0.1926422119140625,0.4960170044915854
60.78742,-0.0351562462747097,-0.13525390625,0.9858397841453552,0.995695566331282,0.41961669921875,0.331878662109375,0.1926422119140625,0.5686234627922859
60.795477,-0.0361328087747097,-0.1298828125,0.9853515028953552,0.9945314017722091,0.23651123046875,0.637054443359375,0.3757476806640625,0.7765064362039684
60.803534,-0.0390624962747097,-0.123046875,0.9790038466453552,0.9874790852513685,0.2994537353515625,0.0286102294921875,0.4367828369140625,0.530349254237522
60.814198,-0.0273437462747097,-0.12646484375,0.9750975966453552,0.9836444277016952,0.1773834228515625,0.0896453857421875,0.1926422119140625,0.2767890816100671
60.824862,-0.0332031212747097,-0.12353515625,0.9741210341453552,0.9824841837182476,0.4215240478515625,0.2727508544921875,0.3147125244140625,0.5925533938527875
60.835526,-0.0371093712747097,-0.12109375,0.9760741591453552,0.9842568597052189,0.2994537353515625,0.0286102294921875,-0.1735687255859375,0.3472998522158133
60.846173,-0.0434570237994194,-0.13037109375,0.9873046278953552,0.9968227341241072,-0.12969970703125,0.274658203125,0.4367828369140625,0.5320135234846407
60.85682,-0.0273437462747097,-0.13818359375,0.9887694716453552,0.9987529494824211,-0.3719329833984375,0.1506805419921875,0.1926422119140625,0.44514019329405013
60.867467,-0.0395507737994194,-0.1103515625,0.9824218153953552,0.9893909007157028,-0.06866455078125,0.148773193359375,0.0705718994140625,0.17840593202930613
60.875438,-0.0405273400247097,-0.12841796875,0.9853515028953552,0.9945105450650031,-0.0057220458984375,-0.2155303955078125,0.0705718994140625,0.22686226258222514
60.88341,-0.0400390587747097,-0.1162109375,0.9848632216453552,0.992503739827645,-0.12969970703125,0.026702880859375,0.1926422119140625,0.2337650094888553
60.891382,-0.0351562462747097,-0.12939453125,0.9824218153953552,0.9915298935151883,-0.1888275146484375,-0.2155303955078125,0.0095367431640625,0.28670565244905316
60.899354,-0.0405273400247097,-0.1220703125,0.9780272841453552,0.9864486783487854,-0.1888275146484375,-0.0934600830078125,0.1926422119140625,0.28548491941830423
60.910061,-0.02880859375,-0.1240234375,0.9829100966453552,0.9911225989808479,-0.2498626708984375,-0.2155303955078125,0.0095367431640625,0.33011460913814805
60.920768,-0.0385742150247097,-0.1220703125,0.9799804091453552,0.9883070037024517,-0.1888275146484375,-0.3376007080078125,0.4367828369140625,0.5834460685945005
60.931475,-0.0366210900247097,-0.1337890625,0.9755858778953552,0.985397596215902,-0.4940032958984375,-0.5817413330078125,0.1926422119140625,0.7871297584892648
60.941054,-0.0415039025247097,-0.12890625,0.9721679091453552,0.9815548068171714,-0.3719329833984375,-0.3986358642578125,0.4978179931640625,0.7382868349971643
60.950633,-0.0234375,-0.12890625,0.9863280653953552,0.9949920553863014,-0.37384033203125,-0.522613525390625,-0.0514984130859375,0.6446189396262124
60.960212,-0.0371093712747097,-0.12109375,0.9760741591453552,0.9842568597052189,-0.5550384521484375,-0.5817413330078125,0.0705718994140625,0.8071375687452224
60.969791,-0.0302734337747097,-0.12646484375,0.9741210341453552,0.9827622432010908,0.0553131103515625,-0.5817413330078125,0.5588531494140625,0.8085786055273088
60.97937,-0.0356445275247097,-0.126953125,0.9731444716453552,0.9820375710652026,0.05340576171875,-0.522613525390625,0.3147125244140625,0.6123896188939271
60.987354,-0.029296867549419403,-0.1240234375,0.9799804091453552,0.9882316134420221,0.4215240478515625,-0.6427764892578125,-0.0514984130859375,0.7703870615542131
60.995338,-0.0307617150247097,-0.13134765625,0.9897460341453552,0.9988972429735145,0.2384185791015625,-0.4596710205078125,0.2536773681640625,0.5766221232957917
61.003322,-0.03271484375,-0.1298828125,0.9765624403953552,0.9857048270021959,0.484466552734375,-0.522613525390625,0.3757476806640625,0.8056171902113116
61.011306,-0.0332031212747097,-0.12646484375,0.9750975966453552,0.9838247440223502,0.35858154296875,-0.278472900390625,0.6198883056640625,0.768368004740488
61.022048,-0.0312499962747097,-0.1259765625,0.9790038466453552,0.9875703460072544,0.35858154296875,-0.278472900390625,0.3147125244140625,0.5524236166502011
61.032791,-0.0297851525247097,-0.1171875,0.9770507216453552,0.9845040264696125,-0.0057220458984375,-0.2155303955078125,0.5588531494140625,0.5990016158634586
61.043534,-0.0385742112994194,-0.12353515625,0.9863280653953552,0.9947823667484402,0.35858154296875,-0.278472900390625,0.4978179931640625,0.6737585869788311
61.054143,-0.0224609337747097,-0.1259765625,0.9785155653953552,0.9868471510656247,0.2994537353515625,-0.0324249267578125,0.3757476806640625,0.48157059193401275
61.064752,-0.013183590024709702,-0.11572265625,0.9790038466453552,0.9859077400862098,0.2384185791015625,0.2727508544921875,0.4367828369140625,0.5674642668130946
61.075361,-0.0405273362994194,-0.1201171875,0.9819335341453552,0.9900828597645875,0.05340576171875,0.514984130859375,0.1316070556640625,0.5342108642870429
61.086004,-0.0351562462747097,-0.12353515625,0.9687499403953552,0.977227375536443,-0.3108978271484375,0.0896453857421875,-0.1125335693359375,0.34257489449457845
61.096646,-0.0361328087747097,-0.11865234375,0.9775390028953552,0.985376304123944,-0.0057220458984375,0.1506805419921875,-0.2346038818359375,0.27888411377633854
61.107288,-0.0385742112994194,-0.12939453125,0.9711913466453552,0.9805322770279405,-0.4940032958984375,0.0286102294921875,-0.4787445068359375,0.6885158708524444
61.115317,-0.0332031212747097,-0.11669921875,0.9819335341453552,0.9894011423070174,-0.4329681396484375,-0.2765655517578125,-0.1125335693359375,0.5259407938135418
61.123345,-0.0292968712747097,-0.12744140625,0.9843749403953552,0.9930224780798387,-0.74005126953125,-0.339508056640625,-0.4787445068359375,0.9445305208855316
61.131373,-0.02880859375,-0.12841796875,0.9721679091453552,0.9810359592511276,-1.28936767578125,-0.095367431640625,-0.1735687255859375,1.304488425732018
61.139401,-0.0229492150247097,-0.1337890625,0.9829100966453552,0.9922391031411032,-0.9212493896484375,-0.0934600830078125,0.1316070556640625,0.9352837228050157
61.15016,-0.0478515625,-0.125,0.9731444716453552,0.9823059272587176,-0.8602142333984375,-0.0934600830078125,-0.0514984130859375,0.8668075916877163
61.160919,-0.0395507737994194,-0.119140625,0.9829100966453552,0.9908940459609721,-0.86212158203125,-0.034332275390625,0.0095367431640625,0.8628576225587512
61.171678,-0.0517578087747097,-0.12744140625,0.9838866591453552,0.9934551529084468,-0.3719329833984375,0.1506805419921875,0.2536773681640625,0.4747535960826069
61.182238,-0.0244140587747097,-0.126953125,0.9819335341453552,0.990407293840422,-0.25177001953125,0.331878662109375,0.4367828369140625,0.6035816727841985
61.1928,-0.0341796800494194,-0.12451171875,0.9892577528953552,0.9976483951262225,-0.3719329833984375,0.3337860107421875,0.4367828369140625,0.6637216974979367
61.203362,-0.0283203125,-0.11962890625,0.9746093153953552,0.9823321398417503,-0.0057220458984375,0.0896453857421875,0.4978179931640625,0.5058574812257144
61.211367,-0.0405273400247097,-0.12255859375,0.9711913466453552,0.9797324665388376,-0.12969970703125,0.453948974609375,0.3757476806640625,0.6033887677752358
61.219372,-0.0229492150247097,-0.123046875,0.9829100966453552,0.9908478480598812,-0.0667572021484375,0.2727508544921875,0.1926422119140625,0.34052984373773815
61.227377,-0.0283203087747097,-0.123046875,0.9760741591453552,0.9842069586665565,0.1773834228515625,0.2117156982421875,0.1316070556640625,0.3059556057425274
61.235382,-0.0317382775247097,-0.11767578125,0.9946288466453552,1.0020685856427707,0.1773834228515625,0.0286102294921875,0.2536773681640625,0.31086272059025855
61.243448,-0.0346679650247097,-0.11767578125,0.9829100966453552,0.9905360747489885,0.35858154296875,0.026702880859375,-0.0514984130859375,0.3632435179798937
61.251514,-0.029296867549419403,-0.13427734375,0.9755858778953552,0.9852190196304651,0.4825592041015625,0.1506805419921875,0.1316070556640625,0.5223872397931983
61.25958,-0.0297851525247097,-0.111328125,0.9838866591453552,0.9906129742594452,-0.12969970703125,0.026702880859375,-0.0514984130859375,0.1420814709965797
61.267646,-0.0454101525247097,-0.130859375,0.9814452528953552,0.9911715504434819,0.1163482666015625,0.1506805419921875,-0.2346038818359375,0.3021266725212095
61.277197,-0.0356445237994194,-0.1201171875,0.9843749403953552,0.9923168315050171,-0.0057220458984375,0.0896453857421875,-0.2346038818359375,0.25121309354135973
61.286748,-0.0346679650247097,-0.12158203125,0.9804686903953552,0.9885863194316485,-0.06866455078125,-0.034332275390625,-0.5397796630859375,0.5452115280775497
61.296299,-0.0419921837747097,-0.1328125,0.9946288466453552,1.0043351264560494,-0.3719329833984375,-0.1544952392578125,-0.2956390380859375,0.49960520807270364
61.30585,-0.0478515625,-0.119140625,0.9868163466453552,0.9951335400666425,-0.4329681396484375,-0.0934600830078125,-0.5397796630859375,0.6982537373674589
61.315401,-0.0444335900247097,-0.12060546875,0.9853515028953552,0.9936989520337769,-0.5550384521484375,-0.1544952392578125,-0.3566741943359375,0.6776082520319925
61.32341,-0.0375976525247097,-0.12646484375,0.9863280653953552,0.99511305526891,-0.308990478515625,-0.522613525390625,-0.0514984130859375,0.6093046030393191
61.331419,-0.0307617150247097,-0.13916015625,0.9819335341453552,0.9922224033340374,-0.3108978271484375,-0.5817413330078125,0.1926422119140625,0.6871618872336189
61.339428,-0.0312499962747097,-0.1376953125,0.9921874403953552,1.0021838545047155,-0.5550384521484375,-0.3986358642578125,0.1926422119140625,0.7099924347815609
61.347437,-0.0385742150247097,-0.12646484375,0.9814452528953552,0.9903111183866978,-0.003814697265625,-0.522613525390625,0.3147125244140625,0.6100683747413217
61.355446,-0.0292968712747097,-0.12109375,0.9824218153953552,0.9902901727878828,-0.12969970703125,-0.278472900390625,0.2536773681640625,0.39839851577861624
61.363455,-0.0390624925494194,-0.11474609375,0.9833983778953552,0.9908405088621847,0.2384185791015625,-0.0934600830078125,0.1316070556640625,0.287921209842552
61.373036,-0.0253906212747097,-0.11767578125,0.9775390028953552,0.9849237408668545,-0.12969970703125,-0.034332275390625,0.2536773681640625,0.2869719955956245
61.382617,-0.0283203087747097,-0.12744140625,0.9750975966453552,0.9837980864484441,0.23651123046875,-0.034332275390625,0.3757476806640625,0.4453117860508098
61.392198,-0.0415039025247097,-0.11962890625,0.9829100966453552,0.991032747805406,0.179290771484375,-0.339508056640625,-0.2346038818359375,0.44994431059392975
61.401779,-0.0351562462747097,-0.13037109375,0.9819335341453552,0.991174076142474,0.0553131103515625,-0.2155303955078125,0.1926422119140625,0.29431940706596427
61.41136,-0.02880859375,-0.119140625,0.9755858778953552,0.9832559324754131,0.2994537353515625,-0.0324249267578125,0.1316070556640625,0.32870097747316906
61.422039,-0.0332031212747097,-0.12548828125,0.9848632216453552,0.9933807534591811,0.35858154296875,-0.827789306640625,0.0705718994140625,0.9048736111376686
61.432718,-0.033203125,-0.1240234375,0.9770507216453552,0.9854503403149198,0.1163482666015625,-0.5817413330078125,0.3147125244140625,0.6715682174537199
61.443397,-0.0229492150247097,-0.1357421875,0.9775390028953552,0.9871854486970424,-0.0057220458984375,-0.5817413330078125,0.3147125244140625,0.6614375959695988
61.454131,-0.0239257775247097,-0.13134765625,0.9902343153953552,0.9991939996912701,0.05340576171875,-0.034332275390625,0.2536773681640625,0.2615016015952922
61.464866,-0.0317382775247097,-0.12109375,0.9809569716453552,0.988912329162158,0.35858154296875,-0.339508056640625,0.1926422119140625,0.5300542097681009
61.475601,-0.0312499962747097,-0.12451171875,0.9936522841453552,1.0019104711302953,0.2384185791015625,0.0896453857421875,0.2536773681640625,0.3594884158972566
61.483635,-0.0302734337747097,-0.1416015625,0.9829100966453552,0.9935188681561788,0.0553131103515625,0.2117156982421875,0.3757476806640625,0.4348211087141049
61.491669,-0.0214843712747097,-0.134765625,0.9726561903953552,0.982182985296078,0.1773834228515625,0.0896453857421875,0.3757476806640625,0.4250735153027346
61.499703,-0.0332031212747097,-0.12841796875,0.9765624403953552,0.9855292090806801,-0.0057220458984375,0.0896453857421875,0.3147125244140625,0.3272812399408211
61.507737,-0.0356445275247097,-0.1357421875,0.9697265028953552,0.9798295587638701,0.2994537353515625,0.2727508544921875,0.2536773681640625,0.4779307223446379
61.518302,-0.0322265587747097,-0.1240234375,0.9873046278953552,0.9955856529718385,0.2384185791015625,0.7610321044921875,0.0705718994140625,0.8006208065717031
61.528867,-0.0307617150247097,-0.1376953125,0.9692382216453552,0.9794534253827412,-0.3719329833984375,0.8831024169921875,0.0095367431640625,0.9582770854545585
61.539432,-0.0175781212747097,-0.11865234375,0.9770507216453552,0.9843858398476819,0.1163482666015625,0.5779266357421875,0.1926422119140625,0.6201992722122576
61.547573,-0.0346679612994194,-0.13427734375,0.9907225966453552,1.000381695198852,-0.12969970703125,0.698089599609375,-0.3566741943359375,0.7945864232366167
61.555713,-0.0444335900247097,-0.1259765625,0.9750975966453552,0.9842051418303749,0.1163482666015625,0.6999969482421875,-0.2346038818359375,0.7473764968622271
61.563853,-0.0263671837747097,-0.12548828125,0.9702147841453552,0.9786517585359497,0.05340576171875,0.820159912109375,-0.7839202880859375,1.1358016881871398
61.571993,-0.0390624962747097,-0.1318359375,0.9760741591453552,0.9857115993955979,0.1163482666015625,0.5168914794921875,-0.6008148193359375,0.8010569067466343
61.580332,-0.0375976525247097,-0.12353515625,0.9863280653953552,0.9947449778167391,0.1163482666015625,0.2117156982421875,-0.6618499755859375,0.7045607469952263
61.588671,-0.0390624925494194,-0.13037109375,0.9799804091453552,0.989385719888074,0.23651123046875,0.331878662109375,-0.5397796630859375,0.6763453948852753
61.59701,-0.0424804650247097,-0.123046875,0.9892577528953552,0.9977855606389325,0.2384185791015625,0.2117156982421875,-0.8449554443359375,0.9031149753248069
61.616106,-0.0312499962747097,-0.13037109375,0.9863280653953552,0.9953975270912043,0.1163482666015625,0.0286102294921875,-0.6008148193359375,0.6126450126349345
61.626864,-0.0351562425494194,-0.115234375,0.9887694716453552,0.9960823212112888,0.35858154296875,0.209808349609375,-0.5397796630859375,0.6811478189092492
61.637622,-0.0395507737994194,-0.12939453125,0.9692382216453552,0.978636775685336,0.11444091796875,-0.034332275390625,-0.7228851318359375,0.732692529420417
61.645051,-0.0385742112994194,-0.1181640625,0.9848632216453552,0.9926763222690185,0.23651123046875,-0.034332275390625,-0.2956390380859375,0.38015616279592035
61.65248,-0.0356445275247097,-0.12744140625,0.9663085341453552,0.9753276513723901,0.2994537353515625,-0.3376007080078125,-0.5397796630859375,0.7035686621393452
61.659909,-0.0385742150247097,-0.126953125,0.9931640028953552,1.001987925405872,0.05340576171875,-0.461578369140625,-0.0514984130859375,0.46750278372823495
61.667338,-0.0463867150247097,-0.12646484375,0.9833983778953552,0.9925812076010262,-0.0667572021484375,-0.4596710205078125,-0.3566741943359375,0.5856367919099441
61.678029,-0.0419921837747097,-0.1171875,0.9853515028953552,0.9931836879009613,-0.06866455078125,-0.339508056640625,-0.0514984130859375,0.35018941675649556
61.68872,-0.0424804650247097,-0.12548828125,0.9746093153953552,0.9835726797218382,0.1773834228515625,-0.5817413330078125,0.3757476806640625,0.7148945214202338
61.699411,-0.0463867150247097,-0.1171875,0.9760741591453552,0.9841775254690314,-0.12969970703125,-0.644683837890625,0.3147125244140625,0.7290289691531123
61.710199,-0.0312499962747097,-0.1181640625,0.9897460341453552,0.9972645185907959,-0.12969970703125,-0.701904296875,0.3757476806640625,0.8066461278032657
61.720988,-0.0268554650247097,-0.12353515625,0.9921874403953552,1.0002090120118354,-0.12969970703125,-0.644683837890625,0.3757476806640625,0.7573807393681199
61.731777,-0.0366210900247097,-0.1142578125,0.9853515028953552,0.992629606756729,0.05340576171875,-0.644683837890625,0.1926422119140625,0.674966997736399
61.739686,-0.04248046875,-0.12939453125,0.9780272841453552,0.9874638745166155,0.1163482666015625,-0.2155303955078125,0.2536773681640625,0.3526222875083021
61.747593,-0.0366210900247097,-0.11376953125,0.9731444716453552,0.9804564106421867,0.1163482666015625,-0.6427764892578125,0.0705718994140625,0.6570227753059216
61.7555,-0.0356445275247097,-0.12939453125,0.9819335341453552,0.9910635411208781,-0.0667572021484375,-0.5817413330078125,0.1316070556640625,0.6001665766009947
61.763407,-0.0346679650247097,-0.11572265625,0.9746093153953552,0.9820676751751445,-0.25177001953125,-0.339508056640625,0.0095367431640625,0.4227822284922075
61.774256,-0.02880859375,-0.123046875,0.9726561903953552,0.9808315519168027,-0.0057220458984375,-0.3986358642578125,-0.1735687255859375,0.4348211087141049
61.785105,-0.020996086299419403,-0.1103515625,0.9780272841453552,0.9844570440190996,-0.0667572021484375,-0.3986358642578125,-0.1125335693359375,0.41956034195184216
61.795954,-0.0312499962747097,-0.11669921875,0.9892577528953552,0.9966073306912795,0.1163482666015625,-0.3986358642578125,-0.2346038818359375,0.47695539915829854
61.806456,-0.0395507775247097,-0.12060546875,0.9711913466453552,0.9794501390545793,-0.0057220458984375,-0.3986358642578125,-0.1735687255859375,0.4348211087141049
61.816959,-0.0366210900247097,-0.10888671875,0.9746093153953552,0.9813565811722783,0.0553131103515625,-0.3986358642578125,0.0095367431640625,0.40256805874226353
61.827462,-0.0253906212747097,-0.12060546875,0.9692382216453552,0.9770430354080488,0.179290771484375,-0.339508056640625,-0.0514984130859375,0.38737964300376715
61.835443,-0.0395507775247097,-0.11669921875,0.9941405653953552,1.0017476905010891,-0.06866455078125,-0.339508056640625,0.1316070556640625,0.37054143919195914
61.843424,-0.0434570237994194,-0.1210937425494194,0.9736327528953552,0.9820961994187312,0.179290771484375,-0.339508056640625,0.3147125244140625,0.49644221646273
61.851405,-0.0341796837747097,-0.12744140625,0.9804686903953552,0.9893070381107675,0.35858154296875,-0.396728515625,0.3147125244140625,0.6204983570412876
61.859386,-0.0249023400247097,-0.13818359375,0.9882811903953552,0.9982056618801717,-0.1888275146484375,-0.3986358642578125,0.3757476806640625,0.5794417158656263
61.867379,-0.0498046837747097,-0.12353515625,0.9721679091453552,0.9812501642943365,-0.1888275146484375,-0.4596710205078125,0.4367828369140625,0.6616135760439746
61.875372,-0.0273437462747097,-0.12255859375,0.9951171278953552,1.0030086677556749,-0.3108978271484375,-0.3986358642578125,0.0705718994140625,0.5104394226400439
61.883365,-0.030273430049419403,-0.125,0.9946288466453552,1.0029097781685183,0.0553131103515625,0.0896453857421875,0.1316070556640625,0.16857120887682264
61.891358,-0.0244140587747097,-0.1318359375,0.9833983778953552,0.9924964132577885,0.6046295166015625,-0.0934600830078125,0.3147125244140625,0.6880084392540096
61.902184,-0.0214843712747097,-0.12548828125,0.9829100966453552,0.9911211555745999,0.2994537353515625,0.0896453857421875,0.4367828369140625,0.5371108651140524
61.91301,-0.0366210900247097,-0.123046875,0.9775390028953552,0.985933131537585,-0.0057220458984375,0.1506805419921875,0.6809234619140625,0.6974196215545952
61.923836,-0.02880859375,-0.13525390625,0.9819335341453552,0.9916234263615014,0.1773834228515625,0.0286102294921875,0.3757476806640625,0.4164969909357739
61.934384,-0.0312499962747097,-0.1279296875,0.9887694716453552,0.9975006943701101,-0.06866455078125,0.148773193359375,0.3147125244140625,0.35481298823381413
61.944932,-0.0297851525247097,-0.1279296875,0.9775390028953552,0.9863243190940864,0.11444091796875,-0.034332275390625,0.3147125244140625,0.33662947265814347
61.95548,-0.02880859375,-0.1181640625,0.9814452528953552,0.9889527112916897,-0.1888275146484375,-0.0934600830078125,0.0095367431640625,0.21090653587385663
61.963464,-0.0263671837747097,-0.12353515625,0.9731444716453552,0.9813084764251447,-0.25177001953125,-0.034332275390625,0.0705718994140625,0.2637181086978524
61.971448,-0.0336913987994194,-0.12353515625,0.9863280653953552,0.9946049958497682,-0.1888275146484375,0.0286102294921875,-0.1125335693359375,0.22167133271442152
61.979432,-0.0371093712747097,-0.126953125,0.9887694716453552,0.9975766985257348,-0.0057220458984375,0.2117156982421875,0.1926422119140625,0.2862993197731762
61.987416,-0.0322265587747097,-0.126953125,0.9887694716453552,0.9974069957121618,-0.12969970703125,0.026702880859375,-0.1125335693359375,0.17377819793538057
61.996238,-0.0419921837747097,-0.11767578125,0.9868163466453552,0.9946946440981035,0.2384185791015625,0.0896453857421875,0.1316070556640625,0.28670565244905316
62.00506,-0.0307617150247097,-0.126953125,0.9819335341453552,0.990584092612896,0.41961669921875,0.331878662109375,-0.0514984130859375,0.5374697267540912
62.013882,-0.02734375,-0.125,0.9780272841453552,0.9863620274507743,-0.0057220458984375,0.3948211669921875,-0.1735687255859375,0.43132655635360906
62.022704,-0.0380859337747097,-0.12841796875,0.9760741591453552,0.9852220446176992,0.2994537353515625,0.2117156982421875,0.1926422119140625,0.41425487119564836
62.032254,-0.0327148400247097,-0.13623046875,0.9819335341453552,0.9918782520314046,-0.0667572021484375,0.2117156982421875,-0.1125335693359375,0.24888524493900918
62.041804,-0.0434570237994194,-0.11962890625,0.9833983778953552,0.9916007048077822,-0.1888275146484375,0.0896453857421875,0.3147125244140625,0.3778043124373296
62.051354,-0.0463867150247097,-0.1318359375,0.9887694716453552,0.9985977717805715,0.2384185791015625,0.2117156982421875,0.1926422119140625,0.3725291633605718
62.059346,-0.024414055049419403,-0.119140625,0.9887694716453552,0.9962206596267624,-0.0057220458984375,0.3948211669921875,0.1926422119140625,0.4393489700972101
62.067338,-0.0346679650247097,-0.12158203125,0.9858397841453552,0.9939135466053328,-0.1888275146484375,0.3337860107421875,0.0095367431640625,0.3836142342584108
62.07533,-0.0488281212747097,-0.13134765625,0.9902343153953552,1.0001001907889497,-0.12969970703125,0.148773193359375,0.1926422119140625,0.27580155706137816
62.083322,-0.04296875,-0.12939453125,0.9838866591453552,0.9932885865840693,-0.1888275146484375,0.2727508544921875,0.2536773681640625,0.41761353669771006
62.094001,-0.0371093712747097,-0.13427734375,0.9799804091453552,0.989832871140203,0.179290771484375,0.148773193359375,-0.1125335693359375,0.2587323868967598
62.10468,-0.0332031212747097,-0.12841796875,0.9848632216453552,0.9937550942309313,0.1773834228515625,0.0286102294921875,-0.0514984130859375,0.18691043439172067
62.115359,-0.0209960900247097,-0.1142578125,0.9721679091453552,0.9790843309366474,0.0553131103515625,0.0896453857421875,0.3757476806640625,0.3902334620276073
62.126035,-0.0371093712747097,-0.1298828125,0.9785155653953552,0.9877952025295051,-0.0057220458984375,-0.2155303955078125,0.1316070556640625,0.2525995057350302
62.136712,-0.025390617549419403,-0.125,0.9765624403953552,0.9848572909058817,-0.5550384521484375,-0.1544952392578125,-0.0514984130859375,0.5784362962911577
62.147389,-0.0375976525247097,-0.13037109375,0.9829100966453552,0.9922310535597652,-0.3108978271484375,-0.2155303955078125,0.1316070556640625,0.4005386715586117
62.155378,-0.0361328087747097,-0.1201171875,0.9907225966453552,0.9986315547320619,-0.308990478515625,-0.339508056640625,0.0705718994140625,0.46445799522036146
62.163369,-0.02392578125,-0.14453125,0.9707030653953552,0.9816955568825422,0.1163482666015625,-0.3986358642578125,0.1316070556640625,0.43562356285481735
62.17136,-0.0371093712747097,-0.11669921875,0.9658202528953552,0.9735525532790269,0.1163482666015625,-0.1544952392578125,0.0095367431640625,0.1936405111661666
62.179351,-0.0332031212747097,-0.123046875,0.9897460341453552,0.9979179288980168,0.1773834228515625,-0.2155303955078125,-0.0514984130859375,0.28384910893053755
62.190034,-0.0253906212747097,-0.13037109375,0.9848632216453552,0.9937790856543295,0.2994537353515625,-0.1544952392578125,0.1926422119140625,0.3881395887827921
62.200717,-0.0263671837747097,-0.12646484375,0.9902343153953552,0.9986253474008303,0.2994537353515625,0.0896453857421875,0.1926422119140625,0.36717823548245854
62.2114,-0.0400390587747097,-0.12548828125,0.9804686903953552,0.9892771541909915,0.2384185791015625,0.0896453857421875,0.3147125244140625,0.40487490298701584
62.219402,-0.0395507775247097,-0.12060546875,0.9833983778953552,0.9915555015945563,0.35858154296875,-0.339508056640625,0.1926422119140625,0.5300542097681009
62.227407,-0.0327148400247097,-0.126953125,0.9790038466453552,0.987742825056963,0.2384185791015625,-0.2765655517578125,0.3757476806640625,0.5239448852735692
62.235412,-0.0351562425494194,-0.12451171875,0.9804686903953552,0.9889681402056669,-0.0057220458984375,-0.4596710205078125,0.6198883056640625,0.7717458781250599
62.243417,-0.0405273400247097,-0.13818359375,0.9824218153953552,0.9929198327336648,0.1163482666015625,-0.3376007080078125,0.3757476806640625,0.5183603734015427
62.254065,-0.0322265587747097,-0.1279296875,0.9824218153953552,0.9912402228516621,0.1163482666015625,-0.6427764892578125,0.4367828369140625,0.785797544477255
62.264713,-0.0390624962747097,-0.1171875,0.9858397841453552,0.9935486242631623,0.179290771484375,-0.339508056640625,0.2536773681640625,0.4601772575671265
62.275361,-0.0356445275247097,-0.11474609375,0.9838866591453552,0.9911963258696795,0.2994537353515625,-0.0324249267578125,0.2536773681640625,0.3937970576450495
62.286024,-0.0424804650247097,-0.12060546875,0.9873046278953552,0.9955504493820032,-0.0057220458984375,0.0896453857421875,-0.1735687255859375,0.19543576820954728
62.296688,-0.0332031212747097,-0.12646484375,0.9838866591453552,0.9925365293082685,-0.1888275146484375,0.1506805419921875,-0.4177093505859375,0.4825365867893241
62.307352,-0.0307617150247097,-0.119140625,0.9829100966453552,0.9905821670735011,0.0553131103515625,0.2117156982421875,-0.3566741943359375,0.41844899087479137
62.318026,-0.0327148400247097,-0.11865234375,0.9785155653953552,0.9862258114428978,-0.1888275146484375,-0.0324249267578125,-0.2346038818359375,0.30289633133474214
62.328699,-0.0361328087747097,-0.11767578125,0.9790038466453552,0.9867125726923468,-0.12969970703125,-0.034332275390625,-0.6008148193359375,0.6156128379681218
62.339372,-0.0366210900247097,-0.12353515625,0.9877929091453552,0.9961610665058908,-0.37384033203125,-0.034332275390625,-0.1735687255859375,0.41359569810173247
62.347419,-0.03759765625,-0.12451171875,0.9765624403953552,0.9851857448484037,-0.3719329833984375,-0.0934600830078125,-0.6618499755859375,0.7649276576504446
62.355466,-0.0488281175494194,-0.119140625,0.9790038466453552,0.9874346587674613,-0.5550384521484375,0.2727508544921875,-0.5397796630859375,0.8208671004923513
62.363513,-0.0336913987994194,-0.12548828125,0.9829100966453552,0.9914608803031626,-0.25177001953125,-0.034332275390625,-0.2956390380859375,0.38983238540254983
62.37156,-0.0253906212747097,-0.130859375,0.9775390028953552,0.9865857093307969,-0.37384033203125,-0.034332275390625,-0.1125335693359375,0.39191721474594504
62.380496,-0.0351562462747097,-0.11669921875,0.9702147841453552,0.9778401692931246,-0.3108978271484375,-0.0934600830078125,0.1926422119140625,0.37749605011521575
62.389432,-0.0263671837747097,-0.11474609375,0.9868163466453552,0.9938150715387541,-0.1888275146484375,-0.0324249267578125,-0.0514984130859375,0.19839176574123546
62.398368,-0.0390624925494194,-0.12451171875,0.9716796278953552,0.9804031546752124,-0.4329681396484375,0.2117156982421875,-0.1125335693359375,0.49492297487618425
62.407304,-0.0283203125,-0.1337890625,0.9863280653953552,0.9957633282719698,0.0553131103515625,0.0896453857421875,-0.0514984130859375,0.1172515326637549
62.416815,-0.0253906212747097,-0.11767578125,0.9736327528953552,0.9810468952359522,0.0209808349609375,0.0782012939453125,0.3757476806640625,0.384372159937217
62.426326,-0.0395507737994194,-0.115234375,0.9790038466453552,0.9865555010419716,0.3261566162109375,0.0782012939453125,0.0095367431640625,0.3355361830608843
62.435837,-0.0424804650247097,-0.1416015625,0.9892577528953552,1.000243217459996,0.0209808349609375,0.2002716064453125,-0.0476837158203125,0.20693633933718977
62.443776,-0.0273437462747097,-0.1298828125,0.9824218153953552,0.991347491451888,0.38909912109375,0.263214111328125,0.0095367431640625,0.4698624733987176
62.451715,-0.0366210900247097,-0.12548828125,0.9760741591453552,0.9847888997734434,0.26702880859375,0.141143798828125,-0.2307891845703125,0.3801178820856256
62.459654,-0.0268554650247097,-0.1220703125,0.9692382216453552,0.9772640930136499,0.20599365234375,0.507354736328125,-0.3528594970703125,0.6514230867517767
62.467593,-0.0249023400247097,-0.12646484375,0.9804686903953552,0.9889046142520527,0.02288818359375,0.507354736328125,-0.3528594970703125,0.6184193739652052
62.475582,-0.0332031212747097,-0.12255859375,0.9882811903953552,0.9964049214318549,-0.03814697265625,0.446319580078125,-0.6580352783203125,0.7960319004902012
62.483571,-0.0405273400247097,-0.11328125,0.9824218153953552,0.9897614511869748,0.08392333984375,0.141143798828125,-0.4138946533203125,0.4452791068142603
62.49156,-0.0410156212747097,-0.12939453125,0.9877929091453552,0.9970757530217058,0.45013427734375,0.263214111328125,-0.4787445068359375,0.7078833511727901
62.499549,-0.0434570237994194,-0.119140625,0.9731444716453552,0.9813731013925394,0.0209808349609375,0.0209808349609375,-0.5359649658203125,0.5367856513153877
62.510171,-0.0439453087747097,-0.12255859375,0.9863280653953552,0.9948843408416007,-0.0362396240234375,0.2002716064453125,-0.2307891845703125,0.3077103742355399
62.520793,-0.04296875,-0.1298828125,0.9877929091453552,0.9972214848353984,0.26702880859375,-0.164031982421875,-0.5970001220703125,0.6742551606240889
62.531415,-0.0434570275247097,-0.10791015625,0.9853515028953552,0.9921948897879479,-0.03814697265625,0.141143798828125,-0.3528594970703125,0.38195102846200685
62.542084,-0.0317382775247097,-0.13427734375,0.9877929091453552,0.9973828526010637,0.0209808349609375,-0.2269744873046875,-0.1697540283203125,0.28420774699831336
62.552755,-0.0439453050494194,-0.119140625,0.9941405653953552,1.0022181110546116,-0.09918212890625,-0.530242919921875,0.1354217529296875,0.5561777593433607
62.563426,-0.0385742150247097,-0.11669921875,0.9785155653953552,0.9862045373261191,-0.1621246337890625,-0.4100799560546875,0.0095367431640625,0.44106792754543983
62.571426,-0.0449218712747097,-0.12255859375,0.9843749403953552,0.9929917455342507,-0.1621246337890625,-0.4100799560546875,0.3185272216796875,0.543975696322945
62.579426,-0.02880859375,-0.11474609375,0.9765624403953552,0.9837025978900676,-0.58746337890625,-0.347137451171875,0.1354217529296875,0.6956699524405259
62.587426,-0.0307617150247097,-0.1357421875,0.9951171278953552,1.0048036240028433,0.14495849609375,-0.164031982421875,0.3757476806640625,0.4348629397539348
62.595426,-0.0356445275247097,-0.1123046875,0.9887694716453552,0.9957650040219165,0.2040863037109375,0.0782012939453125,0.2574920654296875,0.33774076670778236
62.605012,-0.0234374962747097,-0.130859375,0.9853515028953552,0.9942791743344285,0.87738037109375,0.080108642578125,0.1354217529296875,0.8913768907498475
62.614596,-0.0405273400247097,-0.12158203125,0.9804686903953552,0.9888091365162123,0.45013427734375,-0.164031982421875,-0.1697540283203125,0.5082753083005349
62.62418,-0.02880859375,-0.130859375,0.9755858778953552,0.9847445944244092,0.0820159912109375,-0.2880096435546875,-0.1087188720703125,0.318584322808031
62.633764,-0.0336914025247097,-0.11767578125,0.9780272841453552,0.9856571760148755,0.57220458984375,-0.164031982421875,-0.3528594970703125,0.6919786185773505
62.643348,-0.0234374962747097,-0.11669921875,0.9721679091453552,0.9794276223695854,0.20599365234375,-0.469207763671875,0.0095367431640625,0.5125234236267228
62.651356,-0.0205078087747097,-0.11767578125,0.9804686903953552,0.9877180835436399,-0.03814697265625,-0.591278076171875,-0.1697540283203125,0.6163451833309999
62.659364,-0.0415039025247097,-0.12646484375,0.9785155653953552,0.9875265274160914,-0.70953369140625,-0.347137451171875,-0.2956390380859375,0.8434126570588468
62.667372,-0.0297851525247097,-0.11865234375,0.9794921278953552,0.9871020021240253,-1.19781494140625,-0.469207763671875,-0.5359649658203125,1.393619389909881
62.67538,-0.0405273362994194,-0.115234375,0.9746093153953552,0.9822345666003461,-1.0776519775390625,-0.2880096435546875,-0.4138946533203125,1.1897865873851041
62.686044,-0.0351562462747097,-0.13037109375,0.9902343153953552,0.9993981104265742,-1.2607574462890625,-0.1049041748046875,-0.5359649658203125,1.3739623971752428
62.696708,-0.0351562462747097,-0.14453125,0.9897460341453552,1.000860857454796,-0.77056884765625,-0.164031982421875,-0.4138946533203125,0.8899391126828132
62.707372,-0.0366210900247097,-0.1259765625,0.9916991591453552,1.0003391528794217,0.20599365234375,0.019073486328125,-0.3528594970703125,0.4090317926021653
62.715364,-0.0302734337747097,-0.13134765625,0.9638671278953552,0.9732463859846184,1.12152099609375,0.080108642578125,0.3185272216796875,1.1686258298727645
62.723356,-0.0366210900247097,-0.10791015625,0.9667968153953552,0.973489490603313,1.54876708984375,0.080108642578125,0.4978179931640625,1.6287785753492348
62.731348,-0.0229492150247097,-0.11865234375,0.9492186903953552,0.9568809577703444,0.6923675537109375,0.0782012939453125,0.4978179931640625,0.8563358138746059
62.73934,-0.0434570275247097,-0.13134765625,0.9736327528953552,0.9834131672670645,-0.34332275390625,0.324249267578125,0.1354217529296875,0.4912709558291344
62.750062,-0.0468749962747097,-0.130859375,0.9848632216453552,0.9946240529219131,-0.95367431640625,0.812530517578125,0.5626678466796875,1.3734247884233997
62.760784,-0.0327148400247097,-0.12158203125,0.9897460341453552,0.9977222374925684,-0.8335113525390625,0.6275177001953125,0.8640289306640625,1.3546459433720661
62.771506,-0.0175781212747097,-0.10302734375,0.9936522841453552,0.9991338677549725,0.26702880859375,0.446319580078125,1.3523101806640625,1.4488783168050314
62.779476,-0.014648433774709702,-0.11328125,0.9794921278953552,0.9861298326399954,0.8144378662109375,-0.1049041748046875,0.1354217529296875,0.8322577575344231
62.787445,-0.0180664025247097,-0.130859375,0.9838866591453552,0.9927152305519362,0.5092620849609375,0.2613067626953125,-0.4138946533203125,0.7063553492798134
62.795414,-0.0249023400247097,-0.13330078125,0.9741210341453552,0.9835146231678423,0.3261566162109375,0.5664825439453125,-1.2073516845703125,1.372945265160885
62.803383,-0.0224609337747097,-0.1162109375,0.9682616591453552,0.9754691774277529,0.32806396484375,0.629425048828125,-0.6580352783203125,0.9678906367123199
62.81415,-0.02197265625,-0.125,0.9804686903953552,0.988648901515732,-0.4673004150390625,0.2613067626953125,-0.9021759033203125,1.0490816282147954
62.824917,-0.0332031212747097,-0.1376953125,0.9956054091453552,1.0056304376192806,-0.52642822265625,0.324249267578125,-0.9021759033203125,1.0937027117392508
62.835684,-0.0546874962747097,-0.126953125,0.9843749403953552,0.9940331189021929,0.69427490234375,0.263214111328125,-0.9670257568359375,1.2191956868406302
62.846341,-0.0483398362994194,-0.1162109300494194,0.9721679091453552,0.9802816756465752,0.63323974609375,0.080108642578125,-0.4787445068359375,0.7978761015810486
62.857,-0.0278320275247097,-0.123046875,0.9785155653953552,0.9866143455902076,0.14495849609375,0.080108642578125,-0.2956390380859375,0.3388698880777841
62.867659,-0.0468749962747097,-0.13525390625,0.9863280653953552,0.9966613953686487,-0.28228759765625,-0.225067138671875,-0.0476837158203125,0.36416375637192977
62.875661,-0.0449218675494194,-0.12939453125,0.9809569716453552,0.9904733712327459,0.6351470947265625,-0.1049041748046875,0.3185272216796875,0.7182452984754067
62.883662,-0.0312499962747097,-0.109375,0.9711913466453552,0.9778302944228042,-0.03814697265625,-0.408172607421875,0.0743865966796875,0.4166454544789794
62.891663,-0.0190429650247097,-0.12158203125,0.9711913466453552,0.9789573313677297,-0.6504058837890625,-0.5931854248046875,-0.1697540283203125,0.8965005253758207
62.899664,-0.0180664025247097,-0.12353515625,0.9750975966453552,0.9830578074118758,-0.58746337890625,-0.041961669921875,-0.6580352783203125,0.8831106560407205
62.909612,-0.0463867150247097,-0.13525390625,0.9873046278953552,0.9976050194091113,-0.22125244140625,0.019073486328125,-0.6580352783203125,0.6944975653110862
62.91956,-0.0434570237994194,-0.1157226487994194,0.9902343153953552,0.9979199585884456,-0.40435791015625,0.080108642578125,0.1354217529296875,0.43389142108157547
62.929508,-0.0493163987994194,-0.10498046875,0.9799804091453552,0.9868204539419574,-0.4673004150390625,-0.4673004150390625,0.0743865966796875,0.6650358799019394
62.939456,-0.0322265625,-0.1201171875,0.9882811903953552,0.9960754998255589,-0.1010894775390625,-0.1049041748046875,-0.0476837158203125,0.15328961189527937
62.949418,-0.0566406212747097,-0.140625,0.9829100966453552,0.9945329600826543,0.20599365234375,0.263214111328125,-0.0476837158203125,0.3376222592818854
62.959383,-0.0478515587747097,-0.1162109375,0.9833983778953552,0.9913965520007694,0.75531005859375,0.385284423828125,0.3185272216796875,0.9057576733367734
62.969348,-0.0439453050494194,-0.1142578125,0.9663085341453552,0.9740319402952435,0.57220458984375,0.080108642578125,0.3757476806640625,0.6892182577227524
62.979313,-0.0170898400247097,-0.1259765625,0.9912108778953552,0.9993303564835141,0.14495849609375,-0.164031982421875,0.3757476806640625,0.4348629397539348
62.989993,-0.0224609337747097,-0.11865234375,0.9736327528953552,0.9810930688441275,-0.1621246337890625,0.2002716064453125,-0.1697540283203125,0.30856043712763503
63.000675,-0.0395507775247097,-0.1171875,0.9829100966453552,0.990661108677655,0.20599365234375,0.263214111328125,-0.5359649658203125,0.6316434894740395
63.011357,-0.0327148400247097,-0.11669921875,0.9853515028953552,0.9927771918576886,-0.28228759765625,0.019073486328125,-0.2307891845703125,0.36512153235036116
63.022022,-0.0297851525247097,-0.126953125,0.9897460341453552,0.9982992854673615,-0.03814697265625,-0.408172607421875,-0.1087188720703125,0.4241224612262946
63.032687,-0.0424804650247097,-0.12744140625,0.9814452528953552,0.9905961267673727,0.6923675537109375,-0.1049041748046875,-0.4138946533203125,0.8134411468387015
63.043352,-0.0390624962747097,-0.1123046875,0.9628905653953552,0.9702043405268146,0.75531005859375,-0.164031982421875,-0.3528594970703125,0.849652635223865
63.051381,-0.0385742112994194,-0.13330078125,0.9609374403953552,0.9709056763727408,-0.28228759765625,-0.041961669921875,-0.1087188720703125,0.30539623880691497
63.059409,-0.0375976525247097,-0.13330078125,0.9790038466453552,0.9887523519585839,-0.34332275390625,0.141143798828125,-0.2956390380859375,0.474546653278457
63.067437,-0.0346679650247097,-0.13525390625,0.9843749403953552,0.9942280976884517,-0.22125244140625,0.080108642578125,-0.0476837158203125,0.24009117892660736
63.075465,-0.0336913987994194,-0.11474609375,0.9848632216453552,0.9920974456844516,-0.0362396240234375,-0.2880096435546875,0.1354217529296875,0.32031533884034896
63.083443,-0.0385742112994194,-0.11376953125,0.9750975966453552,0.9824697445732183,-0.1621246337890625,-0.4100799560546875,-0.2307891845703125,0.4977083633551699
63.091421,-0.0249023400247097,-0.1162109375,0.9799804091453552,0.9871609346211149,-0.58746337890625,-0.347137451171875,-0.2307891845703125,0.7203341441835753
63.099399,-0.029785148799419403,-0.134765625,0.9877929091453552,0.9973884700198253,-0.52642822265625,0.019073486328125,-0.9021759033203125,1.044706576997364
63.107377,-0.0385742150247097,-0.12109375,0.9770507216453552,0.9852815734710278,0.45013427734375,0.324249267578125,-0.4787445068359375,0.7327719686166465
63.118021,-0.0351562462747097,-0.11865234375,0.9677733778953552,0.9756534483578082,0.14495849609375,-0.041961669921875,-0.1087188720703125,0.18599338826053763
63.128665,-0.0234375,-0.1298828125,0.9770507216453552,0.9859244261386719,-0.40435791015625,-0.347137451171875,0.1926422119140625,0.5666751726722977
63.139309,-0.0249023400247097,-0.1298828125,1.00439453125,1.0130636929268186,-0.34332275390625,-0.164031982421875,-0.0476837158203125,0.38347195642113663
63.147396,-0.0336913987994194,-0.12939453125,0.9887694716453552,0.9977690730466161,0.63323974609375,0.080108642578125,-0.0476837158203125,0.6400653930677858
63.155483,-0.033203125,-0.11376953125,0.9785155653953552,0.9856666096970121,0.02288818359375,0.141143798828125,0.1926422119140625,0.2399092801602264
63.16357,-0.0395507737994194,-0.12890625,0.9736327528953552,0.9829251357594754,-0.22125244140625,-0.286102294921875,0.6809234619140625,0.7710148681918016
63.171657,-0.0185546837747097,-0.13232421875,0.9785155653953552,0.9875964190289316,-0.09918212890625,0.263214111328125,0.4978179931640625,0.5717880004114507
63.182286,-0.0380859337747097,-0.13134765625,0.9824218153953552,0.9918948374291324,0.14495849609375,-0.225067138671875,0.1926422119140625,0.32981692544629865
63.192915,-0.0292968712747097,-0.1162109375,0.9765624403953552,0.9838889615459905,-0.28228759765625,-0.041961669921875,-0.3528594970703125,0.45382473952604563
63.203544,-0.0322265587747097,-0.12548828125,0.9799804091453552,0.9885076945225245,-0.2841949462890625,-0.1049041748046875,-0.4138946533203125,0.5129136744471112
63.214154,-0.0312499962747097,-0.119140625,0.9819335341453552,0.9896284738586231,0.3871917724609375,-0.1049041748046875,-0.2956390380859375,0.4983219796409478
63.224765,-0.0283203087747097,-0.1064453125,0.9843749403953552,0.9905183833330287,0.8144378662109375,0.2002716064453125,-0.1697540283203125,0.8557068332071356
63.235376,-0.0361328087747097,-0.1337890625,0.9980468153953552,1.0076222202965697,0.45013427734375,-0.164031982421875,-0.4138946533203125,0.6331162159857951
63.243379,-0.0336913987994194,-0.1240234375,0.9853515028953552,0.9936973923989703,0.6351470947265625,0.2002716064453125,-0.1087188720703125,0.6747891088569969
63.251382,-0.0366210900247097,-0.12060546875,0.9707030653953552,0.9788519931506215,0.2040863037109375,0.3833770751953125,-0.2956390380859375,0.5253871353469589
63.259385,-0.02880859375,-0.11474609375,0.9726561903953552,0.9798248138413018,-0.40435791015625,0.019073486328125,0.1354217529296875,0.42685848773708185
63.267388,-0.0268554650247097,-0.1328125,0.9843749403953552,0.9936570834227986,-0.03814697265625,0.019073486328125,-0.2956390380859375,0.2986995651887097
63.278348,-0.0312499962747097,-0.11572265625,0.9907225966453552,0.9979476734480822,0.14495849609375,0.446319580078125,-0.4787445068359375,0.6703808141470492
63.289308,-0.0336913987994194,-0.1103515625,0.9921874403953552,0.9988736129148369,0.57220458984375,0.080108642578125,-0.1087188720703125,0.5879245533214317
63.300268,-0.04248046875,-0.115234375,0.9824218153953552,0.9900687727484216,0.08392333984375,0.141143798828125,-0.1697540283203125,0.2361802892900617
63.310682,-0.0297851525247097,-0.12890625,0.9726561903953552,0.9816129793938079,-0.4673004150390625,0.0782012939453125,-0.0476837158203125,0.4761920379687522
63.321096,-0.0356445275247097,-0.11865234375,0.9853515028953552,0.9931095082003611,-0.09918212890625,0.324249267578125,-0.4138946533203125,0.5350546385804614
63.33151,-0.0253906212747097,-0.11181640625,0.9785155653953552,0.9852107916970726,0.14495849609375,0.324249267578125,-0.3528594970703125,0.5006599422636347
63.339492,-0.0234375,-0.11962890625,0.9799804091453552,0.987533287502512,-0.28228759765625,0.019073486328125,-0.2307891845703125,0.36512153235036116
63.347476,-0.0170898400247097,-0.119140625,0.9897460341453552,0.9970374934093098,-0.22125244140625,0.141143798828125,-0.5970001220703125,0.6521375319116577
63.35546,-0.0405273400247097,-0.1298828125,0.9814452528953552,0.990831365421592,0.26702880859375,0.385284423828125,-0.4138946533203125,0.6253457091167329
63.363444,-0.0322265587747097,-0.12109375,0.9765624403953552,0.9845691684033449,0.3261566162109375,0.3261566162109375,0.1926422119140625,0.49986728079309223
63.374099,-0.0317382775247097,-0.12451171875,0.9741210341453552,0.9825590442974564,-0.40435791015625,0.019073486328125,0.2574920654296875,0.47976169203666685
63.384754,-0.0283203125,-0.12451171875,0.9868163466453552,0.9950435720171568,-0.4673004150390625,0.0782012939453125,0.3185272216796875,0.570915677855655
63.395409,-0.0307617150247097,-0.126953125,0.9970702528953552,1.0055906066920746,0.0820159912109375,0.2002716064453125,-0.1087188720703125,0.24218821669672472
63.403397,-0.0385742150247097,-0.12646484375,0.9746093153953552,0.9835368037978485,-0.22125244140625,0.202178955078125,0.0743865966796875,0.30880793135911366
63.411384,-0.0263671837747097,-0.11181640625,0.9853515028953552,0.9920260688837816,-0.1010894775390625,0.2002716064453125,0.2574920654296875,0.3415112920190974
63.419371,-0.0332031212747097,-0.11279296875,0.9833983778953552,0.9904024791512981,0.02288818359375,0.141143798828125,-0.1087188720703125,0.1796252600279159
63.427358,-0.0415039025247097,-0.11962890625,0.9843749403953552,0.9924856031266706,0.3261566162109375,0.3833770751953125,0.0095367431640625,0.5034352684841005
1785247358.429185,-0.0209960900247097,-0.1259765625,0.9794921278953552,0.987783254922158,0.45013427734375,0.019073486328125,0.0743865966796875,0.45663774623444753
1785247358.438787,-0.0312499962747097,-0.1162109375,0.9750975966453552,0.9824952250496417,0.14495849609375,0.019073486328125,0.0095367431640625,0.14651864366232784
1785247358.448389,-0.0268554650247097,-0.11279296875,0.9682616591453552,0.9751790145260756,0.63323974609375,0.141143798828125,-0.4138946533203125,0.7695602198838326
1785247358.457991,-0.0219726525247097,-0.11328125,0.9819335341453552,0.9886904998733029,0.20599365234375,-0.164031982421875,-0.4138946533203125,0.4905595377834476
1785247358.467593,-0.0390624962747097,-0.14599609375,0.9956054091453552,1.0070108582954609,-0.52642822265625,0.141143798828125,-0.3528594970703125,0.649275034349363
1785247358.475593,-0.0371093712747097,-0.1337890625,0.9829100966453552,0.9926675560168241,-0.70953369140625,-0.102996826171875,-0.5359649658203125,0.8951563271456152
1785247358.483593,-0.01904296875,-0.11865234375,0.9785155653953552,0.985866991564873,0.0209808349609375,-0.1049041748046875,-0.4138946533203125,0.4274972109549397
1785247358.491593,-0.0380859337747097,-0.1083984375,0.9672850966453552,0.9740848103713285,0.26702880859375,-0.102996826171875,-0.2956390380859375,0.41147924815336123
1785247358.499593,-0.0341796800494194,-0.11962890625,0.9785155653953552,0.9863934496233456,0.26702880859375,-0.469207763671875,-0.5970001220703125,0.8049033829354475
1785247358.509203,-0.0302734337747097,-0.12841796875,0.9887694716453552,0.9975333195178107,-0.22125244140625,0.080108642578125,-0.9670257568359375,0.9952431119219332
1785247358.51881,-0.0546874962747097,-0.13330078125,0.9833983778953552,0.9938974746813036,0.08392333984375,0.385284423828125,-0.2956390380859375,0.49283836605471193
1785247358.528417,-0.0439453087747097,-0.10693359375,0.9658202528953552,0.9727151404899805,-0.22125244140625,-0.164031982421875,-0.2956390380859375,0.4040564006742806
1785247358.538024,-0.012695308774709702,-0.111328125,0.9843749403953552,0.9907316213583071,-0.70953369140625,-0.652313232421875,-0.4138946533203125,1.048932503300568
1785247358.547631,-0.0371093712747097,-0.13818359375,0.9926757216453552,1.0029341450774303,-0.4673004150390625,-0.2269744873046875,-0.4787445068359375,0.7064583488136373
1785247358.557225,-0.0478515587747097,-0.123046875,0.9960936903953552,1.0048049289140022,0.26702880859375,0.324249267578125,-0.1087188720703125,0.43389142108157547
1785247358.566819,-0.0483398400247097,-0.13232421875,0.9868163466453552,0.9968214188147736,0.38909912109375,0.080108642578125,0.7457733154296875,0.8449812771053727
1785247358.576413,-0.0273437462747097,-0.12841796875,0.9716796278953552,0.9805101500877325,0.14495849609375,-0.408172607421875,1.0509490966796875,1.136710977712094
1785247358.586007,-0.015136711299419403,-0.11962890625,0.9838866591453552,0.991248280343397,0.20599365234375,-0.713348388671875,0.6237030029296875,0.9696931186154659
1785247358.595601,-0.0170898400247097,-0.12744140625,0.9848632216453552,0.9932214959457512,0.08392333984375,-0.347137451171875,0.1926422119140625,0.4057814174993454
1785247358.605213,-0.0268554650247097,-0.11865234375,0.9804686903953552,0.987987068500719,0.45013427734375,-0.041961669921875,0.1926422119140625,0.49141903828968103
1785247358.614823,-0.020019523799419403,-0.1201171875,0.9780272841453552,0.9855791640445759,0.5092620849609375,0.0782012939453125,0.2574920654296875,0.5759908656504275
1785247358.624433,-0.011718746274709702,-0.1201171875,0.9897460341453552,0.9970770681615437,0.32806396484375,0.141143798828125,0.0095367431640625,0.357265288611716
1785247358.634043,-0.0283203087747097,-0.12255859375,0.9799804091453552,0.9880203697797785,0.51116943359375,0.629425048828125,-0.1087188720703125,0.8181013843510373
1785247358.643653,-0.0390624925494194,-0.12890625,0.9755858778953552,0.9848403448082774,0.14495849609375,0.934600830078125,-0.7190704345703125,1.1880883666822177
1785247358.651647,-0.0356445275247097,-0.1357421875,0.9799804091453552,0.9899788260960144,0.20599365234375,0.263214111328125,-0.4138946533203125,0.531999847044446
1785247358.659641,-0.0273437462747097,-0.12158203125,0.9677733778953552,0.9757638965170815,0.08392333984375,0.019073486328125,-0.1087188720703125,0.1386604413503711
1785247358.667635,-0.0415039025247097,-0.125,0.9736327528953552,0.9825010490759633,0.26702880859375,-0.225067138671875,-0.5359649658203125,0.6397015289302592
1785247358.675629,-0.0292968712747097,-0.12255859375,0.9858397841453552,0.9938606519891131,-0.22125244140625,0.202178955078125,-0.5970001220703125,0.6680105676235044
1785247358.683623,-0.0478515587747097,-0.12744140625,0.9838866591453552,0.9932593023719212,-0.58746337890625,0.324249267578125,-0.7839202880859375,1.0318826615238954
1785247358.691617,-0.0332031212747097,-0.126953125,0.9873046278953552,0.9959869333847882,-0.09918212890625,-0.408172607421875,-0.3528594970703125,0.5485907370860922
1785247358.699696,-0.0234374962747097,-0.1162109375,0.9843749403953552,0.9914879331109456,-0.09918212890625,0.080108642578125,-0.2307891845703125,0.2636629231134244
1785247358.707775,-0.0229492150247097,-0.12841796875,0.9809569716453552,0.9895930584779546,0.3261566162109375,-0.2880096435546875,-0.5359649658203125,0.6903521837913136
1785247358.715854,-0.0385742112994194,-0.13818359375,0.9760741591453552,0.9865614220667406,-0.64849853515625,-0.164031982421875,-1.3294219970703125,1.4882270282626473
1785247358.723933,-0.0351562462747097,-0.14013671875,0.9750975966453552,0.9857431635967314,-0.4673004150390625,0.2613067626953125,-0.9670257568359375,1.1053459714089984
1785247358.732012,-0.0517578087747097,-0.126953125,0.9780272841453552,0.9875896593470207,-0.52642822265625,0.446319580078125,-0.4787445068359375,0.8399548464028987
1785247358.740091,-0.0263671837747097,-0.1240234375,0.9707030653953552,0.9789491726323002,-0.5893707275390625,0.3833770751953125,-0.1087188720703125,0.7114461535558942
1785247358.749582,-0.0351562462747097,-0.1328125,0.9785155653953552,0.9881132695847019,-0.95367431640625,-0.041961669921875,-0.1087188720703125,0.9607680660075051
1785247358.759073,-0.0317382775247097,-0.1494140625,0.9912108778953552,1.0029112048387285,-0.6504058837890625,0.5092620849609375,-0.4138946533203125,0.9239504688528137
1785247358.768564,-0.0463867150247097,-0.126953125,0.9892577528953552,0.998448659141579,0.14495849609375,0.324249267578125,0.1354217529296875,0.3801178820856256
1785247358.778055,-0.0371093712747097,-0.11962890625,0.9770507216453552,0.9850463406940229,1.06048583984375,0.446319580078125,0.7457733154296875,1.3711342830216178
1785247358.787546,-0.020996086299419403,-0.10546875,0.9853515028953552,0.9912023391440268,0.8144378662109375,0.0209808349609375,0.8068084716796875,1.1465989461568487
1785247358.795904,-0.024414055049419403,-0.12451171875,0.9912108778953552,0.9992988635278817,0.0209808349609375,-0.1049041748046875,0.4978179931640625,0.5091834989912822
1785247358.804262,-0.0517578087747097,-0.12548828125,0.9775390028953552,0.9869187817048999,0.20599365234375,0.324249267578125,0.0743865966796875,0.3912854943598788
1785247358.81262,-0.0268554650247097,-0.1142578125,0.9692382216453552,0.9763190021797329,0.20599365234375,0.446319580078125,-0.2307891845703125,0.5430453020528411
1785247358.820978,-0.0278320275247097,-0.11328125,0.9951171278953552,1.001930816767505,-0.1621246337890625,0.0782012939453125,-0.2956390380859375,0.3461246597634112
1785247358.832626,-0.011718746274709702,-0.12646484375,0.9848632216453552,0.9930187566549944,-0.1621246337890625,0.0209808349609375,-0.5359649658203125,0.5603418928686882
1785247358.844273,-0.0263671837747097,-0.1142578125,0.9902343153953552,0.9971529849947812,0.08392333984375,0.324249267578125,-0.6580352783203125,0.7383705993669921
1785247358.85592,-0.0444335862994194,-0.1240234375,0.9785155653953552,0.9873443514608954,-0.03814697265625,-0.041961669921875,-0.7839202880859375,0.7859688233881852
1785247358.867567,-0.0341796800494194,-0.12890625,0.9887694716453552,0.9977224763806707,0.2040863037109375,-0.7762908935546875,-0.2307891845703125,0.8351900493258753
1785247358.875722,-0.0336913987994194,-0.1142578125,0.9780272841453552,0.9852549551273955,0.2040863037109375,-0.4100799560546875,-0.6580352783203125,0.8017650636154575
1785247358.883881,-0.0380859337747097,-0.111328125,0.9804686903953552,0.9875035911899713,-0.1621246337890625,-0.2269744873046875,-0.7190704345703125,0.7712743381194538
1785247358.89204,-0.0312499962747097,-0.1279296875,0.9975585341453552,1.0062134943724652,-0.40435791015625,-0.225067138671875,-0.7839202880859375,0.9103249719131153
1785247358.900199,-0.0336913987994194,-0.1337890625,0.9912108778953552,1.000766520251238,-0.5893707275390625,-0.1049041748046875,-0.1087188720703125,0.6084262761548167
1785247358.910756,-0.03662109375,-0.115234375,0.9716796278953552,0.9791738175400437,0.2040863037109375,-0.4100799560546875,0.0743865966796875,0.46405835353519276
1785247358.921313,-0.0327148400247097,-0.10888671875,0.9907225966453552,0.997225070774747,-0.22125244140625,-0.286102294921875,0.4405975341796875,0.5700292563658558
1785247358.93187,-0.0356445275247097,-0.130859375,0.9848632216453552,0.9941580728020663,-0.46539306640625,0.141143798828125,0.4405975341796875,0.6562304971059082
1785247358.942469,-0.0390624962747097,-0.140625,0.9931640028953552,1.0038306659428855,0.51116943359375,0.141143798828125,0.6237030029296875,0.8186703840079347
1785247358.953067,-0.0429687462747097,-0.1181640625,0.9868163466453552,0.9947942303961207,0.93841552734375,0.324249267578125,0.7457733154296875,1.2417484155382632
1785247358.963665,-0.03173828125,-0.1201171875,0.9653319716453552,0.9732940319915268,0.26702880859375,-0.102996826171875,0.6809234619140625,0.7386267608241044
1785247358.971692,-0.0224609337747097,-0.146484375,0.9824218153953552,0.9935365061384901,-0.22125244140625,-0.102996826171875,0.4405975341796875,0.5036736802285051
1785247358.979722,-0.0351562462747097,-0.11865234375,0.9716796278953552,0.9795282740157898,-0.09918212890625,0.324249267578125,0.6237030029296875,0.7099155710947861
1785247358.987752,-0.0351562425494194,-0.10986328125,0.9716796278953552,0.9785025300039168,0.26702880859375,0.080108642578125,0.8068084716796875,0.8536168280960846
1785247358.995782,-0.0170898400247097,-0.12548828125,0.9873046278953552,0.9953942935474038,-0.34332275390625,-0.713348388671875,0.9860992431640625,1.264566389850398
1785247359.005344,-0.02880859375,-0.140625,0.9912108778953552,1.0015509623363823,-0.70953369140625,-0.591278076171875,0.3185272216796875,0.9769889526259107
1785247359.014906,-0.0322265587747097,-0.11181640625,0.9868163466453552,0.9936538440541609,0.26702880859375,-0.164031982421875,-0.2307891845703125,0.3891972810681977
1785247359.024468,-0.0390624962747097,-0.1083984375,0.9907225966453552,0.9974003024720658,0.3261566162109375,0.0782012939453125,-0.2956390380859375,0.44709732890419773
1785247359.03403,-0.0058593712747097015,-0.1279296875,0.9790038466453552,0.9873443517446103,-0.1010894775390625,-0.2880096435546875,0.3757476806640625,0.4841022172785837
1785247359.043592,-0.019531242549419403,-0.125,0.9833983778953552,0.9915033227794752,0.14495849609375,-0.347137451171875,0.0095367431640625,0.3763088160886547
1785247359.053372,-0.0263671837747097,-0.1220703125,0.9785155653953552,0.9864527871596535,0.6923675537109375,0.0782012939453125,-0.1087188720703125,0.7052007267088074
1785247359.063149,-0.0458984337747097,-0.119140625,0.9702147841453552,0.9785795226360402,0.2040863037109375,0.2002716064453125,0.0743865966796875,0.29545439830228565
1785247359.072926,-0.0322265587747097,-0.1318359375,0.9731444716453552,0.9825626841076763,-0.28228759765625,-0.041961669921875,-0.0476837158203125,0.28934547912072445
1785247359.082703,-0.033203125,-0.11962890625,0.9819335341453552,0.9897509728207012,-0.58746337890625,0.324249267578125,0.2574920654296875,0.7187161977026434
1785247359.09248,-0.0224609337747097,-0.12255859375,0.9755858778953552,0.9835105020267249,-0.22125244140625,0.263214111328125,0.0743865966796875,0.3518063060777438
1785247359.101908,-0.024414055049419403,-0.12939453125,0.9907225966453552,0.9994349675216885,-0.34332275390625,0.324249267578125,-0.2307891845703125,0.5256155901315636
1785247359.111336,-0.0302734337747097,-0.12744140625,0.9907225966453552,0.9993443131990117,-0.52642822265625,0.446319580078125,-0.7839202880859375,1.0444418888779172
1785247359.120764,-0.0400390587747097,-0.12841796875,0.9741210341453552,0.9833646780771907,-0.1621246337890625,0.7495880126953125,-0.5970001220703125,0.9718928600466791
1785247359.130192,-0.0361328087747097,-0.1123046875,0.9858397841453552,0.9928736086270915,0.26702880859375,0.995635986328125,-0.5359649658203125,1.1618321076977278
1785247359.13962,-0.0229492150247097,-0.1171875,0.9858397841453552,0.9930456468009217,0.0209808349609375,0.8716583251953125,-0.1697540283203125,0.8882819718135276
1785247359.147664,-0.0297851525247097,-0.13232421875,0.9785155653953552,0.9878712294118651,0.02288818359375,0.324249267578125,-0.0476837158203125,0.3285349193428364
1785247359.155708,-0.0346679612994194,-0.11962890625,0.9794921278953552,0.9873792439383158,0.0820159912109375,0.2002716064453125,-0.1697540283203125,0.2750486671363309
1785247359.163752,-0.024902336299419403,-0.1103515625,0.9892577528953552,0.9957050242732174,-0.1010894775390625,0.3833770751953125,-0.3528594970703125,0.5307606701020214
1785247359.171796,-0.0415039025247097,-0.111328125,0.9794921278953552,0.9866718572807107,-0.1621246337890625,0.5092620849609375,-0.3528594970703125,0.6404233699145532
1785247359.17984,-0.0356445275247097,-0.109375,0.9765624403953552,0.9833146103655693,-0.34332275390625,0.080108642578125,-0.4138946533203125,0.5436880465971483
1785247359.187884,-0.0405273362994194,-0.1201171875,0.9833983778953552,0.9915356641935036,-0.03814697265625,0.141143798828125,-0.0476837158203125,0.15378719135514254
1785247359.197448,-0.0356445275247097,-0.12255859375,0.9882811903953552,0.9964892636319258,-0.1621246337890625,0.2002716064453125,0.3185272216796875,0.40969830873510393
1785247359.207012,-0.029296867549419403,-0.1240234375,0.9882811903953552,0.9964636625521198,-0.03814697265625,0.141143798828125,0.1926422119140625,0.24184248030818215
1785247359.216576,-0.0458984337747097,-0.11669921875,0.9892577528953552,0.9971741450435824,0.2040863037109375,-0.1049041748046875,0.3185272216796875,0.39257572034554844
1785247359.22614,-0.0439453050494194,-0.11962890625,0.9824218153953552,0.9906537681809741,0.5092620849609375,0.0209808349609375,0.0095367431640625,0.5097833030657207
1785247359.235704,-0.0512695275247097,-0.1201171875,0.9750975966453552,0.9838048719990489,0.51116943359375,0.141143798828125,0.0743865966796875,0.5354896147954468
1785247359.243662,-0.0390624962747097,-0.12255859375,0.9736327528953552,0.9820932873346488,0.63323974609375,-0.469207763671875,0.3185272216796875,0.8500635814301304
1785247359.25162,-0.0297851525247097,-0.1181640625,0.9692382216453552,0.9768687891808576,0.3261566162109375,-0.2269744873046875,0.4405975341796875,0.5933142028559703
1785247359.259578,-0.0170898400247097,-0.11328125,0.9765624403953552,0.9832593270468195,-0.22125244140625,-0.408172607421875,0.1354217529296875,0.48362854697003516
1785247359.267536,-0.0322265625,-0.11962890625,0.9907225966453552,0.9984392270162731,-0.3414154052734375,-0.7762908935546875,-0.3528594970703125,0.9185324463766507
1785247359.278228,-0.0258789025247097,-0.12158203125,0.9907225966453552,0.9984904463351038,0.0209808349609375,-0.2880096435546875,-0.4787445068359375,0.5590939572574016
1785247359.28892,-0.0263671837747097,-0.12841796875,0.9858397841453552,0.9945182165661149,0.20599365234375,-0.225067138671875,-0.2956390380859375,0.4248423737767234
1785247359.299612,-0.0366210900247097,-0.1240234375,0.9716796278953552,0.9802470181289868,0.08392333984375,-0.347137451171875,-0.3528594970703125,0.5020531462398671
1785247359.307602,-0.0449218712747097,-0.1337890625,0.9829100966453552,0.9929903050135143,0.0209808349609375,0.0782012939453125,-0.1697540283203125,0.188074633965755
1785247359.315592,-0.0419921875,-0.125,0.9716796278953552,0.9805863771631192,-0.22125244140625,0.324249267578125,-0.1087188720703125,0.4073205414626392
1785247359.323582,-0.0419921837747097,-0.119140625,0.9819335341453552,0.9900259074906813,-0.34332275390625,-0.041961669921875,0.0095367431640625,0.3460090238166935
1785247359.331572,-0.0229492150247097,-0.12158203125,0.9863280653953552,0.994058302807069,0.0209808349609375,-0.1049041748046875,0.1354217529296875,0.17258079989865574
1785247359.342241,-0.0332031212747097,-0.12646484375,0.9877929091453552,0.9964088695535277,0.20599365234375,0.141143798828125,0.0095367431640625,0.24989178902822967
1785247359.35291,-0.0449218712747097,-0.1240234375,0.9760741591453552,0.984946979141238,0.5092620849609375,0.0209808349609375,0.0743865966796875,0.5150936151613663
1785247359.363579,-0.0307617150247097,-0.1083984375,0.9721679091453552,0.9786761200395944,0.1468658447265625,0.2002716064453125,0.1926422119140625,0.3143076749087993
1785247359.371598,-0.0371093712747097,-0.12353515625,0.9843749403953552,0.9927900400107141,-0.03814697265625,-0.408172607421875,0.0095367431640625,0.4100622128928561
1785247359.379617,-0.0322265587747097,-0.11669921875,0.9873046278953552,0.9946997974318211,-0.09918212890625,-0.347137451171875,-0.2307891845703125,0.4284917180239446
1785247359.387636,-0.033203125,-0.12451171875,0.9770507216453552,0.985511911791813,-0.28228759765625,0.263214111328125,-0.1087188720703125,0.400983477635965
1785247359.395655,-0.02880859375,-0.12353515625,0.9804686903953552,0.9886403404419362,-0.1621246337890625,-0.0438690185546875,-0.2307891845703125,0.2854339422437684
1785247359.405282,-0.0244140587747097,-0.13232421875,0.9926757216453552,1.0017538786936537,-0.40435791015625,-0.041961669921875,0.0095367431640625,0.406641181779145
1785247359.41491,-0.0380859337747097,-0.12353515625,1.0029296875,1.011226696270451,-0.03814697265625,-0.225067138671875,-0.3528594970703125,0.4202621004867029
1785247359.424538,-0.0336914025247097,-0.12646484375,0.9765624403953552,0.985293188497579,-0.03814697265625,-0.164031982421875,-0.1087188720703125,0.20045317638872168
1785247359.434166,-0.0351562425494194,-0.115234375,0.9858397841453552,0.9931742055528802,0.26702880859375,-0.713348388671875,-0.2307891845703125,0.7958856425105229
1785247359.443794,-0.0307617150247097,-0.119140625,0.9921874403953552,0.9997883218536505,0.1468658447265625,-0.2880096435546875,-0.3528594970703125,0.4785696979547063
1785247359.454391,-0.029785148799419403,-0.1103515625,0.9785155653953552,0.985168683097563,0.1468658447265625,-0.5931854248046875,-0.4138946533203125,0.7380699889543715
1785247359.464988,-0.0454101525247097,-0.109375,0.9726561903953552,0.9798392915635313,-0.0362396240234375,-0.2880096435546875,-0.5970001220703125,0.6638313120679276
1785247359.475585,-0.0327148400247097,-0.1328125,0.9833983778953552,0.99286544433841,-0.22125244140625,-0.225067138671875,-0.5359649658203125,0.621985775018159
1785247359.486235,-0.0395507737994194,-0.11962890625,0.9755858778953552,0.9836885401729325,-0.1621246337890625,0.2002716064453125,0.1354217529296875,0.2910878980582551
1785247359.496887,-0.0371093712747097,-0.12890625,0.9794921278953552,0.9886347937102141,-0.40435791015625,0.019073486328125,0.0743865966796875,0.41158532912656837
1785247359.507539,-0.0195312462747097,-0.126953125,0.9760741591453552,0.9844893750973757,-0.2841949462890625,-0.2880096435546875,0.0743865966796875,0.4113996694727984
1785247359.513957,-0.0170898400247097,-0.12646484375,0.9726561903953552,0.9809920917373328,-0.2841949462890625,-0.1049041748046875,0.1926422119140625,0.35900233313843255
1785247359.520373,-0.0312499962747097,-0.13818359375,0.9824218153953552,0.9925844504189756,-0.4062652587890625,-0.2880096435546875,-0.0476837158203125,0.5002746765866471
1785247359.526789,-0.0385742112994194,-0.12548828125,0.9785155653953552,0.9872831357971446,-0.1621246337890625,0.0782012939453125,0.1926422119140625,0.2636491249124513
1785247359.533205,-0.0356445275247097,-0.11279296875,0.9843749403953552,0.9914569125384408,0.02288818359375,0.141143798828125,-0.0476837158203125,0.15072882156471518
1785247359.539621,-0.01416015625,-0.11474609375,0.9926757216453552,0.9993859436674277,0.0209808349609375,-0.1049041748046875,0.0095367431640625,0.10740591602555151
1785247359.551697,-0.0249023400247097,-0.123046875,0.9809569716453552,0.9889576533935102,-0.1010894775390625,-0.1049041748046875,-0.3528594970703125,0.3817509568203948
1785247359.563773,-0.0253906212747097,-0.13134765625,0.9780272841453552,0.9871343672387378,-0.22125244140625,-0.041961669921875,-0.1087188720703125,0.25006642660521117
1785247359.575849,-0.0317382775247097,-0.12939453125,0.9799804091453552,0.9889953818326659,-0.09918212890625,-0.041961669921875,-0.1697540283203125,0.2010330981902777
1785247359.587925,-0.0214843712747097,-0.1123046875,0.9790038466453552,0.9856583854408912,-0.03814697265625,-0.164031982421875,-0.1697540283203125,0.2391194532259148
1785247359.595975,-0.0205078087747097,-0.12451171875,0.9858397841453552,0.9938832015536734,-0.1621246337890625,0.0782012939453125,0.0095367431640625,0.1802520144856531
1785247359.604026,-0.0244140587747097,-0.13330078125,0.9824218153953552,0.9917246431910527,0.0209808349609375,0.0209808349609375,-0.2956390380859375,0.2971242698126402
1785247359.612077,-0.0351562425494194,-0.1201171875,0.9780272841453552,0.9860027731481504,0.08392333984375,0.080108642578125,0.0743865966796875,0.13781831283187962
1785247359.620128,-0.0375976525247097,-0.13330078125,0.9877929091453552,0.99745551936669,0.0209808349609375,-0.2269744873046875,-0.4138946533203125,0.4725107378356872
1785247359.630958,-0.0249023400247097,-0.12646484375,0.9863280653953552,0.9947142985953114,0.02288818359375,0.141143798828125,-0.0476837158203125,0.15072882156471518
1785247359.641788,-0.0410156212747097,-0.1103515625,0.9814452528953552,0.9884809219026787,0.026702880859375,0.1220703125,0.1277923583984375,0.17873189951732826
1785247359.652618,-0.0283203125,-0.12890625,0.9848632216453552,0.9936671609441605,-0.278472900390625,0.30517578125,0.3108978271484375,0.5170462964175786
1785247359.662943,-0.0400390587747097,-0.123046875,0.9873046278953552,0.9957480042352161,-0.217437744140625,0.0,0.7381439208984375,0.7695034896193016
1785247359.673269,-0.0410156212747097,-0.126953125,0.9887694716453552,0.9977296453416882,-0.034332275390625,0.0,0.4329681396484375,0.43432719818602955
1785247359.683595,-0.0356445275247097,-0.13037109375,0.9814452528953552,0.9907077969102993,0.026702880859375,0.1220703125,0.4329681396484375,0.45063911835377374
1785247359.69161,-0.0332031212747097,-0.12109375,0.9868163466453552,0.9947726602384745,-0.156402587890625,-0.057220458984375,0.5550384521484375,0.5794856631432744
1785247359.699626,-0.009765621274709702,-0.11865234375,0.9873046278953552,0.9944567231910271,-0.2193450927734375,0.0629425048828125,0.3108978271484375,0.3856572151150948
1785247359.707642,-0.0268554650247097,-0.119140625,0.9721679091453552,0.979809240668374,-0.0972747802734375,0.2460479736328125,0.0667572021484375,0.2728708710081494
1785247359.723634,-0.0317382775247097,-0.11962890625,0.9829100966453552,0.9906718182921064,0.026702880859375,-0.1220703125,0.1277923583984375,0.17873189951732826
1785247359.731613,-0.0327148400247097,-0.123046875,0.9853515028953552,0.9935433450349528,0.087738037109375,0.1220703125,-0.0553131103515625,0.1601832217381641
1785247359.739592,-0.03271484375,-0.125,0.9770507216453552,0.9855573923771748,-0.034332275390625,0.0,-0.3604888916015625,0.3621200713874071
1785247359.747571,-0.0249023400247097,-0.111328125,0.9853515028953552,0.9919332952436152,-0.2765655517578125,-0.1201629638671875,-0.1163482666015625,0.3232097793162183
1785247359.758239,-0.0336914025247097,-0.1259765625,0.9750975966453552,0.9837786986344776,-0.2765655517578125,0.0629425048828125,0.0667572021484375,0.2913876925656152
1785247359.768907,-0.0336914025247097,-0.1171875,0.9809569716453552,0.9885062473145824,-0.0972747802734375,-0.0591278076171875,-0.1163482666015625,0.16277407549130465
1785247359.779575,-0.0307617150247097,-0.13427734375,0.9887694716453552,0.9983194660095795,-0.0362396240234375,-0.0591278076171875,0.1277923583984375,0.1453970248939432
1785247359.787578,-0.0444335900247097,-0.13232421875,0.9760741591453552,0.986004465984609,0.026702880859375,-0.057220458984375,0.2498626708984375,0.2577180224219358
1785247359.795581,-0.0327148400247097,-0.130859375,0.9726561903953552,0.9819646131595774,0.209808349609375,-0.48828125,0.3719329833984375,0.6486696129826297
1785247359.803584,-0.0351562462747097,-0.12109375,0.9877929091453552,0.9958084601463448,0.1468658447265625,-0.2422332763671875,-0.1773834228515625,0.3342325765531619
1785247359.811587,-0.0307617150247097,-0.11962890625,0.9809569716453552,0.9887031599734366,-0.156402587890625,-0.30517578125,0.1888275146484375,0.3914714002947577
1785247359.819574,-0.0336914025247097,-0.11181640625,0.9755858778953552,0.9825506727185107,-0.156402587890625,-0.30517578125,0.3108978271484375,0.4628730775126722
1785247359.827561,-0.0307617150247097,-0.126953125,0.9863280653953552,0.994940416128057,-0.217437744140625,0.0,0.4329681396484375,0.4845003431656089
1785247359.835548,-0.0283203125,-0.13525390625,0.9843749403953552,0.9940270029201121,-0.217437744140625,-0.18310546875,0.5550384521484375,0.6235980024233997
1785247359.843535,-0.0283203125,-0.13037109375,0.9858397841453552,0.9948259858836768,-0.0972747802734375,0.2460479736328125,0.4329681396484375,0.5074085121050765
1785247359.854223,-0.029296867549419403,-0.1240234375,0.9926757216453552,1.0008222658602532,-0.095367431640625,0.1220703125,0.3108978271484375,0.3473522234522138
1785247359.864911,-0.037109375,-0.115234375,0.9848632216453552,0.9922759859253872,0.0858306884765625,-0.0591278076171875,0.5550384521484375,0.5647394869152583
1785247359.875599,-0.0278320275247097,-0.1181640625,0.9853515028953552,0.9928015671224413,0.026702880859375,0.18310546875,0.4329681396484375,0.47085248909077254
1785247359.886267,-0.0410156212747097,-0.10986328125,0.9799804091453552,0.9869720482689796,-0.0362396240234375,-0.2422332763671875,0.3719329833984375,0.4453362939045107
1785247359.896935,-0.0273437462747097,-0.1171875,0.9995116591453552,1.006729431070775,-0.2193450927734375,-0.2422332763671875,0.3108978271484375,0.4510506499596136
1785247359.907603,-0.033203125,-0.12451171875,0.9750975966453552,0.9835755886556928,0.026702880859375,-0.1220703125,0.2498626708984375,0.27936635328639436
1785247359.915623,-0.0371093712747097,-0.1220703125,0.9921874403953552,1.0003570280197658,0.0286102294921875,-0.2422332763671875,0.4329681396484375,0.49694759820508916
1785247359.923643,-0.0371093712747097,-0.13671875,0.9941405653953552,1.0041835418899094,0.5741119384765625,-0.3032684326171875,0.4329681396484375,0.7804086558169577
1785247359.931663,-0.0371093712747097,-0.123046875,0.9941405653953552,1.0024136384987319,0.5741119384765625,-0.0591278076171875,0.3719329833984375,0.6866110687096398
1785247359.939683,-0.0229492150247097,-0.1259765625,0.9716796278953552,0.9800806395580023,0.453948974609375,0.1220703125,0.1277923583984375,0.48713624337323264
1785247359.95031,-0.0366210900247097,-0.109375,0.9765624403953552,0.9833504944070195,0.1468658447265625,0.2460479736328125,0.4329681396484375,0.5192018794521923
1785247359.960937,-0.0405273400247097,-0.1142578125,0.9731444716453552,0.980666852555281,-0.339508056640625,0.3662109375,0.3108978271484375,0.5882462326221414
1785247359.971564,-0.0341796800494194,-0.12939453125,0.9790038466453552,0.9881091675478424,-0.705718994140625,0.30517578125,0.3108978271484375,0.8293545774142825
1785247359.982262,-0.0395507775247097,-0.1259765625,0.9829100966453552,0.9917391876846992,-1.0128021240234375,-0.0591278076171875,0.0057220458984375,1.0145427452154323
1785247359.992961,-0.0292968712747097,-0.12646484375,0.9794921278953552,0.9880569274997113,-1.1959075927734375,0.2460479736328125,0.5550384521484375,1.341194340558185
1785247360.00366,-0.0546874962747097,-0.126953125,0.9853515028953552,0.9950002022382695,-0.5855560302734375,0.0629425048828125,0.0667572021484375,0.5927007234255726
1785247360.011659,-0.0336914025247097,-0.13623046875,0.9848632216453552,0.9948112467044162,-0.461578369140625,0.1220703125,0.4940032958984375,0.6870189287136752
1785247360.019658,-0.03271484375,-0.11962890625,0.9799804091453552,0.9877970128122762,-0.461578369140625,-0.057220458984375,0.6160736083984375,0.7719297006528334
1785247360.027657,-0.0244140587747097,-0.13525390625,0.9936522841453552,1.0031124200253032,-0.2193450927734375,-0.3032684326171875,0.7381439208984375,0.8276112975939806
1785247360.035656,-0.0439453087747097,-0.1376953125,0.9804686903953552,0.9910651048711987,-0.5245208740234375,-0.2422332763671875,0.6160736083984375,0.8445980099615227
1785247360.046287,-0.01904296875,-0.12890625,0.9736327528953552,0.982313694019616,-0.2765655517578125,-0.1201629638671875,0.7991790771484375,0.8541749467505345
1785247360.056918,-0.0288085900247097,-0.1279296875,0.9746093153953552,0.9833917110991237,-0.8907318115234375,-0.1201629638671875,1.0433197021484375,1.3770832577721204
1785247360.067549,-0.0341796837747097,-0.13623046875,0.9829100966453552,0.9928943798240402,-1.010894775390625,-0.18310546875,0.7991790771484375,1.3015848251074718
1785247360.075601,-0.0385742112994194,-0.1279296875,0.9853515028953552,0.9943699306492303,-0.2193450927734375,-0.0591278076171875,0.7381439208984375,0.7723113461012481
1785247360.083654,-0.0410156212747097,-0.1240234375,0.9887694716453552,0.9973610992492647,0.026702880859375,-0.1220703125,1.1653900146484375,1.1720700027226714
1785247360.091707,-0.0312499962747097,-0.123046875,0.9946288466453552,1.002698179061628,0.3910064697265625,0.0019073486328125,1.1043548583984375,1.1715329063304494
1785247360.09976,-0.0366210900247097,-0.11865234375,0.9926757216453552,1.000412200673349,0.453948974609375,-0.18310546875,0.4329681396484375,0.6534972794019032
1785247360.110386,-0.0283203087747097,-0.1220703125,0.9780272841453552,0.9860226009659626,0.331878662109375,-0.18310546875,0.3108978271484375,0.49023312615049347
1785247360.121012,-0.0302734337747097,-0.12158203125,0.9824218153953552,0.9903793689693324,0.331878662109375,-0.057220458984375,0.2498626708984375,0.41934351264612657
1785247360.131638,-0.0322265625,-0.125,0.9711913466453552,0.9797327100436042,0.331878662109375,-0.30517578125,0.5550384521484375,0.7150827834512519
1785247360.139627,-0.0268554650247097,-0.11865234375,0.9897460341453552,0.9971944678875431,-0.034332275390625,-0.3662109375,0.1888275146484375,0.41345493849563886
1785247360.147616,-0.0268554650247097,-0.12548828125,0.9873046278953552,0.9956098397446453,0.0286102294921875,-0.4253387451171875,-0.4215240478515625,0.5995115647313451
1785247360.155605,-0.0234374962747097,-0.13330078125,0.9843749403953552,0.9936359684471202,0.148773193359375,-0.48828125,-0.3604888916015625,0.6249034190433203
1785247360.163594,-0.0302734337747097,-0.107421875,0.9799804091453552,0.9863151333776266,-0.156402587890625,-0.30517578125,-0.5435943603515625,0.6427198888835298
1785247360.174272,-0.0444335900247097,-0.12109375,0.9804686903953552,0.9889170304212227,-0.4024505615234375,0.0629425048828125,-0.1773834228515625,0.4442894237926323
1785247360.18495,-0.0366210900247097,-0.13671875,0.9824218153953552,0.992565234229401,-0.4596710205078125,-0.2422332763671875,-0.0553131103515625,0.5225265040656217
1785247360.195628,-0.0400390587747097,-0.13037109375,0.9926757216453552,1.002000417493557,-0.461578369140625,-0.18310546875,0.2498626708984375,0.5558898792505376
1785247360.203621,-0.0336914025247097,-0.13134765625,0.9897460341453552,0.9989917564789556,-0.0972747802734375,-0.5474090576171875,0.4940032958984375,0.7437461365258323
1785247360.211615,-0.0292968712747097,-0.12744140625,0.9902343153953552,0.9988311259066631,-0.0362396240234375,-0.5474090576171875,0.4940032958984375,0.7382474131815272
1785247360.219609,-0.0361328087747097,-0.125,0.9824218153953552,0.9910011116213014,0.2689361572265625,-0.6084442138671875,0.5550384521484375,0.8663709952529479
1785247360.227603,-0.0234374962747097,-0.1259765625,0.9750975966453552,0.9834809268686868,0.514984130859375,-0.728607177734375,0.5550384521484375,1.0507829261300217
1785247360.239639,-0.024414055049419403,-0.1201171875,0.9765624403953552,0.9842247633583489,-0.034332275390625,-0.18310546875,0.6160736083984375,0.6436248975798918
1785247360.251675,-0.0258789025247097,-0.12451171875,0.9936522841453552,1.0017573296408888,0.0858306884765625,-0.1201629638671875,0.6771087646484375,0.6930240429692471
1785247360.263711,-0.02294921875,-0.1240234375,0.9746093153953552,0.9827368912104373,0.0858306884765625,0.0629425048828125,0.3108978271484375,0.32861242357966824
1785247360.275747,-0.0283203125,-0.13037109375,0.9755858778953552,0.9846656627173103,-0.034332275390625,0.18310546875,0.1277923583984375,0.22591415335186427
1785247360.283697,-0.0195312462747097,-0.14306640625,0.9868163466453552,0.9973244046872709,-0.339508056640625,0.0,0.1277923583984375,0.36276246689662994
1785247360.291646,-0.0224609375,-0.125,0.9843749403953552,0.9925338870747629,-0.156402587890625,-0.240325927734375,0.1888275146484375,0.34332805205601624
1785247360.299595,-0.0361328087747097,-0.12841796875,0.9897460341453552,0.9986961333029604,-0.2193450927734375,-0.5474090576171875,-0.0553131103515625,0.5923077631281641
1785247360.307544,-0.013671871274709702,-0.11328125,0.9814452528953552,0.988055841588188,0.209808349609375,-0.3662109375,0.4329681396484375,0.6046415502271304
1785247360.318225,-0.0336913987994194,-0.119140625,0.9760741591453552,0.9838955041211258,-0.0362396240234375,-0.5474090576171875,0.1277923583984375,0.5632946596371495
1785247360.328906,-0.0268554650247097,-0.13330078125,0.9750975966453552,0.98453320780312,0.026702880859375,-0.1220703125,-0.2384185791015625,0.2691795384141329
1785247360.339587,-0.0327148400247097,-0.1220703125,0.9916991591453552,0.9997192826995459,0.0858306884765625,-0.2422332763671875,-0.0553131103515625,0.2628752697396754
1785247360.350258,-0.03759765625,-0.12451171875,0.9702147841453552,0.9788940081723815,0.0858306884765625,0.5512237548828125,0.1888275146484375,0.5889570148319601
1785247360.360929,-0.0278320275247097,-0.12158203125,0.9785155653953552,0.986432726444132,-0.3414154052734375,0.5512237548828125,0.3108978271484375,0.7190754938327075
1785247360.3716,-0.0205078087747097,-0.1279296875,0.9824218153953552,0.9909284527801657,-0.339508056640625,0.1220703125,0.3719329833984375,0.5181708462055772
1785247360.3796,-0.0234374962747097,-0.11328125,0.9716796278953552,0.9785413926350002,0.3910064697265625,0.5512237548828125,0.4940032958984375,0.8371218212862781
1785247360.387601,-0.0341796800494194,-0.11962890625,0.9750975966453552,0.9830028732014977,0.576019287109375,0.6103515625,0.3108978271484375,0.8949774901603971
1785247360.395602,-0.0292968712747097,-0.12548828125,0.9790038466453552,0.9874483009980666,0.2689361572265625,0.6732940673828125,0.1888275146484375,0.7492045035402467
1785247360.403603,-0.0346679650247097,-0.140625,0.9858397841453552,0.9964222691347856,-0.4024505615234375,0.4901885986328125,-0.0553131103515625,0.6366402884493683
1785247360.411767,-0.0351562462747097,-0.12109375,0.9760741591453552,0.984185156407321,0.026702880859375,0.79345703125,-0.2384185791015625,0.8289333647206278
1785247360.419931,-0.0332031212747097,-0.1083984375,0.9804686903953552,0.987001277284081,0.1468658447265625,1.0395050048828125,-0.0553131103515625,1.0512848194949012
1785247360.428095,-0.012695308774709702,-0.12353515625,0.9677733778953552,0.9757086740710995,0.209808349609375,0.6103515625,-0.2994537353515625,0.7114921735535851
1785247360.436259,-0.0322265587747097,-0.14697265625,0.9956054091453552,1.0069109411934756,-0.217437744140625,0.48828125,-0.4825592041015625,0.7201118920984848
1785247360.446724,-0.04248046875,-0.11962890625,0.9907225966453552,0.9988227715363253,0.514984130859375,0.79345703125,-0.9708404541015625,1.3554755264471496
1785247360.457189,-0.0507812462747097,-0.11572265625,0.9760741591453552,0.9842211297742396,0.8792877197265625,0.4291534423828125,-0.5435943603515625,1.1192919189277568
1785247360.467654,-0.0263671837747097,-0.126953125,0.9780272841453552,0.9865848634862661,0.2117156982421875,0.2460479736328125,-0.5435943603515625,0.6331334541919378
1785247360.478425,-0.0385742112994194,-0.1357421875,0.9838866591453552,0.9939551646270901,-0.034332275390625,0.18310546875,-0.7266998291015625,0.7501992798156334
1785247360.489198,-0.0424804650247097,-0.11279296875,0.9672850966453552,0.9747652547666891,-0.0972747802734375,0.4901885986328125,-0.6046295166015625,0.784425966839883
1785247360.499971,-0.0439453087747097,-0.12158203125,0.9873046278953552,0.9957327998764359,-0.7648468017578125,-0.1201629638671875,-0.6046295166015625,0.9823475049036062
1785247360.510664,-0.0307617150247097,-0.12451171875,0.9951171278953552,1.0033481696041715,-0.339508056640625,0.0,-0.2994537353515625,0.45270107150292616
1785247360.521358,-0.0468749962747097,-0.11669921875,0.9790038466453552,0.9870483801106289,0.0286102294921875,0.0629425048828125,-0.6656646728515625,0.66924566553329
1785247360.532052,-0.0410156212747097,-0.1201171875,0.9780272841453552,0.9862290750399726,0.3910064697265625,0.0629425048828125,-0.1163482666015625,0.4127768615488765
1785247360.539964,-0.02880859375,-0.1357421875,0.9941405653953552,1.0037785315027086,0.0858306884765625,-0.3032684326171875,-0.3604888916015625,0.4788432836268766
1785247360.547877,-0.0219726525247097,-0.119140625,0.9765624403953552,0.984048518100248,0.2689361572265625,-0.2422332763671875,-0.2994537353515625,0.4697618082170753
1785247360.55579,-0.0346679650247097,-0.1162109375,0.9863280653953552,0.9937554540127704,-0.156402587890625,-0.42724609375,0.0057220458984375,0.45500959982486333
1785247360.563703,-0.0346679650247097,-0.11865234375,0.9936522841453552,1.0013116938614093,-0.095367431640625,-0.3662109375,0.0667572021484375,0.38426803380068647
1785247360.574339,-0.0229492150247097,-0.13671875,0.9887694716453552,0.9984406597938846,0.148773193359375,-0.1220703125,0.2498626708984375,0.315382273700813
1785247360.584975,-0.0385742112994194,-0.11474609375,0.9887694716453552,0.9961524501129789,0.514984130859375,-0.3662109375,0.4329681396484375,0.7660160022690411
1785247360.595611,-0.0356445275247097,-0.10986328125,0.9897460341453552,0.9964625858585635,0.0858306884765625,-0.4253387451171875,0.6771087646484375,0.804211560689075
1785247360.603603,-0.0234375,-0.1298828125,0.9785155653953552,0.9873761051950527,0.0858306884765625,-0.4253387451171875,0.3719329833984375,0.5715016179521165
1785247360.611594,-0.0322265587747097,-0.12109375,0.9775390028953552,0.9855377971245789,-0.034332275390625,-0.30517578125,0.4329681396484375,0.53082235497921
1785247360.619585,-0.0292968712747097,-0.13720703125,0.9882811903953552,0.9981902561036076,0.0286102294921875,-0.4253387451171875,0.3108978271484375,0.5276258638989176
1785247360.627576,-0.0283203087747097,-0.1279296875,0.9775390028953552,0.9862811703640032,0.2689361572265625,-0.2422332763671875,0.1277923583984375,0.3838417691033732
1785247360.638317,-0.0283203125,-0.12890625,0.9804686903953552,0.9893117376412468,0.514984130859375,0.0,-0.0553131103515625,0.5179461315752344
1785247360.649058,-0.0307617150247097,-0.12548828125,0.9755858778953552,0.9841043628554806,0.331878662109375,-0.057220458984375,-0.0553131103515625,0.3412875143726406
1785247360.659799,-0.0273437462747097,-0.1318359375,0.9848632216453552,0.9940241245696745,0.2689361572265625,-0.1201629638671875,-0.4825592041015625,0.5653575682807039
1785247360.670415,-0.0424804650247097,-0.1279296875,0.9877929091453552,0.9969480559238817,-0.156402587890625,0.06103515625,-0.1163482666015625,0.2042644828121983
1785247360.681031,-0.0366210900247097,-0.126953125,0.9658202528953552,0.9748163730081227,-0.461578369140625,0.18310546875,-0.1773834228515625,0.527301699454129
1785247360.691647,-0.0307617150247097,-0.12890625,0.9843749403953552,0.993255821870017,-0.7648468017578125,-0.0591278076171875,-0.1773834228515625,0.7873700568952987
1785247360.699637,-0.0346679650247097,-0.12158203125,0.9926757216453552,1.0006943321843875,-0.461578369140625,-0.1220703125,0.0667572021484375,0.4820915640114999
1785247360.707627,-0.02783203125,-0.11962890625,0.9780272841453552,0.9857094225515001,-0.0972747802734375,0.0019073486328125,0.1888275146484375,0.21241904609605636
1785247360.715617,-0.0322265587747097,-0.12890625,0.9780272841453552,0.9870120267313168,0.087738037109375,-0.18310546875,0.3108978271484375,0.3713260491368509
1785247360.723607,-0.0307617150247097,-0.12890625,0.9848632216453552,0.9937397394438807,-0.034332275390625,-0.30517578125,0.2498626708984375,0.39590695485624705
1785247360.73449,-0.0292968712747097,-0.12255859375,0.9829100966453552,0.9909546779019947,0.2117156982421875,0.0629425048828125,0.4329681396484375,0.4860521636138746
1785247360.745373,-0.0380859337747097,-0.12548828125,0.9956054091453552,1.0042051472692524,0.2689361572265625,0.2460479736328125,0.1888275146484375,0.4105144239620691
1785247360.756256,-0.03271484375,-0.12939453125,0.9882811903953552,0.9972526846332651,0.514984130859375,0.1220703125,0.3719329833984375,0.6468724452088649
1785247360.766712,-0.0317382775247097,-0.1240234375,0.9897460341453552,0.9979911539768329,0.576019287109375,-0.3662109375,0.7381439208984375,1.0053681503936458
1785247360.777169,-0.0405273400247097,-0.13037109375,0.9863280653953552,0.9957319619062119,0.514984130859375,-0.3662109375,0.6160736083984375,0.8825337368886733
1785247360.787626,-0.0395507775247097,-0.123046875,0.9780272841453552,0.9865303674914494,0.514984130859375,-0.240325927734375,0.3108978271484375,0.6477828845407956
1785247360.798277,-0.0224609337747097,-0.12646484375,0.9750975966453552,0.9835208046779141,0.331878662109375,-0.057220458984375,0.0057220458984375,0.3368239437735314
1785247360.80893,-0.0170898400247097,-0.1240234375,0.9780272841453552,0.9860077303014039,0.087738037109375,-0.3662109375,0.2498626708984375,0.4519289415482658
1785247360.819583,-0.0249023400247097,-0.11669921875,0.9814452528953552,0.9886726549401447,-0.278472900390625,-0.18310546875,-0.4215240478515625,0.5373614164184944
1785247360.83028,-0.0322265587747097,-0.11669921875,0.9838866591453552,0.99130732711482,-0.2765655517578125,0.0629425048828125,-0.6656646728515625,0.7235742671091917
1785247360.840978,-0.0395507775247097,-0.1279296875,0.9814452528953552,0.9905377596929279,-0.644683837890625,0.0,-0.6046295166015625,0.8838518559030267
1785247360.851676,-0.0375976525247097,-0.1337890625,0.9931640028953552,1.0028398842123916,-0.339508056640625,0.18310546875,-0.2384185791015625,0.45347188674807515
1785247360.859667,-0.0327148400247097,-0.11669921875,0.9980468153953552,1.005378741636958,-0.0362396240234375,0.0629425048828125,-0.0553131103515625,0.09129408221263366
1785247360.867659,-0.0351562462747097,-0.12890625,0.9775390028953552,0.9866282405865118,0.2117156982421875,0.3681182861328125,-0.2994537353515625,0.5196221214339704
1785247360.875651,-0.019531242549419403,-0.1298828125,0.9833983778953552,0.9921307293223258,0.3910064697265625,0.3681182861328125,0.1277923583984375,0.5520217557473828
