timestamp,accel_x,accel_y,accel_z,accel_rms,gyro_x,gyro_y,gyro_z,gyro_rms
1784817522.451987,-0.0239257775247097,-0.18603515625,0.9589843153953552,0.977155279044954,0.67138671875,-0.213623046875,0.2841949462890625,0.7597115898591341
1784817522.462281,-0.012695308774709702,-0.18603515625,0.9824218153953552,0.9999614360516872,0.7953643798828125,-0.2155303955078125,0.3414154052734375,0.891976640463275
1784817522.472574,-0.019531242549419403,-0.17333984375,0.9633788466453552,0.979043907611162,0.4291534423828125,0.4558563232421875,0.2193450927734375,0.6633927451161127
1784817522.480628,-0.015136715024709702,-0.1904296875,0.9614257216453552,0.9802203855584616,-0.225067138671875,0.52642822265625,-0.3070831298828125,0.6496783351610146
1784817522.488686,-0.0195312462747097,-0.19580078125,0.9697265028953552,0.9894892146642171,-0.286102294921875,0.34332275390625,-0.3070831298828125,0.5422407999846187
1784817522.496743,-0.0126953125,-0.1923828125,0.9697265028953552,0.9887071396134136,-0.2269744873046875,0.4062652587890625,-0.6122589111328125,0.7690447663482971
1784817522.5048,-0.0302734337747097,-0.19970703125,0.9672850966453552,0.9881497038988649,-0.5321502685546875,0.1010894775390625,-0.5512237548828125,0.7728199135238776
1784817522.515412,-0.0166015587747097,-0.1787109375,0.9707030653953552,0.9871563463321392,-0.286102294921875,0.09918212890625,-0.5512237548828125,0.6289191091078776
1784817522.526024,-0.02685546875,-0.18310546875,0.9648436903953552,0.9824317664772794,-0.3490447998046875,0.2841949462890625,-0.1239776611328125,0.4668720383862156
1784817522.536636,-0.01904296875,-0.18896484375,0.9755858778953552,0.9939004738811258,0.0782012939453125,0.5283355712890625,-0.0019073486328125,0.5340950816501386
1784817522.544637,-0.021484375,-0.19287109375,0.9702147841453552,0.9894329510116793,0.0782012939453125,0.3452301025390625,0.0553131103515625,0.35827197246033204
1784817522.552639,-0.02783203125,-0.18359375,0.9663085341453552,0.983988551846366,-0.164031982421875,0.52642822265625,0.4863739013671875,0.7352501185293392
1784817522.560641,-0.01220703125,-0.18310546875,0.9643554091453552,0.9816608270915169,-0.164031982421875,0.40435791015625,0.4863739013671875,0.6534304727316587
1784817522.568643,-0.0297851525247097,-0.18994140625,0.9619140028953552,0.9809400807823653,-0.0438690185546875,0.2841949462890625,0.6084442138671875,0.6729751998949548
1784817522.579309,-0.0317382775247097,-0.1923827975988388,0.9687499403953552,0.9881775680960359,-0.3490447998046875,0.1621246337890625,0.7266998291015625,0.8223194700164724
1784817522.589975,-0.0161132775247097,-0.20166015625,0.9619140028953552,0.9829572754181781,-0.0438690185546875,0.2841949462890625,0.9746551513671875,1.016190888746691
1784817522.600641,-0.012207027524709702,-0.185546875,0.9707030653953552,0.9883527181685665,0.019073486328125,-0.38909912109375,0.7266998291015625,0.8245329378095687
1784817522.608623,-0.01806640625,-0.19287109375,0.9584960341453552,0.9778754017314707,0.568389892578125,-0.14495849609375,0.1811981201171875,0.6139322391833947
1784817522.616606,-0.015624992549419403,-0.19775390625,0.9682616591453552,0.9883731018194593,0.2613067626953125,-0.4482269287109375,-0.0019073486328125,0.5188373944028624
1784817522.624588,-0.025878898799419403,-0.18798828125,0.9633788466453552,0.9818900719806339,0.2040863037109375,-0.2040863037109375,-0.1850128173828125,0.3428296680871012
1784817522.632572,-0.0224609337747097,-0.18505859375,0.9619140028953552,0.9798110662943774,0.019073486328125,0.03814697265625,-0.3070831298828125,0.31003070503124386
1784817522.643275,-0.0073242150247097015,-0.17041015625,0.9770507216453552,0.9918272924993479,0.3223419189453125,-0.2040863037109375,-0.1850128173828125,0.42401093696703784
1784817522.65398,-0.012207027524709702,-0.18701171875,0.9682616591453552,0.9862317349597579,-0.164031982421875,0.03814697265625,-0.5512237548828125,0.5763760150519746
1784817522.664684,-0.008789058774709702,-0.1962890625,0.9726561903953552,0.9923037379379762,-0.286102294921875,-0.019073486328125,-0.4901885986328125,0.5678936372859563
1784817522.675326,-0.0166015587747097,-0.18212890625,0.9663085341453552,0.9834626243064434,-0.286102294921875,0.164031982421875,-0.4329681396484375,0.5442631940223799
1784817522.685971,-0.0234375,-0.17333984375,0.9658202528953552,0.9815318531460772,-0.102996826171875,-0.324249267578125,-0.2498626708984375,0.4221105163756653
1784817522.696616,-0.0249023400247097,-0.189453125,0.9829100966453552,1.0013115754840516,-0.286102294921875,-0.63323974609375,-0.6122589111328125,0.926125301162849
1784817522.707291,-0.0219726525247097,-0.18505859375,0.9711913466453552,0.9889095572288286,0.507354736328125,-0.14495849609375,-0.4329681396484375,0.6825563742394997
1784817522.717966,-0.029785148799419403,-0.19384765625,0.9765624403953552,0.9960613780854839,0.507354736328125,-0.14495849609375,-0.0629425048828125,0.5313977352090107
1784817522.728641,-0.0361328087747097,-0.177734375,0.9780272841453552,0.9947021948600142,0.507354736328125,0.164031982421875,-0.1239776611328125,0.5474356402279578
1784817522.736669,-0.0200195275247097,-0.17724609375,0.9555663466453552,0.9720720148595461,0.446319580078125,-0.14495849609375,-0.1239776611328125,0.4853705734908515
1784817522.744698,-0.0263671837747097,-0.19091796875,0.9633788466453552,0.9824681681029519,0.2040863037109375,-0.2040863037109375,-0.4329681396484375,0.5203497368841604
1784817522.752727,-0.0214843712747097,-0.19091796875,0.9580077528953552,0.9770824446321321,0.324249267578125,-0.45013427734375,-0.4901885986328125,0.7402994781805071
1784817522.760756,-0.0024414025247097015,-0.18408203125,0.9584960341453552,0.9760157796612653,0.324249267578125,-0.324249267578125,-0.4329681396484375,0.6306636068464153
1784817522.771358,-0.0073242150247097015,-0.1865234375,0.9682616591453552,0.9860909072866764,0.2613067626953125,-0.3871917724609375,-0.4329681396484375,0.6369145176885008
1784817522.781961,-0.0166015587747097,-0.18408203125,0.9658202528953552,0.9833466158408866,0.3871917724609375,-0.8754730224609375,-0.6732940673828125,1.1703398578580595
1784817522.792564,-0.011230465024709702,-0.1943359375,0.9692382216453552,0.9885925906291863,0.019073486328125,-0.57220458984375,-1.1043548583984375,1.2439379179795091
1784817522.802206,-0.012695308774709702,-0.18701171875,0.9677733778953552,0.9857585225488544,0.690460205078125,-0.26702880859375,-1.6498565673828125,1.8083324839065744
1784817522.811847,-0.0195312462747097,-0.18994140625,0.9604491591453552,0.9792455231923661,0.873565673828125,-0.45013427734375,-1.2264251708984375,1.5715777276176408
1784817522.821488,-0.0166015587747097,-0.19091796875,0.9667968153953552,0.9856071046842025,0.7495880126953125,0.0400543212890625,-1.7147064208984375,1.8718185401637535
1784817522.831129,-0.0288085900247097,-0.18212890625,0.9628905653953552,0.9803872267009704,0.7495880126953125,-0.2651214599609375,-1.4667510986328125,1.6683915495616997
1784817522.84077,-0.0312499962747097,-0.18994140625,0.9584960341453552,0.9776343629127257,0.5054473876953125,-0.2040863037109375,-1.0395050048828125,1.1737542060699184
1784817522.850403,-0.0268554650247097,-0.1826171875,0.9643554091453552,0.9818612979031249,0.1392364501953125,0.4062652587890625,-1.2264251708984375,1.299444861998845
1784817522.860037,-0.0224609375,-0.18310546875,0.9697265028953552,0.9871178231686385,-0.102996826171875,0.164031982421875,-0.9212493896484375,0.9413900761036035
1784817522.869671,-0.0224609375,-0.19775390625,0.9726561903953552,0.9928097329624233,-0.164031982421875,0.40435791015625,-0.4901885986328125,0.6562748456194103
1784817522.879305,-0.0219726525247097,-0.1806640625,0.9765624403953552,0.9933763138553824,-0.3490447998046875,0.2841949462890625,-0.5512237548828125,0.7116506641000516
1784817522.888938,-0.020507805049419403,-0.18359375,0.9892577528953552,1.0063588508929482,-0.286102294921875,0.34332275390625,-0.2498626708984375,0.5120121002650582
1784817522.89575,-0.0253906212747097,-0.19091796875,0.9633788466453552,0.9824424444231207,-0.1659393310546875,-0.0209808349609375,-0.3070831298828125,0.3496800046973798
1784817522.902561,-0.0283203125,-0.193359375,0.9716796278953552,0.9911363111436006,0.2613067626953125,-0.4482269287109375,-0.4901885986328125,0.7137741001756401
1784817522.909374,-0.0297851525247097,-0.1845703125,0.9667968153953552,0.984707793117262,0.5702972412109375,-0.2040863037109375,-0.7953643798828125,0.999747297811587
1784817522.916186,-0.011718746274709702,-0.1953125,0.9653319716453552,0.9849619876681587,0.507354736328125,-0.57220458984375,-0.7381439208984375,1.0628656401785477
1784817522.922997,-0.012695308774709702,-0.1865234375,0.9672850966453552,0.985186592374214,0.4444122314453125,-0.3871917724609375,-1.5926361083984375,1.6982077240120432
1784817522.92981,-0.013671875,-0.20751953125,0.9614257216453552,0.9836618800469638,0.324249267578125,-0.75531005859375,-1.7147064208984375,1.901538582834483
1784817522.936622,-0.0068359337747097015,-0.181640625,0.9638671278953552,0.9808567106760313,0.2613067626953125,-0.8144378662109375,-2.0809173583984375,2.2498460646525267
1784817522.94943,-0.009765617549419403,-0.1845703125,0.9628905653953552,0.9804691777255703,0.202178955078125,-1.06048583984375,-2.3212432861328125,2.5600150272610205
1784817522.962235,-0.010742183774709702,-0.1845703125,0.9702147841453552,0.9876731858984608,-0.102996826171875,-0.75531005859375,-2.3860931396484375,2.504903611297591
1784817522.975039,-0.0058593712747097015,-0.185546875,0.9628905653953552,0.980622361554838,0.141143798828125,-0.75531005859375,-2.9315948486328125,3.0306209286367327
1784817522.987843,-0.02783203125,-0.1845703125,0.9663085341453552,0.9841712276743279,0.019073486328125,-0.63323974609375,-2.9315948486328125,2.999267365615148
1784817523.000647,-0.0161132775247097,-0.1904296875,0.9677733778953552,0.9864625763590437,0.0782012939453125,-0.5092620849609375,-3.3626556396484375,3.401898920369758
1784817523.008628,-0.0488281175494194,-0.1943359375,0.9726561903953552,0.9930814198150267,0.4444122314453125,-0.6923675537109375,-3.3626556396484375,3.4618388194353176
1784817523.016611,-0.0214843712747097,-0.1875,0.9707030653953552,0.9888792997009336,0.324249267578125,-0.324249267578125,-3.1757354736328125,3.2086712161796394
1784817523.024593,-0.02392578125,-0.18798828125,0.9755858778953552,0.9938208299510546,0.507354736328125,-0.324249267578125,-2.5691986083984375,2.638811835920856
1784817523.032574,-0.0366210900247097,-0.19482421875,0.9541015028953552,0.9744779413990453,0.141143798828125,0.03814697265625,-2.3860931396484375,2.3905683915227796
1784817523.042218,-0.0307617150247097,-0.18408203125,0.9589843153953552,0.9769766601688525,0.202178955078125,-0.019073486328125,-1.5277862548828125,1.5412238540737817
1784817523.051861,-0.0268554650247097,-0.19091796875,0.9785155653953552,0.9973282300799026,0.202178955078125,0.164031982421875,-1.1615753173828125,1.1903949088797021
1784817523.061502,-0.0297851525247097,-0.1806640625,0.9741210341453552,0.9911803306938352,0.263214111328125,0.34332275390625,-0.8563995361328125,0.9594646148975596
1784817523.071145,-0.0351562462747097,-0.189453125,0.9628905653953552,0.9819810024393448,0.0782012939453125,-0.2040863037109375,-0.3681182861328125,0.4281094887087571
1784817523.080787,-0.0219726525247097,-0.1826171875,0.9672850966453552,0.9846178410030949,0.019073486328125,-0.08392333984375,0.2384185791015625,0.2534765151094806
1784817523.090345,-0.0312499962747097,-0.1953125,0.9682616591453552,0.9882581522529098,0.2040863037109375,-0.2040863037109375,0.4863739013671875,0.5655634452967454
1784817523.099905,-0.0312499962747097,-0.20166015625,0.9663085341453552,0.9876211642366161,0.1392364501953125,-0.0209808349609375,0.3643035888671875,0.3905689303569379
1784817523.109463,-0.01220703125,-0.193359375,0.9638671278953552,0.9831463267233267,0.0782012939453125,-0.8754730224609375,0.5435943603515625,1.0334714722901812
1784817523.119023,-0.0161132775247097,-0.19140625,0.9731444716453552,0.9919204368020493,0.202178955078125,-0.45013427734375,0.6694793701171875,0.831684931045867
1784817523.128582,-0.0175781212747097,-0.19140625,0.9716796278953552,0.9905082746516896,0.019073486328125,-0.324249267578125,0.4253387451171875,0.5351770113742961
1784817523.138186,-0.0195312462747097,-0.18115234375,0.9755858778953552,0.9924542540470127,0.202178955078125,-0.63323974609375,0.4863739013671875,0.823667698674956
1784817523.147794,-0.01171875,-0.1982421875,0.9663085341453552,0.9865036630284212,0.2613067626953125,-0.7534027099609375,0.3643035888671875,0.8767063205363023
1784817523.157401,-0.014160152524709702,-0.19140625,0.9648436903953552,0.9837480416012596,0.385284423828125,-0.93841552734375,-0.0629425048828125,1.0163806118405356
1784817523.167007,-0.013183590024709702,-0.17041015625,0.9648436903953552,0.9798656924777074,0.1392364501953125,-0.8144378662109375,0.1201629638671875,0.8349460850058306
1784817523.176615,-0.016113273799419403,-0.18798828125,0.9619140028953552,0.9802437352240664,0.0782012939453125,-0.8754730224609375,-0.3070831298828125,0.9310577340263249
1784817523.186216,-0.011718746274709702,-0.18408203125,0.9653319716453552,0.9827966924670055,0.141143798828125,-0.75531005859375,-0.0629425048828125,0.770958244966257
1784817523.19582,-0.015624996274709702,-0.18408203125,0.9697265028953552,0.9871675770381471,0.202178955078125,-0.75531005859375,-0.1850128173828125,0.8034919769887577
1784817523.205424,-0.01904296875,-0.1904296875,0.9702147841453552,0.9889099190089962,0.4444122314453125,-0.5702972412109375,0.1201629638671875,0.7329258575574716
1784817523.215028,-0.01904296875,-0.18505859375,0.9741210341453552,0.9917263266365158,-0.1659393310546875,-0.6923675537109375,-0.0019073486328125,0.7119777587827812
1784817523.224632,-0.013671871274709702,-0.1826171875,0.9702147841453552,0.9873462840405998,-0.0438690185546875,-0.3261566162109375,0.5435943603515625,0.6354505942188934
1784817523.232668,-0.0214843712747097,-0.19873046875,0.9560546278953552,0.9767271005448709,-0.041961669921875,-0.45013427734375,0.3032684326171875,0.5443834968149733
1784817523.240704,-0.02294921875,-0.193359375,0.9672850966453552,0.9866888935899908,0.0782012939453125,-0.3871917724609375,0.6084442138671875,0.7254221339500356
1784817523.248739,-0.009765621274709702,-0.1875,0.9643554091453552,0.9824627079471192,-0.102996826171875,-0.812530517578125,0.6694793701171875,1.0578359112876445
1784817523.256776,-0.011230465024709702,-0.1977538913488388,0.9663085341453552,0.9863999736670843,0.385284423828125,-0.14495849609375,0.7266998291015625,0.83519440518395
1784817523.267373,-0.014648430049419403,-0.18408203125,0.9711913466453552,0.9885916257640751,0.6275177001953125,-0.0209808349609375,0.4253387451171875,0.7583743848469146
1784817523.27797,-0.0014648400247097015,-0.18408203125,0.9628905653953552,0.9803298327159135,0.5702972412109375,0.1621246337890625,0.5435943603515625,0.8043743959252235
1784817523.288567,-0.00048827752470970154,-0.1728515625,0.9545897841453552,0.970113167145106,0.5702972412109375,0.7724761962890625,0.7266998291015625,1.2041806586979649
1784817523.296628,-0.010742183774709702,-0.1767578125,0.9570311903953552,0.973276640108857,0.1392364501953125,0.6504058837890625,0.3643035888671875,0.7583743848469146
1784817523.30469,-0.019531242549419403,-0.18310546875,0.9672850966453552,0.9846570673660427,0.1392364501953125,0.5893707275390625,0.0553131103515625,0.6081152717369296
1784817523.312752,-0.0073242150247097015,-0.18505859375,0.9716796278953552,0.989172192549564,-0.286102294921875,0.34332275390625,-0.2498626708984375,0.5120121002650582
1784817523.320814,-0.0166015587747097,-0.18359375,0.9711913466453552,0.9885316932661447,-0.225067138671875,0.52642822265625,-0.1850128173828125,0.6016740256275729
1784817523.331406,-0.0058593712747097015,-0.1826171875,0.9658202528953552,0.9829507262853988,-0.469207763671875,0.469207763671875,-0.4901885986328125,0.8249828563124962
1784817523.341998,-0.0166015587747097,-0.2021484225988388,0.9672850966453552,0.9883218376142273,-0.2841949462890625,0.4673004150390625,-0.4901885986328125,0.7344530669971525
1784817523.35259,-0.020019523799419403,-0.17431640625,0.9726561903953552,0.9883557332941799,-0.1659393310546875,0.4673004150390625,-0.1850128173828125,0.5292780763289588
1784817523.36086,-0.0214843712747097,-0.189453125,0.9658202528953552,0.9844606775713203,0.019073486328125,0.77056884765625,-0.0019073486328125,0.770807229362697
1784817523.369133,-0.0170898400247097,-0.18212890625,0.9731444716453552,0.9901884486388483,0.0171661376953125,0.4673004150390625,-0.4901885986328125,0.6774579074810885
1784817523.377406,-0.020507805049419403,-0.19287109375,0.9819335341453552,1.0009062365433905,-0.164031982421875,0.52642822265625,-0.1239776611328125,0.5651580534029672
1784817523.385679,-0.0229492150247097,-0.1875,0.9624022841453552,0.9807655545534046,0.1392364501953125,0.1010894775390625,-0.1850128173828125,0.252657107812225
1784817523.395989,-0.0166015587747097,-0.1953125,0.9643554091453552,0.9840751696684078,0.629425048828125,0.03814697265625,-0.1850128173828125,0.6571611873894031
1784817523.406301,-0.01904296875,-0.19384765625,0.9829100966453552,1.0020238552947796,0.324249267578125,-0.26702880859375,-0.1239776611328125,0.437963962677194
1784817523.416612,-0.0253906212747097,-0.18408203125,0.9809569716453552,0.9984024529704782,0.2613067626953125,-0.0820159912109375,0.0553131103515625,0.2794054173085788
1784817523.424604,-0.0170898400247097,-0.1865234375,0.9580077528953552,0.9761464592859488,0.2613067626953125,-0.2651214599609375,0.1201629638671875,0.3911646081222972
1784817523.432596,-0.0170898400247097,-0.18701171875,0.9760741591453552,0.9939749542786335,0.5054473876953125,-0.0209808349609375,0.1201629638671875,0.5199580704720532
1784817523.440588,-0.0175781212747097,-0.1943359375,0.9736327528953552,0.9929935470395264,0.507354736328125,-0.14495849609375,0.1811981201171875,0.5579019204110572
1784817523.44858,-0.010253898799419403,-0.17822265625,0.9750975966453552,0.9913040808071669,0.690460205078125,-0.08392333984375,0.2384185791015625,0.7352699100519917
1784817523.459262,-0.0234374962747097,-0.1826171875,0.9750975966453552,0.9923274038267739,0.385284423828125,0.164031982421875,0.4253387451171875,0.59687823431558
1784817523.469946,-0.0078124962747097015,-0.1875,0.9677733778953552,0.9858004849162068,0.446319580078125,-0.14495849609375,0.5435943603515625,0.7181287919007983
1784817523.480628,-0.0166015587747097,-0.18505859375,0.9667968153953552,0.9844888913203024,-0.0438690185546875,0.1621246337890625,0.0553131103515625,0.17682880943713122
1784817523.488703,-0.01806640625,-0.17431640625,0.9682616591453552,0.9839935188270404,0.2613067626953125,0.2841949462890625,-0.4329681396484375,0.580094304124059
1784817523.496778,-0.0214843712747097,-0.181640625,0.9633788466453552,0.9805884442635427,0.0782012939453125,0.1010894775390625,-0.1239776611328125,0.17805893772513717
1784817523.504854,-0.015624996274709702,-0.181640625,0.9624022841453552,0.9795180517413512,0.1392364501953125,0.1621246337890625,-0.1850128173828125,0.28266752296674497
1784817523.512931,-0.014160152524709702,-0.18115234375,0.9819335341453552,0.9986040992529666,-0.164031982421875,-0.324249267578125,0.0553131103515625,0.36756444191320375
1784817523.523495,-0.011718746274709702,-0.185546875,0.9624022841453552,0.9801954541644813,-0.164031982421875,-0.26702880859375,-0.2498626708984375,0.40080198375849985
1784817523.534059,-0.008789058774709702,-0.17236328125,0.9614257216453552,0.9767936151095091,0.019073486328125,-0.45013427734375,-0.3070831298828125,0.5452382178269545
1784817523.544623,-0.0234375,-0.18408203125,0.9736327528953552,0.9911590428109728,0.2613067626953125,0.2231597900390625,-0.2498626708984375,0.4248680623782914
1784817523.555288,-0.013183590024709702,-0.18212890625,0.9707030653953552,0.9877293084168861,0.0782012939453125,0.1621246337890625,-0.0629425048828125,0.19068717360347462
1784817523.565954,-0.02294921875,-0.19921875,0.9692382216453552,0.9897663902613831,0.1392364501953125,0.2841949462890625,-0.0629425048828125,0.3226690494611433
1784817523.576622,-0.01904296875,-0.18017578125,0.9667968153953552,0.9836269765853628,0.0782012939453125,0.0400543212890625,0.1201629638671875,0.14885875491215028
1784817523.584645,-0.0258789025247097,-0.19091796875,0.9643554091453552,0.9834128042360517,0.019073486328125,0.09918212890625,0.0553131103515625,0.11515395239352097
1784817523.592667,-0.01904296875,-0.173828125,0.9687499403953552,0.9844060639369474,0.019073486328125,-0.45013427734375,0.3032684326171875,0.5430988931516753
1784817523.600689,-0.010253902524709702,-0.17578125,0.9702147841453552,0.9860633436766458,-0.102996826171875,-0.26702880859375,0.3032684326171875,0.41699457195815226
1784817523.608711,-0.00390625,-0.17822265625,0.9838866591453552,0.999905761576598,-0.1659393310546875,-0.3871917724609375,0.3643035888671875,0.5569294705021745
1784817523.619366,-0.010253902524709702,-0.1845703125,0.9628905653953552,0.9804741626890128,-0.1010894775390625,-0.2040863037109375,0.4253387451171875,0.48247626877327077
1784817523.630021,-0.00439453125,-0.18359375,0.9702147841453552,0.987442506841886,-0.102996826171875,-0.14495849609375,0.3643035888671875,0.4053867494785121
1784817523.640676,-0.0185546875,-0.18359375,0.9716796278953552,0.9890461266969004,0.0782012939453125,0.2231597900390625,0.3643035888671875,0.4343188219804806
1784817523.651361,-0.0249023400247097,-0.181640625,0.9604491591453552,0.9777914043864964,0.0782012939453125,0.3452301025390625,0.3643035888671875,0.5079531188361437
1784817523.66205,-0.010253898799419403,-0.19384765625,0.9741210341453552,0.9932743052342707,0.1392364501953125,0.6504058837890625,0.1811981201171875,0.6893818691149528
1784817523.672738,-0.0009765587747097015,-0.1904296875,0.9697265028953552,0.9882478990445887,0.202178955078125,0.52642822265625,-0.0019073486328125,0.5639207758757501
1784817523.680717,-0.0058593712747097015,-0.18359375,0.9677733778953552,0.9850514241570251,0.0782012939453125,0.2841949462890625,-0.2498626708984375,0.3864111336121996
1784817523.688696,-0.012695308774709702,-0.19580078125,0.9716796278953552,0.9912922959802782,-0.041961669921875,0.34332275390625,-0.3681182861328125,0.5051161922545773
1784817523.696674,-0.01318359375,-0.17431640625,0.9619140028953552,0.9776699676262156,0.019073486328125,0.70953369140625,-0.5512237548828125,0.8986932096485406
1784817523.704652,-0.0341796837747097,-0.18701171875,0.9687499403953552,0.9872274716339555,-0.041961669921875,0.70953369140625,-0.6732940673828125,0.9790422575946879
1784817523.715318,-0.0249023400247097,-0.1826171875,0.9721679091453552,0.9894845159380555,-0.225067138671875,0.34332275390625,-0.4901885986328125,0.6393829779477376
1784817523.725986,-0.024414055049419403,-0.19384765625,0.9804686903953552,0.9997458740915899,0.1392364501953125,0.1621246337890625,-0.2498626708984375,0.3287895075161771
1784817523.736653,-0.0219726525247097,-0.18505859375,0.9731444716453552,0.990827756612428,-0.1010894775390625,0.1010894775390625,-0.7381439208984375,0.7518607669625806
1784817523.747305,-0.0209960900247097,-0.19482421875,0.9697265028953552,0.9893264387579708,0.0782012939453125,0.0400543212890625,-0.2498626708984375,0.2648606149225466
1784817523.757956,-0.0292968712747097,-0.18017578125,0.9653319716453552,0.9824395321322548,0.1392364501953125,0.1010894775390625,-0.0019073486328125,0.17207413957628687
1784817523.768606,-0.0170898400247097,-0.18701171875,0.9702147841453552,0.9882217225684312,0.1392364501953125,-0.0209808349609375,0.2384185791015625,0.27689420968929246
1784817523.776624,-0.013671871274709702,-0.1904296875,0.9711913466453552,0.9897792772857585,-0.1659393310546875,-0.3871917724609375,0.3032684326171875,0.5190617231836742
1784817523.784638,-0.0185546875,-0.19287109375,0.9663085341453552,0.9855433620063042,0.0782012939453125,0.0400543212890625,0.2384185791015625,0.25409291585846433
1784817523.792654,-0.01904296875,-0.1826171875,0.9736327528953552,0.9907938278672367,0.2040863037109375,-0.2040863037109375,0.3032684326171875,0.4186575939199857
1784817523.800669,-0.0175781212747097,-0.19580078125,0.9584960341453552,0.9784485595870805,-0.1010894775390625,0.1010894775390625,0.4253387451171875,0.4487217545830657
1784817523.811325,-0.01904296875,-0.185546875,0.9702147841453552,0.9879812775833848,0.1392364501953125,-0.0209808349609375,0.3032684326171875,0.3343631659150503
1784817523.821981,-0.0263671837747097,-0.18212890625,0.9843749403953552,1.001429073949019,-0.2269744873046875,-0.0820159912109375,0.1811981201171875,0.3017893295587852
1784817523.832637,-0.0209960900247097,-0.18408203125,0.9619140028953552,0.9795945993070895,0.202178955078125,-0.019073486328125,0.2384185791015625,0.3131829283629612
1784817523.843303,-0.0175781212747097,-0.19580078125,0.9726561903953552,0.9923240403215394,0.324249267578125,0.03814697265625,-0.0019073486328125,0.3264910672998486
1784817523.853971,-0.030273430049419403,-0.19775390625,0.9741210341453552,0.9944520487024536,0.202178955078125,0.28228759765625,-0.2498626708984375,0.4277779470420609
1784817523.864639,-0.008300777524709702,-0.18994140625,0.9609374403953552,0.9795649060012915,0.202178955078125,0.03814697265625,-0.0629425048828125,0.21515873284680323
1784817523.872799,-0.0073242150247097015,-0.18603515625,0.9667968153953552,0.9845602093042816,0.2613067626953125,0.1621246337890625,-0.1239776611328125,0.33156610437664535
1784817523.880963,-0.013671871274709702,-0.18212890625,0.9765624403953552,0.9934948709212873,0.202178955078125,0.164031982421875,-0.4329681396484375,0.5052170138508418
1784817523.889126,-0.0078124962747097015,-0.17529296875,0.9711913466453552,0.9869150377768339,0.385284423828125,0.164031982421875,-0.0019073486328125,0.4187531689201022
1784817523.897289,-0.008789058774709702,-0.1865234375,0.9790038466453552,0.9966527840915129,0.3223419189453125,0.1621246337890625,-0.0019073486328125,0.36082176703933916
1784817523.907767,-0.02294921875,-0.17822265625,0.9653319716453552,0.9819143533540743,-0.347137451171875,0.03814697265625,0.3643035888671875,0.5046550370207904
1784817523.918245,-0.0200195275247097,-0.19091796875,0.9663085341453552,0.9851916744654736,-0.164031982421875,0.03814697265625,-0.0629425048828125,0.17978721228443884
1784817523.928723,-0.0209960900247097,-0.18994140625,0.9721679091453552,0.9907719299498775,-0.102996826171875,0.22125244140625,-0.0019073486328125,0.2440586548527067
1784817523.9367,-0.00927734375,-0.197265625,0.9741210341453552,0.9939374150710459,-0.1659393310546875,-0.2040863037109375,0.0553131103515625,0.2687873157908206
1784817523.944677,-0.01318359375,-0.1923828125,0.9833983778953552,1.0021264008780484,-0.347137451171875,0.03814697265625,0.1811981201171875,0.3934366025968419
1784817523.952654,-0.0200195275247097,-0.177734375,0.9770507216453552,0.9932866666812067,-0.0438690185546875,-0.0820159912109375,0.1811981201171875,0.20367590023678991
1784817523.96063,-0.009765621274709702,-0.1953125,0.9716796278953552,0.9911627713357615,0.0782012939453125,-0.2651214599609375,0.3032684326171875,0.4103371456846501
1784817523.971308,-0.0258789025247097,-0.17626953125,0.9765624403953552,0.9926806461465388,0.1392364501953125,-0.2040863037109375,0.3032684326171875,0.3911646081222972
1784817523.981987,-0.013671875,-0.18359375,0.9682616591453552,0.9856085560586384,0.0782012939453125,-0.2040863037109375,0.1201629638671875,0.24941090517950734
1784817523.992665,-0.0166015587747097,-0.1865234375,0.9624022841453552,0.9804513047667199,0.202178955078125,-0.45013427734375,0.1811981201171875,0.5256709581575392
1784817524.000649,-0.0073242150247097015,-0.1826171875,0.9721679091453552,0.9891982232435469,-0.164031982421875,-0.14495849609375,-0.0019073486328125,0.21891344140052052
1784817524.008635,-0.0126953125,-0.17919921875,0.9702147841453552,0.986706774241619,0.1392364501953125,-0.3261566162109375,0.2384185791015625,0.4273269781115727
1784817524.016619,-0.0302734337747097,-0.177734375,0.9824218153953552,0.9988286200414253,0.0782012939453125,-0.1430511474609375,-0.0629425048828125,0.17475935478690385
1784817524.024605,-0.0219726525247097,-0.19482421875,0.9633788466453552,0.9831266835124832,0.141143798828125,0.03814697265625,-0.0629425048828125,0.15918078524556217
1784817524.035327,-0.02880859375,-0.1884765625,0.9721679091453552,0.9906885450320502,0.141143798828125,-0.14495849609375,0.1811981201171875,0.27160135542997327
1784817524.046051,-0.021484375,-0.18310546875,0.9580077528953552,0.9755860011618175,0.2613067626953125,-0.0820159912109375,0.3643035888671875,0.4557685288675927
1784817524.056774,-0.01318359375,-0.17333984375,0.9687499403953552,0.9842240372961045,0.202178955078125,0.03814697265625,0.3032684326171875,0.36647409679458215
1784817524.064796,-0.010253898799419403,-0.1923828125,0.9672850966453552,0.986284313561872,0.019073486328125,-0.08392333984375,0.3032684326171875,0.315243821625935
1784817524.072819,-0.0087890625,-0.19921875,0.9731444716453552,0.9933657537207073,0.019073486328125,0.09918212890625,0.0553131103515625,0.11515395239352097
1784817524.080842,-0.01806640625,-0.189453125,0.9697265028953552,0.9882248590400421,0.3223419189453125,0.1010894775390625,0.2384185791015625,0.41348133457179786
1784817524.09686,-0.009765617549419403,-0.1923828125,0.9687499403953552,0.9877160324949352,0.202178955078125,0.22125244140625,0.3643035888671875,0.4717478961969214
1784817524.104858,0.0063476599752902985,-0.181640625,0.9648436903953552,0.9818130964360176,-0.102996826171875,0.52642822265625,0.3643035888671875,0.6484227977731895
1784817524.112855,-0.0278320275247097,-0.18603515625,0.9697265028953552,0.9878022026371238,-0.1010894775390625,0.6504058837890625,-0.1850128173828125,0.6837226328947127
1784817524.120853,-0.0175781212747097,-0.1865234375,0.9604491591453552,0.9785512609911576,-0.7724761962890625,0.4673004150390625,-0.0629425048828125,0.9050143151629266
1784817524.131454,-0.010742183774709702,-0.19189453125,0.9594725966453552,0.9785328657481502,-0.774383544921875,0.164031982421875,-0.0629425048828125,0.7940643077383234
1784817524.142056,-0.011718746274709702,-0.1943359375,0.9702147841453552,0.9895557149511457,-0.957489013671875,0.22125244140625,-0.1850128173828125,0.9999837982319973
1784817524.152657,-0.0209960900247097,-0.18408203125,0.9736327528953552,0.9911043171816172,-0.469207763671875,0.28228759765625,-0.2498626708984375,0.6018916576835069
1784817524.163299,-0.0214843712747097,-0.18994140625,0.9799804091453552,0.9984492567607004,-0.5893707275390625,0.6504058837890625,-0.0019073486328125,0.8777182384604768
1784817524.173944,-0.0200195275247097,-0.177734375,0.9780272841453552,0.9942472821545416,-0.347137451171875,0.52642822265625,0.0553131103515625,0.6330012826147261
1784817524.184588,-0.012207027524709702,-0.189453125,0.9682616591453552,0.9866975923068682,-0.0438690185546875,0.7724761962890625,0.2384185791015625,0.809621753341014
1784817524.1926,-0.0039062462747097015,-0.1806640625,0.9736327528953552,0.9902603191835723,0.019073486328125,0.58746337890625,-0.1850128173828125,0.616203506994713
1784817524.200613,-0.0214843712747097,-0.189453125,0.9794921278953552,0.9978771935415229,-0.164031982421875,0.58746337890625,-0.1850128173828125,0.637377011986724
1784817524.208625,-0.0332031212747097,-0.185546875,0.9721679091453552,0.9902729591666635,-0.1010894775390625,0.6504058837890625,-0.1850128173828125,0.6837226328947127
1784817524.216637,-0.01416015625,-0.189453125,0.9843749403953552,1.002540283417903,-0.102996826171875,0.58746337890625,-0.3681182861328125,0.7008799043650681
1784817524.227298,-0.0244140587747097,-0.19482421875,0.9755858778953552,0.9951483947765045,0.2613067626953125,0.4062652587890625,-0.0629425048828125,0.48712877522290876
1784817524.237959,-0.0029296837747097015,-0.18115234375,0.9648436903953552,0.9817067289108626,0.385284423828125,0.164031982421875,-0.0019073486328125,0.4187531689201022
1784817524.24862,-0.01708984375,-0.18798828125,0.9594725966453552,0.9778646738481297,-0.3490447998046875,0.1010894775390625,-0.1850128173828125,0.4077757929742041
1784817524.25664,-0.0185546875,-0.205078125,0.9565429091453552,0.9784557480121406,0.0782012939453125,-0.1430511474609375,-0.2498626708984375,0.2983461537763022
1784817524.264661,-0.0185546837747097,-0.18212890625,0.9741210341453552,0.9911745577577227,-0.0438690185546875,0.2231597900390625,-0.3681182861328125,0.4327075863265968
1784817524.272681,-0.0166015587747097,-0.18701171875,0.9819335341453552,0.9997211912242167,-0.286102294921875,0.40435791015625,-0.1239776611328125,0.510617570325832
1784817524.280701,-0.011230465024709702,-0.19091796875,0.9653319716453552,0.9840943093103456,0.0782012939453125,0.1010894775390625,0.1811981201171875,0.22173696935298023
1784817524.291344,-0.014160152524709702,-0.18603515625,0.9707030653953552,0.9884705511285727,0.2613067626953125,0.1621246337890625,0.2384185791015625,0.38911314546330866
1784817524.301986,-0.00732421875,-0.19287109375,0.9575194716453552,0.9767786041701668,0.019073486328125,-0.019073486328125,-0.1850128173828125,0.18696881653726183
1784817524.312629,-0.012207027524709702,-0.19140625,0.9521483778953552,0.9712733382466584,-0.0438690185546875,-0.0820159912109375,-0.0019073486328125,0.09303091734510192
1784817524.32338,-0.015136715024709702,-0.19677734375,0.9550780653953552,0.9752561479705624,-0.286102294921875,-0.26702880859375,-0.0629425048828125,0.39638449351543004
1784817524.334133,-0.013671871274709702,-0.19091796875,0.9707030653953552,0.989394275313799,-0.0438690185546875,-0.7534027099609375,0.0553131103515625,0.7567031613137348
1784817524.344887,-0.0224609337747097,-0.1943359375,0.9750975966453552,0.9945281660835874,0.0782012939453125,-0.6313323974609375,-0.3070831298828125,0.7063965508955438
1784817524.35282,-0.0014648400247097015,-0.19189453125,0.9785155653953552,0.9971551376796626,0.1392364501953125,-0.5092620849609375,-0.0019073486328125,0.5279567200259506
1784817524.360756,-0.00390625,-0.1748046875,0.9658202528953552,0.981519586388312,0.4444122314453125,-0.2651214599609375,-0.0019073486328125,0.5174893795710479
1784817524.368691,-0.0297851525247097,-0.19091796875,0.9682616591453552,0.9873537697671804,0.3871917724609375,0.4673004150390625,0.1201629638671875,0.6186487569230779
1784817524.376626,-0.0185546837747097,-0.1865234375,0.9667968153953552,0.9848001580449692,0.263214111328125,-0.14495849609375,-0.1239776611328125,0.32506167791971236
1784817524.387383,-0.030273430049419403,-0.18310546875,0.9707030653953552,0.9882856542624979,0.2613067626953125,-0.0820159912109375,-0.0629425048828125,0.2810153126887213
1784817524.39814,-0.0258789025247097,-0.1884765625,0.9687499403953552,0.9872535536647635,0.2613067626953125,-0.6923675537109375,0.1811981201171875,0.7618968515461755
1784817524.408896,-0.01318359375,-0.19775390625,0.9716796278953552,0.9916862981044736,0.202178955078125,-0.324249267578125,0.3032684326171875,0.4878377390316565
1784817524.419478,-0.01904296875,-0.18408203125,0.9780272841453552,0.9953824377698648,0.202178955078125,-0.08392333984375,0.4863739013671875,0.5333657551607065
1784817524.430058,-0.004882805049419403,-0.17919921875,0.9580077528953552,0.9746358583560164,0.202178955078125,-0.324249267578125,0.3643035888671875,0.5279498293047795
1784817524.440639,-0.0200195275247097,-0.177734375,0.9760741591453552,0.9923260823389988,0.141143798828125,-0.14495849609375,0.0553131103515625,0.20974765246400276
1784817524.451313,-0.0166015587747097,-0.189453125,0.9731444716453552,0.9915534584781263,0.385284423828125,0.09918212890625,0.1811981201171875,0.4371658045558332
1784817524.461989,-0.02880859375,-0.18359375,0.9521483778953552,0.9701150105228097,0.141143798828125,0.03814697265625,0.1811981201171875,0.2328293843235291
1784817524.472665,-0.0214843712747097,-0.1875,0.9726561903953552,0.9907965951311475,0.1392364501953125,0.2841949462890625,-0.2498626708984375,0.40321819262991565
1784817524.480685,-0.020507805049419403,-0.1923828125,0.9653319716453552,0.9845290915427862,0.2613067626953125,0.4062652587890625,0.3032684326171875,0.5703546501531603
1784817524.488704,-0.02392578125,-0.17529296875,0.9648436903953552,0.9809298725175717,0.141143798828125,0.34332275390625,0.2384185791015625,0.4411751400047534
1784817524.496724,-0.015136711299419403,-0.1787109375,0.9643554091453552,0.980891469204925,0.0782012939453125,0.2231597900390625,0.1201629638671875,0.26524492860438753
1784817524.504743,-0.013671875,-0.18896484375,0.9609374403953552,0.9794362647426602,-0.3490447998046875,0.2841949462890625,0.1811981201171875,0.48521314749390315
1784817524.515445,-0.0209960900247097,-0.19189453125,0.9594725966453552,0.9786991420418041,0.019073486328125,0.22125244140625,-0.2498626708984375,0.3342869949869964
1784817524.526149,-0.01220703125,-0.19287109375,0.9653319716453552,0.9844867118945632,-0.164031982421875,0.40435791015625,-0.1239776611328125,0.45363230839871044
1784817524.536852,-0.014648433774709702,-0.181640625,0.9765624403953552,0.9934193944419317,0.1392364501953125,0.5893707275390625,-0.4329681396484375,0.7444501685764766
1784817524.54744,-0.0258789025247097,-0.189453125,0.9692382216453552,0.9879194979685337,-0.0438690185546875,0.4673004150390625,-0.5512237548828125,0.7239763785039803
1784817524.558027,-0.009765621274709702,-0.18505859375,0.9682616591453552,0.9858360365956017,0.324249267578125,0.22125244140625,-0.7381439208984375,0.8360303094460723
1784817524.568614,-0.014648433774709702,-0.20458984375,0.9682616591453552,0.9897485647115724,0.4444122314453125,-0.0209808349609375,-0.7381439208984375,0.8618578043118127
1784817524.576663,-0.015136715024709702,-0.1806640625,0.9633788466453552,0.9802894602026883,0.202178955078125,-0.08392333984375,-0.7381439208984375,0.7699194144885105
1784817524.584712,-0.014160152524709702,-0.19189453125,0.9682616591453552,0.9871953512927907,0.3223419189453125,-0.0209808349609375,-0.4329681396484375,0.5401906312549611
1784817524.59276,-0.0161132775247097,-0.1865234375,0.9765624403953552,0.9943464338148633,0.3223419189453125,-0.0209808349609375,-0.3681182861328125,0.48975052907614475
1784817524.600808,-0.01708984375,-0.197265625,0.9692382216453552,0.9892565490631289,0.3871917724609375,-0.0209808349609375,-0.3681182861328125,0.5346669399565114
1784817524.611413,-0.0253906212747097,-0.19091796875,0.9736327528953552,0.992499416599793,0.202178955078125,-0.324249267578125,-0.1850128173828125,0.424551127659978
1784817524.62202,-0.0249023400247097,-0.1826171875,0.9711913466453552,0.9885250606372784,0.141143798828125,0.03814697265625,0.2384185791015625,0.27967871268882605
1784817524.632626,-0.0166015587747097,-0.17724609375,0.9707030653953552,0.9868922082331602,0.385284423828125,0.03814697265625,-0.0629425048828125,0.39225124306792175
1784817524.640617,-0.020996086299419403,-0.17822265625,0.9541015028953552,0.970831514047558,0.0782012939453125,-0.0209808349609375,0.4253387451171875,0.43297654198379276
1784817524.64861,-0.015624996274709702,-0.1806640625,0.9716796278953552,0.9884558377866178,0.3871917724609375,-0.2040863037109375,0.2384185791015625,0.4984095774407264
1784817524.656602,-0.0224609337747097,-0.189453125,0.9721679091453552,0.9907105650442762,0.2613067626953125,-0.2040863037109375,0.2384185791015625,0.40838200554567217
1784817524.664594,-0.011230465024709702,-0.1826171875,0.9702147841453552,0.9873154956189534,0.1392364501953125,0.1621246337890625,0.0553131103515625,0.22075037060216568
1784817524.675273,-0.01904296875,-0.17041015625,0.9770507216453552,0.9919830485848397,0.0782012939453125,-0.0209808349609375,0.3032684326171875,0.3138907135174038
1784817524.685954,-0.03271484375,-0.1923828125,0.9702147841453552,0.9896454592030498,0.2613067626953125,0.5283355712890625,-0.0019073486328125,0.5894262787647421
1784817524.696634,-0.01416015625,-0.18310546875,0.9765624403953552,0.9936811977199294,0.2613067626953125,0.4673004150390625,-0.1850128173828125,0.566463277469873
1784817524.707303,-0.013671871274709702,-0.201171875,0.9770507216453552,0.9976397927222417,0.0782012939453125,-0.0209808349609375,-0.6122589111328125,0.6175893555364409
1784817524.717972,-0.015624996274709702,-0.18212890625,0.9619140028953552,0.9791290149753359,-0.102996826171875,-0.14495849609375,-0.3070831298828125,0.3548539987795903
1784817524.728641,-0.013183590024709702,-0.18603515625,0.9653319716453552,0.983182944261957,0.0782012939453125,0.1010894775390625,-0.3681182861328125,0.38967370636110543
1784817524.736644,-0.024414055049419403,-0.18310546875,0.9702147841453552,0.9876438559239518,0.202178955078125,0.164031982421875,-0.4901885986328125,0.5550384521484375
1784817524.744646,-0.0209960900247097,-0.17724609375,0.9677733778953552,0.9840946725335655,0.1392364501953125,-0.0209808349609375,-0.6122589111328125,0.6282419587708123
1784817524.752648,-0.0078124962747097015,-0.1796875,0.9648436903953552,0.9814642019197748,0.0782012939453125,-0.3261566162109375,-0.4329681396484375,0.5476814682126088
1784817524.760649,-0.0214843712747097,-0.1923827975988388,0.9521483778953552,0.9716271160017003,0.0782012939453125,-0.2651214599609375,-0.1850128173828125,0.3326177588501042
1784817524.771317,-0.0170898400247097,-0.189453125,0.9711913466453552,0.9896449772535373,-0.0438690185546875,-0.2040863037109375,-0.0629425048828125,0.21803089017904645
1784817524.781983,-0.00439453125,-0.19384765625,0.9643554091453552,0.9836552144356431,-0.164031982421875,-0.45013427734375,-0.1850128173828125,0.51357287846318
1784817524.79265,-0.0371093712747097,-0.18017578125,0.9692382216453552,0.986541001623198,0.019073486328125,-0.45013427734375,0.3032684326171875,0.5430988931516753
1784817524.803305,-0.0180664025247097,-0.18701171875,0.9726561903953552,0.9906360797812784,0.019073486328125,-0.57220458984375,0.4863739013671875,0.751226638538665
1784817524.813961,-0.0214843712747097,-0.1884765625,0.9702147841453552,0.9885857171713054,0.0782012939453125,-0.5092620849609375,0.4863739013671875,0.7085357333858476
1784817524.824617,-0.005859367549419403,-0.1884765625,0.9760741591453552,0.9941219799155473,0.0782012939453125,-0.4482269287109375,0.1811981201171875,0.48975052907614475
1784817524.834264,-0.001953125,-0.18798828125,0.9589843153953552,0.9772381110859794,0.0782012939453125,-0.3261566162109375,0.3032684326171875,0.45217841931584435
1784817524.843913,-0.014648433774709702,-0.1806640625,0.9707030653953552,0.987480896655219,0.507354736328125,-0.507354736328125,0.4863739013671875,0.8668201825524722
1784817524.853562,-0.0058593712747097015,-0.19482421875,0.9741210341453552,0.9934297144779287,0.507354736328125,-0.324249267578125,0.4863739013671875,0.7740193718058163
1784817524.86321,0.00048828125,-0.18896484375,0.9658202528953552,0.9841324664367541,0.2613067626953125,-0.3871917724609375,0.3643035888671875,0.5923814630398723
1784817524.87286,-0.011230465024709702,-0.17626953125,0.9628905653953552,0.9789562359570283,0.141143798828125,-0.45013427734375,-0.1239776611328125,0.4877631597890279
1784817524.88247,-0.0185546875,-0.189453125,0.9677733778953552,0.9863174306294472,-0.164031982421875,-0.26702880859375,-0.1239776611328125,0.33701830267243704
1784817524.892076,-0.0180664025247097,-0.18994140625,0.9711913466453552,0.9897559115798353,0.0782012939453125,-0.0209808349609375,0.0553131103515625,0.09805701396199763
1784817524.901684,-0.0185546875,-0.19775390625,0.9672850966453552,0.987467134672122,0.2613067626953125,-0.0820159912109375,0.1811981201171875,0.3283909343733771
1784817524.911291,-0.0058593712747097015,-0.19189453125,0.9682616591453552,0.9871111811373166,0.4444122314453125,-0.3261566162109375,-0.1850128173828125,0.5814723659403744
1784817524.920897,-0.00927734375,-0.1875,0.9726561903953552,0.9906070784228533,0.690460205078125,0.52642822265625,-0.1850128173828125,0.8877452962429431
1784817524.93045,-0.01708984375,-0.18359375,0.9726561903953552,0.9899791879190529,0.6275177001953125,0.8335113525390625,-0.1239776611328125,1.050661743535889
1784817524.940004,-0.012695308774709702,-0.18212890625,0.9580077528953552,0.9752491804479071,0.0782012939453125,0.8945465087890625,-0.1239776611328125,0.9064763423396023
1784817524.949558,-0.019531242549419403,-0.1943359375,0.9570311903953552,0.9767582226063309,-0.2269744873046875,0.4673004150390625,-0.2498626708984375,0.5764706845030428
1784817524.959112,-0.009765617549419403,-0.18408203125,0.9658202528953552,0.9832549630782931,-0.5321502685546875,-0.0209808349609375,-0.7953643798828125,0.9571983078468406
1784817524.968666,-0.015136715024709702,-0.1826171875,0.9697265028953552,0.9868878597539869,-0.4100799560546875,0.2231597900390625,-0.7953643798828125,0.9222637144735034
1784817524.978269,-0.010742180049419403,-0.1923828125,0.9716796278953552,0.9905997376561737,-0.225067138671875,0.34332275390625,-0.7953643798828125,0.8950587841287786
1784817524.987874,-0.0307617150247097,-0.18212890625,0.9785155653953552,0.9957961304022397,-0.1010894775390625,0.2841949462890625,-0.7953643798828125,0.8506411386429266
1784817524.997479,-0.0053710900247097015,-0.19677734375,0.9570311903953552,0.9770664619210455,0.019073486328125,0.40435791015625,-0.5512237548828125,0.6838981980775692
1784817525.007083,-0.02197265625,-0.1923828125,0.9824218153953552,1.00132240938311,0.324249267578125,0.22125244140625,-0.6732940673828125,0.7793684183530071
1784817525.016689,-0.0195312462747097,-0.20068359375,0.9809569716453552,1.001464904328197,0.2613067626953125,0.0400543212890625,-0.4901885986328125,0.5569294705021745
1784817525.027507,-0.011718746274709702,-0.1884765625,0.9775390028953552,0.9956119956126045,0.202178955078125,-0.019073486328125,-0.6122589111328125,0.6450589911153312
1784817525.038324,-0.0068359337747097015,-0.2001953125,0.9838866591453552,1.0040706405336994,0.385284423828125,-0.45013427734375,-1.0395050048828125,1.1965097617908373
1784817525.04914,0.009765625,-0.19677734375,0.9697265028953552,0.9895383675545893,0.7495880126953125,-0.2040863037109375,-2.1381378173828125,2.2748992800256977
1784817525.057,0.0239257849752903,-0.1845703125,0.9746093153953552,0.992220721965851,1.7261505126953125,-0.8754730224609375,-5.7392120361328125,6.056781604220753
1784817525.064859,0.0180664099752903,-0.19189453125,0.9755858778953552,0.9944434179187388,1.483917236328125,-1.483917236328125,-7.3261260986328125,7.620770587126491
1784817525.072718,0.010253909975290298,-0.181640625,0.9902343153953552,1.0068080545499623,1.9092559814453125,-1.6689300537109375,-8.611679077148438,8.977282576295595
1784817525.080576,0.014160159975290298,-0.18701171875,0.9682616591453552,0.9862578433915093,1.972198486328125,-1.73187255859375,-10.747909545898438,11.06374751318466
1784817525.091261,-0.0009765587747097015,-0.1767578125,0.9672850966453552,0.9833029727093475,2.338409423828125,-1.789093017578125,-11.598587036132812,11.96646287311932
1784817525.101945,0.0034179724752902985,-0.181640625,0.9760741591453552,0.9928372290247504,2.5234222412109375,-2.1572113037109375,-13.372421264648438,13.778347901527164
1784817525.112628,-0.00390625,-0.197265625,0.9638671278953552,0.9838540673458357,2.5234222412109375,-2.6454925537109375,-14.772415161132812,15.218099104423148
1784817525.123281,0.008300784975290298,-0.18017578125,0.9628905653953552,0.9796379209216233,3.437042236328125,-2.89154052734375,-16.542434692382812,17.14136550883054
1784817525.133933,-0.00439453125,-0.1904296875,0.9677733778953552,0.9863407569137762,3.070831298828125,-3.56292724609375,-18.312454223632812,18.906888562623593
1784817525.144585,-0.0063476525247097015,-0.17724609375,0.9648436903953552,0.981009590849109,3.1299591064453125,-4.2934417724609375,-19.777297973632812,20.478569320130568
1784817525.152599,0.0004882849752902985,-0.17626953125,0.9863280653953552,1.0019552079089444,3.742218017578125,-6.18743896484375,-21.181106567382812,22.3814180081062
1784817525.160613,0.0034179724752902985,-0.18603515625,0.9921874403953552,1.0094833722132774,4.657745361328125,-7.46917724609375,-22.527694702148438,24.18636452999386
1784817525.168627,-0.01220703125,-0.19873046875,0.9980468153953552,1.017713248681741,5.8155059814453125,-8.443832397460938,-23.927688598632812,26.03176323359176
1784817525.176641,-0.0073242150247097015,-0.18896484375,0.9897460341453552,1.007650022778568,6.366729736328125,-8.81195068359375,-24.965286254882812,27.22960227718675
1784817525.187302,-0.0078124962747097015,-0.1875,0.9936522841453552,1.0112181499979735,7.038116455078125,-9.78851318359375,-25.514602661132812,28.219585796678796
1784817525.197963,-0.0288085900247097,-0.1806640625,0.9663085341453552,0.9834742607208187,7.3413848876953125,-10.396957397460938,-24.904251098632812,27.968095715969874
1784817525.208624,-0.0400390587747097,-0.189453125,0.9663085341453552,0.9855190490102033,7.1010589599609375,-11.007308959960938,-24.782180786132812,28.031096543115257
1784817525.216633,-0.0390624962747097,-0.171875,0.9570311903953552,0.9731267099559864,6.427764892578125,-11.74163818359375,-23.256301879882812,26.83352019167309
1784817525.224641,-0.0415039025247097,-0.16943359375,0.9516600966453552,0.9675160237240867,5.8155059814453125,-11.922836303710938,-21.486282348632812,25.251424999601184
1784817525.232649,-0.0522460900247097,-0.17138671875,0.9565429091453552,0.9731790165858597,4.657745361328125,-12.59613037109375,-19.903182983398438,24.01028498471447
1784817525.240657,-0.0385742150247097,-0.166015625,0.9545897841453552,0.9696859356531831,3.559112548828125,-12.59613037109375,-17.580032348632812,21.91773984332765
1784817525.251348,-0.0263671837747097,-0.171875,0.9594725966453552,0.9751019986230106,1.972198486328125,-12.59613037109375,-15.199661254882812,19.83889536890225
1784817525.262038,-0.0175781212747097,-0.16015625,0.9619140028953552,0.975314084655695,1.667022705078125,-13.38958740234375,-13.246536254882812,18.908483235208827
1784817525.27273,0.0024414099752902985,-0.1630859375,0.9726561903953552,0.986236811423771,1.1157989501953125,-13.326644897460938,-11.659622192382812,17.742357824973105
1784817525.280702,0.03369140625,-0.17333984375,0.9921874403953552,1.0077786111863376,1.178741455078125,-13.51165771484375,-10.564804077148438,17.19213223569283
1784817525.288674,0.03515625,-0.1826171875,0.9912108778953552,1.0085058272229037,1.850128173828125,-13.51165771484375,-10.564804077148438,17.251172529750594
1784817525.296646,0.0385742150247097,-0.17578125,0.9858397841453552,1.002131277787544,2.5806427001953125,-13.143539428710938,-10.622024536132812,17.095021225677314
1784817525.304617,0.02001953125,-0.16552734375,0.9804686903953552,0.9945445872387941,3.3740997314453125,-12.899398803710938,-10.805130004882812,17.16187265182146
1784817525.315302,0.0224609412252903,-0.17626953125,0.9707030653953552,0.9868332598244548,3.7403106689453125,-12.960433959960938,-11.053085327148438,17.43942279950684
1784817525.325985,0.0278320349752903,-0.16748046875,0.9721679091453552,0.9868813369172796,3.4999847412109375,-12.960433959960938,-10.931015014648438,17.312129587941737
1784817525.33667,0.0356445349752903,-0.1708984375,0.9667968153953552,0.9824321305169872,3.3168792724609375,-13.143539428710938,-10.622024536132812,17.221548190228646
1784817525.344669,0.0341796875,-0.158203125,0.9580077528953552,0.9715839307054082,2.460479736328125,-12.53509521484375,-9.706497192382812,16.043648597616922
1784817525.352666,0.0327148474752903,-0.15771484375,0.9648436903953552,0.9781960846783975,1.5468597412109375,-12.350082397460938,-9.340286254882812,15.561434946887337
1784817525.360662,0.03173828125,-0.1689453125,0.9458007216453552,0.961295397979883,1.483917236328125,-12.22991943359375,-8.058547973632812,14.721179815483788
1784817525.36866,0.0400390625,-0.15869140625,0.9511718153953552,0.9651496833890467,0.202178955078125,-11.74163818359375,-6.7157745361328125,13.528066054853262
1784817525.379329,0.02783203125,-0.16357421875,0.9584960341453552,0.9727516612556094,-0.1010894775390625,-11.312484741210938,-5.8002471923828125,12.713197772210739
1784817525.39,0.02587890625,-0.16943359375,0.9531249403953552,0.9684134512094438,-0.5321502685546875,-10.519027709960938,-4.4574737548828125,11.436878951301265
1784817525.40067,0.03466796875,-0.15771484375,0.9560546278953552,0.9695959423989273,-0.652313232421875,-10.150909423828125,-2.7484893798828125,10.53663459342137
1784817525.408667,0.0439453125,-0.14892578125,0.9682616591453552,0.9806328157789548,-1.1425018310546875,-9.847640991210938,-1.4667510986328125,10.02161176214095
1784817525.416664,0.0522460974752903,-0.16015625,0.9741210341453552,0.9885805320154126,-1.7490386962890625,-9.054183959960938,0.1201629638671875,9.222354508465601
1784817525.42466,0.0512695349752903,-0.16748046875,0.9633788466453552,0.979171626832108,-1.8749237060546875,-8.321762084960938,1.5850067138671875,8.67636498686076
1784817525.432658,0.06396484375,-0.17822265625,0.9780272841453552,0.9961888299762787,-1.6918182373046875,-7.5893402099609375,2.4394989013671875,8.149324429692218
1784817525.441792,0.0458984412252903,-0.17041015625,0.9731444716453552,0.9890179224634801,-1.5659332275390625,-6.9179534912109375,3.5381317138671875,7.926449609020501
1784817525.450928,0.0830078125,-0.1767578125,0.9809569716453552,1.000205079688884,-1.323699951171875,-5.88226318359375,4.5757293701171875,7.56904888280872
1784817525.460063,0.06787109375,-0.17919921875,0.9711913466453552,0.9899148837987285,-1.262664794921875,-4.84466552734375,5.1860809326171875,7.208366104452766
1784817525.469198,0.0771484375,-0.1767578125,0.9643554091453552,0.983451351535185,-1.140594482421875,-4.17327880859375,5.5522918701171875,7.038832062107911
1784817525.478338,0.08154296875,-0.17578125,0.9814452528953552,1.0003914673941166,-0.652313232421875,-3.925323486328125,6.1626434326171875,7.335656146732316
1784817525.487478,0.08642578125,-0.173828125,0.9785155653953552,0.9975862591408726,-0.5321502685546875,-3.4389495849609375,6.5898895263671875,7.4522615443870315
1784817525.496618,0.0791015625,-0.17578125,0.9819335341453552,1.0006745577462692,-0.469207763671875,-3.19671630859375,6.2808990478515625,7.0632035176980335
1784817525.50755,0.0947265625,-0.169921875,0.9702147841453552,0.9895268023761662,-0.469207763671875,-2.70843505859375,6.5898895263671875,7.140197501598513
1784817525.518484,0.0732421875,-0.17578125,0.9687499403953552,0.9872891738985858,-0.469207763671875,-2.40325927734375,6.5288543701171875,6.97292983370886
1784817525.529417,0.07861328125,-0.16357421875,0.9648436903953552,0.9817636782465995,-0.2269744873046875,-1.9741058349609375,6.4640045166015625,6.762541360772549
1784817525.53722,0.09375,-0.1669921875,0.9726561903953552,0.9913301760263533,-0.2841949462890625,-1.6689300537109375,6.2808990478515625,6.505058580902904
1784817525.545026,0.08935546875,-0.18408203125,0.9663085341453552,0.9877361880516494,-0.286102294921875,-1.12152099609375,5.6743621826171875,5.791204542006332
1784817525.552831,0.09326171875,-0.162109375,0.9809569716453552,0.9986259449196786,0.0782012939453125,-0.8754730224609375,5.3691864013671875,5.440655389570078
1784817525.560638,0.080078125,-0.18359375,0.9809569716453552,1.0011971590861635,0.3223419189453125,-0.6923675537109375,4.6977996826171875,4.759474655898397
1784817525.571314,0.087890625,-0.1787109375,0.9604491591453552,0.9808796809232208,0.2613067626953125,-0.3871917724609375,4.0874481201171875,4.114052846955333
1784817525.58199,0.0859375,-0.16552734375,0.9736327528953552,0.9913351062813062,0.7495880126953125,-0.2651214599609375,3.9653778076171875,4.044303739143639
1784817525.592666,0.0859375,-0.18701171875,0.9614257216453552,0.9832080426325708,0.385284423828125,-0.45013427734375,3.2939910888671875,3.3468555762716727
1784817525.601228,0.08740234375,-0.1640625,0.9687499403953552,0.986423905131687,0.690460205078125,-0.14495849609375,3.1108856201171875,3.1898836345293518
1784817525.609791,0.080078125,-0.162109375,0.9707030653953552,0.9873988032878841,0.019073486328125,-0.019073486328125,2.1915435791015625,2.1917095735664214
1784817525.618354,0.07958984375,-0.1728515625,0.9653319716453552,0.9839095595467856,0.324249267578125,0.52642822265625,2.4394989013671875,2.516628528588533
1784817525.626917,0.06787109375,-0.173828125,0.9702147841453552,0.9879976871339604,-0.164031982421875,0.22125244140625,2.1343231201171875,2.152020983901468
1784817525.638397,0.0771484375,-0.16748046875,0.9721679091453552,0.9895009006531842,0.019073486328125,0.835418701171875,1.5201568603515625,1.7346945218747685
1784817525.649878,0.0751953125,-0.16943359375,0.9619140028953552,0.9796124880171639,-0.4100799560546875,0.8945465087890625,1.3408660888671875,1.6632200380642674
1784817525.661359,0.0751953125,-0.169921875,0.9555663466453552,0.9734653673688857,-0.2269744873046875,0.7724761962890625,0.9136199951171875,1.217759576927389
1784817525.67284,0.06396484375,-0.16943359375,0.9555663466453552,0.9725771366673973,-0.286102294921875,0.77056884765625,0.8525848388671875,1.1842853455160343
1784817525.680809,0.06640625,-0.17236328125,0.9575194716453552,0.9751730253356731,-0.347137451171875,0.70953369140625,0.6694793701171875,1.0354443955419295
1784817525.688783,0.0439453125,-0.169921875,0.9648436903953552,0.9806773072677711,-0.041961669921875,1.19781494140625,0.8525848388671875,1.4708576828044508
1784817525.696756,0.0468750037252903,-0.16552734375,0.9726561903953552,0.9877533255917603,0.0782012939453125,0.7724761962890625,0.9136199951171875,1.198973065454712
1784817525.704729,0.0537109375,-0.18017578125,0.9624022841453552,0.9805948875475407,-0.2269744873046875,0.7724761962890625,1.3408660888671875,1.5640200638081445
1784817525.715355,0.0517578162252903,-0.17578125,0.9804686903953552,0.9974451224190514,-0.2841949462890625,0.9555816650390625,1.5850067138671875,1.8724714601454224
1784817525.725981,0.056640625,-0.16455078125,0.9619140028953552,0.9775293698792591,-0.102996826171875,0.89263916015625,2.3174285888671875,2.485535813651636
1784817525.736606,0.0566406287252903,-0.17138671875,0.9682616591453552,0.9849427438979405,-0.5893707275390625,0.7724761962890625,2.5615692138671875,2.7396558480483097
1784817525.747283,0.0463867224752903,-0.1708984375,0.9746093153953552,0.9905661621604808,-0.5893707275390625,0.9555816650390625,3.5381317138671875,3.7119900589456747
1784817525.757962,0.0463867224752903,-0.17236328125,0.9750975966453552,0.9913002328905275,-0.4100799560546875,1.2607574462890625,3.7212371826171875,3.950352019507102
1784817525.768641,0.0624999962747097,-0.169921875,0.9853515028953552,1.0018469331170254,-0.2269744873046875,0.7724761962890625,3.7212371826171875,3.807340680975784
1784817525.776646,0.0595703125,-0.15478515625,0.9721679091453552,0.9862137244526341,0.141143798828125,1.38092041015625,3.8394927978515625,4.082715725578718
1784817525.784652,0.0615234412252903,-0.1669921875,0.9633788466453552,0.9796786854218947,-0.102996826171875,1.811981201171875,4.0874481201171875,4.4722607654575866
1784817525.79266,0.06396484375,-0.17626953125,0.9741210341453552,0.9920051602927643,0.141143798828125,2.17437744140625,4.0874481201171875,4.631961891498412
1784817525.800667,0.064453125,-0.17333984375,0.9711913466453552,0.988642270263799,0.202178955078125,1.74713134765625,3.7212371826171875,4.115938586171121
1784817525.811321,0.0634765625,-0.18115234375,0.9648436903953552,0.9837524040777043,0.0782012939453125,1.8711090087890625,3.4770965576171875,3.9493499257649485
1784817525.821975,0.05908203125,-0.1708984375,0.9663085341453552,0.9830814541627324,-0.1010894775390625,1.7490386962890625,2.9277801513671875,3.411927909309535
1784817525.832628,0.05517578125,-0.1787109375,0.9589843153953552,0.977053162930746,-0.4100799560546875,1.6880035400390625,2.5005340576171875,3.0446990154768496
1784817525.843291,0.0590820275247097,-0.16650390625,0.9570311903953552,0.9732024127397599,-0.957489013671875,1.74713134765625,1.7032623291015625,2.621136341169983
1784817525.853952,0.0673828125,-0.17822265625,0.9667968153953552,0.9853932417465712,-0.957489013671875,1.811981201171875,1.5201568603515625,2.5516539665041833
1784817525.864615,0.06005859375,-0.16845703125,0.9692382216453552,0.9856000894678539,-1.0204315185546875,1.5659332275390625,1.0318756103515625,2.1349928881401783
1784817525.872625,0.0595703125,-0.1708984375,0.9594725966453552,0.9763926268590262,-1.323699951171875,1.38092041015625,0.5435943603515625,1.9886220275669668
1784817525.880637,0.0576171912252903,-0.17138671875,0.9633788466453552,0.9801999542197082,-1.445770263671875,1.74713134765625,0.7915496826171875,2.4019305779585634
1784817525.888649,0.0581054650247097,-0.1728515625,0.9619140028953552,0.9790467081251,-1.262664794921875,1.99127197265625,0.4253387451171875,2.3959130830477298
1784817525.896661,0.0610351599752903,-0.17578125,0.9726561903953552,0.990295109206936,-1.2035369873046875,1.5659332275390625,0.3643035888671875,2.0083239922340375
1784817525.907386,0.06298828125,-0.1767578125,0.9873046278953552,1.004978246589547,-0.7724761962890625,1.9321441650390625,0.3643035888671875,2.1124908646404195
1784817525.91811,0.0546875,-0.17333984375,0.9785155653953552,0.9952538047194375,-0.713348388671875,1.50299072265625,0.3032684326171875,1.691099872341549
1784817525.928836,0.0673828125,-0.1787109375,0.9765624403953552,0.9950639389473778,-0.652313232421875,1.50299072265625,0.3643035888671875,1.6784548759037117
1784817525.939554,0.0585937462747097,-0.17138671875,0.9707030653953552,0.9874568727971546,-0.2269744873046875,1.1997222900390625,0.1201629638671875,1.2269026566884371
1784817525.950274,0.0693359375,-0.1591796875,0.9707030653953552,0.986108557061311,-0.102996826171875,1.01470947265625,0.3032684326171875,1.0640561086342628
1784817525.960994,0.0512695349752903,-0.1630859375,0.9643554091453552,0.9793911084825826,-0.1659393310546875,1.2607574462890625,0.3032684326171875,1.3072937474746373
1784817525.96893,0.06103515625,-0.1787109375,0.9658202528953552,0.9841095723462092,-0.1659393310546875,1.4438629150390625,0.5435943603515625,1.5516993290009506
1784817525.976866,0.0595703125,-0.1787109375,0.9692382216453552,0.9873747776866327,-0.469207763671875,1.01470947265625,0.4863739013671875,1.2191598793101033
1784817525.984801,0.0693359375,-0.17724609375,0.9687499403953552,0.9872690094369629,-0.4100799560546875,1.0776519775390625,0.3643035888671875,1.2092214271642638
1784817525.992735,0.04931640625,-0.1787109375,0.9672850966453552,0.9848909408151535,-0.4100799560546875,0.5893707275390625,0.1811981201171875,0.7405107585793342
1784817526.003575,0.0517578162252903,-0.17724609375,0.9707030653953552,0.9881090478575651,-0.652313232421875,0.70953369140625,0.4863739013671875,1.0795879697201118
1784817526.014414,0.04931640625,-0.17919921875,0.9765624403953552,0.9940918810235586,-0.7724761962890625,0.2841949462890625,0.4863739013671875,0.9560574319885808
1784817526.025253,0.0517578162252903,-0.169921875,0.9790038466453552,0.9949878626849318,-0.713348388671875,0.03814697265625,0.1811981201171875,0.7369897379730601
1784817526.035725,0.06396484375,-0.16162109375,0.9785155653953552,0.9938337843431868,-0.2841949462890625,0.2841949462890625,0.6084442138671875,0.7292036042018347
1784817526.046199,0.04931640625,-0.16015625,0.9628905653953552,0.9773639922090769,-0.469207763671875,0.34332275390625,0.4863739013671875,0.7580145188391
1784817526.056673,0.0434570275247097,-0.166015625,0.9702147841453552,0.985274798398722,-0.102996826171875,0.52642822265625,0.6694793701171875,0.8578680824130269
1784817526.064728,0.0473632849752903,-0.17724609375,0.9785155653953552,0.9955662560745397,-0.0438690185546875,0.2841949462890625,0.8525848388671875,0.8997733968902296
1784817526.072785,0.0537109337747097,-0.1669921875,0.9658202528953552,0.9816211163151668,0.019073486328125,0.03814697265625,0.9136199951171875,0.9146149380375741
1784817526.080841,0.06494140625,-0.18798828125,0.9746093153953552,0.9946960831271326,-0.164031982421875,0.03814697265625,0.9746551513671875,0.9890977438386371
1784817526.088897,0.06689453125,-0.189453125,0.9692382216453552,0.9898434700404269,-0.286102294921875,0.34332275390625,0.7915496826171875,0.908997214825604
1784817526.099482,0.0522460974752903,-0.17626953125,0.9628905653953552,0.980285082654979,-0.347137451171875,0.03814697265625,0.9746551513671875,1.035331959139453
1784817526.110067,0.0576171912252903,-0.17138671875,0.9682616591453552,0.9849993851061529,-0.4100799560546875,-0.0209808349609375,1.0967254638671875,1.1710732295156312
1784817526.120651,0.0556640662252903,-0.171875,0.9648436903953552,0.9816123729810365,-0.7152557373046875,0.2841949462890625,1.0318756103515625,1.2872935999537654
1784817526.12866,0.05712890625,-0.17822265625,0.9653319716453552,0.9833070947627887,-0.530242919921875,0.70953369140625,1.3408660888671875,1.607021307152411
1784817526.13667,0.060546875,-0.1748046875,0.9711913466453552,0.9886532428728775,-0.5893707275390625,0.7724761962890625,1.5201568603515625,1.804149164672107
1784817526.144681,0.0585937462747097,-0.171875,0.9663085341453552,0.983222470191589,-0.286102294921875,0.835418701171875,1.5201568603515625,1.7580261117233686
1784817526.152693,0.0654296875,-0.17529296875,0.9765624403953552,0.9943253335254352,-0.225067138671875,1.01470947265625,1.7032623291015625,1.9953428508766982
1784817526.16468,0.06494140625,-0.171875,0.9692382216453552,0.9864994334357108,-0.1659393310546875,1.2607574462890625,1.8291473388671875,2.2277399280995773
1784817526.176668,0.0732421875,-0.17041015625,0.9653319716453552,0.9829902618356112,-0.3490447998046875,1.3217926025390625,1.6460418701171875,2.1397247006511306
1784817526.188656,0.056640625,-0.173828125,0.9687499403953552,0.9858503052986344,-0.4100799560546875,1.5659332275390625,2.1915435791015625,2.724550550562424
1784817526.200644,0.04931640625,-0.18212890625,0.9750975966453552,0.9931859691924692,-0.347137451171875,1.19781494140625,2.0732879638671875,2.419460275552941
1784817526.208645,0.0478515662252903,-0.17041015625,0.9677733778953552,0.9838265623098152,-0.6542205810546875,1.7490386962890625,2.1915435791015625,2.879236737208902
1784817526.216647,0.0571289099752903,-0.17529296875,0.9819335341453552,0.9990919891217929,-0.774383544921875,1.99127197265625,2.1343231201171875,3.019961775387041
1784817526.224649,0.0605468787252903,-0.181640625,0.9692382216453552,0.9879686085458467,-0.6542205810546875,2.1152496337890625,2.2563934326171875,3.1612650797866144
1784817526.232651,0.05517578125,-0.177734375,0.9765624403953552,0.9941368491732515,-0.652313232421875,2.47955322265625,2.8629302978515625,3.843184438396641
1784817526.243478,0.0498046875,-0.17822265625,0.9765624403953552,0.9939406532025491,-0.5893707275390625,2.6035308837890625,3.3512115478515625,4.284431088928499
1784817526.254304,0.0546875,-0.18408203125,0.9648436903953552,0.9837683994625483,-0.0438690185546875,3.0918121337890625,3.2329559326171875,4.47361496149131
1784817526.265131,0.048828125,-0.16796875,0.9790038466453552,0.9945080283808574,0.2613067626953125,3.2749176025390625,3.7822723388671875,5.009885285414265
1784817526.27313,0.0429687537252903,-0.16943359375,0.9697265028953552,0.9853545285354911,0.507354736328125,3.45611572265625,4.7588348388671875,5.903274831860906
1784817526.281129,0.03515625,-0.17529296875,0.9770507216453552,0.9932732249864387,0.812530517578125,3.51715087890625,5.4302215576171875,6.520572238062946
1784817526.289129,0.04736328125,-0.173828125,0.9658202528953552,0.9824806656390904,0.385284423828125,3.765106201171875,6.3457489013671875,7.388707458855733
1784817526.297128,0.0419921875,-0.18896484375,0.9638671278953552,0.9831128603684005,0.507354736328125,4.253387451171875,6.8950653076171875,8.117304924330924
1784817526.308837,0.044921875,-0.17236328125,0.9633788466453552,0.9797070366903144,-0.2269744873046875,4.4956207275390625,7.8105926513671875,9.014847791801989
1784817526.320545,0.04736328125,-0.15869140625,0.9575194716453552,0.9717354482617012,-0.225067138671875,4.61578369140625,7.8105926513671875,9.075322135789614
1784817526.332254,0.0478515662252903,-0.19140625,0.9614257216453552,0.9814609228953376,-0.2269744873046875,4.6787261962890625,7.7457427978515625,9.051990263372918
1784817526.341956,0.05908203125,-0.1982421875,0.9746093153953552,0.9963202140761845,-0.1659393310546875,4.7397613525390625,6.8340301513671875,8.318463899687828
1784817526.351656,0.0571289099752903,-0.181640625,0.9726561903953552,0.9911191117720215,-0.469207763671875,4.67681884765625,5.9757232666015625,7.602766537141986
1784817526.361356,0.04638671875,-0.17822265625,0.9809569716453552,0.9980939951211126,-0.3490447998046875,4.7397613525390625,5.4302215576171875,7.216264692768971
1784817526.36926,0.044921875,-0.1689453125,0.9824218153953552,0.9978542563089781,-0.4100799560546875,4.9228668212890625,5.1212310791015625,7.1154614099201074
1784817526.377165,0.04052734375,-0.193359375,0.9619140028953552,0.9819922924636357,-0.3490447998046875,5.1670074462890625,4.6977996826171875,6.992075520206819
1784817526.38507,0.0400390662252903,-0.17626953125,0.9658202528953552,0.9825898612209144,-0.1010894775390625,4.5566558837890625,3.9043426513671875,6.001435117121868
1784817526.392975,0.0556640625,-0.1787109375,0.9609374403953552,0.9789978811977632,-0.0438690185546875,4.9228668212890625,3.7822723388671875,6.208230526993782
1784817526.403549,0.04541015625,-0.1796875,0.9750975966453552,0.9925547858584166,-0.4100799560546875,4.9228668212890625,3.4770965576171875,6.040942292515282
1784817526.414123,0.0366210974752903,-0.18603515625,0.9667968153953552,0.9852138176050198,-0.774383544921875,4.436492919921875,3.2939910888671875,5.579652013943086
1784817526.424697,0.0332031287252903,-0.173828125,0.9570311903953552,0.9732560630110221,-0.6542205810546875,4.0683746337890625,3.1108856201171875,5.1630694427816595
1784817526.432687,0.029296875,-0.17041015625,0.9648436903953552,0.980214912727634,-0.7724761962890625,4.0683746337890625,2.6226043701171875,4.9016778063076805
1784817526.440677,0.0322265625,-0.17333984375,0.9682616591453552,0.9841828556385022,-0.7152557373046875,3.8242340087890625,2.4394989013671875,4.592114046220743
1784817526.448667,0.02099609375,-0.16845703125,0.9741210341453552,0.988802506314956,-1.018524169921875,3.45611572265625,2.1915435791015625,4.217225466133873
1784817526.456657,0.03076171875,-0.18310546875,0.9765624403953552,0.9940563847275179,-1.2035369873046875,3.2138824462890625,2.1915435791015625,4.071904335501596
1784817526.465218,0.0268554724752903,-0.17236328125,0.9716796278953552,0.9872140681696111,-1.0204315185546875,3.0307769775390625,2.1915435791015625,3.87682251731259
1784817526.473779,0.03125,-0.18798828125,0.9589843153953552,0.9777356869633159,-0.957489013671875,2.72369384765625,1.6460418701171875,3.323363841838828
1784817526.48234,0.0214843787252903,-0.18115234375,0.9829100966453552,0.9996949576059246,-1.079559326171875,2.54058837890625,1.8863677978515625,3.3434145896866445
1784817526.490901,0.0224609412252903,-0.1728515625,0.9785155653953552,0.9939189445122821,-1.0204315185546875,2.3593902587890625,1.8863677978515625,3.188477120209568
1784817526.500822,0.0146484375,-0.17919921875,0.9711913466453552,0.9876940662576749,-0.774383544921875,2.23541259765625,2.0732879638671875,3.1456735904290167
1784817526.510742,0.0219726599752903,-0.1767578125,0.9580077528953552,0.9744254597832421,-0.5893707275390625,2.1152496337890625,1.8863677978515625,2.894826823230716
1784817526.520663,0.0307617224752903,-0.18115234375,0.9609374403953552,0.9783471876431913,-0.469207763671875,1.74713134765625,2.0084381103515625,2.7030441199813335
1784817526.528675,0.0214843787252903,-0.18017578125,0.9648436903953552,0.9817577285532249,-0.286102294921875,1.68609619140625,2.0084381103515625,2.637915565924501
1784817526.536685,0.0454101599752903,-0.18603515625,0.9746093153953552,0.9932444208981727,-0.4100799560546875,1.6880035400390625,2.0732879638671875,2.7048187559721573
1784817526.544697,0.0263671912252903,-0.181640625,0.9750975966453552,0.9922216830965999,-0.225067138671875,1.50299072265625,1.3980865478515625,2.065013879997953
1784817526.552708,0.029296875,-0.1875,0.9633788466453552,0.9818927431489146,-0.3490447998046875,1.0776519775390625,1.5201568603515625,1.8957961222237127
1784817526.56091,0.02978515625,-0.17919921875,0.9721679091453552,0.9889944181366743,-0.5321502685546875,0.7724761962890625,1.0318756103515625,1.3945144880546971
1784817526.569112,0.02978515625,-0.18408203125,0.9648436903953552,0.9826986805006359,-0.1010894775390625,0.7724761962890625,0.9746551513671875,1.2477544711957294
1784817526.577313,0.0283203162252903,-0.18505859375,0.9804686903953552,0.9981821358236236,-0.3490447998046875,0.6504058837890625,0.7915496826171875,1.0823174146198962
1784817526.585515,0.0322265662252903,-0.17724609375,0.9580077528953552,0.9747992531428791,-0.5321502685546875,0.5893707275390625,0.4863739013671875,0.9311827611880971
1784817526.595936,0.03369140625,-0.18896484375,0.9760741591453552,0.9947681072390071,-0.5321502685546875,0.4062652587890625,0.3643035888671875,0.7622023836772506
1784817526.606356,0.02685546875,-0.197265625,0.9794921278953552,0.9995197704985098,-0.4100799560546875,0.4673004150390625,0.4863739013671875,0.7893635538740265
1784817526.616776,0.0351562537252903,-0.181640625,0.9604491591453552,0.9781062652541428,-0.2269744873046875,0.5893707275390625,0.7266998291015625,0.9627917292869678
1784817526.627619,0.0258789099752903,-0.1826171875,0.9794921278953552,0.9967063678741549,-0.4100799560546875,1.4438629150390625,0.6694793701171875,1.6435048873658453
1784817526.63846,0.0190429724752903,-0.1748046875,0.9687499403953552,0.9845789763084887,-0.774383544921875,1.50299072265625,0.3643035888671875,1.7295571953242943
1784817526.649301,0.0322265662252903,-0.18603515625,0.9521483778953552,0.9706874700233804,-0.774383544921875,1.50299072265625,0.9746551513671875,1.9515644112155563
1784817526.659791,0.0224609412252903,-0.18212890625,0.9726561903953552,0.9898158905003257,-1.2607574462890625,1.4438629150390625,0.7915496826171875,2.073837109285536
1784817526.670281,0.0161132849752903,-0.1953125,0.9682616591453552,0.9878953644895095,-1.323699951171875,1.38092041015625,1.1577606201171875,2.235963415043427
1784817526.680773,0.0302734375,-0.18310546875,0.9726561903953552,0.990204099374785,-1.8138885498046875,1.6269683837890625,1.2798309326171875,2.7523053989420445
1784817526.689076,0.0263671912252903,-0.18212890625,0.9711913466453552,0.9884729632436847,-2.056121826171875,2.35748291015625,1.2149810791015625,3.355822054029973
1784817526.697379,0.0385742150247097,-0.1865234375,0.9731444716453552,0.9916093613391851,-2.117156982421875,2.72369384765625,1.0318756103515625,3.6007817400137734
1784817526.705682,0.03515625,-0.18408203125,0.9697265028953552,0.9876698064438559,-2.117156982421875,3.02886962890625,0.7915496826171875,3.7792798013880575
1784817526.713984,0.0258789099752903,-0.19677734375,0.9667968153953552,0.9869585215465823,-2.3632049560546875,3.3969879150390625,0.1811981201171875,4.142112663602582
1784817526.724219,0.0400390625,-0.18505859375,0.9819335341453552,1.00002163732881,-2.483367919921875,3.63922119140625,-0.0019073486328125,4.4057974015671935
1784817526.734452,0.0180664099752903,-0.19091796875,0.9819335341453552,1.0004846482781276,-1.9969940185546875,3.8852691650390625,-0.0629425048828125,4.36889726977729
1784817526.744687,0.0288085974752903,-0.1904296875,0.9658202528953552,0.9848361092449286,-2.300262451171875,3.51715087890625,-0.2498626708984375,4.209986817505579
1784817526.755354,0.02490234375,-0.18798828125,0.9760741591453552,0.9943241346577506,-1.8749237060546875,3.7021636962890625,-0.4901885986328125,4.178712696498305
1784817526.766019,0.0302734375,-0.19091796875,0.9555663466453552,0.974922147994825,-1.811981201171875,3.63922119140625,-0.9212493896484375,4.168441818150784
1784817526.776684,0.0239257849752903,-0.19580078125,0.9638671278953552,0.9838446164725583,-1.995086669921875,3.45611572265625,-0.9212493896484375,4.095583859087652
1784817526.787346,0.0434570275247097,-0.1904296875,0.9711913466453552,0.9906384864931553,-2.300262451171875,4.12750244140625,-1.7147064208984375,5.026698902655313
1784817526.798009,0.0205078125,-0.18310546875,0.9716796278953552,0.988994177094359,-2.483367919921875,4.49371337890625,-2.0809173583984375,5.539927184534293
1784817526.808671,0.02490234375,-0.20361328125,0.9648436903953552,0.9864085573033938,-2.910614013671875,4.924774169921875,-2.1991729736328125,6.1287385593831445
1784817526.816715,0.01708984375,-0.193359375,0.9799804091453552,0.9990202765552298,-3.5228729248046875,4.9839019775390625,-2.3860931396484375,6.553117810410328
1784817526.824758,0.0239257849752903,-0.1796875,0.9711913466453552,0.9879639024993536,-3.2138824462890625,4.8618316650390625,-2.0160675048828125,6.166925952367669
1784817526.832801,0.0175781287252903,-0.1845703125,0.9604491591453552,0.9781808514629851,-3.0345916748046875,4.9228668212890625,-2.0809173583984375,6.146021593309491
1784817526.840843,0.007812503725290298,-0.18115234375,0.9667968153953552,0.983653032892786,-3.093719482421875,5.16510009765625,-1.8329620361328125,6.293576811371211
1784817526.851534,0.00048828125,-0.19580078125,0.9677733778953552,0.9873821424958401,-2.6683807373046875,5.2280426025390625,-1.1043548583984375,5.972627969868068
1784817526.862224,0.01513671875,-0.19091796875,0.9736327528953552,0.9922900425564747,-2.8514862060546875,5.0449371337890625,-0.5512237548828125,5.821186467993536
1784817526.872914,0.0,-0.1767578125,0.9843749403953552,1.0001186667381747,-2.7256011962890625,5.0449371337890625,-0.1850128173828125,5.737117944376958
1784817526.881223,0.01171875,-0.193359375,0.9799804091453552,0.9989428308520217,-1.9969940185546875,4.0683746337890625,0.4863739013671875,4.558093553552036
1784817526.889534,0.013671878725290298,-0.18896484375,0.9853515028953552,1.0034003272370784,-1.506805419921875,4.12750244140625,0.6084442138671875,4.4358700768517725
1784817526.897845,0.0068359412252902985,-0.18994140625,0.9785155653953552,0.9968034809437891,-1.2607574462890625,3.8852691650390625,0.9746551513671875,4.199378345334372
1784817526.906156,0.0068359375,-0.1982421875,0.9624022841453552,0.9826315949909641,-0.7152557373046875,3.5190582275390625,1.1577606201171875,3.7730321005859166
1784817526.916332,0.0,-0.1953125,0.9667968153953552,0.9863280665756453,-0.957489013671875,3.582000732421875,1.5850067138671875,4.032339363369265
1784817526.92651,0.0180664099752903,-0.1845703125,0.9741210341453552,0.991617055415123,-0.8983612060546875,3.5190582275390625,1.2149810791015625,3.8297523011193815
1784817526.936687,0.0,-0.19970703125,0.9604491591453552,0.9809920925439248,-0.896453857421875,2.96783447265625,1.2149810791015625,3.3298423383319755
1784817526.944698,0.011230472475290298,-0.17724609375,0.9707030653953552,0.9868164684629008,-0.8373260498046875,2.5424957275390625,1.3408660888671875,2.9938806433306415
1784817526.952709,0.00634765625,-0.19287109375,0.9804686903953552,0.9992789422327343,-0.713348388671875,2.47955322265625,1.0318756103515625,2.778815823843704
1784817526.96072,-0.00048827752470970154,-0.1962890625,0.9672850966453552,0.987000553527851,-0.530242919921875,2.17437744140625,1.5850067138671875,2.742502706439453
1784817526.968731,0.015136722475290298,-0.201171875,0.9726561903953552,0.993357593403662,-0.9593963623046875,1.9321441650390625,1.4629364013671875,2.6064929251665236
1784817526.979441,0.0068359375,-0.1884765625,0.9785155653953552,0.9965253917358614,-0.347137451171875,1.68609619140625,1.3980865478515625,2.2176723770575912
1784817526.990151,-0.0019531212747097015,-0.18359375,0.9750975966453552,0.9922327361588732,-0.3490447998046875,1.9321441650390625,1.8291473388671875,2.6834293979998995
1784817527.000861,0.0156250037252903,-0.201171875,0.9726561903953552,0.993365153781245,-0.2269744873046875,1.8711090087890625,1.5201568603515625,2.4214547736294256
1784817527.008922,0.00048828125,-0.1875,0.9711913466453552,0.9891254319940407,-0.469207763671875,1.811981201171875,1.5850067138671875,2.4526879299850384
1784817527.016982,0.0039062537252902985,-0.1972656100988388,0.9746093153953552,0.9943803585154105,-0.3490447998046875,1.5659332275390625,1.4629364013671875,2.1712121176492123
1784817527.025042,0.00244140625,-0.197265625,0.9721679091453552,0.9919829287055145,-0.2269744873046875,1.6269683837890625,1.5850067138671875,2.28271544935861
1784817527.033102,0.01611328125,-0.205078125,0.9731444716453552,0.994649102890097,-0.591278076171875,1.68609619140625,1.4629364013671875,2.309266776377591
1784817527.04363,0.0029296912252902985,-0.17138671875,0.9638671278953552,0.9789902097017151,-0.774383544921875,1.56402587890625,1.2149810791015625,2.126505548337233
1784817527.054157,0.01513671875,-0.19677734375,0.9682616591453552,0.9881705742627324,-1.140594482421875,1.86920166015625,1.0967254638671875,2.449015590549967
1784817527.064686,0.008789066225290298,-0.1826171875,0.9692382216453552,0.9863310879992445,-1.140594482421875,1.86920166015625,0.9746551513671875,2.3968360986410193
1784817527.073097,0.0073242224752902985,-0.18701171875,0.9580077528953552,0.9761177602073966,-0.8373260498046875,1.5659332275390625,0.4863739013671875,1.8411467510015507
1784817527.081511,0.00732421875,-0.193359375,0.9536132216453552,0.9730465911648434,-0.652313232421875,1.01470947265625,0.6084442138671875,1.3510559679300707
1784817527.089924,-0.0014648400247097015,-0.18505859375,0.9667968153953552,0.9843499942274729,-0.835418701171875,1.01470947265625,0.4253387451171875,1.3814748525629743
1784817527.098336,-0.00048827752470970154,-0.20166015625,0.9785155653953552,0.9990794606810347,-0.591278076171875,0.89263916015625,0.3643035888671875,1.1309869753748192
1784817527.108446,0.005859375,-0.1982421875,0.9804686903953552,1.0003265217046675,-0.4100799560546875,0.2231597900390625,0.4863739013671875,0.6741850147987802
1784817527.118557,-0.008789058774709702,-0.19140625,0.9702147841453552,0.9889541584256705,0.0782012939453125,0.2231597900390625,0.1201629638671875,0.26524492860438753
1784817527.128667,-0.0029296875,-0.193359375,0.9628905653953552,0.9821174430263547,0.019073486328125,0.22125244140625,0.1201629638671875,0.252498670480227
1784817527.137612,-0.0039062462747097015,-0.19091796875,0.9682616591453552,0.9869121390085851,0.019073486328125,-0.38909912109375,-0.1239776611328125,0.4088182779384997
1784817527.146558,0.005859375,-0.18896484375,0.9638671278953552,0.9822331111737649,-0.4100799560546875,-0.0820159912109375,-0.0629425048828125,0.4229112815863983
1784817527.155504,-0.00830078125,-0.1884765625,0.9575194716453552,0.9759282023597725,-0.102996826171875,0.22125244140625,-0.2498626708984375,0.34927402328001206
1784817527.164449,-0.00341796875,-0.1943359375,0.9746093153953552,0.9938015177940628,-0.0438690185546875,0.2231597900390625,-0.1850128173828125,0.29318002195776555
1784817527.173287,0.001953125,-0.20703125,0.9785155653953552,1.000179216388153,-0.164031982421875,0.22125244140625,-0.1850128173828125,0.3317964386207337
1784817527.182123,-0.013671875,-0.1982421875,0.9726561903953552,0.9927471731439008,-0.469207763671875,-0.14495849609375,-0.2498626708984375,0.5509993152338982
1784817527.190961,0.0073242224752902985,-0.1865234375,0.9624022841453552,0.9803381016261079,-0.102996826171875,0.164031982421875,-0.3070831298828125,0.3630631985169442
1784817527.199797,-0.00439453125,-0.18994140625,0.9667968153953552,0.9852883496579746,0.019073486328125,0.34332275390625,0.0553131103515625,0.3482726681886547
1784817527.208635,0.0034179724752902985,-0.19873046875,0.9687499403953552,0.9889296884821696,0.3223419189453125,0.4673004150390625,0.1201629638671875,0.580269875566855
1784817527.21933,-0.00244140625,-0.1982421875,0.9663085341453552,0.9864370778369028,0.141143798828125,0.22125244140625,0.3032684326171875,0.4010560521896483
1784817527.230025,0.0043945349752902985,-0.2001953125,0.9589843153953552,0.979667490661459,-0.1659393310546875,0.4673004150390625,0.0553131103515625,0.49896400638054184
1784817527.24072,-0.014648433774709702,-0.19140625,0.9682616591453552,0.9871076788892034,-0.1010894775390625,0.2841949462890625,-0.1239776611328125,0.32612315223750404
1784817527.24871,0.00537109375,-0.205078125,0.9609374403953552,0.9825918025076149,-0.3490447998046875,0.2841949462890625,0.0553131103515625,0.45349595361337197
1784817527.2567,-0.0063476525247097015,-0.1928710788488388,0.9619140028953552,0.9810800653947949,-0.286102294921875,0.22125244140625,0.1811981201171875,0.4045243190733931
1784817527.26469,0.009277347475290298,-0.205078125,0.9682616591453552,0.9897846973461496,-0.530242919921875,0.52642822265625,0.3032684326171875,0.8063845050336594
1784817527.27268,-0.0019531212747097015,-0.19970703125,0.9721679091453552,0.992470229571373,-0.3490447998046875,0.4673004150390625,0.3643035888671875,0.6876911043687327
1784817527.280851,0.00537109375,-0.2119140625,0.9785155653953552,1.0012138284374208,-0.7152557373046875,0.2841949462890625,0.3643035888671875,0.8515131485215176
1784817527.289022,0.0009765625,-0.193359375,0.9755858778953552,0.9945635257355651,-0.286102294921875,0.164031982421875,0.2384185791015625,0.40694524604376675
1784817527.297193,0.005859375,-0.193359375,0.9750975966453552,0.9941013545707144,-0.5893707275390625,0.1010894775390625,0.3643035888671875,0.7002099983651742
1784817527.305364,0.0073242224752902985,-0.1875,0.9716796278953552,0.9896318474572873,-0.347137451171875,0.22125244140625,0.3643035888671875,0.5497036999110019
1784817527.315778,-0.0029296875,-0.1943359375,0.9716796278953552,0.9909270098951323,-0.3490447998046875,0.1010894775390625,0.2384185791015625,0.43462026367925255
1784817527.326192,-0.00439453125,-0.20361328125,0.9648436903953552,0.9861039636377226,-0.164031982421875,-0.14495849609375,0.4253387451171875,0.47836440601791835
1784817527.336606,0.0073242224752902985,-0.1806640625,0.9687499403953552,0.9854793730615957,0.202178955078125,0.164031982421875,0.3643035888671875,0.44777218090815507
1784817527.347334,0.012695316225290298,-0.19189453125,0.9711913466453552,0.9900491472530725,-0.0438690185546875,0.1010894775390625,0.4253387451171875,0.43938209039051185
1784817527.358064,0.0,-0.19189453125,0.9692382216453552,0.9880517402554929,-0.041961669921875,-0.14495849609375,0.6084442138671875,0.6268796604778735
1784817527.368793,0.009277347475290298,-0.2001953125,0.9707030653953552,0.9911753999626348,-0.0438690185546875,-0.0209808349609375,0.3032684326171875,0.3071423586005278
1784817527.379648,-0.008789058774709702,-0.20556640625,0.9736327528953552,0.995135936665576,0.0782012939453125,0.1010894775390625,0.3643035888671875,0.3860720524790089
1784817527.390504,0.0068359375,-0.19287109375,0.9653319716453552,0.9844347638754607,-0.286102294921875,-0.26702880859375,0.1201629638671875,0.40938740291306974
1784817527.401359,0.008789066225290298,-0.185546875,0.9702147841453552,0.9878368376820114,0.2613067626953125,-0.0209808349609375,0.4253387451171875,0.4996343340522409
1784817527.411783,-0.001953125,-0.1982421875,0.9702147841453552,0.9902628474179312,0.141143798828125,0.03814697265625,0.4863739013671875,0.5078743303235649
1784817527.422208,0.005859375,-0.212890625,0.9648436903953552,0.9880688727937994,0.385284423828125,-0.26702880859375,0.1811981201171875,0.5025746020219989
1784817527.432633,0.009277347475290298,-0.19580078125,0.9594725966453552,0.9792914167027443,0.507354736328125,0.52642822265625,0.3032684326171875,0.7915221060120085
1784817527.440675,0.0146484375,-0.18212890625,0.9575194716453552,0.9747969295155853,0.1392364501953125,0.8335113525390625,-0.1239776611328125,0.8541067991384049
1784817527.448721,0.0048828125,-0.18994140625,0.9624022841453552,0.9809789682731912,-0.286102294921875,0.652313232421875,0.1811981201171875,0.7349828808116835
1784817527.456766,0.0029296912252902985,-0.1904296875,0.9760741591453552,0.9944811778627766,-0.3490447998046875,0.6504058837890625,0.1811981201171875,0.7600610795667204
1784817527.464811,0.00634765625,-0.208984375,0.9672850966453552,0.9896237769608323,-0.4100799560546875,0.4673004150390625,0.2384185791015625,0.6658668538937064
1784817527.476766,0.009765625,-0.203125,0.9672850966453552,0.988430873277871,-0.652313232421875,0.22125244140625,0.2384185791015625,0.7289091952237324
1784817527.488721,0.0029296912252902985,-0.20068359375,0.9750975966453552,0.995538954975966,-0.4100799560546875,0.4062652587890625,0.2384185791015625,0.6245481964729114
1784817527.500674,0.0073242224752902985,-0.201171875,0.9653319716453552,0.9860981609386522,-0.286102294921875,0.70953369140625,0.3032684326171875,0.8229607066089053
1784817527.512629,0.0166015625,-0.1923828125,0.9653319716453552,0.9844554707570884,-0.1010894775390625,0.4673004150390625,0.4253387451171875,0.6399232832634428
1784817527.520633,-0.0058593712747097015,-0.189453125,0.9575194716453552,0.9760995632536676,-0.4100799560546875,0.4673004150390625,0.5435943603515625,0.8258511226967721
1784817527.52864,0.008789066225290298,-0.19384765625,0.9658202528953552,0.9851207653996431,0.019073486328125,0.34332275390625,0.8525848388671875,0.9193123618752599
1784817527.536647,0.0009765662252902985,-0.2060546875,0.9609374403953552,0.9827818945604828,-0.4100799560546875,0.4673004150390625,0.7915496826171875,1.0065218071680637
1784817527.544654,0.0146484375,-0.19970703125,0.9560546278953552,0.976799839563872,-0.1010894775390625,0.4673004150390625,0.8525848388671875,0.9774915180353172
1784817527.552674,-0.001953125,-0.1982421875,0.9511718153953552,0.9716128869074074,0.019073486328125,0.22125244140625,0.6694793701171875,0.7053503156031344
1784817527.560694,-0.004882805049419403,-0.203125,0.9638671278953552,0.9850499721574493,-0.2269744873046875,0.1010894775390625,0.7266998291015625,0.7680033476311067
1784817527.568713,0.01123046875,-0.208984375,0.9697265028953552,0.9920534677325314,-0.286102294921875,-0.019073486328125,0.7915496826171875,0.8418843276196813
1784817527.576734,-0.0019531212747097015,-0.19384765625,0.9750975966453552,0.9941810959276381,0.0782012939453125,-0.0209808349609375,0.5435943603515625,0.5495911811668776
1784817527.587373,0.0034179724752902985,-0.1923827975988388,0.9663085341453552,0.9852791515656579,-0.041961669921875,0.03814697265625,1.0318756103515625,1.0334327498700042
1784817527.598014,0.005859375,-0.19873046875,0.9711913466453552,0.9913328216516408,0.202178955078125,0.09918212890625,0.8525848388671875,0.8818244337945318
1784817527.608654,0.0009765625,-0.189453125,0.9575194716453552,0.9760824651772935,0.019073486328125,0.34332275390625,0.8525848388671875,0.9193123618752599
1784817527.619384,-0.00048827752470970154,-0.18896484375,0.9736327528953552,0.9918007300355203,0.202178955078125,-0.019073486328125,0.7266998291015625,0.754541429858846
1784817527.630115,0.00537109375,-0.203125,0.9633788466453552,0.9845747388780631,0.019073486328125,0.34332275390625,0.6084442138671875,0.6988838763478097
1784817527.640846,-0.00341796875,-0.19970703125,0.9624022841453552,0.982910340452913,-0.1010894775390625,-0.0209808349609375,0.4253387451171875,0.4376897599929001
1784817527.651443,-0.00390625,-0.2021484375,0.9648436903953552,0.985800485122868,-0.4100799560546875,0.1621246337890625,0.1201629638671875,0.45704387658560647
1784817527.66204,0.0009765625,-0.19775390625,0.9653319716453552,0.9853798133674949,-0.1659393310546875,0.1010894775390625,0.1201629638671875,0.22846024149804448
1784817527.672637,0.0019531287252902985,-0.20166015625,0.9643554091453552,0.9852167215788095,0.019073486328125,-0.019073486328125,0.1811981201171875,0.1831948538999419
1784817527.680695,-0.010742183774709702,-0.20556640625,0.9882811903953552,1.009491284350712,-0.4100799560546875,-0.2651214599609375,0.3643035888671875,0.609238921730339
1784817527.688756,0.0029296875,-0.21240234375,0.9643554091453552,0.9874738952738175,0.3223419189453125,0.1010894775390625,0.3643035888671875,0.4968304540182494
1784817527.696817,0.001953125,-0.18798828125,0.9711913466453552,0.9892199150762248,0.202178955078125,0.469207763671875,-0.1239776611328125,0.5257401599900916
1784817527.704878,0.0053710974752902985,-0.20654296875,0.9882811903953552,1.0096477395197856,0.202178955078125,0.52642822265625,0.2384185791015625,0.6122470272253748
1784817527.715456,0.010742191225290298,-0.1962890625,0.9555663466453552,0.9755776922268163,0.202178955078125,0.34332275390625,0.4253387451171875,0.5828034757309858
1784817527.726036,0.0039062537252902985,-0.193359375,0.9736327528953552,0.9926549472143605,0.385284423828125,0.22125244140625,-0.1850128173828125,0.4812758799989069
1784817527.736615,0.0029296875,-0.19287109375,0.9663085341453552,0.9853730385165377,0.019073486328125,0.03814697265625,-0.3070831298828125,0.31003070503124386
1784817527.747317,0.008300784975290298,-0.1943359375,0.9765624403953552,0.9957457304081909,0.202178955078125,0.03814697265625,-0.1239776611328125,0.24021236824793527
1784817527.758021,0.008789066225290298,-0.1884765625,0.9716796278953552,0.9898292587935481,-0.2269744873046875,-0.2040863037109375,-0.1239776611328125,0.32945272454417684
1784817527.768724,0.0048828125,-0.201171875,0.9565429091453552,0.9774805891603091,-0.0438690185546875,0.1621246337890625,-0.1239776611328125,0.20875667206140175
1784817527.779378,0.01025390625,-0.20263671875,0.9716796278953552,0.9926369334484821,0.019073486328125,-0.26702880859375,-0.1850128173828125,0.3254196138766572
1784817527.790029,0.012207034975290298,-0.19140625,0.9653319716453552,0.9842007822201013,0.0782012939453125,0.1621246337890625,-0.3070831298828125,0.35594927716541735
1784817527.80068,0.0039062537252902985,-0.2021484225988388,0.9741210341453552,0.9948824215663785,0.0782012939453125,-0.0209808349609375,-0.0629425048828125,0.10255435988441516
1784817527.808661,-0.004882805049419403,-0.19287109375,0.9584960341453552,0.9777206902085308,0.202178955078125,0.52642822265625,-0.1850128173828125,0.5934919932749108
1784817527.816641,-0.00341796875,-0.19775390625,0.9663085341453552,0.9863419656030331,0.019073486328125,0.77056884765625,-0.1239776611328125,0.7807116031665936
1784817527.82462,0.013671878725290298,-0.19384765625,0.9716796278953552,0.9909213557938658,-0.2269744873046875,0.4062652587890625,-0.1850128173828125,0.5007979842033069
1784817527.832601,0.001953125,-0.19873046875,0.9770507216453552,0.9970585371855405,-0.2269744873046875,0.4673004150390625,-0.1239776611328125,0.5340950816501386
1784817527.840625,0.0019531287252902985,-0.20166015625,0.9736327528953552,0.994299437212543,-0.0438690185546875,0.4673004150390625,-0.4329681396484375,0.6385574199985937
1784817527.848649,0.008300784975290298,-0.19189453125,0.9736327528953552,0.9923976781842303,0.019073486328125,0.89263916015625,-0.0019073486328125,0.8928449507635531
1784817527.856673,0.009277347475290298,-0.19580078125,0.9658202528953552,0.9855114286588135,-0.225067138671875,0.52642822265625,-0.3070831298828125,0.6496783351610146
1784817527.864697,-0.0014648400247097015,-0.2026367038488388,0.9614257216453552,0.9825493360357596,-0.286102294921875,0.40435791015625,-0.8563995361328125,0.9893331128361114
1784817527.875354,-0.008300777524709702,-0.20556640625,0.9824218153953552,1.003732570783055,-0.0438690185546875,0.1621246337890625,-0.4901885986328125,0.5181638253484989
1784817527.886011,-0.0009765587747097015,-0.1953125,0.9692382216453552,0.9887217286079745,0.0782012939453125,0.4673004150390625,-0.4329681396484375,0.64183060866636
1784817527.896668,0.0043945349752902985,-0.2001953125,0.9638671278953552,0.9844477209694087,0.263214111328125,0.34332275390625,-0.4329681396484375,0.6120568533254529
1784817527.905055,-0.004882805049419403,-0.18798828125,0.9790038466453552,0.9969011823741016,-0.102996826171875,-0.14495849609375,-0.6122589111328125,0.6375596333307013
1784817527.913441,0.0029296912252902985,-0.2001953125,0.9799804091453552,1.0002241491517518,0.1392364501953125,0.1010894775390625,-0.1239776611328125,0.21207624098911892
1784817527.921829,0.0009765662252902985,-0.19580078125,0.9750975966453552,0.9945623271586606,0.0782012939453125,0.1010894775390625,-0.1850128173828125,0.22486499825399175
1784817527.930216,-0.011718746274709702,-0.19189453125,0.9594725966453552,0.9785440735354176,-0.164031982421875,0.164031982421875,-0.3070831298828125,0.38485455846738376
1784817527.940454,-0.0073242150247097015,-0.1806640625,0.9697265028953552,0.9864393737186221,0.0782012939453125,0.1010894775390625,-0.2498626708984375,0.280652595128466
1784817527.950692,0.0039062537252902985,-0.21337890625,0.9687499403953552,0.9919789632177776,0.324249267578125,-0.08392333984375,0.5435943603515625,0.6384947479044009
1784817527.96093,0.0029296912252902985,-0.20068359375,0.9692382216453552,0.9898005951651784,0.3223419189453125,0.1621246337890625,0.1201629638671875,0.38029968114098
1784817527.968848,-0.0024414025247097015,-0.18505859375,0.9746093153953552,0.992026189786549,0.0782012939453125,-0.0820159912109375,0.1811981201171875,0.21371669079189032
1784817527.976768,-0.00048827752470970154,-0.19140625,0.9746093153953552,0.993227017659813,0.2613067626953125,-0.0209808349609375,0.7266998291015625,0.7725374173994439
1784817527.984688,0.015625,-0.20556640625,0.9707030653953552,0.9923538326481535,0.019073486328125,-0.14495849609375,0.5435943603515625,0.5629134854278189
1784817527.992608,0.008789066225290298,-0.20654296875,0.9677733778953552,0.9896072739163562,0.3871917724609375,-0.0209808349609375,0.7266998291015625,0.8236809489804536
1784817528.003301,-0.00439453125,-0.20849609375,0.9731444716453552,0.9952387129266193,0.3223419189453125,-0.2040863037109375,0.4863739013671875,0.6181545955526644
1784817528.013994,0.008300784975290298,-0.20556640625,0.9575194716453552,0.9793722423010294,0.202178955078125,-0.08392333984375,0.1201629638671875,0.24971702931990652
1784817528.024687,0.0024414099752902985,-0.19189453125,0.9794921278953552,0.9981153742004456,0.2613067626953125,-0.0209808349609375,0.2384185791015625,0.3543512925428246
1784817528.032905,0.0009765625,-0.20458984375,0.9584960341453552,0.9800880599784592,0.141143798828125,-0.14495849609375,-0.3681182861328125,0.4200542942558202
1784817528.041124,0.014160163700580597,-0.20263671875,0.9682616591453552,0.9893395729438451,0.0782012939453125,-0.2040863037109375,-0.0019073486328125,0.2185641775678743
1784817528.049342,0.0068359412252902985,-0.19091796875,0.9726561903953552,0.9912398627973288,0.0782012939453125,-0.0209808349609375,-0.3681182861328125,0.3769173787393445
1784817528.057562,-0.00390625,-0.19775390625,0.9707030653953552,0.9906494371845853,-0.102996826171875,-0.14495849609375,-0.1850128173828125,0.25661460283305604
1784817528.067925,0.0029296912252902985,-0.1972656100988388,0.9653319716453552,0.985285805996946,0.202178955078125,-0.019073486328125,-0.3681182861328125,0.4204178877528297
1784817528.07829,0.007812503725290298,-0.20166015625,0.9672850966453552,0.9881135117107984,-0.102996826171875,-0.14495849609375,-0.0629425048828125,0.18863475478332206
1784817528.088654,0.0029296912252902985,-0.1943359375,0.9609374403953552,0.980395738489441,0.324249267578125,0.22125244140625,-0.2498626708984375,0.46531879895580996
1784817528.099377,-0.00439453125,-0.1982421875,0.9663085341453552,0.9864438453210793,0.0782012939453125,0.1010894775390625,-0.0019073486328125,0.12782082311833579
1784817528.110099,0.00634765625,-0.193359375,0.9536132216453552,0.9730397305028671,0.202178955078125,-0.08392333984375,0.1201629638671875,0.24971702931990652
1784817528.120821,0.0043945349752902985,-0.19970703125,0.9589843153953552,0.9795678268719505,0.0782012939453125,-0.0209808349609375,-0.0019073486328125,0.08098935602402552
1784817528.131548,-0.0009765587747097015,-0.19580078125,0.9765624403953552,0.9959985439728728,0.141143798828125,-0.14495849609375,0.4253387451171875,0.4710069910683489
1784817528.142273,0.0019531287252902985,-0.19482421875,0.9692382216453552,0.9886268361832062,0.507354736328125,-0.08392333984375,0.0553131103515625,0.5172151347571675
1784817528.153,-0.0126953125,-0.19921875,0.9619140028953552,0.9824091969628544,0.324249267578125,-0.14495849609375,0.1811981201171875,0.39872711451406834
1784817528.160918,0.00244140625,-0.19287109375,0.9799804091453552,0.9987826698423921,0.4444122314453125,-0.0820159912109375,-0.0019073486328125,0.45192089158537657
1784817528.168837,0.0146484375,-0.19873046875,0.9545897841453552,0.9751666687933207,0.446319580078125,0.03814697265625,0.1811981201171875,0.48320711689497414
1784817528.176755,0.0014648474752902985,-0.20068359375,0.9624022841453552,0.9831043724380123,0.3223419189453125,0.1621246337890625,0.2384185791015625,0.43247211291757537
1784817528.184673,0.0,-0.201171875,0.9599608778953552,0.9808134432095824,0.202178955078125,0.09918212890625,0.2384185791015625,0.3279586001794533
1784817528.195342,0.0019531287252902985,-0.19140625,0.9721679091453552,0.990833291135765,0.2613067626953125,-0.0820159912109375,-0.0019073486328125,0.273882246637901
1784817528.206011,-0.00439453125,-0.1884765625,0.9775390028953552,0.9955527252227121,0.2613067626953125,0.2841949462890625,-0.0019073486328125,0.3860720524790089
1784817528.21668,-0.0048828087747097015,-0.18994140625,0.9790038466453552,0.997271332875943,0.4444122314453125,0.1010894775390625,0.3032684326171875,0.5474422856789638
1784817528.227329,0.00634765625,-0.18798828125,0.9726561903953552,0.9906765119561495,0.5702972412109375,0.7724761962890625,0.1201629638671875,0.9676763689640103
1784817528.237978,-0.0034179650247097015,-0.20068359375,0.9672850966453552,0.9878896929705965,0.507354736328125,1.07574462890625,-0.0019073486328125,1.189385964720466
1784817528.248627,0.0073242224752902985,-0.2041015625,0.9687499403953552,0.9900442106622377,0.507354736328125,1.25885009765625,0.3643035888671875,1.4052862703752727
1784817528.259303,0.00146484375,-0.18994140625,0.9575194716453552,0.9761779664361615,0.019073486328125,1.01470947265625,0.2384185791015625,1.0425174006412756
1784817528.269982,0.0004882849752902985,-0.201171875,0.9536132216453552,0.9746017331249037,-0.2269744873046875,0.4673004150390625,-0.0629425048828125,0.5233056990935878
1784817528.28066,-0.0068359337747097015,-0.20556640625,0.9731444716453552,0.9946428706138851,-0.1010894775390625,0.6504058837890625,0.3032684326171875,0.7247196964058847
1784817528.288648,-0.0063476525247097015,-0.2001953125,0.9750975966453552,0.9954565680244895,-0.1659393310546875,0.4673004150390625,-0.1850128173828125,0.5292780763289588
1784817528.296637,0.008789066225290298,-0.1982421875,0.9677733778953552,0.9879081554238145,-0.2269744873046875,0.5893707275390625,-0.2498626708984375,0.6791955732155875
1784817528.304626,0.0024414099752902985,-0.18603515625,0.9682616591453552,0.9859744826386458,0.2613067626953125,0.7114410400390625,0.0553131103515625,0.7599270477216424
1784817528.312615,-0.00390625,-0.19384765625,0.9697265028953552,0.9889194421389116,0.0782012939453125,0.5283355712890625,0.0553131103515625,0.5369482828362759
1784817528.323457,-0.0024414025247097015,-0.201171875,0.9711913466453552,0.991810826486645,0.6275177001953125,0.6504058837890625,-0.1239776611328125,0.9122372159618396
1784817528.334301,-0.00830078125,-0.1845703125,0.9682616591453552,0.9857310707270133,0.141143798828125,0.03814697265625,-0.1850128173828125,0.2358103179812046
1784817528.345144,-0.013671871274709702,-0.21142578125,0.9648436903953552,0.9878315281145126,0.324249267578125,0.03814697265625,-0.1239776611328125,0.34923235747529136
1784817528.353028,0.0019531287252902985,-0.19970703125,0.9643554091453552,0.9848187996735296,0.2613067626953125,-0.0209808349609375,-0.1239776611328125,0.2899859998791751
1784817528.360911,-0.010742180049419403,-0.1923828125,0.9692382216453552,0.9882050755161476,0.6275177001953125,-0.0209808349609375,-0.1239776611328125,0.639991499907643
1784817528.368793,-0.010253902524709702,-0.18212890625,0.9663085341453552,0.9833759526096582,0.385284423828125,-0.08392333984375,-0.1850128173828125,0.43556510054299086
1784817528.376677,0.0078125,-0.193359375,0.9775390028953552,0.9965096011771718,0.446319580078125,0.03814697265625,-0.2498626708984375,0.5129207671682356
1784817528.387326,0.00341796875,-0.18798828125,0.9702147841453552,0.9882651485162893,0.324249267578125,0.03814697265625,0.0553131103515625,0.33113791571572004
1784817528.397974,0.0048828125,-0.19921875,0.9550780653953552,0.9756464847519347,0.3223419189453125,0.2841949462890625,-0.2498626708984375,0.49709398961774864
1784817528.408624,-0.00390625,-0.18896484375,0.9648436903953552,0.9831817318574693,0.324249267578125,-0.08392333984375,-0.1239776611328125,0.3571430735089826
1784817528.419451,0.00146484375,-0.1982421875,0.9726561903953552,0.9926541066184145,-0.102996826171875,0.22125244140625,0.0553131103515625,0.25024094230654914
1784817528.430278,-0.010742183774709702,-0.1904296875,0.9790038466453552,0.9974103429080728,-0.041961669921875,0.34332275390625,0.1811981201171875,0.3904664567237583
1784817528.441105,-0.0029296837747097015,-0.1962890625,0.9692382216453552,0.9889189599772064,-0.2269744873046875,0.1621246337890625,0.6084442138671875,0.6693326349110158
1784817528.451667,0.0078125,-0.1884765625,0.9638671278953552,0.9821528852502076,-0.530242919921875,-0.14495849609375,-0.0629425048828125,0.5532922181252512
1784817528.462229,0.012695316225290298,-0.1943359375,0.9653319716453552,0.9847809112380138,-0.4100799560546875,-0.2040863037109375,-0.1239776611328125,0.4745389869970327
1784817528.472793,0.0009765662252902985,-0.1962890625,0.9614257216453552,0.9812592766338637,-0.347137451171875,-0.14495849609375,0.1201629638671875,0.3949132986887307
1784817528.480793,0.01513671875,-0.18798828125,0.9770507216453552,0.9950863413842816,0.141143798828125,-0.26702880859375,-0.0019073486328125,0.3020423721027215
1784817528.488793,0.00732421875,-0.18896484375,0.9721679091453552,0.9903897212339249,0.4444122314453125,0.4062652587890625,-0.1239776611328125,0.6147553598116151
1784817528.496793,0.008300784975290298,-0.1787109375,0.9750975966453552,0.9913737061254362,0.202178955078125,0.58746337890625,0.4253387451171875,0.7529293456429326
1784817528.504793,0.0009765625,-0.19873046875,0.9790038466453552,0.9989711130109385,0.202178955078125,0.469207763671875,0.0553131103515625,0.5138986237996835
1784817528.515475,-0.0014648400247097015,-0.18701171875,0.9707030653953552,0.9885544850305755,0.141143798828125,0.34332275390625,0.1201629638671875,0.3901681985794751
1784817528.526156,0.0068359412252902985,-0.2001953125,0.9697265028953552,0.9901991636317734,0.019073486328125,-0.14495849609375,0.2384185791015625,0.27967871268882605
1784817528.536839,-0.0043945275247097015,-0.20166015625,0.9672850966453552,0.9880923988591118,0.019073486328125,0.22125244140625,0.3032684326171875,0.37588320384265755
1784817528.544782,0.0039062537252902985,-0.19873046875,0.9560546278953552,0.9764985967977052,-0.0438690185546875,0.4062652587890625,0.3032684326171875,0.5088690337503168
1784817528.552727,-0.0068359337747097015,-0.205078125,0.9677733778953552,0.9892871566471859,-0.0438690185546875,0.1621246337890625,0.3032684326171875,0.34667078026893866
1784817528.560672,0.012695316225290298,-0.2099609375,0.9711913466453552,0.993708910158683,-0.041961669921875,0.03814697265625,0.3643035888671875,0.36869103342362675
1784817528.568617,-0.010253898799419403,-0.20361328125,0.9726561903953552,0.9937925213324891,0.019073486328125,0.22125244140625,0.2384185791015625,0.3258218218133084
1784817528.579305,-0.00439453125,-0.1904296875,0.9682616591453552,0.9868198510149514,-0.102996826171875,0.40435791015625,-0.0629425048828125,0.42198983948471114
1784817528.589994,-0.005371086299419403,-0.193359375,0.9736327528953552,0.9926617923437037,0.202178955078125,0.652313232421875,0.1811981201171875,0.7065561844631751
1784817528.600683,0.009765625,-0.185546875,0.9682616591453552,0.9859278121773533,0.141143798828125,0.52642822265625,-0.1850128173828125,0.5755675357007016
1784817528.611351,0.0039062537252902985,-0.19091796875,0.9687499403953552,0.9873911973609024,0.0782012939453125,0.8335113525390625,-0.1850128173828125,0.8573717745424936
1784817528.622019,-0.0053710900247097015,-0.1845703125,0.9716796278953552,0.9890684243930028,0.202178955078125,0.40435791015625,0.0553131103515625,0.4554571215374468
1784817528.632687,-0.010742180049419403,-0.19287109375,0.9716796278953552,0.9906946817780902,0.2613067626953125,0.5283355712890625,0.0553131103515625,0.592012871732033
1784817528.641014,0.0019531287252902985,-0.185546875,0.9614257216453552,0.9791684613871993,-0.2269744873046875,0.2841949462890625,-0.1850128173828125,0.4080611816620086
1784817528.64934,-0.00341796875,-0.19384765625,0.9653319716453552,0.984608760790144,-0.1659393310546875,0.4673004150390625,-0.0629425048828125,0.49986728079309223
1784817528.657665,0.0014648474752902985,-0.1962890625,0.9560546278953552,0.9759979474135081,-0.041961669921875,0.52642822265625,-0.1850128173828125,0.5595687606966427
1784817528.665992,-0.01806640625,-0.20703125,0.9750975966453552,0.996997320204473,-0.225067138671875,0.52642822265625,-0.3070831298828125,0.6496783351610146
1784817528.676224,-0.0058593712747097015,-0.1953125,0.9687499403953552,0.9882599617023798,0.202178955078125,0.40435791015625,-0.1239776611328125,0.46877724970648366
1784817528.686455,-0.0039062462747097015,-0.20556640625,0.9746093153953552,0.9960603012839643,0.385284423828125,0.652313232421875,-0.1850128173828125,0.7798630540249816
1784817528.696688,-0.010253902524709702,-0.1865234375,0.9619140028953552,0.9798850362261728,0.324249267578125,0.22125244140625,0.1811981201171875,0.4323459136931669
1784817528.707572,-0.00390625,-0.1943359375,0.9545897841453552,0.9741783057468187,0.324249267578125,-0.14495849609375,0.3032684326171875,0.4670356467517205
1784817528.718457,0.0048828125,-0.1953125,0.9707030653953552,0.990169306574436,0.0782012939453125,0.1621246337890625,0.4863739013671875,0.5186129685874596
1784817528.729342,0.0166015625,-0.2041015625,0.9672850966453552,0.9887231755575455,0.5054473876953125,-0.0209808349609375,0.4863739013671875,0.7017669336003316
1784817528.737831,0.01123046875,-0.2080078125,0.9672850966453552,0.9894613846338796,-0.2269744873046875,-0.0209808349609375,0.1811981201171875,0.29118786385577017
1784817528.746318,-0.0014648400247097015,-0.2001953125,0.9604491591453552,0.9810927052049111,-0.0438690185546875,-0.0209808349609375,0.3032684326171875,0.3071423586005278
1784817528.754804,0.0034179724752902985,-0.20361328125,0.9604491591453552,0.9818007120287973,-0.347137451171875,0.03814697265625,0.3643035888671875,0.5046550370207904
1784817528.763292,0.0063476599752902985,-0.20166015625,0.9687499403953552,0.9895370424708418,-0.164031982421875,-0.08392333984375,-0.0629425048828125,0.1947084413904614
1784817528.770643,0.00048828125,-0.2001953125,0.9809569716453552,1.001176798465275,-0.2841949462890625,-0.2040863037109375,0.1201629638671875,0.36994205592765894
1784817528.777993,-0.0009765587747097015,-0.20068359375,0.9589843153953552,0.9797580189218936,0.202178955078125,0.164031982421875,0.1201629638671875,0.286743716616563
1784817528.785345,0.0014648474752902985,-0.20166015625,0.9604491591453552,0.9813926592857316,0.019073486328125,-0.019073486328125,-0.1239776611328125,0.12687811561250753
1784817528.792696,-0.006347648799419403,-0.18798828125,0.9633788466453552,0.9815695027334257,0.019073486328125,0.22125244140625,0.1201629638671875,0.252498670480227
1784817528.804703,0.0034179724752902985,-0.2026367038488388,0.9638671278953552,0.9849432250235568,-0.1659393310546875,-0.2040863037109375,0.1811981201171875,0.3194054471784614
1784817528.816713,0.008300784975290298,-0.18505859375,0.9697265028953552,0.9872614023497469,-0.1659393310546875,0.1010894775390625,-0.0019073486328125,0.19431567625594412
1784817528.828722,-0.0014648400247097015,-0.19189453125,0.9633788466453552,0.9823056851325305,-0.102996826171875,0.164031982421875,0.2384185791015625,0.3071778903494484
1784817528.840731,-0.00390625,-0.1796875,0.9677733778953552,0.9843211708625892,-0.4100799560546875,0.2841949462890625,0.0553131103515625,0.5019879261803233
1784817528.848765,-0.0087890625,-0.193359375,0.9829100966453552,1.0017870799762798,-0.3490447998046875,-0.0209808349609375,-0.0019073486328125,0.3496800046973798
1784817528.856798,0.00146484375,-0.20751953125,0.9726561903953552,0.9945484233217793,0.141143798828125,0.03814697265625,-0.1850128173828125,0.2358103179812046
1784817528.864832,-0.011718746274709702,-0.201171875,0.9580077528953552,0.978972066461998,-0.286102294921875,-0.324249267578125,0.1811981201171875,0.4688548489868872
1784817528.872867,-0.0004882737994194031,-0.19287109375,0.9750975966453552,0.9939893461195509,-0.0438690185546875,-0.3871917724609375,0.1811981201171875,0.4297379645602616
1784817528.883467,0.001953125,-0.18798828125,0.9609374403953552,0.9791548258259117,-0.102996826171875,-0.324249267578125,0.1201629638671875,0.36081168441692263
1784817528.894068,0.0034179724752902985,-0.20849609375,0.9619140028953552,0.9842564973679453,0.019073486328125,0.03814697265625,-0.0629425048828125,0.07603123255918406
1784817528.90467,0.0034179724752902985,-0.2001953125,0.9692382216453552,0.9897032767355401,-0.164031982421875,-0.14495849609375,0.1201629638671875,0.24971702931990652
1784817528.912673,-0.0063476525247097015,-0.208984375,0.9687499403953552,0.9910556032346113,-0.102996826171875,-0.08392333984375,0.2384185791015625,0.2729375240468357
1784817528.920674,-0.0014648400247097015,-0.1953125,0.9687499403953552,0.988243677150809,0.202178955078125,-0.38909912109375,-0.1239776611328125,0.4556807175779701
1784817528.928674,-0.0004882737994194031,-0.20361328125,0.9750975966453552,0.996129474363771,0.202178955078125,-0.38909912109375,0.0553131103515625,0.4419660576211428
1784817528.936676,0.00048828125,-0.1923828125,0.9531249403953552,0.9723469221258628,0.1392364501953125,0.2841949462890625,0.2384185791015625,0.3962284384292007
1784817528.947323,-0.00244140625,-0.19384765625,0.9575194716453552,0.9769474975033694,0.019073486328125,0.22125244140625,0.0553131103515625,0.22885799283769703
1784817528.95797,0.007812503725290298,-0.2001953125,0.9624022841453552,0.983034767894619,0.1392364501953125,-0.0820159912109375,0.2384185791015625,0.28802227472560576
1784817528.968617,-0.0014648400247097015,-0.19873046875,0.9692382216453552,0.9894031914564171,-0.0438690185546875,-0.0209808349609375,-0.1239776611328125,0.13317337077874128
1784817528.979497,-0.005371086299419403,-0.19384765625,0.9726561903953552,0.9917992877170559,0.1392364501953125,0.1010894775390625,0.1201629638671875,0.2098690292002595
1784817528.990376,0.01513671875,-0.19677734375,0.9707030653953552,0.990562912911523,0.3223419189453125,-0.2040863037109375,0.1201629638671875,0.3999933373908701
1784817529.001255,-0.0048828087747097015,-0.19677734375,0.9785155653953552,0.9981171657454989,0.629425048828125,-0.14495849609375,0.2384185791015625,0.6885000192758584
1784817529.009104,0.009277347475290298,-0.19921875,0.9726561903953552,0.9928918592888881,0.507354736328125,0.03814697265625,0.1811981201171875,0.5400896025026038
1784817529.016955,0.0053710974752902985,-0.19140625,0.9604491591453552,0.979350697416493,0.019073486328125,0.40435791015625,0.1811981201171875,0.44351085231439585
1784817529.024806,-0.0014648400247097015,-0.1972656100988388,0.9643554091453552,0.9843257701756418,-0.347137451171875,1.01470947265625,0.0553131103515625,1.073871158045133
1784817529.032657,-0.0053710900247097015,-0.19677734375,0.9565429091453552,0.97658819809458,-0.5321502685546875,0.9555816650390625,-0.4329681396484375,1.1763424827966904
1784817529.043421,-0.0053710900247097015,-0.205078125,0.9594725966453552,0.9811592886351073,-0.835418701171875,0.34332275390625,-0.1850128173828125,0.9219678205953828
1784817529.054185,-0.00830078125,-0.19775390625,0.9580077528953552,0.9782404433543433,-0.591278076171875,0.22125244140625,0.0553131103515625,0.633736496003271
1784817529.064949,0.01025390625,-0.2041015625,0.9628905653953552,0.9843377628312916,-0.591278076171875,0.40435791015625,-0.0019073486328125,0.7163230562017745
1784817529.07556,-0.0039062462747097015,-0.19091796875,0.9624022841453552,0.9811641483868954,-0.3490447998046875,0.6504058837890625,0.3032684326171875,0.7980174360001236
1784817529.086173,-0.004882805049419403,-0.19873046875,0.9721679091453552,0.9922842760856372,0.0782012939453125,0.5283355712890625,0.4863739013671875,0.7223665898940785
1784817529.096786,-0.010253898799419403,-0.19775390625,0.9584960341453552,0.9787371441557209,0.019073486328125,0.52642822265625,-0.0629425048828125,0.5305207162879225
1784817529.104863,-0.00341796875,-0.2041015625,0.9848632216453552,1.0057955536166312,0.019073486328125,0.40435791015625,-0.0629425048828125,0.40967166891006995
1784817529.112943,0.00048828125,-0.19482421875,0.9609374403953552,0.9804883879902423,0.3223419189453125,0.7724761962890625,-0.0019073486328125,0.8370349004201508
1784817529.121022,0.00244140625,-0.20703125,0.9624022841453552,0.9844216857979293,0.202178955078125,0.52642822265625,-0.0019073486328125,0.5639207758757501
1784817529.129101,0.003906257450580597,-0.19775390625,0.9541015028953552,0.9743877791267599,0.0782012939453125,0.5283355712890625,-0.0629425048828125,0.5377877622119939
1784817529.139646,0.0063476599752902985,-0.19677734375,0.9726561903953552,0.9923818219389516,-0.1010894775390625,0.2841949462890625,-0.1850128173828125,0.35385815316492236
1784817529.150191,-0.0078125,-0.2119140625,0.9653319716453552,0.988349341337471,-0.0438690185546875,0.1010894775390625,0.2384185791015625,0.2626537494856682
1784817529.160736,-0.0034179650247097015,-0.18701171875,0.9804686903953552,0.998150248349577,0.019073486328125,0.03814697265625,-0.1850128173828125,0.1898650362743804
1784817529.171411,0.009765625,-0.20068359375,0.9658202528953552,0.9864978627117768,0.507354736328125,-0.08392333984375,0.1201629638671875,0.5281014044011413
1784817529.182088,-0.011718746274709702,-0.181640625,0.9633788466453552,0.9804230963356465,0.263214111328125,-0.14495849609375,0.0553131103515625,0.30553915325008746
1784817529.192765,-0.0014648400247097015,-0.18896484375,0.9667968153953552,0.9850918435295059,-0.0438690185546875,-0.2651214599609375,0.1201629638671875,0.29436884550868747
1784817529.200743,-0.00390625,-0.19775390625,0.9741210341453552,0.9939988206183208,-0.2841949462890625,-0.2040863037109375,0.3643035888671875,0.5051089899419222
1784817529.208722,0.0039062537252902985,-0.20458984375,0.9819335341453552,1.003028278994667,-0.3490447998046875,0.1621246337890625,-0.0629425048828125,0.3899723427024728
1784817529.216701,0.0009765662252902985,-0.20556640625,0.9804686903953552,1.0017870801251707,0.324249267578125,0.03814697265625,-0.3070831298828125,0.4482106956626665
1784817529.22468,-0.00048827752470970154,-0.19189453125,0.9594725966453552,0.9784740227783152,0.2613067626953125,0.1621246337890625,-0.0019073486328125,0.3075211522649281
1784817529.232685,-0.00048827752470970154,-0.20654296875,0.9628905653953552,0.9847936216702419,0.0782012939453125,-0.0209808349609375,0.1811981201171875,0.19846510157804062
1784817529.24069,0.0053710974752902985,-0.20166015625,0.9575194716453552,0.9785393226063344,0.019073486328125,-0.57220458984375,0.3032684326171875,0.6478839654915446
1784817529.248694,0.0048828125,-0.18603515625,0.9687499403953552,0.9864630597416593,0.4444122314453125,-0.6923675537109375,0.1811981201171875,0.8424415823212151
1784817529.2567,-0.00341796875,-0.193359375,0.9624022841453552,0.9816403042555678,0.0171661376953125,-0.6923675537109375,0.0553131103515625,0.6947856114599715
1784817529.267405,0.0029296912252902985,-0.2138671875,0.9848632216453552,1.007821076545586,-0.0438690185546875,-0.5092620849609375,-0.1850128173828125,0.5436010527617092
1784817529.27811,0.008300784975290298,-0.19580078125,0.9760741591453552,0.9955539227588973,0.324249267578125,0.03814697265625,-0.1850128173828125,0.37526326977698354
1784817529.288815,-0.0087890625,-0.193359375,0.9707030653953552,0.9898128796332966,0.4444122314453125,-0.0820159912109375,-0.1850128173828125,0.48832222647391393
1784817529.299463,-0.00439453125,-0.197265625,0.9604491591453552,0.980507840873579,0.690460205078125,-0.08392333984375,-0.2498626708984375,0.7390600625629535
1784817529.310109,-0.015136715024709702,-0.19189453125,0.9550780653953552,0.9742826808810321,0.6275177001953125,-0.3261566162109375,-0.0019073486328125,0.7072200791375978
