timestamp,accel_x,accel_y,accel_z,accel_rms,gyro_x,gyro_y,gyro_z,gyro_rms
1782812723.707646,-0.16259765625,0.11328125,0.9277343153953552,0.9486630589316969,25.537490844726562,18.178939819335938,-27.379989624023438,41.62092170304692
1782812723.715622,-0.1699218600988388,0.11962890625,0.9160155653953552,0.9392917703230412,24.990081787109375,17.932891845703125,-26.948928833007812,40.894224077767035
1782812723.723598,-0.15234375,0.1357421875,0.9057616591453552,0.9284604153161805,23.706436157226562,18.178939819335938,-26.891708374023438,40.194936839174396
1782812723.731574,-0.1630859375,0.15283203125,0.8920897841453552,0.9196623487795732,22.668838500976562,18.301010131835938,-27.009963989257812,39.728344610994334
1782812723.74222,-0.1640624850988388,0.1337890625,0.8642577528953552,0.8898075498112862,21.083831787109375,18.787384033203125,-26.826858520507812,38.95091911261559
1782812723.752866,-0.1840820163488388,0.14892578125,0.8749999403953552,0.9064711648783166,18.945693969726562,18.850326538085938,-26.765823364257812,37.82437614758041
1782812723.763512,-0.1831054538488388,0.140625,0.8691405653953552,0.899282113838559,16.750335693359375,18.482208251953125,-26.582717895507812,36.45280041945947
1782812723.77151,-0.2021484225988388,0.1455078125,0.8715819716453552,0.9064720853699461,14.551162719726562,19.033432006835938,-26.220321655273438,35.51778622269141
1782812723.779509,-0.205078125,0.146484375,0.8823241591453552,0.9176113726868332,12.416839599609375,19.092559814453125,-26.403427124023438,34.8689648513476
1782812723.787506,-0.2080077975988388,0.13623046875,0.8793944716453552,0.9138712279299407,10.705947875976562,18.850326538085938,-25.972366333007812,33.830695284778756
1782812723.795504,-0.2119140475988388,0.130859375,0.8920897841453552,0.9262051190592827,8.752822875976562,17.690658569335938,-25.178909301757812,31.99294895037317
1782812723.806147,-0.21630859375,0.13134765625,0.8857421278953552,0.9211844178344869,6.9255828857421875,16.225814819335938,-24.385452270507812,30.09802397659822
1782812723.81679,-0.2226562350988388,0.11865234375,0.8945311903953552,0.9294300556232775,5.580902099609375,14.820098876953125,-23.958206176757812,28.71893873694026
1782812723.827434,-0.2358398288488388,0.1166992112994194,0.8994140028953552,0.9371150833241358,3.810882568359375,13.416290283203125,-23.530960083007812,27.353715530821457
1782812723.835457,-0.23388671875,0.1059570237994194,0.8920897841453552,0.9283070995508861,2.407073974609375,11.402130126953125,-22.676467895507812,25.49558339727119
1782812723.843481,-0.2397460788488388,0.11962890625,0.9057616591453552,0.9445599190690401,1.3675689697265625,10.488510131835938,-22.188186645507812,24.580372582377088
1782812723.851506,-0.2333984375,0.1113281175494194,0.9042968153953552,0.9405431998152556,-0.0362396240234375,8.901596069335938,-21.825790405273438,23.571271766854082
1782812723.859529,-0.2363281100988388,0.1142578125,0.9282225966453552,0.9646258405533308,-0.949859619140625,7.984161376953125,-21.760940551757812,23.19887065972052
1782812723.867536,-0.2495117038488388,0.1044921875,0.9448241591453552,0.9827855306783945,-1.6193389892578125,7.5588226318359375,-21.516799926757812,22.863305479081774
1782812723.875543,-0.25634765625,0.09423828125,0.9506835341453552,0.989138087737463,-1.987457275390625,6.641387939453125,-21.154403686523438,22.261330048229663
1782812723.88355,-0.25537109375,0.09033203125,0.9453124403953552,0.9833564365778282,-2.475738525390625,5.79071044921875,-20.723342895507812,21.659144708819614
1782812723.891557,-0.2509765625,0.09326171875,0.9663085341453552,1.0027158950922568,-2.780914306640625,5.60760498046875,-19.807815551757812,20.77325864977171
1782812723.902219,-0.2446288913488388,0.09814453125,0.9648436903953552,1.0001994753010883,-3.3321380615234375,4.8122406005859375,-19.746780395507812,20.596022422967803
1782812723.912881,-0.2475585788488388,0.08544921875,0.9526366591453552,0.987979465016488,-3.8776397705078125,4.5680999755859375,-18.953323364257812,19.877929824981603
1782812723.923543,-0.25439453125,0.08837890625,0.9638671278953552,1.0007833176252963,-4.3659210205078125,4.4460296630859375,-18.712997436523438,19.723202558957933
1782812723.931536,-0.255859375,0.0810546875,0.9609374403953552,0.9977147119766703,-4.8580169677734375,5.4225921630859375,-18.220901489257812,19.621571947924387
1782812723.939528,-0.25341796875,0.083984375,0.9760741591453552,1.011926285003423,-4.6749114990234375,5.7277679443359375,-17.183303833007812,18.706363991041254
1782812723.947518,-0.25341796875,0.06787109375,0.9873046278953552,1.0215662389271598,-4.6138763427734375,5.9108734130859375,-16.756057739257812,18.357335056409255
1782812723.955509,-0.2465820163488388,0.0732421875,0.9882811903953552,1.021208509612853,-4.795074462890625,5.970001220703125,-16.450881958007812,18.145665346747954
1782812723.96617,-0.259765625,0.06982421875,0.9990233778953552,1.0346020061053112,-4.917144775390625,5.970001220703125,-15.722274780273438,17.521676620225882
1782812723.976831,-0.2416992038488388,0.06689453125,0.9907225966453552,1.0219709618947277,-4.7321319580078125,5.4225921630859375,-15.291213989257812,16.90026046841982
1782812723.987492,-0.2353515625,0.06103515625,0.9995116591453552,1.0286589352341982,-5.3462982177734375,5.6667327880859375,-14.986038208007812,16.890118599252215
1782812723.998128,-0.25341796875,0.06640625,0.9902343153953552,1.0243019361062178,-5.6514739990234375,4.9343109130859375,-15.047073364257812,16.81371462164128
1782812724.008765,-0.2460937350988388,0.0605468712747097,0.9814452528953552,1.0136384140840764,-6.076812744140625,3.65447998046875,-15.108108520507812,16.689452361369966
1782812724.019402,-0.2548828125,0.0576171875,0.9960936903953552,1.029799800179024,-6.4449310302734375,2.1266937255859375,-15.169143676757812,16.61814917713611
1782812724.030105,-0.25146484375,0.0610351525247097,0.9936522841453552,1.0267934160644039,-6.5670013427734375,-0.8029937744140625,-14.863967895507812,16.26984472072253
1782812724.04081,-0.2529296875,0.0546874962747097,0.9892577528953552,1.0225434224184378,-6.565093994140625,-2.819061279296875,-14.619827270507812,16.272274428235782
1782812724.051515,-0.26611328125,0.0458984337747097,0.9809569716453552,1.017447553881889,-6.443023681640625,-4.833221435546875,-13.952255249023438,16.110183429778626
1782812724.062169,-0.2685546875,0.0410156212747097,0.9819335341453552,1.01882155790205,-6.5021514892578125,-6.8454742431640625,-12.910842895507812,15.994635221709958
1782812724.072824,-0.26513671875,0.041015625,0.9838866591453552,1.0198101387846004,-6.3228607177734375,-8.493423461914062,-11.445999145507812,15.592552908318774
1782812724.083479,-0.2734375,0.0434570275247097,0.9868163466453552,1.0249210123975503,-6.015777587890625,-10.875701904296875,-9.737014770507812,15.788601221741624
1782812724.094141,-0.25341796875,0.0502929650247097,0.9863280653953552,1.0196043849468757,-5.100250244140625,-14.293670654296875,-6.0787200927734375,16.34846816349017
1782812724.104801,-0.2548828125,0.0380859375,0.9775390028953552,1.010939310208486,-5.039215087890625,-14.965057373046875,-3.5114288330078125,16.176426160616806
1782812724.115462,-0.251953125,0.0590820275247097,0.9848632216453552,1.0182959434876309,-3.6373138427734375,-16.366958618164062,-1.9245147705078125,16.876348642447184
1782812724.123466,-0.2294921875,0.0615234375,0.9858397841453552,1.014066998520863,-3.5152435302734375,-16.550064086914062,-0.1583099365234375,16.920006512826582
1782812724.131469,-0.2407226413488388,0.06494140625,0.9858397841453552,1.0168799616018844,-2.5386810302734375,-16.672134399414062,1.7948150634765625,16.959549755747595
1782812724.139472,-0.2075195163488388,0.0654296875,0.9877929091453552,1.0114742829305388,-1.987457275390625,-16.735076904296875,2.7713775634765625,17.07903155959304
1782812724.147475,-0.2050781100988388,0.07373046875,0.9946288466453552,1.0182238240401154,-1.010894775390625,-16.246795654296875,3.9958953857421875,16.76148732103412
1782812724.158131,-0.18994140625,0.0712890625,0.9868163466453552,1.0074553936759891,-0.522613525390625,-15.941619873046875,4.6672821044921875,16.61902197232308
1782812724.168787,-0.1943359225988388,0.08349609375,0.9843749403953552,1.0068426251218259,-0.7076263427734375,-15.207290649414062,5.8841705322265625,16.32133226146281
1782812724.179443,-0.1831054538488388,0.07763671875,0.9746093153953552,0.9946951216241381,-0.644683837890625,-15.02227783203125,6.0100555419921875,16.1927519628816
1782812724.189051,-0.16796875,0.083984375,0.9799804091453552,0.9978118452541045,-1.316070556640625,-14.415740966796875,6.1893463134765625,15.743368036096596
1782812724.19866,-0.1557617038488388,0.07958984375,0.9711913466453552,0.9868175532553428,-2.109527587890625,-14.293670654296875,5.8269500732421875,15.579232156099236
1782812724.208269,-0.16162109375,0.080078125,0.9697265028953552,0.9863586439354183,-2.9659271240234375,-14.719009399414062,6.0100555419921875,16.17302473326769
1782812724.217878,-0.1474609375,0.08544921875,0.9760741591453552,0.9908415923974309,-3.6983489990234375,-14.535903930664062,5.2776336669921875,15.900430985449482
1782812724.227487,-0.142578125,0.0878906175494194,0.9760741591453552,0.9903403690312973,-4.795074462890625,-14.293670654296875,4.7245025634765625,15.799452026904923
1782812724.23711,-0.1337890625,0.0830078125,0.9707030653953552,0.9833891657673494,-5.1631927490234375,-14.352798461914062,4.0569305419921875,15.783537894731964
1782812724.246735,-0.1416015625,0.0966796800494194,0.9785155653953552,0.9934237136075881,-5.161285400390625,-14.659881591796875,3.5648345947265625,15.945502217162982
1782812724.256361,-0.119140625,0.09326171875,0.9663085341453552,0.9780820108108215,-5.954742431640625,-14.171600341796875,2.4089813232421875,15.559447441684048
1782812724.265985,-0.1225585862994194,0.0751953125,0.9721679091453552,0.9827438046966953,-6.381988525390625,-13.500213623046875,1.6765594482421875,15.026523117128866
1782812724.27561,-0.125,0.0732421875,0.9672850966453552,0.9780745760022593,-6.687164306640625,-12.950897216796875,0.8831024169921875,14.602183914159651
1782812724.285203,-0.10400390625,0.0732421875,0.9741210341453552,0.9823914798640409,-6.9332122802734375,-10.629653930664062,-0.3414154052734375,12.695492888737103
1782812724.294793,-0.1220703050494194,0.08447265625,0.9824218153953552,0.9935740598432984,-7.1163177490234375,-9.531021118164062,-1.2531280517578125,11.960462857852018
1782812724.304383,-0.1254882663488388,0.07861328125,0.9726561903953552,0.9838635157858707,-7.053375244140625,-8.617401123046875,-1.0128021240234375,11.181926157535282
1782812724.313973,-0.1254882663488388,0.06884765625,0.9702147841453552,0.9807160813082314,-6.9332122802734375,-7.3337554931640625,-1.6193389892578125,10.221333617438528
1782812724.323563,-0.11962890625,0.0620117150247097,0.9711913466453552,0.9804943446087262,-6.870269775390625,-6.298065185546875,-1.6803741455078125,9.470474599350059
1782812724.331546,-0.13232421875,0.0703125,0.9697265028953552,0.9812354645760126,-7.2383880615234375,-4.8923492431640625,-1.9245147705078125,8.946122061999587
1782812724.33953,-0.14013671875,0.0615234375,0.9790038466453552,0.9908945277123268,-7.4214935302734375,-3.9157867431640625,-1.9245147705078125,8.60904809719011
1782812724.347514,-0.14208984375,0.06640625,0.9785155653953552,0.9910055627780067,-6.870269775390625,-3.54766845703125,-1.9245147705078125,7.9680810343245865
1782812724.355498,-0.1352538913488388,0.0634765625,0.9814452528953552,0.9927525741808216,-6.3228607177734375,-2.6950836181640625,-1.3179779052734375,6.998507635492562
1782812724.363482,-0.1279296875,0.0581054612994194,0.9794921278953552,0.9895186093174988,-6.015777587890625,-1.89971923828125,-1.0700225830078125,6.398707799189595
1782812724.371466,-0.1401367038488388,0.06787109375,0.9833983778953552,0.995649110269102,-5.4683685302734375,-1.5964508056640625,-0.7648468017578125,5.7477561002489885
1782812724.381057,-0.1459960788488388,0.0693359375,0.9799804091453552,0.9932189736291479,-4.6749114990234375,-1.5964508056640625,-0.5817413330078125,4.974120593344788
1782812724.390648,-0.14111328125,0.0488281175494194,0.9750975966453552,0.9864646299752006,-4.428863525390625,-1.232147216796875,-0.6427764892578125,4.641786348544961
1782812724.400239,-0.1352538913488388,0.0654296875,0.9814452528953552,0.9928793700959744,-3.5724639892578125,-1.4743804931640625,-0.5817413330078125,3.9082885988238196
1782812724.40983,-0.14697265625,0.0683593675494194,0.9926757216453552,1.0058225753884549,-3.0841827392578125,-1.2912750244140625,-1.2531280517578125,3.5707008096329904
1782812724.419421,-0.1499023288488388,0.0810546875,0.9897460341453552,1.004309604985677,-2.4127960205078125,-1.1081695556640625,-1.3179779052734375,2.964235172766827
1782812724.430135,-0.14404296875,0.0751953125,0.9975585341453552,1.0107055658867798,-1.682281494140625,-1.049041748046875,-1.5010833740234375,2.4867269473029894
1782812724.440849,-0.1552734375,0.06689453125,0.9873046278953552,1.0016761687131273,-0.949859619140625,-0.743865966796875,-1.9245147705078125,2.271415192019143
1782812724.451563,-0.13916015625,0.06884765625,0.9990233778953552,1.0110159536031507,-0.7648468017578125,-0.6198883056640625,-2.8400421142578125,3.005842868883236
1782812724.459569,-0.1396484375,0.07666015625,0.9990233778953552,1.0116452813283476,0.148773193359375,-1.171112060546875,-3.8166046142578125,3.995010350799447
1782812724.467574,-0.1435546875,0.0888671875,1.00146484375,1.015596946915751,0.3910064697265625,-1.6574859619140625,-4.5490264892578125,4.8573436951979705
1782812724.47558,-0.14404296875,0.08837890625,0.9790038466453552,0.9934826317871198,1.003265380859375,-2.208709716796875,-5.3424835205078125,5.867458581396326
1782812724.483586,-0.14990234375,0.0722656175494194,1.0009765625,1.0147152855928891,1.003265380859375,-3.24249267578125,-6.1359405517578125,7.012137094469269
1782812724.494208,-0.12744140625,0.0683593675494194,1.01416015625,1.0244194149291386,1.4286041259765625,-4.7702789306640625,-7.1125030517578125,8.682405800603824
1782812724.50483,-0.1357421875,0.0830078050494194,0.9882811903953552,1.0010074667332247,1.6117095947265625,-6.0520172119140625,-8.089065551757812,10.23022490718912
1782812724.515452,-0.1328125,0.0727538987994194,0.9814452528953552,0.99305945158263,1.674652099609375,-7.274627685546875,-9.431838989257812,12.028476808695896
1782812724.52612,-0.123046875,0.08349609375,0.9794921278953552,0.9907153777587917,1.613616943359375,-8.373260498046875,-10.774612426757812,13.740725015620265
1782812724.536789,-0.1220703050494194,0.06689453125,0.9682616591453552,0.9782160693103193,1.979827880859375,-9.044647216796875,-11.873245239257812,15.056537258802168
1782812724.547458,-0.125,0.0600585900247097,0.9790038466453552,0.9887773085898353,1.9168853759765625,-10.324478149414062,-13.097763061523438,16.78751607052601
1782812724.555476,-0.1416015625,0.06005859375,0.9638671278953552,0.9760624352073539,1.7337799072265625,-11.789321899414062,-14.070510864257812,18.438367053399922
1782812724.563492,-0.1455077975988388,0.0600585900247097,1.00439453125,1.0166552649756593,2.101898193359375,-12.157440185546875,-14.314651489257812,18.89789869639766
1782812724.571508,-0.1328125,0.0585937425494194,0.9663085341453552,0.977151252357762,2.040863037109375,-12.706756591796875,-14.131546020507812,19.113539126732725
1782812724.579524,-0.142578125,0.04541015625,0.9721679091453552,0.9836163111656987,1.979827880859375,-12.645721435546875,-13.338088989257812,18.48617339929057
1782812724.590601,-0.1513671875,0.0639648362994194,0.9711913466453552,0.9849955114279914,1.918792724609375,-12.340545654296875,-12.487411499023438,17.66086856617596
1782812724.601678,-0.12890625,0.0673828050494194,0.9887694716453552,0.9994109924166461,1.491546630859375,-12.035369873046875,-11.262893676757812,16.550758692791803
1782812724.612756,-0.1494140475988388,0.0502929650247097,0.9780272841453552,0.9906519613282881,1.491546630859375,-11.669158935546875,-10.408401489257812,15.70760335559393
1782812724.62044,-0.1406249850988388,0.0551757775247097,0.9902343153953552,1.0016904473169408,1.857757568359375,-11.180877685546875,-8.821487426757812,14.36251821312693
1782812724.628126,-0.1411132663488388,0.0541992150247097,0.9755858778953552,0.9872275897673161,2.4051666259765625,-10.751724243164062,-8.031845092773438,13.63432933055609
1782812724.635812,-0.1313476413488388,0.07421875,0.9907225966453552,1.002143647010338,2.8362274169921875,-10.629653930664062,-6.5021514892578125,12.779346721794417
1782812724.643498,-0.1396484225988388,0.07275390625,0.9858397841453552,0.9983360620616377,2.8934478759765625,-10.507583618164062,-5.5904388427734375,12.248851397518587
1782812724.654215,-0.13525390625,0.06689453125,0.9755858778953552,0.9871860526850509,3.200531005859375,-10.082244873046875,-4.4307708740234375,11.468513022081007
1782812724.664932,-0.12451171875,0.0605468712747097,0.9736327528953552,0.9834275922699257,2.956390380859375,-9.899139404296875,-4.0607452392578125,11.100579125788704
1782812724.675649,-0.1123046800494194,0.07470703125,0.9741210341453552,0.9834151060684431,2.834320068359375,-9.105682373046875,-3.6945343017578125,10.227238407096333
1782812724.686258,-0.1103515625,0.0605468712747097,0.9697265028953552,0.9778613814774582,1.430511474609375,-7.762908935546875,-2.9010772705078125,8.40983754599574
1782812724.696869,-0.10986328125,0.0732421875,0.9575194716453552,0.9665805176894483,0.4520416259765625,-7.3337554931640625,-2.5959014892578125,7.792754057909214
1782812724.70748,-0.115234375,0.06298828125,0.9731444716453552,0.9819657058423106,-1.010894775390625,-6.786346435546875,-1.7414093017578125,7.07876490260981
1782812724.718134,-0.1259765625,0.0776367112994194,0.9633788466453552,0.9746775648410302,-2.414703369140625,-6.298065185546875,-0.8869171142578125,6.80316392643159
1782812724.728787,-0.1220703050494194,0.08154296875,0.9697265028953552,0.9807751554485243,-3.3321380615234375,-5.9299468994140625,-0.2155303955078125,6.8054292768576605
1782812724.73944,-0.1181640625,0.0556640587747097,0.9829100966453552,0.9915510532459535,-4.1866302490234375,-6.1740875244140625,1.0051727294921875,7.527124405593294
1782812724.747458,-0.1210937425494194,0.0532226487994194,0.9765624403953552,0.9854798551065278,-5.4073333740234375,-6.0520172119140625,2.5310516357421875,8.501316894100876
1782812724.755476,-0.1123046800494194,0.06591796875,0.9980468153953552,1.0065063166646986,-5.405426025390625,-6.114959716796875,3.4427642822265625,8.857990108201397
1782812724.763494,-0.1030273362994194,0.0576171875,0.9780272841453552,0.9851252412019008,-5.771636962890625,-6.298065185546875,4.4193267822265625,9.618101035074849
1782812724.771512,-0.1206054612994194,0.04736328125,0.9829100966453552,0.991413746017975,-5.8345794677734375,-6.7234039306640625,4.7245025634765625,10.078065412217216
1782812724.779628,-0.1206054538488388,0.0385742150247097,0.9907225966453552,0.9987817124209735,-6.0787200927734375,-6.8454742431640625,4.6062469482421875,10.248359211517743
1782812724.787744,-0.0976562425494194,0.0458984375,1.0087890625,1.01454363183327,-5.893707275390625,-7.091522216796875,5.0334930419921875,10.505309372079426
1782812724.795861,-0.1005859375,0.0341796837747097,0.9833983778953552,0.9891198871991751,-6.076812744140625,-7.274627685546875,5.3386688232421875,10.878843959490048
1782812724.803977,-0.10546875,0.0336914025247097,0.9965819716453552,1.0027135154365818,-6.0787200927734375,-7.2116851806640625,5.2127838134765625,10.776472344758298
1782812724.814487,-0.1044921875,0.0434570275247097,0.9838866591453552,0.9903737115523751,-5.5904388427734375,-8.005142211914062,5.0945281982421875,11.013152402942728
1782812724.824998,-0.1127929612994194,0.0361328125,1.005859375,1.012808429335599,-5.0373077392578125,-8.188247680664062,5.0334930419921875,10.851632206431935
1782812724.835509,-0.0961913913488388,0.0292968712747097,0.9921874403953552,0.9972697765972851,-4.9190521240234375,-8.493423461914062,5.2776336669921875,11.143999866530022
1782812724.846159,-0.109375,0.0214843712747097,1.01318359375,1.019296553255349,-4.245758056640625,-8.678436279296875,5.9490203857421875,11.346037250041139
1782812724.85681,-0.09130859375,0.0390624962747097,1.001953125,1.0068630505709701,-3.6373138427734375,-8.676528930664062,6.3724517822265625,11.363113481448833
1782812724.867461,-0.08544921875,0.0317382775247097,1.0126953125,1.0167893996323396,-3.2100677490234375,-8.981704711914062,6.9866180419921875,11.8232138672203
1782812724.87813,-0.09375,0.0556640587747097,1.00244140625,1.0083532728680717,-2.2335052490234375,-8.127212524414062,7.5321197509765625,11.303670070267412
1782812724.888799,-0.0810546875,0.0375976525247097,1.0068359375,1.0107927833550234,-1.7452239990234375,-7.7610015869140625,8.085250854492188,11.342408642740597
1782812724.899468,-0.08154296875,0.0468749962747097,1.00830078125,1.0126781258117892,-1.4362335205078125,-6.8454742431640625,8.020401000976562,10.64190380316035
1782812724.91028,-0.07568359375,0.0346679650247097,0.9980468153953552,1.0015125160888803,-1.0738372802734375,-6.3571929931640625,8.085250854492188,10.341098134961584
1782812724.921089,-0.07568359375,0.0458984337747097,0.9970702528953552,1.0009913894708056,-0.827789306640625,-5.809783935546875,7.9631805419921875,9.891969917983479
1782812724.931899,-0.076171875,0.0375976525247097,1.00341796875,1.0070071290843776,-0.8907318115234375,-5.6858062744140625,7.9021453857421875,9.775770959245756
1782812724.93984,-0.0585937462747097,0.0600585900247097,0.9941405653953552,0.9976751601111745,-0.949859619140625,-5.19561767578125,7.1697235107421875,8.905145228992833
1782812724.94778,-0.0683593675494194,0.06201171875,0.9941405653953552,0.9984157050841509,-1.132965087890625,-5.138397216796875,6.9255828857421875,8.697725803636832
1782812724.95572,-0.0620117150247097,0.0502929650247097,0.9980468153953552,1.0012353773474512,-1.0738372802734375,-5.3195953369140625,6.7424774169921875,8.655184733538189
1782812724.96366,-0.0703125,0.0600585900247097,0.9926757216453552,0.9969734049793569,-0.888824462890625,-5.321502685546875,6.6776275634765625,8.584818555719005
1782812724.971844,-0.0703125,0.0732421875,0.9892577528953552,0.9944542057579137,-1.132965087890625,-5.077362060546875,6.7424774169921875,8.516115141477918
1782812724.980028,-0.0737304612994194,0.0624999925494194,0.9907225966453552,0.9954263877835557,-1.0128021240234375,-5.6858062744140625,6.7424774169921875,8.877790426183891
1782812724.988213,-0.0688476487994194,0.06103515625,0.9902343153953552,0.9944995165560303,-1.682281494140625,-5.626678466796875,6.7424774169921875,8.941509006476105
1782812724.996396,-0.0639648362994194,0.076171875,1.00244140625,1.0073640989177173,-1.7452239990234375,-5.6247711181640625,6.9866180419921875,9.137652247880235
1782812725.006766,-0.0551757775247097,0.08056640625,0.9995116591453552,1.0042703167021303,-1.926422119140625,-5.992889404296875,6.5555572509765625,9.088517836483538
1782812725.017136,-0.07373046875,0.07470703125,0.9897460341453552,0.9952962044772108,-1.6841888427734375,-5.9299468994140625,6.7424774169921875,9.135741021211286
1782812725.027506,-0.0541992150247097,0.0830078125,0.9985350966453552,1.003444164404716,-2.109527587890625,-5.748748779296875,6.1321258544921875,8.666094083661363
1782812725.03933,-0.0600585900247097,0.07470703125,0.9887694716453552,0.9934048735595067,-1.8062591552734375,-5.3806304931640625,5.8269500732421875,8.134316430778506
1782812725.051157,-0.0595703087747097,0.08447265625,0.9790038466453552,0.9844454190496531,-2.170562744140625,-5.321502685546875,5.5217742919921875,7.969926272572395
1782812725.062984,-0.0595703087747097,0.076171875,0.9790038466453552,0.9837679136742223,-2.4127960205078125,-5.0754547119140625,4.8503875732421875,7.423481984886286
1782812725.0725,-0.04248046875,0.0917968675494194,0.9707030653953552,0.9759588599347027,-1.804351806640625,-4.650115966796875,3.3245086669921875,5.994299110295773
1782812725.082012,-0.0400390587747097,0.0908203125,0.9741210341453552,0.9791645645929895,-1.5010833740234375,-4.2209625244140625,2.7141571044921875,5.237979067936692
1782812725.091525,-0.0512695275247097,0.103515625,0.9794921278953552,0.9862803240867773,-1.194000244140625,-4.161834716796875,2.0999908447265625,4.812116617547727
1782812725.102191,-0.0537109300494194,0.0976562425494194,0.9663085341453552,0.9727146492562913,-0.8907318115234375,-4.2209625244140625,1.4934539794921875,4.565121310702358
1782812725.112858,-0.0532226487994194,0.09033203125,0.9692382216453552,0.9748924333039148,-0.461578369140625,-3.978729248046875,1.1882781982421875,4.177959561381592
1782812725.123525,-0.0502929650247097,0.099609375,0.9653319716453552,0.9717598599446142,-0.339508056640625,-3.856658935546875,1.1234283447265625,4.031274626144008
1782812725.131507,-0.0449218712747097,0.07666015625,0.9453124403953552,0.9494789961032934,-1.255035400390625,-3.856658935546875,1.1882781982421875,4.226220188038587
1782812725.139489,-0.06298828125,0.0888671875,0.9482421278953552,0.9544778853931087,-2.0503997802734375,-3.6106109619140625,1.9207000732421875,4.574903228330835
1782812725.147471,-0.0546874925494194,0.0869140550494194,0.9448241591453552,0.9503880610104505,-3.086090087890625,-3.795623779296875,2.0999908447265625,5.3235959137105855
1782812725.155453,-0.0390624962747097,0.07568359375,0.9467772841453552,0.9506003948830347,-4.1255950927734375,-4.0988922119140625,2.4089813232421875,6.294810819249114
1782812725.16621,-0.0478515587747097,0.0849609375,0.9526366591453552,0.9576140855927674,-4.9800872802734375,-4.5871734619140625,2.8972625732421875,7.364615407958508
1782812725.176967,-0.0415039025247097,0.07421875,0.9624022841453552,0.9661517237497121,-5.4683685302734375,-4.4651031494140625,2.9544830322265625,7.653049751929418
1782812725.187724,-0.0371093712747097,0.0693359375,0.9550780653953552,0.9583103300417577,-6.1969757080078125,-4.4040679931640625,3.2024383544921875,8.24948084599108
1782812725.198581,-0.0336914025247097,0.0551757775247097,0.9584960341453552,0.9606737867257086,-6.7501068115234375,-4.4040679931640625,3.8127899169921875,8.916115959682475
1782812725.209435,-0.0249023400247097,0.0439453087747097,0.9599608778953552,0.9612888243351381,-7.2994232177734375,-5.0144195556640625,3.9310455322265625,9.689122858589137
1782812725.22029,-0.0341796800494194,0.04638671875,0.9619140028953552,0.9636381723296549,-8.213043212890625,-4.650115966796875,4.2362213134765625,10.34520315596659
1782812725.228083,-0.029296867549419403,0.0380859375,0.9858397841453552,0.9870100937109116,-8.638381958007812,-3.1223297119140625,4.3621063232421875,10.168508113661794
1782812725.235878,-0.0214843712747097,0.0336914025247097,0.9863280653953552,0.9871371441697935,-8.821487426757812,-2.7561187744140625,4.3621063232421875,10.21972615554807
1782812725.243673,-0.0366210900247097,0.0405273400247097,0.9970702528953552,0.9985653001846619,-8.947372436523438,-2.0847320556640625,4.2362213134765625,10.116676938527085
1782812725.251468,-0.02197265625,0.03271484375,0.9882811903953552,0.989066615508545,-8.701324462890625,-1.354217529296875,4.3621063232421875,9.827254148561705
1782812725.262126,-0.0351562425494194,0.03271484375,1.0009765625,1.0021278865823946,-8.947372436523438,-0.8029937744140625,4.4193267822265625,10.011529439986283
1782812725.272784,-0.0307617150247097,0.0166015587747097,0.9960936903953552,0.9967068450203648,-8.701324462890625,-0.072479248046875,4.4193267822265625,9.759546601046651
1782812725.283442,-0.0317382775247097,0.0214843712747097,0.9921874403953552,0.9929273958087729,-8.581161499023438,0.8449554443359375,4.3010711669921875,9.635844309595639
1782812725.2941,-0.0424804650247097,0.0268554650247097,0.9995116591453552,1.0007743815055967,-8.031845092773438,0.8449554443359375,4.8503875732421875,9.4207613762309
1782812725.304756,-0.0439453050494194,0.00146484375,1.00146484375,1.0024296328771962,-7.7877044677734375,1.2111663818359375,5.4607391357421875,9.588270792509682
1782812725.315413,-0.0605468712747097,0.0078124962747097015,1.0126953125,1.014533762217242,-7.236480712890625,1.575469970703125,5.7010650634765625,9.34617042400888
1782812725.323422,-0.0551757775247097,0.0200195275247097,1.00830078125,1.0100077293650427,-5.3462982177734375,2.0656585693359375,7.9021453857421875,9.761851855864489
1782812725.331434,-0.0634765550494194,0.01416015625,1.0009765625,1.0030871655744993,-5.039215087890625,2.735137939453125,8.878707885742188,10.569111692578563
1782812725.339446,-0.0610351525247097,0.0009765587747097015,1.0107421875,1.0125838301607626,-4.4307708740234375,3.2863616943359375,10.461807250976562,11.827143132670662
1782812725.347458,-0.0751953125,0.012695308774709702,1.009765625,1.0126411621687608,-3.6983489990234375,3.7746429443359375,11.991500854492188,13.10426676388609
1782812725.358127,-0.0883788987994194,0.0126953125,1.013671875,1.0175965167385776,-3.452301025390625,3.894805908203125,13.574600219726562,14.538145224129781
1782812725.368796,-0.0791015625,0.0200195275247097,1.0078125,1.0111102184373888,-3.2100677490234375,4.8732757568359375,16.141891479492188,17.164323816893802
1782812725.379466,-0.0888671875,0.0312499962747097,1.00048828125,1.0049132998422843,-3.086090087890625,4.871368408203125,18.400192260742188,19.282667280002862
1782812725.390146,-0.095703125,0.0209960900247097,1.00390625,1.008676203109875,-2.780914306640625,5.176544189453125,21.024703979492188,21.830443686547326
1782812725.400827,-0.0888671800494194,0.0126953125,0.9946288466453552,0.9986716623738144,-2.597808837890625,5.847930908203125,24.015426635742188,24.853322175557444
1782812725.411509,-0.0771484300494194,0.02197265625,1.00146484375,1.0046723401930515,-3.147125244140625,5.970001220703125,25.846481323242188,26.713028818728347
1782812725.41953,-0.1015624925494194,0.0224609375,0.9853515028953552,0.9908264317550097,-3.391265869140625,6.031036376953125,30.179977416992188,30.9629636964146
1782812725.427551,-0.0991210862994194,0.02197265625,1.005859375,1.0109702615048815,-3.6373138427734375,6.3991546630859375,31.705856323242188,32.54904848967174
1782812725.435572,-0.1279296875,0.013671875,1.013671875,1.0218040885002755,-3.5152435302734375,6.8874359130859375,33.53691101074219,34.416828887572365
1782812725.443594,-0.14208984375,0.02099609375,0.9995116591453552,1.0097791423955829,-3.4542083740234375,7.3757171630859375,36.10038757324219,37.007711927371474
1782812725.45421,-0.15966796875,0.00927734375,0.9951171278953552,1.0078879042743332,-3.0269622802734375,6.2160491943359375,40.12489318847656,40.7161985163062
1782812725.464827,-0.1884765625,0.0234375,1.0234375,1.0409116424674654,-3.3321380615234375,5.2394866943359375,44.70252990722656,45.13171329550499
1782812725.475445,-0.22412109375,-0.0068359375,1.015625,1.0400822733467772,-2.2335052490234375,4.9953460693359375,51.66435241699219,51.95331884217804
1782812725.483455,-0.26171875,-0.009765621274709702,1.0029296875,1.036561638075272,-1.7452239990234375,3.7746429443359375,60.14823913574219,60.291827035630796
1782812725.491466,-0.2802734375,-0.0068359375,0.9926757216453552,1.0315061891010142,-1.438140869140625,2.918243408203125,69.78797912597656,69.86377046965583
1782812725.499477,-0.29345703125,-0.0185546875,0.9824218153953552,1.0254822909163237,-1.194000244140625,2.368927001953125,80.77812194824219,80.82167059154789
1782812725.507488,-0.267578125,-0.0322265662252903,0.9711913466453552,1.0078934647808802,-1.255035400390625,2.552032470703125,91.03202819824219,91.07644119899129
1782812725.518136,-0.251953125,-0.02587890625,0.9916991591453552,1.0235317861383526,-1.3790130615234375,3.1032562255859375,99.82109069824219,99.87883671935803
1782812725.528784,-0.2172851413488388,-0.0273437537252903,0.9731444716453552,0.9974821683682831,-1.804351806640625,4.63104248046875,107.44667053222656,107.5615602729845
1782812725.539433,-0.177734375,-0.0263671875,0.9838866591453552,1.0001588347245198,-2.5386810302734375,5.4225921630859375,113.06571960449219,113.22414211122238
1782812725.550105,-0.11376953125,-0.0292968712747097,0.9799804091453552,0.9869971708247341,-3.5152435302734375,5.6056976318359375,118.92127990722656,119.10521230319699
1782812725.560778,-0.080078125,-0.0244140587747097,0.9858397841453552,0.9893880090101816,-3.5152435302734375,5.3005218505859375,119.47441101074219,119.64358468104098
1782812725.571451,-0.0454101525247097,-0.0180664099752903,0.9965819716453552,0.9977795865471774,-3.635406494140625,4.32586669921875,118.98612976074219,119.1202265718011
1782812725.582412,-0.0405273362994194,-0.02587890625,0.9902343153953552,0.9914011207189198,-3.1490325927734375,3.5915374755859375,117.39921569824219,117.49634630179477
1782812725.593376,-0.02392578125,-0.0146484375,1.01171875,1.012107627098609,-2.5959014892578125,2.7980804443359375,114.77470397949219,114.83814972514563
1782812725.604341,-0.009765617549419403,-0.01171875,0.9956054091453552,0.9957222640411201,-2.475738525390625,0.904083251953125,111.04774475097656,111.07901809995715
1782812725.61211,0.017578125,-0.01708984375,0.9956054091453552,0.9959072165404793,-1.8672943115234375,-1.6574859619140625,102.99491882324219,103.02517823894331
1782812725.619881,0.0390625,-0.00634765625,0.9970702528953552,0.9978553306240969,-1.6841888427734375,-2.4509429931640625,97.86796569824219,97.91313662387786
1782812725.627652,0.0361328125,-0.01953125,0.9897460341453552,0.9905979315404314,-1.5010833740234375,-1.9626617431640625,92.49687194824219,92.52986875935447
1782812725.635423,0.044921875,-0.001953125,0.9912108778953552,0.9922302122032276,-1.4362335205078125,-2.2678375244140625,86.69853210449219,86.74007910323942
1782812725.646107,0.04541015625,-0.0087890625,1.00439453125,1.005458952078694,-1.499176025390625,-2.513885498046875,80.89637756347656,80.94931162119262
1782812725.656791,0.0463867224752903,0.0048828087747097015,1.001953125,1.0030382019348991,-2.1724700927734375,-2.2678375244140625,75.59013366699219,75.65534363899805
1782812725.667475,0.0429687537252903,-0.011718753725290298,1.00048828125,1.0014791280421962,-1.8672943115234375,-2.5119781494140625,70.15800476074219,70.2277897578822
1782812725.675477,0.046875,0.00830078125,0.9960936903953552,0.9972305694471054,-1.987457275390625,-1.354217529296875,63.86756896972656,63.912833278152654
1782812725.683476,0.0390624962747097,0.0200195275247097,0.9970702528953552,0.99803594589891,-2.3555755615234375,-0.3757476806640625,58.13026428222656,58.17918483501703
1782812725.691477,0.04345703125,-0.0009765625,1.00341796875,1.0043590429969533,-2.8438568115234375,-0.3757476806640625,52.88124084472656,52.95898735023121
1782812725.699476,0.0283203162252903,0.013183590024709702,0.9970702528953552,0.997559490238977,-2.902984619140625,0.598907470703125,48.36845397949219,48.45919262868176
1782812725.710154,0.0234375037252903,0.0244140587747097,1.00537109375,1.0059405544040856,-3.3321380615234375,0.6618499755859375,43.85185241699219,43.98324851409795
1782812725.720832,0.02001953125,0.01513671875,1.00146484375,1.001779284649667,-3.0269622802734375,0.8449554443359375,40.06767272949219,40.19073087549918
1782812725.73151,0.017578125,0.01806640625,0.9999999403953552,1.000317582722617,-3.330230712890625,1.087188720703125,36.64970397949219,36.81675186243226
1782812725.742167,-0.00927734375,0.021484375,1.00439453125,1.0046671199363018,-3.0269622802734375,1.4553070068359375,30.786514282226562,30.969176301285188
1782812725.752823,0.0009765625,0.02734375,1.0048828125,1.0052552418148781,-2.475738525390625,1.575469970703125,28.104782104492188,28.25756826083368
1782812725.763479,-0.00048827752470970154,0.0317382775247097,0.9921874403953552,0.992695055670906,-2.7217864990234375,2.3708343505859375,25.907516479492188,26.15775960206347
1782812725.774166,-0.0053710900247097015,0.0419921837747097,1.0087890625,1.0096769605798932,-2.1724700927734375,3.1032562255859375,23.344039916992188,23.649397987089596
1782812725.784854,-0.0014648400247097015,0.0253906212747097,0.9965819716453552,0.9969064427585757,-2.109527587890625,3.47137451171875,20.471572875976562,20.870693415914612
1782812725.795542,-0.010742183774709702,0.0410156212747097,0.9956054091453552,0.9965078054989285,-1.7452239990234375,4.1408538818359375,18.152236938476562,18.700165334779157
1782812725.806191,-0.0170898400247097,0.0336914025247097,0.9965819716453552,0.9972977486411446,-1.132965087890625,5.30242919921875,13.212203979492188,14.28151600142001
1782812725.816843,-0.02734375,0.0380859375,0.9921874403953552,0.9932945868057487,-1.1959075927734375,5.7277679443359375,11.259078979492188,12.688750137860637
1782812725.827495,-0.011718746274709702,0.0400390587747097,0.9965819716453552,0.9974548017080068,-1.132965087890625,5.481719970703125,8.878707885742188,10.495919085431488
1782812725.835487,-0.012695308774709702,0.0356445275247097,0.9843749403953552,0.9851018863476529,-0.7076263427734375,4.6291351318359375,7.1697235107421875,8.563560143437654
1782812725.84348,-0.0307617150247097,0.0224609337747097,0.9907225966453552,0.9914545073582592,-0.461578369140625,4.199981689453125,5.5217742919921875,6.95290530025441
1782812725.851473,-0.0292968712747097,0.0361328087747097,1.00537109375,1.00644668149113,-0.0972747802734375,3.2863616943359375,3.5648345947265625,4.849503196888843
1782812725.859466,-0.0390624925494194,0.0380859375,0.9838866591453552,0.985398079460091,0.3910064697265625,2.7370452880859375,1.9817352294921875,3.4017021457223318
1782812725.870185,-0.0307617150247097,0.0449218712747097,1.0166015625,1.0180584435618245,0.6999969482421875,2.4929046630859375,0.8182525634765625,2.715530637724412
1782812725.880904,-0.0361328087747097,0.0332031212747097,1.00732421875,1.0085187696878182,1.308441162109375,1.392364501953125,-0.5817413330078125,1.9972781878173635
1782812725.891623,-0.0371093712747097,0.0449218712747097,1.005859375,1.0075456129777036,1.1234283447265625,0.8449554443359375,-1.8634796142578125,2.3342230444844922
1782812725.902251,-0.0483398362994194,0.041015625,0.9702147841453552,0.9722837798923797,0.8792877197265625,0.1125335693359375,-3.3893585205078125,3.5033643656959708
1782812725.912879,-0.0551757775247097,0.0366210900247097,0.9868163466453552,0.9890358803736798,0.637054443359375,-0.743865966796875,-4.1255950927734375,4.240248791035597
1782812725.923507,-0.0439453087747097,0.0385742150247097,0.9902343153953552,0.9919592530011426,0.331878662109375,-0.682830810546875,-4.8542022705078125,4.913214939853416
1782812725.931493,-0.0624999962747097,0.0307617150247097,0.9877929091453552,0.9902461128444,0.2689361572265625,-0.8029937744140625,-5.5904388427734375,5.654213660023959
1782812725.939479,-0.0600585900247097,0.0268554650247097,0.9873046278953552,0.9894941528382244,-0.034332275390625,-1.049041748046875,-6.0787200927734375,6.168671271883942
1782812725.947465,-0.0644531175494194,0.04736328125,0.9853515028953552,0.9885924686293848,-0.2765655517578125,-1.1081695556640625,-6.0787200927734375,6.185092257582525
1782812725.955451,-0.0546874962747097,0.0493164025247097,0.9765624403953552,0.9793349936552391,-0.644683837890625,-0.988006591796875,-6.0787200927734375,6.192141167848079
1782812725.966118,-0.0732421875,0.0502929650247097,0.9804686903953552,0.9844859842609973,-0.644683837890625,-1.77764892578125,-6.0138702392578125,6.30414849196935
1782812725.976785,-0.0595703087747097,0.0546874962747097,0.9902343153953552,0.9935307460379967,-0.461578369140625,-1.232147216796875,-5.6476593017578125,5.798904805517189
1782812725.987453,-0.0581054612994194,0.0483398362994194,1.00341796875,1.00626070400103,-0.339508056640625,-0.865936279296875,-5.8307647705078125,5.904483819041376
1782812725.998123,-0.0512695275247097,0.0424804650247097,0.9853515028953552,0.9875984703407846,-0.339508056640625,-0.255584716796875,-5.5255889892578125,5.541906075186696
1782812726.008795,-0.0537109337747097,0.0454101525247097,1.00048828125,1.0029575002351034,-0.2765655517578125,0.0514984130859375,-5.4073333740234375,5.414646323518939
1782812726.019467,-0.0722656175494194,0.0390624925494194,0.9956054091453552,0.9989886528502026,0.2117156982421875,0.3566741943359375,-5.5255889892578125,5.541134693904719
1782812726.027455,-0.06689453125,0.0444335900247097,0.9946288466453552,0.9978656045844604,0.331878662109375,0.293731689453125,-5.2814483642578125,5.300011186410272
1782812726.035442,-0.07763671875,0.0498046837747097,0.9887694716453552,0.9930624525587504,0.148773193359375,0.720977783203125,-4.6138763427734375,4.672236866142301
1782812726.043429,-0.0624999962747097,0.0415039025247097,0.9995116591453552,1.0023234908085414,0.453948974609375,0.904083251953125,-4.4879913330078125,4.60059804842417
1782812726.051416,-0.07177734375,0.0468749962747097,0.9907225966453552,0.9944247160319754,0.698089599609375,1.270294189453125,-4.7931671142578125,5.007537059477814
1782812726.062107,-0.0629882737994194,0.0532226487994194,0.9936522841453552,0.9970682197165541,0.514984130859375,1.575469970703125,-5.1593780517578125,5.41908628502855
1782812726.072798,-0.0595703087747097,0.0610351525247097,0.9799804091453552,0.9836846617895019,0.7572174072265625,1.7604827880859375,-5.3424835205078125,5.67580901862028
1782812726.083489,-0.0541992150247097,0.0595703087747097,0.9916991591453552,0.9949640188702371,0.5168914794921875,2.3097991943359375,-5.6476593017578125,6.123594100563664
1782812726.094127,-0.06494140625,0.0507812462747097,0.9833983778953552,0.9868477546542608,0.5741119384765625,2.4929046630859375,-6.9904327392578125,7.443811393313537
1782812726.104767,-0.0561523400247097,0.0654296875,0.9780272841453552,0.981820501837957,0.6351470947265625,2.6149749755859375,-8.150100708007812,8.58286942144349
1782812726.115407,-0.0429687462747097,0.0600585900247097,0.9892577528953552,0.992010206124788,0.5741119384765625,2.4929046630859375,-8.821487426757812,9.184923439941299
1782812726.123431,-0.0380859375,0.0825195237994194,0.9716796278953552,0.9759207497077786,0.1468658447265625,2.7980804443359375,-10.225296020507812,10.602240445129292
1782812726.131457,-0.0268554650247097,0.06591796875,0.9858397841453552,0.9884060272021716,0.148773193359375,2.67791748046875,-11.934280395507812,12.231942775122215
1782812726.139483,-0.01416015625,0.06591796875,0.9858397841453552,0.9881425851732689,0.209808349609375,2.552032470703125,-13.826370239257812,14.061486524124078
1782812726.147509,-0.008300777524709702,0.0693359375,0.9936522841453552,0.9961030252558218,-0.0972747802734375,2.7370452880859375,-16.145706176757812,16.37634596722071
1782812726.158282,0.00634765625,0.0810546875,0.9882811903953552,0.991619819484691,-0.4024505615234375,2.0046234130859375,-19.563674926757812,19.67022770896705
1782812726.169055,0.0229492224752903,0.06787109375,0.9741210341453552,0.9767522415349033,-0.522613525390625,1.880645751953125,-22.920608520507812,23.003570337920067
1782812726.179828,0.02001953125,0.06982421875,0.9731444716453552,0.9758516105686535,-0.827789306640625,1.880645751953125,-27.070999145507812,27.148868453705628
1782812726.190359,0.0244140625,0.06201171875,0.9780272841453552,0.9802952964504228,-2.292633056640625,1.02996826171875,-35.79902648925781,35.88714670367556
1782812726.200891,0.0166015662252903,0.0532226525247097,0.9663085341453552,0.9679155158922931,-2.597808837890625,0.110626220703125,-40.55976867675781,40.643027495882166
1782812726.211423,0.0190429724752903,0.0537109337747097,0.9799804091453552,0.9816359312476004,-3.3321380615234375,-1.1081695556640625,-45.19844055175781,45.33464692854615
1782812726.219445,0.0273437537252903,0.0561523400247097,0.9799804091453552,0.9819686188808366,-3.452301025390625,-3.185272216796875,-49.96299743652344,50.18331848639604
1782812726.227466,0.03466796875,0.052734375,0.9936522841453552,0.9956543798684226,-3.452301025390625,-4.772186279296875,-55.33027648925781,55.642893891600735
1782812726.235487,0.03369140625,0.04248046875,1.00146484375,1.002931470414372,-3.757476806640625,-6.542205810546875,-60.46104431152344,60.929934909369436
1782812726.243509,0.0424804724752903,0.0312499962747097,0.9965819716453552,0.9979763419126912,-3.5152435302734375,-8.554458618164062,-66.68663024902344,67.32490143547912
1782812726.25481,0.0322265662252903,0.0356445275247097,1.00244140625,1.0035924754987007,-3.5724639892578125,-10.446548461914062,-72.54219055175781,73.37753255438072
1782812726.266112,0.02978515625,0.03759765625,1.0029296875,1.004076041620941,-4.0035247802734375,-13.132095336914062,-78.16123962402344,79.35779431264503
1782812726.277414,0.029296875,0.03076171875,1.00146484375,1.0023654141541556,-3.8776397705078125,-15.390396118164062,-84.20372009277344,85.68644502093642
1782812726.285354,0.0400390625,0.03271484375,1.0263671875,1.0276687166125698,-5.039215087890625,-20.336151123046875,-95.43037414550781,97.7031680179974
1782812726.293297,0.0473632849752903,0.0205078087747097,1.0087890625,1.010108520706572,-5.3462982177734375,-22.470474243164062,-100.37422180175781,102.99752191026025
1782812726.30124,0.0205078125,0.0336913987994194,0.9824218153953552,0.9832132546356879,-6.259918212890625,-23.815155029296875,-104.52842712402344,107.38966552757208
1782812726.309183,0.014160159975290298,0.0068359337747097015,0.9780272841453552,0.9781536733324868,-7.6045989990234375,-25.278091430664062,-108.24775695800781,111.41987577965114
1782812726.319299,0.0024414099752902985,0.0195312462747097,0.9638671278953552,0.9640680838514217,-8.884429931640625,-26.744842529296875,-110.93711853027344,114.46075294583316
1782812726.329415,-0.005859367549419403,0.0234375,0.9677733778953552,0.9680748729087617,-10.229110717773438,-27.658462524414062,-112.33711242675781,116.14323950912042
1782812726.339531,-0.0263671875,0.00341796875,0.9692382216453552,0.9696028266178306,-11.079788208007812,-28.818130493164062,-112.27607727050781,116.44382284650561
1782812726.350175,-0.0488281175494194,0.001953125,0.9760741591453552,0.977296661158728,-11.081695556640625,-29.247283935546875,-111.17744445800781,115.49299437727805
1782812726.360821,-0.0585937425494194,0.00439453125,0.9736327528953552,0.9754041603773498,-10.900497436523438,-29.611587524414062,-109.04121398925781,113.51499155763878
1782812726.371465,-0.06494140625,0.0053710900247097015,0.9916991591453552,0.9938377418388706,-9.740829467773438,-29.184341430664062,-106.53877258300781,110.89237848903628
1782812726.379519,-0.10888671875,0.015624996274709702,0.9887694716453552,0.9948696025543052,-6.687164306640625,-26.134490966796875,-97.68867492675781,101.3449899773213
1782812726.387573,-0.0922851487994194,0.01708984375,0.9765624403953552,0.9810620833766138,-4.734039306640625,-24.913787841796875,-92.74864196777344,96.15309948019933
1782812726.395628,-0.109375,0.0317382775247097,0.9824218153953552,0.9890009263139954,-3.3893585205078125,-22.775650024414062,-87.31651306152344,90.3016690789175
1782812726.403683,-0.11767578125,0.014648433774709702,0.9804686903953552,0.9876138005062671,-1.804351806640625,-20.030975341796875,-80.96504211425781,83.42561778704035
1782812726.414285,-0.1249999925494194,0.00830078125,0.9707030653953552,0.9787534634802855,-0.7648468017578125,-17.831802368164062,-74.25117492675781,76.36619110792032
1782812726.424887,-0.1181640550494194,0.0087890625,0.9638671278953552,0.9711229745828239,-0.0362396240234375,-16.000747680664062,-67.47627258300781,69.34747725293975
1782812726.435489,-0.1308593600988388,0.015136715024709702,0.9619140028953552,0.9708922912627241,0.453948974609375,-14.965057373046875,-60.09101867675781,61.928099740429545
1782812726.443479,-0.1259765625,0.021484375,0.9570311903953552,0.9655259561803647,0.9403228759765625,-14.108657836914062,-52.88887023925781,54.74642479884191
1782812726.451469,-0.1069335862994194,0.017578125,0.9829100966453552,0.9888660376637234,1.6765594482421875,-13.071060180664062,-46.36192321777344,48.19845838074856
1782812726.459459,-0.103515625,0.0205078087747097,0.9790038466453552,0.9846748633870385,2.0999908447265625,-11.301040649414062,-39.83116149902344,41.45654239886548
1782812726.467449,-0.0927734300494194,-0.0087890625,0.9975585341453552,1.00190178460216,2.162933349609375,-10.021209716796875,-34.27696228027344,35.777270270748225
1782812726.478164,-0.06982421875,0.010253902524709702,0.9677733778953552,0.970343173832856,2.590179443359375,-8.068084716796875,-28.963088989257812,30.17720239428897
1782812726.488879,-0.0585937425494194,0.00927734375,0.9829100966453552,0.9846987122264276,2.8362274169921875,-6.7234039306640625,-24.873733520507812,25.922017005337395
1782812726.499594,-0.04736328125,0.00830078125,0.9887694716453552,0.9899380038355745,3.0765533447265625,-4.5261383056640625,-21.333694458007812,22.024477920545156
1782812726.510212,-0.02734375,-0.00048828125,1.00537109375,1.0057429866674252,3.5037994384765625,-1.9626617431640625,-18.587112426757812,19.016030079595563
1782812726.52083,-0.02880859375,0.0029296875,1.0048828125,1.0052999477770852,3.810882568359375,-0.072479248046875,-16.450881958007812,16.886669191629526
1782812726.531448,-0.0170898400247097,0.009277347475290298,1.00048828125,1.0006772370384103,4.604339599609375,1.392364501953125,-14.680862426757812,15.448829847215597
1782812726.539458,-0.0185546875,0.00341796875,0.9936522841453552,0.9938313844540634,3.8700103759765625,3.2253265380859375,-11.751174926757812,12.785531813214073
1782812726.54747,0.0029296912252902985,0.0014648400247097015,0.9897460341453552,0.9897514541304965,3.322601318359375,3.528594970703125,-11.201858520507812,12.205420775274744
1782812726.555482,0.0126953125,0.0234375,0.9892577528953552,0.9896167889790929,2.834320068359375,3.833770751953125,-10.713577270507812,11.726547077446863
1782812726.563494,0.0166015662252903,0.0161132775247097,0.9829100966453552,0.9831823370062659,1.979827880859375,4.199981689453125,-10.103225708007812,11.119115717381469
1782812726.571481,0.01953125,0.021484375,0.9707030653953552,0.9711372144365813,1.796722412109375,4.63104248046875,-9.984970092773438,11.152326826078147
1782812726.579468,0.009765625,0.02880859375,0.9755858778953552,0.9760599918316211,1.1234283447265625,4.9343109130859375,-10.103225708007812,11.299764826742368
1782812726.587455,0.001953125,0.0283203125,0.9707030653953552,0.971118064894945,0.026702880859375,6.214141845703125,-9.984970092773438,11.760778021710333
1782812726.603457,-0.001953125,0.0380859375,0.9628905653953552,0.9636454712496222,0.453948974609375,6.641387939453125,-10.408401489257812,12.355117360650468
1782812726.61147,-0.0019531212747097015,0.0419921837747097,0.9584960341453552,0.9594174303467999,-1.0128021240234375,7.5588226318359375,-9.862899780273438,12.467492121421188
1782812726.619483,-0.0034179650247097015,0.0458984337747097,0.9702147841453552,0.971305861241504,-1.6841888427734375,8.169174194335938,-9.679794311523438,12.777727379660604
1782812726.627496,-0.0078124962747097015,0.0385742150247097,0.9443358778953552,0.9451556778876198,-2.3555755615234375,8.840560913085938,-9.496688842773438,13.186787040840798
1782812726.638147,0.0043945349752902985,0.0415039025247097,0.9545897841453552,0.9555017225819666,-3.8776397705078125,9.023666381835938,-9.191513061523438,13.4516377263386
1782812726.648798,0.007812503725290298,0.0498046837747097,0.9550780653953552,0.9564076812425185,-5.3462982177734375,8.596420288085938,-8.943557739257812,13.508092812763069
1782812726.659449,-0.0073242150247097015,0.0458984337747097,0.9594725966453552,0.960597717081443,-6.9332122802734375,6.7653656005859375,-7.7266693115234375,12.391167131572553
1782812726.66744,0.00537109375,0.01904296875,0.9672850966453552,0.9674874373856742,-10.412216186523438,4.3239593505859375,-6.0787200927734375,12.808657554431992
1782812726.675429,0.014648433774709702,0.014648433774709702,0.9746093153953552,0.974829457330618,-11.388778686523438,2.9811859130859375,-5.4645538330078125,12.978948262969267
1782812726.683418,0.01513671875,0.019531242549419403,0.9829100966453552,0.9832206506056625,-12.365341186523438,2.1266937255859375,-4.9190521240234375,13.476704443610794
1782812726.691407,0.03125,0.0029296875,1.00244140625,1.0029326590221923,-12.365341186523438,2.6149749755859375,-5.2204132080078125,13.674519035213486
1782812726.702126,0.02099609375,0.00927734375,0.9985350966453552,0.9987989008265694,-11.997222900390625,3.345489501953125,-5.5255889892578125,13.625629930669003
1782812726.712845,0.02197265625,0.01318359375,1.00732421875,1.0076500813512315,-11.022567749023438,3.9577484130859375,-6.0138702392578125,13.165386721920731
1782812726.723564,0.009765625,0.00927734375,1.02392578125,1.0240143758986586,-9.923934936523438,4.7512054443359375,-6.0787200927734375,12.570174054679013
1782812726.7342,0.0078125,0.01318359375,1.0283203125,1.0284344934902332,-8.335113525390625,5.237579345703125,-6.2618255615234375,11.666911084200223
1782812726.744839,-0.00244140625,0.0087890625,1.03271484375,1.0327551290532007,-7.236480712890625,5.664825439453125,-6.3190460205078125,11.152902894619361
1782812726.755478,0.008789066225290298,0.0200195275247097,1.03076171875,1.0309935741836023,-5.649566650390625,5.970001220703125,-6.3838958740234375,10.407336087720825
1782812726.766131,0.011718753725290298,0.0053710900247097015,1.0068359375,1.0069184588825608,-3.879547119140625,5.481719970703125,-6.9904327392578125,9.693621076198784
1782812726.776786,0.0019531287252902985,0.0053710900247097015,1.0283203125,1.0283361942574853,-3.1490325927734375,4.7512054443359375,-7.1125030517578125,9.114716622358648
1782812726.787441,-0.008300777524709702,0.010253902524709702,1.01220703125,1.0122930008334738,-3.6983489990234375,4.3849945068359375,-7.1125030517578125,9.137486624057143
1782812726.798117,-0.0048828087747097015,0.0014648400247097015,1.01318359375,1.013196418381941,-4.8580169677734375,4.2018890380859375,-7.2956085205078125,9.720190534761526
1782812726.808792,-0.0078125,0.00927734375,0.9946288466453552,0.9947027932213598,-5.222320556640625,3.223419189453125,-7.3566436767578125,9.580358524294725
1782812726.819467,-0.012207027524709702,0.015136715024709702,1.01611328125,1.0162993318876923,-6.198883056640625,2.735137939453125,-7.2383880615234375,9.914705866890209
1782812726.827462,-0.0312499962747097,-0.010742183774709702,1.03173828125,1.0322673286393031,-7.236480712890625,2.368927001953125,-6.7501068115234375,10.175579109593505
1782812726.835455,-0.0195312462747097,0.00048827752470970154,1.02197265625,1.0221593897815864,-7.175445556640625,2.246856689453125,-6.3190460205078125,9.821696723507072
1782812726.843448,-0.02392578125,-0.0126953125,1.02880859375,1.0291650676843573,-6.6280364990234375,2.1266937255859375,-6.3838958740234375,9.444989177611953
1782812726.851441,-0.02880859375,0.0029296875,1.0302734375,1.030680296775274,-6.381988525390625,2.735137939453125,-6.3190460205078125,9.388349146434058
1782812726.862134,-0.0400390550494194,-0.01220703125,1.029296875,1.0301476566133394,-5.4683685302734375,2.9811859130859375,-5.3424835205078125,8.205647689132434
1782812726.872827,-0.030273430049419403,-0.0205078125,1.0322265625,1.0328740132615684,-4.9190521240234375,2.7980804443359375,-5.0373077392578125,7.576331383448149
1782812726.88352,-0.0405273400247097,-0.015624996274709702,1.01220703125,1.013138529476597,-4.6749114990234375,3.5915374755859375,-4.6138763427734375,7.486106723033286
1782812726.891505,-0.0439453087747097,-0.0239257849752903,1.02685546875,1.028073823736297,-4.306793212890625,3.833770751953125,-4.6710968017578125,7.420607204840049
1782812726.899491,-0.0454101525247097,-0.0283203162252903,1.00341796875,1.0048441382989672,-3.757476806640625,3.894805908203125,-3.9997100830078125,6.7294744046716275
1782812726.907477,-0.037109375,-0.04150390625,1.00537109375,1.006911473812356,-3.6983489990234375,3.4694671630859375,-3.4542083740234375,6.13567789290498
1782812726.915463,-0.0488281175494194,-0.0390625,0.9902343153953552,0.9922066636322182,-3.1490325927734375,3.1032562255859375,-3.0841827392578125,5.3906204319283235
1782812726.926131,-0.02392578125,-0.05126953125,0.9965819716453552,0.9981866729482823,-2.5386810302734375,2.4318695068359375,-2.2945404052734375,4.198071741071257
1782812726.936799,-0.0371093712747097,-0.0439453087747097,0.9765624403953552,0.9782548213991283,-2.292633056640625,1.941680908203125,-1.8634796142578125,3.535370893475859
1782812726.947467,-0.0366210900247097,-0.0205078087747097,0.9877929091453552,0.9886842295764517,-1.621246337890625,1.21307373046875,-1.8062591552734375,2.713403711150673
1782812726.958143,-0.0361328087747097,-0.0180664099752903,0.9672850966453552,0.968128314445745,-0.705718994140625,0.415802001953125,-1.6803741455078125,1.869381681843008
1782812726.968821,-0.019531242549419403,-0.037109375,0.9780272841453552,0.9789259132749292,-0.4024505615234375,-0.0095367431640625,-1.1920928955078125,1.2582300566513693
1782812726.979498,-0.0170898400247097,-0.0224609412252903,0.9790038466453552,0.9794105820641302,-0.034332275390625,0.110626220703125,-1.3751983642578125,1.380067899379562
1782812726.987515,-0.00390625,-0.0224609375,0.9736327528953552,0.9738996303588113,0.331878662109375,-0.255584716796875,-1.9245147705078125,1.969574597654627
1782812726.995535,-0.010742183774709702,-0.0336914025247097,0.9726561903953552,0.9732988080906794,0.5741119384765625,-0.1926422119140625,-1.8634796142578125,1.9594059845950518
1782812727.003555,-0.010742183774709702,-0.010253902524709702,0.9687499403953552,0.9688637592795182,0.820159912109375,-0.743865966796875,-2.3517608642578125,2.599380314737449
1782812727.011575,-0.01220703125,-0.03173828125,0.9819335341453552,0.9825221603545795,0.942230224609375,-0.743865966796875,-2.7828216552734375,3.0307145589423095
1782812727.022233,-0.015624992549419403,-0.0166015625,0.9750975966453552,0.9753640731814754,1.064300537109375,-0.743865966796875,-3.0841827392578125,3.3463794433664837
1782812727.032891,-0.0209960900247097,-0.0190429724752903,0.9892577528953552,0.9896637672768404,1.003265380859375,-0.865936279296875,-3.5114288330078125,3.7532012354138473
1782812727.04355,-0.0068359337747097015,-0.014648433774709702,0.9863280653953552,0.9864605208467131,0.698089599609375,-0.743865966796875,-3.9997100830078125,4.127753191962401
1782812727.054212,-0.0078124962747097015,-0.013671878725290298,0.9975585341453552,0.9976828075155707,-0.522613525390625,-0.194549560546875,-4.7321319580078125,4.764876419848584
1782812727.064874,-0.00927734375,-0.0283203125,0.9868163466453552,0.9872662311725441,-1.2531280517578125,0.1735687255859375,-4.9190521240234375,5.079126875306754
1782812727.075536,-0.0234375,-0.017578125,0.9931640028953552,0.9935960162620877,-1.926422119140625,0.232696533203125,-5.1021575927734375,5.458686834686035
1782812727.083546,-0.019531242549419403,-0.0302734375,0.9990233778953552,0.9996727764799022,-2.597808837890625,-0.011444091796875,-5.2204132080078125,5.831076726283244
1782812727.091559,-0.0185546875,-0.0419921875,0.9921874403953552,0.9932489804261287,-3.8204193115234375,-0.0095367431640625,-5.1593780517578125,6.419881349860886
1782812727.099572,-0.0195312462747097,-0.0380859412252903,0.9951171278953552,0.9960372014793224,-4.4918060302734375,-0.0095367431640625,-4.8542022705078125,6.613599023684018
1782812727.107585,-0.0322265625,-0.04150390625,0.9902343153953552,0.9916275132080005,-5.2852630615234375,-0.3147125244140625,-4.7321319580078125,7.10113529448116
1782812727.115557,-0.0361328087747097,-0.0288085974752903,0.9936522841453552,0.9947262824243284,-6.3228607177734375,-0.3147125244140625,-4.5490264892578125,7.795591935790044
1782812727.123529,-0.0302734337747097,-0.0449218712747097,1.0048828125,1.0063418515441178,-7.236480712890625,-0.377655029296875,-4.2438507080078125,8.397591634572953
1782812727.131501,-0.0195312462747097,-0.0439453087747097,1.01318359375,1.0143242353352862,-7.6618194580078125,-0.3147125244140625,-3.6945343017578125,8.511880232181095
1782812727.139473,-0.0434570237994194,-0.04931640625,1.00732421875,1.0094665435383265,-7.9097747802734375,-0.1926422119140625,-3.4542083740234375,8.633261468740217
1782812727.150121,-0.0283203125,-0.05126953125,1.0048828125,1.0065883328315517,-8.823394775390625,-0.011444091796875,-3.2711029052734375,9.410235945315929
1782812727.160769,-0.0268554650247097,-0.0483398400247097,0.9990233778953552,1.0005526801307134,-8.459091186523438,0.2346038818359375,-2.5348663330078125,8.833844576938597
1782812727.171417,-0.0214843712747097,-0.0566406287252903,1.00537109375,1.0071945071233943,-8.335113525390625,0.598907470703125,-1.9245147705078125,8.575346333619214
1782812727.182508,-0.0234374962747097,-0.06298828125,1.00244140625,1.004691799892352,-7.846832275390625,0.904083251953125,-2.0465850830078125,8.159574363075825
1782812727.193599,-0.020019523799419403,-0.05615234375,0.9931640028953552,0.9949515584634755,-7.419586181640625,1.758575439453125,-1.8634796142578125,7.84954794595171
1782812727.20469,-0.013183590024709702,-0.0585937462747097,1.0068359375,1.0086256189438916,-6.870269775390625,1.941680908203125,-1.8634796142578125,7.378569496093461
1782812727.21497,-0.015136715024709702,-0.06396484375,1.0087890625,1.0109282833106066,-5.3462982177734375,3.1032562255859375,-1.5583038330078125,6.375061934677353
1782812727.225251,-0.0161132775247097,-0.0625,1.00439453125,1.0064662250257062,-4.8580169677734375,3.5915374755859375,-1.8062591552734375,6.305715061253715
1782812727.235532,-0.0234375,-0.05712890625,0.9965819716453552,0.9984931920369386,-4.3087005615234375,3.8967132568359375,-1.9245147705078125,6.119888220938031
1782812727.2435,-0.0239257775247097,-0.0483398400247097,0.9931640028953552,0.9946275280781753,-3.6983489990234375,3.7136077880859375,-1.8062591552734375,5.5435764861972725
1782812727.25147,-0.0170898400247097,-0.0551757775247097,0.9931640028953552,0.994842281823934,-3.6983489990234375,3.1642913818359375,-2.0465850830078125,5.280060205123512
1782812727.25944,-0.0185546837747097,-0.06298828125,0.9946288466453552,0.9967940321068732,-3.2100677490234375,3.6525726318359375,-1.9893646240234375,5.253893165213128
1782812727.267411,-0.0175781212747097,-0.06884765625,0.9833983778953552,0.9859621492561884,-2.964019775390625,3.65447998046875,-2.4127960205078125,5.287931712222833
1782812727.278104,-0.0126953125,-0.05126953125,0.9965819716453552,0.9979806420981376,-2.7217864990234375,3.5305023193359375,-2.9010772705078125,5.318723315097313
1782812727.288799,-0.0258789025247097,-0.0444335900247097,0.9970702528953552,0.9983952878129859,-2.7217864990234375,3.7136077880859375,-3.1490325927734375,5.578118932072727
1782812727.299492,-0.014648430049419403,-0.0498046875,1.0048828125,1.006222912806996,-2.292633056640625,3.528594970703125,-3.5114288330078125,5.480627815218922
1782812727.30749,-0.04150390625,-0.05078125,1.0048828125,1.00702074280696,-1.804351806640625,2.857208251953125,-3.7555694580078125,5.052091288870126
1782812727.315488,-0.0297851525247097,-0.0527343787252903,0.9990233778953552,1.0008575221238576,-1.1959075927734375,2.6760101318359375,-3.7555694580078125,4.763982278521074
1782812727.323487,-0.0336913987994194,-0.07666015625,0.9980468153953552,1.001553461194232,-1.010894775390625,2.246856689453125,-3.6945343017578125,4.440704554090196
1782812727.331484,-0.0268554650247097,-0.0673828125,1.0048828125,1.007497457207716,-1.3790130615234375,1.9435882568359375,-3.6945343017578125,4.396452665823651
1782812727.342148,-0.029296867549419403,-0.05615234375,0.9960936903953552,0.9981052210074167,-1.3179779052734375,1.3332366943359375,-3.5114288330078125,3.980542461925433
1782812727.352812,-0.0385742112994194,-0.05908203125,1.00146484375,1.003947453535896,-1.1959075927734375,0.9670257568359375,-2.9659271240234375,3.340966550244886
1782812727.363477,-0.024414055049419403,-0.0458984375,1.00830078125,1.0096401230727006,-1.1959075927734375,0.2956390380859375,-2.9659271240234375,3.211591679574394
1782812727.374135,-0.0395507737994194,-0.03759765625,1.0078125,1.0092888004034701,-1.0738372802734375,-0.0705718994140625,-2.1686553955078125,2.420985981363194
1782812727.384794,-0.024414055049419403,-0.0478515625,1.0078125,1.009243208188144,-0.4024505615234375,-0.3147125244140625,-2.0465850830078125,2.109388757314236
1782812727.395453,-0.0283203125,-0.052734375,0.9970702528953552,0.9988653781243726,0.4520416259765625,-0.1926422119140625,-1.7414093017578125,1.8094084695489046
1782812727.403468,-0.0283203125,-0.04638671875,1.0146484375,1.016102957134601,1.308441162109375,-0.61798095703125,-0.6427764892578125,1.5833762512738374
1782812727.411484,-0.0268554650247097,-0.0449218712747097,1.01123046875,1.0125839478526508,1.979827880859375,-0.499725341796875,-0.6427764892578125,2.140702097491551
1782812727.4195,-0.0214843712747097,-0.0419921912252903,1.013671875,1.014768738432056,2.529144287109375,-0.255584716796875,-0.5245208740234375,2.595576336724551
1782812727.427516,-0.02294921875,-0.04736328125,1.0029296875,1.004309665950124,3.261566162109375,0.415802001953125,-0.3986358642578125,3.3120410152831257
1782812727.437127,-0.013671875,-0.0400390625,1.0078125,1.0087001942342158,3.871917724609375,0.415802001953125,-0.2155303955078125,3.900139936253598
1782812727.446738,-0.0161132775247097,-0.0517578162252903,1.00927734375,1.010732044540023,4.6634674072265625,0.6618499755859375,-0.5245208740234375,4.7393138528413425
1782812727.456349,-0.02783203125,-0.0400390625,0.9970702528953552,0.9982619083678328,5.092620849609375,1.02996826171875,-0.5817413330078125,5.228197080883023
1782812727.465961,-0.020507805049419403,-0.0263671875,0.9990233778953552,0.9995816666116135,4.909515380859375,1.392364501953125,-0.6427764892578125,5.143460099615486
1782812727.475571,-0.013671875,-0.0244140625,0.9985350966453552,0.9989270773416438,5.1517486572265625,1.4553070068359375,-0.6427764892578125,5.391808075824293
1782812727.485162,-0.017578125,-0.02685546875,0.9946288466453552,0.9951465968687063,5.2776336669921875,1.6384124755859375,-0.8869171142578125,5.596823610825023
1782812727.494753,-0.019531242549419403,-0.02001953125,0.9946288466453552,0.995022006613956,5.4607391357421875,1.9435882568359375,-0.5817413330078125,5.825429614995498
1782812727.504344,-0.0068359337747097015,-0.0268554724752903,0.9936522841453552,0.9940386351544517,4.9724578857421875,2.0046234130859375,-1.1310577392578125,5.479337921985372
1782812727.513935,-0.0166015587747097,-0.015136715024709702,0.9848632216453552,0.9851194329852383,4.909515380859375,2.246856689453125,-1.2531280517578125,5.542746266241795
1782812727.523526,-0.0200195275247097,-0.012695316225290298,0.9770507216453552,0.9773382552648199,4.3582916259765625,2.3097991943359375,-1.2531280517578125,5.089224708078305
1782812727.53311,-0.0361328087747097,-3.725290298461914e-09,0.9682616591453552,0.9689356121233577,3.0765533447265625,1.9435882568359375,-1.7414093017578125,4.034256084002029
1782812727.542691,-0.0185546875,-0.00732421875,0.9858397841453552,0.9860415815837997,1.857757568359375,2.246856689453125,-1.7414093017578125,3.3958996631210154
1782812727.552272,-0.025390617549419403,-0.0009765625,0.9658202528953552,0.9661544379842724,1.1234283447265625,2.0046234130859375,-1.8062591552734375,2.9228716034127276
1782812727.561853,-0.0234375,-0.00537109375,0.9858397841453552,0.9861329753426167,0.0858306884765625,1.8215179443359375,-1.6193389892578125,2.438760605461859
1782812727.571434,-0.0351562425494194,0.00927734375,0.9628905653953552,0.9635768113776069,-1.1959075927734375,1.6994476318359375,-1.4362335205078125,2.526080748756104
1782812727.582277,-0.030761711299419403,0.00830078125,0.9819335341453552,0.9824503302104471,-1.8672943115234375,1.6384124755859375,-1.5010833740234375,2.902487688479146
1782812727.593118,-0.0273437462747097,0.010742183774709702,0.9711913466453552,0.9716355833188716,-3.452301025390625,1.758575439453125,-1.4362335205078125,4.132037835208092
1782812727.603959,-0.0307617150247097,-0.014648433774709702,0.9799804091453552,0.9805725174774231,-3.757476806640625,1.51824951171875,-1.8634796142578125,4.460523490021199
1782812727.61449,-0.0380859337747097,0.0048828087747097015,0.9819335341453552,0.9826840009139304,-4.550933837890625,0.782012939453125,-1.5010833740234375,4.855491152303709
1782812727.625022,-0.02685546875,-0.00634765625,0.9853515028953552,0.9857378420248386,-4.550933837890625,0.54168701171875,-1.3179779052734375,4.7688037676456805
1782812727.635554,-0.025878898799419403,-0.02099609375,0.9848632216453552,0.9854268713128831,-4.062652587890625,0.05340576171875,-1.2531280517578125,4.251861726277265
1782812727.643524,-0.0395507737994194,-0.00634765625,0.9921874403953552,0.992995706600128,-3.757476806640625,-0.316619873046875,-0.8296966552734375,3.8609942548807785
1782812727.651497,-0.0410156212747097,-0.010742183774709702,0.9897460341453552,0.9906537678761731,-3.1490325927734375,-0.4978179931640625,-0.4596710205078125,3.2211064049115152
1782812727.65947,-0.0444335862994194,-0.01513671875,0.9829100966453552,0.9840303460429084,-2.780914306640625,-0.865936279296875,-0.0934600830078125,2.914114755426912
1782812727.667444,-0.04150390625,-0.0166015625,0.9907225966453552,0.9917305327633941,-2.1724700927734375,-0.8029937744140625,0.0896453857421875,2.317857114001559
1782812727.678138,-0.04248046875,-0.02197265625,0.9931640028953552,0.9943149020783233,-1.804351806640625,-0.560760498046875,-0.5245208740234375,1.9609334322162437
1782812727.688833,-0.0336913987994194,-0.00830078125,0.9946288466453552,0.9952339201923793,-1.682281494140625,-0.377655029296875,-0.1583099365234375,1.7314030098978377
1782812727.699528,-0.024414055049419403,-0.02001953125,1.0048828125,1.0053786821756945,-1.3790130615234375,-0.1926422119140625,0.4520416259765625,1.4639431946899173
1782812727.710181,-0.0483398362994194,-0.0068359375,0.9980468153953552,0.9992401690963834,-1.499176025390625,-0.43487548828125,0.4520416259765625,1.6251114044979875
1782812727.720836,-0.04296875,-0.01806640625,1.0068359375,1.0079143384002711,-1.6841888427734375,-0.8029937744140625,1.1882781982421875,2.2120795953780625
1782812727.731491,-0.02392578125,-0.03076171875,0.9995116591453552,1.00027110480928,-1.499176025390625,-1.354217529296875,1.1234283447265625,2.311606609589103
1782812727.739515,-0.0375976525247097,-0.0229492224752903,1.005859375,1.006823386976574,-1.4362335205078125,-1.5964508056640625,1.8596649169921875,2.8407350287957622
1782812727.747538,-0.02880859375,-0.0361328125,0.9975585341453552,0.9986283313922365,-1.316070556640625,-1.842498779296875,1.9817352294921875,3.009006145154458
1782812727.755562,-0.02880859375,-0.0244140625,0.9995116591453552,1.0002247438896457,-1.0738372802734375,-1.5354156494140625,2.3479461669921875,3.0039106052051494
1782812727.763584,-0.0312499962747097,-0.0224609412252903,0.9995116591453552,1.000252274636452,-0.766754150390625,-1.720428466796875,2.0427703857421875,2.778614202326689
1782812727.774323,-0.021484375,-0.0361328125,1.0009765625,1.0018588908537056,-0.4024505615234375,-1.4133453369140625,1.9817352294921875,2.4671412638229104
1782812727.785062,-0.0253906212747097,-0.0180664099752903,1.00634765625,1.0068300174597393,-0.0362396240234375,-1.1081695556640625,2.1648406982421875,2.4322599209820828
1782812727.795801,-0.0283203125,-0.03125,1.00390625,1.00479170049775,0.453948974609375,-0.377655029296875,1.8596649169921875,1.9511654456231244
1782812727.806339,-0.019531242549419403,-0.02734375,1.01708984375,1.0176447810306828,1.308441162109375,-0.011444091796875,1.4324188232421875,1.9400961128556802
1782812727.816879,-0.0185546875,-0.04248046875,1.00390625,1.0049759327677976,2.346038818359375,0.598907470703125,1.1882781982421875,2.69714541175124
1782812727.827419,-0.02685546875,-0.02587890625,1.00732421875,1.008014392591086,2.285003662109375,0.54168701171875,0.6999969482421875,2.450441242320742
1782812727.835431,-0.01904296875,-0.03564453125,1.00390625,1.0047193270042676,3.0765533447265625,0.5397796630859375,0.8831024169921875,3.24598404902532
1782812727.843445,-0.029296867549419403,-0.03076171875,1.01318359375,1.0140737568997766,3.810882568359375,0.782012939453125,0.4520416259765625,3.9164667519223237
1782812727.851459,-0.0234374962747097,-0.0434570275247097,0.9956054091453552,0.9968289523245202,4.1751861572265625,0.8449554443359375,0.3299713134765625,4.272588234094961
1782812727.859473,-0.0166015587747097,-0.0175781287252903,0.9965819716453552,0.9968752321989831,4.543304443359375,1.087188720703125,0.0896453857421875,4.672433078670898
1782812727.87057,-0.0209960900247097,-0.0253906212747097,0.9990233778953552,0.9995665205610316,4.4803619384765625,0.9670257568359375,0.0896453857421875,4.584410344779189
1782812727.881667,-0.0253906212747097,-0.0239257849752903,1.0029296875,1.0035362897794216,4.3582916259765625,0.6008148193359375,0.0896453857421875,4.400422779617428
1782812727.892764,-0.024902336299419403,-0.02197265625,0.9946288466453552,0.9951831321696121,4.787445068359375,0.598907470703125,-0.0362396240234375,4.824897278841475
1782812727.900453,-0.0283203087747097,-0.013671878725290298,0.9999999403953552,1.000494298308435,4.6634674072265625,0.7839202880859375,-0.2155303955078125,4.7338053009946375
1782812727.908143,-0.0229492150247097,-0.0244140587747097,0.9941405653953552,0.994705070109076,4.1751861572265625,1.0280609130859375,-0.3414154052734375,4.313427079187664
1782812727.915833,-0.0078124962747097015,-0.008789066225290298,0.9902343153953552,0.990304136197392,4.1751861572265625,1.5773773193359375,-0.2765655517578125,4.471776734081303
1782812727.923523,-0.02392578125,-0.00244140625,0.9916991591453552,0.9919907387281924,3.5037994384765625,1.2722015380859375,-0.3986358642578125,3.7488688708528435
1782812727.932039,-0.01806640625,0.00244140625,0.9736327528953552,0.9738034159982473,3.139495849609375,1.51824951171875,-0.1583099365234375,3.490927929011249
1782812727.940555,-0.017578125,-0.00732421875,0.9760741591453552,0.9762599033096288,2.773284912109375,1.21307373046875,-0.4596710205078125,3.061691448592031
1782812727.949071,-0.030273430049419403,-0.01220703125,0.9873046278953552,0.9878440769891175,1.9168853759765625,1.2722015380859375,-0.6427764892578125,2.3887460964455034
1782812727.957587,-0.020996086299419403,-0.01123046875,0.9902343153953552,0.9905205492339597,1.4934539794921875,1.3332366943359375,-0.5245208740234375,2.0695523717149995
1782812727.967587,-0.03173828125,-0.0009765625,0.9770507216453552,0.9775665628686008,0.698089599609375,1.270294189453125,-1.3751983642578125,1.9980357749295963
1782812727.977587,-0.00927734375,0.001953125,0.9711913466453552,0.9712376205662236,0.331878662109375,0.904083251953125,-1.6193389892578125,1.8840829957717256
1782812727.987587,-0.02685546875,0.00830078125,0.9843749403953552,0.9847761890142865,-0.4596710205078125,0.8449554443359375,-1.5583038330078125,1.8312722315304395
1782812727.998363,-0.024414055049419403,-0.01318359375,0.9770507216453552,0.9774446101420942,-0.827789306640625,0.782012939453125,-1.9893646240234375,2.292237112729963
1782812728.00914,-0.0351562462747097,-0.009277347475290298,0.9868163466453552,0.9874859658925746,-0.949859619140625,0.965118408203125,-1.9245147705078125,2.3531774135898136
1782812728.019915,-0.0449218675494194,-0.01220703125,0.9775390028953552,0.9786467636372744,-1.255035400390625,0.904083251953125,-2.1686553955078125,2.6637467235382837
1782812728.030452,-0.0224609375,-0.00732421875,0.9980468153953552,0.9983263913242437,-1.5621185302734375,0.7839202880859375,-2.1686553955078125,2.785284822986965
1782812728.040989,-0.0336913987994194,-0.00146484375,0.9897460341453552,0.9903203866561225,-1.621246337890625,0.659942626953125,-2.4776458740234375,3.033594078986
1782812728.051526,-0.0307617150247097,-0.0170898474752903,0.9799804091453552,0.9806120274128234,-1.804351806640625,0.904083251953125,-2.5959014892578125,3.288123554631175
1782812728.059509,-0.0283203125,-0.0224609375,0.9887694716453552,0.9894299378285011,-1.6841888427734375,0.7839202880859375,-2.5959014892578125,3.192135275662076
1782812728.067495,-0.0229492150247097,-0.013183597475290298,0.9975585341453552,0.9979095664231658,-1.7452239990234375,0.9059906005859375,-2.9659271240234375,3.5585600290195143
1782812728.075481,-0.0307617150247097,-0.0297851525247097,1.00146484375,1.0023798041108936,-1.621246337890625,0.965118408203125,-2.7828216552734375,3.362140626897556
1782812728.083467,-0.0336913987994194,-0.02001953125,0.9946288466453552,0.995400640226638,-1.6841888427734375,0.5397796630859375,-2.3517608642578125,2.9425555738946296
1782812728.09147,-0.033203125,-0.01513671875,0.9990233778953552,0.9996895904958338,-1.682281494140625,0.720977783203125,-2.2945404052734375,2.9350972148862287
1782812728.099473,-0.0371093712747097,-0.008300784975290298,1.0107421875,1.011457254687461,-1.377105712890625,0.720977783203125,-2.0465850830078125,2.569968795596278
1782812728.107476,-0.0390624925494194,-0.01025390625,0.9985350966453552,0.9993514697793294,-1.1959075927734375,1.1501312255859375,-1.8062591552734375,2.4526656809541083
1782812728.115479,-0.0366210900247097,-0.0200195275247097,0.9975585341453552,0.998431226856983,-0.9479522705078125,0.8449554443359375,-1.7414093017578125,2.155242345148798
1782812728.126146,-0.02392578125,-0.02978515625,0.9946288466453552,0.9953623165060698,-0.7648468017578125,0.8449554443359375,-1.2531280517578125,1.6938920411804368
1782812728.136813,-0.04736328125,-0.01025390625,1.00390625,1.0050752120081425,-0.644683837890625,0.598907470703125,-1.0128021240234375,1.3416689426709507
1782812728.14748,-0.0327148400247097,-0.0229492224752903,0.9965819716453552,0.9973828521578895,-0.2193450927734375,0.4787445068359375,-0.5245208740234375,0.7432568330232046
1782812728.155489,-0.02685546875,-0.021484375,1.00048828125,1.00107921539182,-0.5855560302734375,-0.0705718994140625,-0.7038116455078125,0.9182630831787316
1782812728.163498,-0.0458984337747097,-0.0205078087747097,0.9936522841453552,0.9949231619733221,-0.0362396240234375,0.0514984130859375,-0.3414154052734375,0.3471741290156217
1782812728.171507,-0.0341796800494194,-0.0263671875,1.0107421875,1.0116636045134895,-0.156402587890625,0.05340576171875,0.0286102294921875,0.16772742803501225
1782812728.179516,-0.014648433774709702,-0.008789066225290298,0.9951171278953552,0.995263745209211,0.026702880859375,0.110626220703125,0.2117156982421875,0.24036376897407707
1782812728.18809,-0.0351562462747097,-0.0180664099752903,0.9946288466453552,0.9954139336982343,0.209808349609375,-0.194549560546875,0.1468658447265625,0.3216187983032688
1782812728.196664,-0.029296867549419403,-0.0263671875,0.9907225966453552,0.9915063280325465,-0.156402587890625,-0.255584716796875,0.3299713134765625,0.4457200743476463
1782812728.205238,-0.02880859375,-0.0244140625,1.0048828125,1.005592088463069,0.0858306884765625,-0.4367828369140625,0.2117156982421875,0.49291955792931796
1782812728.213813,-0.0278320275247097,-0.0180664099752903,0.9941405653953552,0.9946941643993534,0.331878662109375,-0.682830810546875,0.2117156982421875,0.7881782153027246
1782812728.224085,-0.0371093712747097,-0.0224609412252903,0.9804686903953552,0.9814277620705016,0.2689361572265625,-0.8640289306640625,0.1468658447265625,0.9167563613280905
1782812728.234358,-0.02880859375,-0.0087890625,0.9985350966453552,0.998989250155391,0.3910064697265625,-0.5588531494140625,0.0286102294921875,0.6826576354290936
1782812728.244631,-0.0283203087747097,-0.0185546912252903,1.005859375,1.0064290331319696,0.942230224609375,-0.865936279296875,-0.0934600830078125,1.2831127086447924
1782812728.254926,-0.0512695275247097,-0.012695316225290298,1.01123046875,1.0126089059627175,1.308441162109375,-0.560760498046875,-0.3986358642578125,1.4783034746439867
1782812728.265222,-0.0180664025247097,-0.0185546912252903,0.9995116591453552,0.999847102428242,1.6117095947265625,-0.4978179931640625,-0.1583099365234375,1.6942528170416626
1782812728.275518,-0.0205078087747097,-0.0029296912252902985,0.9877929091453552,0.9880101136472539,1.5506744384765625,-0.6198883056640625,-0.3986358642578125,1.7169051452879502
1782812728.283498,-0.0234375,-0.00830078125,0.9892577528953552,0.9895701698410164,1.5506744384765625,-0.5588531494140625,-0.2155303955078125,1.6623361297109478
1782812728.291477,-0.02294921875,-0.02490234375,0.9838866591453552,0.9844692739794813,1.4934539794921875,-0.3147125244140625,-0.0362396240234375,1.526683356899355
1782812728.299456,-0.0434570275247097,-0.009277347475290298,0.9985350966453552,0.9995233472260713,2.2220611572265625,-0.4978179931640625,-0.0362396240234375,2.27743097614885
1782812728.307435,-0.01904296875,-0.0029296875,0.9926757216453552,0.9928626823845218,2.4051666259765625,-0.1926422119140625,0.2117156982421875,2.4221397683463275
1782812728.31812,-0.03271484375,-0.001953125,0.9999999403953552,1.0005368341493313,3.078460693359375,-0.255584716796875,0.2117156982421875,3.096298972144163
1782812728.328803,-0.015136711299419403,-0.01171875,0.9956054091453552,0.995789425456012,3.261566162109375,-0.011444091796875,-0.2155303955078125,3.2686997641939657
1782812728.339487,-0.0195312462747097,-0.0043945349752902985,0.9838866591453552,0.9840903106742291,3.5037994384765625,0.4177093505859375,-0.2765655517578125,3.539432173535001
1782812728.350159,-0.02294921875,-0.00244140625,0.9873046278953552,0.9875743290351865,3.749847412109375,0.965118408203125,-0.5245208740234375,3.9074200315863434
1782812728.360832,-0.0317382775247097,-0.0048828087747097015,1.0029296875,1.0034436297822682,4.1751861572265625,1.3332366943359375,-0.4596710205078125,4.406926023626313
1782812728.371505,-0.0278320275247097,-0.0034179724752902985,0.9985350966453552,0.9989287479718095,3.5648345947265625,1.2111663818359375,-1.0700225830078125,3.9140666857369153
1782812728.382248,-0.0380859375,-0.0029296875,0.9887694716453552,0.989507043816231,3.3245086669921875,0.6618499755859375,-1.1310577392578125,3.5734709844385573
1782812728.392993,-0.0302734337747097,-0.0029296912252902985,0.9921874403953552,0.9926535048855033,2.773284912109375,0.720977783203125,-0.7648468017578125,2.9657897426765016
1782812728.403738,-0.029296867549419403,0.00439453125,0.9941405653953552,0.9945818629543332,2.3479461669921875,0.4787445068359375,-0.7648468017578125,2.515360438600807
1782812728.414317,-0.015624996274709702,0.0073242150247097015,0.9682616591453552,0.9684154197477594,1.979827880859375,0.415802001953125,-0.7038116455078125,2.1419525146484375
1782812728.424897,-0.0209960900247097,-0.0043945349752902985,0.9819335341453552,0.9821678131628843,1.552581787109375,0.232696533203125,-1.0128021240234375,1.8682681886321568
1782812728.435477,-0.0336913987994194,0.00146484375,0.9916991591453552,0.9922723811383032,1.1882781982421875,0.1735687255859375,-1.0700225830078125,1.608440085009677
1782812728.443459,-0.030273430049419403,0.0029296875,0.9853515028953552,0.9858207990775707,-0.0972747802734375,0.3566741943359375,-0.8296966552734375,0.9083366135714034
1782812728.451444,-0.0483398362994194,0.00146484375,0.9960936903953552,0.9972670282256926,-0.705718994140625,0.415802001953125,-0.3986358642578125,0.9109561766581613
1782812728.459429,-0.014648430049419403,0.00244140625,0.9931640028953552,0.9932750241572147,-0.278472900390625,0.232696533203125,-0.2155303955078125,0.42207604078468386
1782812728.467414,-0.0297851525247097,0.0019531212747097015,0.9960936903953552,0.9965408220635378,-0.156402587890625,0.476837158203125,-0.5817413330078125,0.7682827757224702
1782812728.478103,-0.0346679612994194,-0.00244140625,0.9970702528953552,0.9976757575555012,0.026702880859375,0.476837158203125,-0.2155303955078125,0.5239657151734034
1782812728.488792,-0.0410156212747097,-0.010253902524709702,0.9951171278953552,0.9960148201388559,0.514984130859375,0.415802001953125,-0.4596710205078125,0.8058519758366955
1782812728.499481,-0.0292968712747097,0.011230465024709702,0.9980468153953552,0.9985398718789192,1.125335693359375,0.415802001953125,-0.5817413330078125,1.3333021810927028
1782812728.510143,-0.0297851525247097,-0.0034179724752902985,0.9892577528953552,0.9897119477455699,1.4286041259765625,0.4787445068359375,-0.5245208740234375,1.5953771337427254
1782812728.520805,-0.02392578125,-0.0107421875,1.00927734375,1.0096180437213687,2.0999908447265625,0.4787445068359375,-0.3986358642578125,2.1904493609836178
1782812728.531467,-0.0341796837747097,0.0014648400247097015,0.9995116591453552,1.0000969719515893,1.979827880859375,0.293731689453125,-0.7648468017578125,2.1426589493842143
1782812728.539478,-0.03271484375,-0.001953125,0.9951171278953552,0.9956566546403199,2.3479461669921875,-0.1316070556640625,-0.8869171142578125,2.5133232159348853
1782812728.547491,-0.03173828125,0.00341796875,0.9848632216453552,0.9853804170759373,2.773284912109375,-0.194549560546875,-0.7648468017578125,2.8833919895500926
1782812728.555504,-0.0302734337747097,0.0068359337747097015,0.9912108778953552,0.9916966346827868,2.7103424072265625,-0.3147125244140625,-1.1310577392578125,2.9536911732557187
1782812728.563517,-0.0341796800494194,0.00732421875,0.9897460341453552,0.9903631186666015,2.346038818359375,0.232696533203125,-0.3986358642578125,2.3910157603174387
1782812728.574183,-0.0205078087747097,0.0014648400247097015,0.9921874403953552,0.9924004397698162,2.468109130859375,0.415802001953125,-1.3179779052734375,2.8286957675664954
1782812728.584849,-0.0224609375,0.01904296875,0.9916991591453552,0.9921362560766525,2.1648406982421875,0.8449554443359375,-1.2531280517578125,2.6402300781903447
1782812728.595515,-0.0268554650247097,0.00048827752470970154,0.9999999403953552,1.0003606025865615,1.7948150634765625,0.8449554443359375,-1.5583038330078125,2.5226219794020186
1782812728.606158,-0.024902336299419403,0.0078125,0.9970702528953552,0.997411775907136,1.186370849609375,1.392364501953125,-1.5010833740234375,2.3663064034210852
1782812728.616801,-0.0317382775247097,0.009765621274709702,0.9824218153953552,0.9829828630163508,0.698089599609375,1.087188720703125,-1.0700225830078125,1.6775746575498767
1782812728.627445,-0.0415039025247097,0.0200195275247097,0.9843749403953552,0.9854528799924694,-0.156402587890625,1.33514404296875,-1.2531280517578125,1.8377707417075055
1782812728.635454,-0.0249023400247097,0.0063476525247097015,0.9858397841453552,0.9861746798793007,-1.1959075927734375,1.0280609130859375,-1.3179779052734375,2.055278562691006
1782812728.643466,-0.0263671837747097,0.013671878725290298,0.9677733778953552,0.9682290326214529,-2.0503997802734375,1.2722015380859375,-1.5010833740234375,2.8418105686732837
1782812728.651476,-0.029296867549419403,0.01416015625,0.9731444716453552,0.9736883377997039,-2.841949462890625,0.904083251953125,-1.5583038330078125,3.3648705936563577
1782812728.659487,-0.0234375,0.02197265625,0.9677733778953552,0.9683064726582781,-3.574371337890625,0.904083251953125,-1.6803741455078125,4.051808763563165
1782812728.670143,-0.0268554650247097,0.009277347475290298,0.9628905653953552,0.9633096730051336,-4.3659210205078125,0.8449554443359375,-2.2296905517578125,4.974609132064848
1782812728.680799,-0.0170898400247097,0.014648433774709702,0.9658202528953552,0.9660825017290036,-5.405426025390625,0.782012939453125,-2.7179718017578125,6.100618449681394
1782812728.691455,-0.011230465024709702,0.0273437462747097,0.9892577528953552,0.9896993005294965,-5.832672119140625,0.720977783203125,-3.3283233642578125,6.754080946386216
1782812728.7022,-0.0185546837747097,0.0195312462747097,0.9824218153953552,0.9827911116995962,-5.893707275390625,0.54168701171875,-3.8776397705078125,7.075683744803823
1782812728.712944,-0.0341796800494194,0.01318359375,0.9946288466453552,0.9953032704917206,-6.198883056640625,0.54168701171875,-4.0607452392578125,7.4302912370058545
1782812728.723688,-0.0263671837747097,0.0068359337747097015,0.9868163466453552,0.9871922104520818,-5.893707275390625,0.415802001953125,-4.4307708740234375,7.385147750107308
1782812728.734271,-0.030273430049419403,-0.0009765625,0.9858397841453552,0.9863049803407838,-4.917144775390625,0.54168701171875,-4.8542022705078125,6.930729921431026
1782812728.744855,-0.00927734375,-0.0078125,0.9960936903953552,0.9961675282344549,-4.795074462890625,1.087188720703125,-5.2814483642578125,7.215844735262216
1782812728.755439,-0.013671871274709702,-0.0039062537252902985,0.9985350966453552,0.9986363292584881,-4.245758056640625,0.782012939453125,-5.5255889892578125,7.012142282584407
1782812728.763789,-0.021484375,-0.00634765625,1.0068359375,1.0070851384816046,-3.574371337890625,1.02996826171875,-6.7501068115234375,7.707198391650306
1782812728.772138,0.008789066225290298,-0.007812503725290298,0.9882811903953552,0.9883511492323114,-3.574371337890625,1.575469970703125,-8.703231811523438,9.539626829956969
1782812728.780488,0.005859375,-0.00146484375,0.9936522841453552,0.9936706395128541,-3.330230712890625,1.575469970703125,-10.408401489257812,11.041166776715745
1782812728.788836,0.0224609412252903,0.00048827752470970154,0.9858397841453552,0.9860957419538062,-3.5724639892578125,1.1501312255859375,-12.609481811523438,13.156151882133013
1782812728.796493,0.0019531287252902985,0.0063476525247097015,0.9995116591453552,0.9995337233790027,-3.9424896240234375,1.1501312255859375,-15.108108520507812,15.656339589413646
1782812728.80415,0.0166015625,-0.00244140625,0.9848632216453552,0.9850061612454954,-4.306793212890625,0.598907470703125,-17.427444458007812,17.961708667997375
1782812728.811807,0.0263671875,-0.0029296875,0.9785155653953552,0.9788751316518872,-4.489898681640625,0.232696533203125,-19.506454467773438,20.01786961070736
1782812728.819464,0.0205078125,-0.0166015625,0.9892577528953552,0.9896095613495982,-5.100250244140625,-0.194549560546875,-21.577835083007812,22.173257968865293
1782812728.830186,0.01123046875,-0.0166015625,0.9990233778953552,0.9992244216827528,-5.6514739990234375,-0.0705718994140625,-23.225784301757812,23.903581220946883
1782812728.840908,0.0024414099752902985,-0.0175781287252903,0.9936522841453552,0.993810753050817,-5.588531494140625,-0.560760498046875,-24.755477905273438,25.384637537606338
1782812728.85163,-0.0058593712747097015,-0.0205078087747097,1.0009765625,1.0012037660370596,-5.710601806640625,-0.43487548828125,-25.850296020507812,26.477120198998172
1782812728.862227,-0.0346679612994194,-0.02490234375,0.9951171278953552,0.9960321744279157,-5.222320556640625,-0.12969970703125,-26.708602905273438,27.214682124946748
1782812728.872823,-0.0400390587747097,-0.0200195275247097,0.9936522841453552,0.9946601276301161,-5.039215087890625,0.54168701171875,-26.338577270507812,26.8217778336038
1782812728.883419,-0.0522460900247097,-0.0288085974752903,1.00341796875,1.0051901358557689,-5.222320556640625,0.415802001953125,-25.484085083007812,26.01699667177441
1782812728.89414,-0.0478515587747097,-0.0239257849752903,0.9985350966453552,0.9999672765127878,-4.8580169677734375,0.7839202880859375,-24.446487426757812,24.936832344623788
1782812728.904862,-0.06494140625,-0.0244140587747097,1.00537109375,1.0077621091605171,-4.9190521240234375,1.3332366943359375,-23.347854614257812,23.897633961764985
1782812728.915584,-0.0678710862994194,-0.02783203125,1.00634765625,1.009017696355635,-4.1255950927734375,1.4553070068359375,-21.947860717773438,22.37961222721351
1782812728.923576,-0.07568359375,-0.0341796837747097,1.01220703125,1.015607862936179,-2.841949462890625,1.392364501953125,-18.041610717773438,18.317070534001907
1782812728.931569,-0.0644531175494194,-0.02490234375,0.9970702528953552,0.9994615651914235,-1.926422119140625,1.70135498046875,-16.450881958007812,16.650442280822062
1782812728.939562,-0.0624999962747097,-0.0190429724752903,0.9965819716453552,0.9987214379112811,-1.3790130615234375,1.8215179443359375,-14.745712280273438,14.921649885250522
1782812728.947555,-0.0776367112994194,-0.00830078125,0.9975585341453552,1.000609509727436,-1.0128021240234375,1.8215179443359375,-12.792587280273438,12.961249364447008
1782812728.958202,-0.0517578087747097,-0.013183597475290298,1.001953125,1.0033756737677146,-0.4024505615234375,2.2487640380859375,-10.957717895507812,11.193323350595714
1782812728.968849,-0.0595703050494194,-0.021484375,0.9985350966453552,1.0005411230156263,0.026702880859375,2.18963623046875,-9.798049926757812,10.03977102492215
1782812728.979496,-0.0610351525247097,-0.0253906212747097,0.9848632216453552,0.987079297139849,0.148773193359375,2.429962158203125,-9.191513061523438,9.508457388741745
1782812728.990155,-0.0566406212747097,-0.0239257849752903,0.9838866591453552,0.9858060464458905,0.026702880859375,2.429962158203125,-7.4787139892578125,7.86362461383209
1782812729.000814,-0.05126953125,-0.01123046875,0.9946288466453552,0.9960126660048099,-0.0972747802734375,2.1266937255859375,-6.5021514892578125,6.84180258225721
1782812729.011473,-0.02783203125,-0.00537109375,0.9887694716453552,0.9891756864528197,-0.339508056640625,2.246856689453125,-5.6476593017578125,6.087666736295253
1782812729.019479,-0.0541992112994194,-0.0126953125,0.9868163466453552,0.9883851614990168,-0.827789306640625,1.941680908203125,-4.1828155517578125,4.6852220678956185
1782812729.027487,-0.0585937425494194,-0.005859375,0.9936522841453552,0.9953956101614172,-0.827789306640625,1.51824951171875,-3.6945343017578125,4.079203405431982
1782812729.035493,-0.0512695275247097,-0.0297851525247097,0.9946288466453552,0.9963946318314831,-1.132965087890625,1.392364501953125,-3.2062530517578125,3.674554044858297
1782812729.0435,-0.0532226487994194,-0.01513671875,0.9809569716453552,0.9825163361590326,-1.2531280517578125,1.4553070068359375,-2.2945404052734375,2.9921838295266046
1782812729.054168,-0.0463867150247097,-0.0224609412252903,0.9804686903953552,0.9818223230590617,-1.3790130615234375,0.8449554443359375,-2.1076202392578125,2.6566312878708525
1782812729.064836,-0.0449218712747097,-0.0195312462747097,0.9809569716453552,0.9821792220972154,-1.865386962890625,1.087188720703125,-2.1076202392578125,3.0172356402302367
1782812729.075504,-0.0322265625,-0.01171875,0.9716796278953552,0.9722845158177645,-2.109527587890625,0.965118408203125,-1.6193389892578125,2.8291021452140406
1782812729.086154,-0.0498046837747097,-0.0239257849752903,0.9941405653953552,0.9956748532915648,-2.597808837890625,0.598907470703125,-1.3751983642578125,2.999745232139559
1782812729.096805,-0.0395507737994194,-0.02001953125,0.9848632216453552,0.9858603403572286,-2.4127960205078125,0.5397796630859375,-1.1310577392578125,2.718867104290774
1782812729.107457,-0.0390624925494194,-0.017578125,0.9902343153953552,0.9911603645168611,-2.780914306640625,0.476837158203125,-1.2531280517578125,3.087262212774301
1782812729.11817,-0.04296875,-0.015625,0.9829100966453552,0.9839729224876791,-2.3555755615234375,0.6618499755859375,-1.0700225830078125,2.6705298995473306
1782812729.128885,-0.0512695275247097,-0.0224609412252903,0.9926757216453552,0.9942525567869864,-2.7217864990234375,0.6618499755859375,-0.9479522705078125,2.957157527696197
1782812729.139598,-0.0541992150247097,-0.008789066225290298,0.9902343153953552,0.9917554143945548,-2.2335052490234375,0.6618499755859375,-0.3986358642578125,2.3633665902417524
1782812729.147576,-0.0556640587747097,-0.013183597475290298,1.00244140625,1.0040722422446218,-2.6607513427734375,0.3566741943359375,-0.3986358642578125,2.7139868719742206
1782812729.155555,-0.0390624925494194,-0.02001953125,0.9985350966453552,0.9994993742810407,-2.0503997802734375,0.0514984130859375,-0.0934600830078125,2.0531746473721024
1782812729.163534,-0.0458984337747097,-0.012695316225290298,0.9956054091453552,0.9967436821954387,-1.8672943115234375,-0.4367828369140625,-0.0934600830078125,1.919974499722929
1782812729.171513,-0.0390624962747097,-0.0185546912252903,0.9897460341453552,0.9906903488417237,-2.3555755615234375,-0.8029937744140625,0.6999969482421875,2.58525259023999
1782812729.182169,-0.0371093712747097,-0.0322265662252903,0.9936522841453552,0.9948670859940835,-1.6841888427734375,-1.2912750244140625,0.3299713134765625,2.147734693698343
1782812729.192825,-0.0444335862994194,-0.03564453125,0.9887694716453552,0.9904089782798291,-1.499176025390625,-1.354217529296875,0.6999969482421875,2.138090175672986
1782812729.203481,-0.0292968712747097,-0.0292968712747097,0.9931640028953552,0.994027841652385,-1.438140869140625,-1.537322998046875,0.5779266357421875,2.1830277955437642
1782812729.211483,-0.033203125,-0.0244140625,0.9829100966453552,0.9837737301050995,-1.4362335205078125,-1.2912750244140625,0.6999969482421875,2.0543012538705656
1782812729.219484,-0.0234375,-0.02587890625,0.9907225966453552,0.9913376305268864,-1.377105712890625,-0.743865966796875,0.2727508544921875,1.5887572972801303
1782812729.227485,-0.015624996274709702,-0.0249023400247097,0.9980468153953552,0.9984797007291141,-1.8672943115234375,-0.6198883056640625,0.1468658447265625,1.9729721573540002
1782812729.235487,-0.0415039025247097,-0.0273437537252903,0.9868163466453552,0.9880671823307643,-1.5621185302734375,-0.3147125244140625,-0.1583099365234375,1.6013495282569545
1782812729.246144,-0.0322265587747097,-0.0327148474752903,0.9951171278953552,0.9961761443472194,-1.6193389892578125,-0.3147125244140625,0.0286102294921875,1.6498852324889697
1782812729.256802,-0.0224609337747097,-0.0229492224752903,0.9921874403953552,0.9927069442874563,-1.3790130615234375,0.1125335693359375,0.3299713134765625,1.4224000477352277
1782812729.26746,-0.019531242549419403,-0.03564453125,0.9902343153953552,0.9910681113980332,-1.0738372802734375,0.4787445068359375,-0.0934600830078125,1.1794310469232465
1782812729.275451,-0.029296867549419403,-0.02099609375,0.9916991591453552,0.9923539512948852,-0.522613525390625,0.598907470703125,-0.2765655517578125,0.8416077232323472
1782812729.283441,-0.0424804650247097,-0.0234375037252903,0.9907225966453552,0.9919098598125254,-0.644683837890625,0.965118408203125,-0.2155303955078125,1.180476236134245
1782812729.291431,-0.0327148400247097,-0.0288085974752903,0.9892577528953552,0.9902177021796285,-0.7648468017578125,0.8449554443359375,-0.7038116455078125,1.3395115398623898
1782812729.299422,-0.0346679612994194,-0.017578125,0.9907225966453552,0.9914848065012841,-0.7648468017578125,1.0280609130859375,-1.1310577392578125,1.7091493441795074
1782812729.310093,-0.0371093712747097,-0.0195312462747097,0.9897460341453552,0.9906340328920192,-0.644683837890625,0.720977783203125,-1.3179779052734375,1.6347758175049067
1782812729.320765,-0.0400390550494194,-0.021484375,0.9897460341453552,0.9907885326369344,-0.827789306640625,0.415802001953125,-1.4362335205078125,1.7090620721457306
1782812729.331437,-0.0322265625,-0.0166015625,0.9858397841453552,0.9865060786491731,-1.0128021240234375,0.3566741943359375,-1.1920928955078125,1.6043908796960225
1782812729.339488,-0.0390624925494194,-0.01513671875,0.9877929091453552,0.9886808534287159,-1.132965087890625,0.476837158203125,-1.8634796142578125,2.232384339350348
1782812729.347539,-0.0415039025247097,-0.0073242224752902985,0.9853515028953552,0.9862524029972162,-1.1959075927734375,0.6618499755859375,-2.0465850830078125,2.4610467006187347
1782812729.35559,-0.0356445275247097,-0.0283203162252903,0.9877929091453552,0.9888414453345916,-1.010894775390625,0.720977783203125,-2.2296905517578125,2.5521044585562347
1782812729.363641,-0.0419921837747097,-0.0229492224752903,0.9960936903953552,0.997242523339146,-1.682281494140625,1.087188720703125,-2.2945404052734375,3.0458112238588426
1782812729.374252,-0.0419921837747097,-0.0185546912252903,0.9960936903953552,0.9971510718592608,-1.438140869140625,0.904083251953125,-2.1076202392578125,2.7069685552078084
1782812729.384863,-0.0346679612994194,-0.025390625,0.9960936903953552,0.9970201559767918,-1.2531280517578125,1.3332366943359375,-2.1076202392578125,2.791041574422586
1782812729.395474,-0.0449218675494194,-0.03125,0.9960936903953552,0.9975956980308032,-1.316070556640625,0.965118408203125,-1.8062591552734375,2.4343515333488734
1782812729.40615,-0.0600585900247097,-0.0278320349752903,0.9882811903953552,0.9904955162421899,-1.255035400390625,1.087188720703125,-1.5010833740234375,2.2383798753623885
1782812729.416824,-0.0346679612994194,-0.03173828125,0.9960936903953552,0.9972019986355823,-1.3790130615234375,1.0890960693359375,-1.3179779052734375,2.1965593620214756
1782812729.427498,-0.0419921837747097,-0.0190429724752903,0.9921874403953552,0.9932582218019392,-1.438140869140625,1.21307373046875,-1.2531280517578125,2.2605589904154795
1782812729.435501,-0.0283203125,-0.02490234375,0.9902343153953552,0.9909521513225796,-1.7452239990234375,1.0890960693359375,-1.0700225830078125,2.318811200412198
1782812729.443504,-0.0419921875,-0.03076171875,0.9873046278953552,0.9886759102026685,-1.5621185302734375,0.5397796630859375,-1.3751983642578125,2.1500574244336303
1782812729.451508,-0.0400390550494194,-0.01611328125,0.9936522841453552,0.9945891742569762,-1.804351806640625,0.720977783203125,-1.1920928955078125,2.2796008153885143
1782812729.45951,-0.0434570237994194,-0.0224609375,0.9877929091453552,0.9890034570155587,-1.621246337890625,0.598907470703125,-0.8869171142578125,1.942614684941711
1782812729.470148,-0.0346679612994194,-0.037109375,0.9858397841453552,0.9871469258713766,-1.804351806640625,0.598907470703125,-1.1920928955078125,2.243983304775573
1782812729.480786,-0.0322265625,-0.03076171875,1.001953125,1.0029431187102718,-1.621246337890625,0.232696533203125,-1.0700225830078125,1.9564088767011938
1782812729.491424,-0.0405273400247097,-0.0234375037252903,1.00537109375,1.0064605397224586,-1.499176025390625,0.293731689453125,-1.1310577392578125,1.9008152645720238
1782812729.499948,-0.0395507775247097,-0.0239257849752903,0.9951171278953552,0.9961901452133491,-0.827789306640625,0.232696533203125,-0.5245208740234375,1.0072263698095034
1782812729.508474,-0.037109375,-0.02685546875,0.9931640028953552,0.9942198240639732,-0.7076263427734375,0.5397796630859375,-0.8296966552734375,1.216755384389158
1782812729.517,-0.0415039025247097,-0.0375976599752903,0.9907225966453552,0.9923040972726623,-0.949859619140625,0.293731689453125,-0.5245208740234375,1.1241146510695743
1782812729.525526,-0.0341796837747097,-0.0234375037252903,0.9970702528953552,0.9979311882953753,-0.766754150390625,0.904083251953125,-0.5245208740234375,1.2963026656185266
1782812729.5355,-0.0424804650247097,-0.0278320349752903,0.9946288466453552,0.9959245727757956,-0.400543212890625,0.904083251953125,-0.8869171142578125,1.3283159862842455
1782812729.545474,-0.0317382775247097,-0.007812503725290298,0.9892577528953552,0.9897975829119108,-1.010894775390625,0.782012939453125,-1.1920928955078125,1.7477236497525515
1782812729.555448,-0.0341796800494194,-0.0263671875,0.9882811903953552,0.9892235290338586,-1.0738372802734375,0.4177093505859375,-0.5817413330078125,1.290748071701711
1782812729.56346,-0.0385742112994194,-0.02197265625,0.9897460341453552,0.9907411263829273,-1.0128021240234375,0.9670257568359375,-0.8296966552734375,1.6276681162271482
1782812729.571472,-0.0439453050494194,-0.0302734375,0.9916991591453552,0.9931338747135542,-0.7648468017578125,1.0280609130859375,-0.9479522705078125,1.593898798021745
1782812729.579484,-0.0512695275247097,-0.0327148474752903,0.9926757216453552,0.9945370350278894,-1.438140869140625,0.720977783203125,-0.8296966552734375,1.8100979705908113
1782812729.587497,-0.0493163987994194,-0.02099609375,0.9965819716453552,0.9980223290847985,-1.0128021240234375,0.5397796630859375,-1.1310577392578125,1.6113416262985787
1782812729.598175,-0.024414055049419403,-0.02685546875,0.9892577528953552,0.9899233121556972,-0.7648468017578125,0.5397796630859375,-0.8296966552734375,1.2508993782923756
1782812729.608852,-0.0502929612994194,-0.015625,0.9838866591453552,0.9852951236180322,-0.644683837890625,0.05340576171875,-0.7038116455078125,0.9559394638650296
1782812729.61953,-0.0395507775247097,-0.0234375037252903,0.9907225966453552,0.9917887093970154,-0.705718994140625,0.110626220703125,-0.6427764892578125,0.9609573739456453
1782812729.627789,-0.0341796837747097,-0.0288085974752903,0.9770507216453552,0.9780727471610391,-1.5621185302734375,0.1735687255859375,-0.3986358642578125,1.6214965178494045
1782812729.636046,-0.0507812462747097,-0.0239257849752903,0.9858397841453552,0.9874367109661546,-1.7452239990234375,0.1125335693359375,-0.3414154052734375,1.7818628145715572
1782812729.644303,-0.0419921875,-0.02197265625,0.9809569716453552,0.9821011768923515,-2.2945404052734375,-0.3147125244140625,-0.6427764892578125,2.4035642823935586
1782812729.65256,-0.0395507775247097,-0.0283203162252903,0.9892577528953552,0.9904530306771125,-2.4127960205078125,-0.1316070556640625,-0.2155303955078125,2.4259757634953103
1782812729.66285,-0.0356445275247097,-0.0268554724752903,0.9936522841453552,0.994654015490619,-2.2335052490234375,-0.1926422119140625,-0.1583099365234375,2.247380420673911
1782812729.673141,-0.0517578087747097,-0.0288085974752903,0.9868163466453552,0.988592589525199,-2.4776458740234375,-0.0095367431640625,-0.3414154052734375,2.5010766692553763
1782812729.68343,-0.0351562425494194,-0.02685546875,0.9951171278953552,0.9961000330401945,-1.9893646240234375,-0.3147125244140625,-0.3414154052734375,2.042836278142967
1782812729.691445,-0.0361328050494194,-0.03125,0.9897460341453552,0.9908982562338062,-1.9893646240234375,-0.0095367431640625,-0.1583099365234375,1.9956764749798863
1782812729.69946,-0.0385742112994194,-0.0224609375,0.9858397841453552,0.9868498079720701,-1.7452239990234375,0.1735687255859375,-0.4596710205078125,1.8130720769907576
1782812729.707475,-0.0405273400247097,-0.0292968712747097,0.9921874403953552,0.9934468726782786,-1.499176025390625,0.415802001953125,-0.2765655517578125,1.5801609298908013
1782812729.71549,-0.0395507737994194,-0.037109375,0.9838866591453552,0.9853802958580163,-1.5621185302734375,0.3566741943359375,-0.3414154052734375,1.6382903474313886
1782812729.726147,-0.0346679612994194,-0.02587890625,0.9902343153953552,0.9911788863347837,-1.499176025390625,0.232696533203125,-0.5245208740234375,1.605240972239712
1782812729.736804,-0.0400390587747097,-0.0395507775247097,1.01318359375,1.0147454778783391,-1.132965087890625,0.293731689453125,-0.3414154052734375,1.2192016546601403
1782812729.747461,-0.0356445275247097,-0.0356445275247097,0.9819335341453552,0.9832265914651145,-1.4362335205078125,0.6618499755859375,-0.3986358642578125,1.630865619199186
1782812729.758138,-0.0400390587747097,-0.0283203162252903,0.9926757216453552,0.9938864396312045,-1.438140869140625,0.293731689453125,-0.6427764892578125,1.6024010359532779
1782812729.768815,-0.0312499962747097,-0.0410156212747097,0.9946288466453552,0.9959645505914301,-1.438140869140625,0.232696533203125,-0.7038116455078125,1.6179455084797263
1782812729.779492,-0.0385742112994194,-0.0283203125,1.0087890625,1.0099234537810768,-1.438140869140625,0.293731689453125,-0.8869171142578125,1.7149779685013289
1782812729.790168,-0.0405273362994194,-0.0263671875,0.9921874403953552,0.993364792230162,-1.7452239990234375,0.1735687255859375,-0.9479522705078125,1.9936264485679867
1782812729.800847,-0.03662109375,-0.0263671875,0.9892577528953552,0.9902864407572559,-1.7452239990234375,0.7228851318359375,-0.9479522705078125,2.1135238886177126
1782812729.811526,-0.0356445237994194,-0.04150390625,0.9809569716453552,0.9824813924601943,-1.6841888427734375,0.5397796630859375,-1.1920928955078125,2.132824328050461
1782812729.822181,-0.030761711299419403,-0.0263671875,0.9936522841453552,0.9944779400499594,-1.8672943115234375,0.6008148193359375,-0.8296966552734375,2.1298269959678398
1782812729.832834,-0.0361328087747097,-0.0205078087747097,0.9907225966453552,0.9915933710924075,-1.926422119140625,0.782012939453125,-1.0700225830078125,2.3382888501494175
1782812729.843487,-0.03662109375,-0.0263671875,1.001953125,1.0029687920276344,-1.7452239990234375,0.6618499755859375,-1.4362335205078125,2.3551260947942323
1782812729.851526,-0.0371093712747097,-0.0180664099752903,0.9960936903953552,0.9969484142377866,-1.8062591552734375,0.1735687255859375,-1.3751983642578125,2.2768110987888304
1782812729.859566,-0.0483398362994194,-0.03515625,0.9931640028953552,0.9949610235253652,-1.682281494140625,0.415802001953125,-1.0700225830078125,2.0366420054842607
1782812729.867606,-0.0400390587747097,-0.0424804724752903,0.9819335341453552,0.9836672111280705,-1.804351806640625,0.05340576171875,-1.0700225830078125,2.0984484615207393
1782812729.875646,-0.0405273362994194,-0.03564453125,0.9877929091453552,0.9892663084091171,-1.8672943115234375,0.1735687255859375,-0.8296966552734375,2.050685419102902
1782812729.886265,-0.0532226487994194,-0.02197265625,0.9970702528953552,0.9987314639965613,-1.5621185302734375,-0.0095367431640625,-1.1310577392578125,1.9286256406127176
1782812729.896884,-0.0307617150247097,-0.0302734337747097,0.9863280653953552,0.9872719060574535,-1.621246337890625,0.05340576171875,-0.8869171142578125,1.848760079369935
1782812729.907503,-0.04248046875,-0.0361328125,0.9877929091453552,0.9893659594519228,-1.438140869140625,-0.255584716796875,-0.7648468017578125,1.6488066403043886
1782812729.918143,-0.0385742112994194,-0.04541015625,0.9809569716453552,0.9827647899104077,-1.438140869140625,-0.255584716796875,-0.7038116455078125,1.6213955530052209
1782812729.928783,-0.0419921837747097,-0.0385742150247097,0.9853515028953552,0.9869999482376262,-1.438140869140625,-0.43487548828125,-0.6427764892578125,1.6341748575177035
1782812729.939423,-0.0410156212747097,-0.0166015662252903,0.9965819716453552,0.9975637921447563,-1.255035400390625,-0.377655029296875,-0.8296966552734375,1.55117172394252
1782812729.947446,-0.0419921837747097,-0.0249023400247097,0.9858397841453552,0.9870478965281451,-1.1959075927734375,-0.1926422119140625,-1.1920928955078125,1.6995268352645982
1782812729.955469,-0.0258789025247097,-0.0190429724752903,0.9990233778953552,0.9995399251545802,-1.2531280517578125,0.6618499755859375,-0.8869171142578125,1.6718245338099458
1782812729.963492,-0.033203125,-0.02783203125,0.9897460341453552,0.9906938384686388,-1.621246337890625,1.087188720703125,-1.0700225830078125,2.226065437199583
1782812729.971515,-0.0356445275247097,-0.0200195275247097,0.9975585341453552,0.9983958848427823,-1.621246337890625,1.087188720703125,-1.2531280517578125,2.3196441357781996
1782812729.982209,-0.04296875,-0.0302734375,0.9975585341453552,0.9989423524612713,-1.682281494140625,1.270294189453125,-1.1920928955078125,2.421735704986526
1782812729.992903,-0.03662109375,-0.0263671875,0.9965819716453552,0.9976031070985345,-1.9245147705078125,0.8449554443359375,-1.0700225830078125,2.3585281709071
1782812730.003597,-0.04248046875,-0.021484375,0.9858397841453552,0.9869884743998386,-1.987457275390625,0.415802001953125,-0.7648468017578125,2.1697622811014363
1782812730.014227,-0.0498046800494194,-0.02734375,0.9887694716453552,0.9904005527445562,-2.0503997802734375,0.2956390380859375,-0.4596710205078125,2.121989431378119
1782812730.024855,-0.0483398362994194,-0.02099609375,0.9873046278953552,0.988710273027341,-2.2335052490234375,-0.1926422119140625,-0.4596710205078125,2.2884392424360067
1782812730.035483,-0.0458984337747097,-0.0473632849752903,0.9907225966453552,0.9929155102476429,-2.292633056640625,-0.255584716796875,-0.3414154052734375,2.331963627250541
1782812730.043482,-0.0336913987994194,-0.0283203125,1.00146484375,1.0024315356773106,-2.414703369140625,-0.255584716796875,-0.0934600830078125,2.4299898550230723
1782812730.051483,-0.0385742112994194,-0.03662109375,0.9921874403953552,0.9936120929030127,-2.292633056640625,-0.377655029296875,-0.0934600830078125,2.3254084459875832
1782812730.059484,-0.0336913987994194,-0.01318359375,0.9809569716453552,0.9816239084888126,-2.414703369140625,-0.43487548828125,-0.0362396240234375,2.4538179153303736
1782812730.067485,-0.0322265625,-0.0166015625,0.9912108778953552,0.9918735643548973,-2.3555755615234375,0.1125335693359375,-0.2765655517578125,2.3744238321523494
1782812730.078132,-0.0180664025247097,-0.0341796837747097,0.9853515028953552,0.9861096439753844,-2.0503997802734375,0.0514984130859375,-0.2765655517578125,2.069608622400582
1782812730.088779,-0.02734375,-0.03662109375,0.9995116591453552,1.0005560163923906,-1.499176025390625,0.293731689453125,-0.5817413330078125,1.6346957022714428
1782812730.099426,-0.0434570237994194,-0.013671875,0.9897460341453552,0.9907939468880387,-1.4362335205078125,0.3566741943359375,-0.4596710205078125,1.5496066124762597
1782812730.107437,-0.0366210900247097,-0.007812503725290298,0.9990233778953552,0.9997248866715789,-1.3790130615234375,0.2956390380859375,-0.1583099365234375,1.419204530959043
1782812730.115451,-0.030761711299419403,-0.01123046875,0.9750975966453552,0.9756473385880583,-1.316070556640625,0.598907470703125,-0.1583099365234375,1.4545768816128055
1782812730.123466,-0.04248046875,0.0029296875,0.9897460341453552,0.9906615897472386,-1.132965087890625,0.35858154296875,-0.1583099365234375,1.1988547240341159
1782812730.131479,-0.0341796800494194,-0.0244140625,0.9741210341453552,0.9750261976687862,-1.3179779052734375,0.6618499755859375,-0.2765655517578125,1.5005331230569912
1782812730.142167,-0.0419921837747097,-0.008300784975290298,0.9892577528953552,0.990183391192229,-1.2531280517578125,0.8449554443359375,-0.2155303955078125,1.5266738251516028
1782812730.152855,-0.0356445275247097,-0.015136715024709702,0.9755858778953552,0.9763541660857754,-1.6841888427734375,0.5397796630859375,-0.0934600830078125,1.771041764024645
1782812730.163543,-0.0473632775247097,-0.0029296912252902985,0.9658202528953552,0.9669853277332631,-2.2335052490234375,0.4177093505859375,-0.2765655517578125,2.288998755657433
1782812730.171551,-0.033203125,-0.0068359375,0.9580077528953552,0.9586073399254136,-3.3321380615234375,-0.4367828369140625,0.2117156982421875,3.367305576355975
1782812730.179559,-0.0390624925494194,-0.00634765625,0.9614257216453552,0.9622398813733162,-4.3087005615234375,-0.3147125244140625,0.3299713134765625,4.332761887019976
1782812730.187566,-0.03662109375,-0.00146484375,0.9599608778953552,0.9606602611559819,-5.1021575927734375,-0.3147125244140625,0.2117156982421875,5.116236860369239
1782812730.195574,-0.0356445275247097,-0.009277347475290298,0.9472655653953552,0.9479813568327276,-6.198883056640625,-0.43487548828125,0.0286102294921875,6.214184289626891
1782812730.206223,-0.033203125,-0.01318359375,0.9594725966453552,0.9601374476434669,-7.114410400390625,-0.072479248046875,-0.0362396240234375,7.114871881976027
1782812730.216872,-0.0283203125,-0.02099609375,0.9741210341453552,0.9747587728342191,-8.213043212890625,0.05340576171875,0.0286102294921875,8.213266678820622
1782812730.227521,-0.0356445275247097,-0.0195312462747097,0.9716796278953552,0.9725293317892058,-8.640289306640625,0.293731689453125,0.0896453857421875,8.645745422057152
1782812730.235501,-0.029785148799419403,-0.025390625,0.9912108778953552,0.991983287855685,-9.067535400390625,0.110626220703125,-0.3414154052734375,9.074635027206453
1782812730.243483,-0.030273430049419403,-0.03173828125,0.9873046278953552,0.9882784158966779,-9.189605712890625,-0.072479248046875,-0.2155303955078125,9.192418601824942
1782812730.251466,-0.0458984337747097,-0.0419921912252903,0.9902343153953552,0.9921864793139346,-9.006500244140625,0.293731689453125,-0.3986358642578125,9.020101745843375
1782812730.259447,-0.04296875,-0.041015625,0.9960936903953552,0.9978633348390655,-8.884429931640625,-0.255584716796875,-0.9479522705078125,8.93851398526919
1782812730.270109,-0.0205078087747097,-0.0581054650247097,0.9926757216453552,0.9945862977291636,-8.459091186523438,-0.3147125244140625,-1.0128021240234375,8.525317344085671
1782812730.280771,-0.0463867150247097,-0.0541992150247097,0.9995116591453552,1.002054309410213,-8.092880249023438,0.1735687255859375,-1.0700225830078125,8.165156774715467
1782812730.291434,-0.0366210900247097,-0.0605468712747097,0.9936522841453552,0.9961686050278015,-7.9669952392578125,0.1735687255859375,-0.8869171142578125,8.018089623621176
1782812730.302118,-0.0307617150247097,-0.06396484375,0.9902343153953552,0.9927747900373635,-7.419586181640625,0.110626220703125,-1.3179779052734375,7.536548482315265
1782812730.312803,-0.0268554650247097,-0.0595703087747097,1.01025390625,1.012364950392195,-6.9904327392578125,0.4787445068359375,-1.6193389892578125,7.191495320657838
1782812730.323488,-0.0351562462747097,-0.0625,1.01220703125,1.0147439508388638,-5.9566497802734375,0.3566741943359375,-1.5010833740234375,6.153222276296084
1782812730.334183,-0.0351562425494194,-0.06591796875,0.9960936903953552,0.9988912753847424,-5.405426025390625,0.476837158203125,-1.5010833740234375,5.630209186804972
1782812730.344877,-0.0410156212747097,-0.0751953125,0.9951171278953552,0.9987966331747539,-4.7969818115234375,0.8449554443359375,-1.2531280517578125,5.029444712600185
1782812730.355572,-0.0322265587747097,-0.07763671875,1.01025390625,1.0137450203488598,-4.6138763427734375,0.8449554443359375,-1.5010833740234375,4.924942223527797
1782812730.363751,-0.0302734337747097,-0.0791015625,1.0009765625,1.0045534414140294,-3.6983489990234375,1.5163421630859375,-1.7414093017578125,4.35999830623573
1782812730.371934,-0.0498046837747097,-0.06298828125,1.00146484375,1.0046789852325666,-3.6373138427734375,1.5163421630859375,-1.8062591552734375,4.334964553764254
1782812730.380117,-0.0468749962747097,-0.068359375,1.00439453125,1.007808832979277,-3.391265869140625,1.575469970703125,-1.9245147705078125,4.205537650014343
1782812730.3883,-0.025878898799419403,-0.07080078125,0.9980468153953552,1.0008895612151678,-2.8438568115234375,1.6384124755859375,-1.7414093017578125,3.715430440857765
1782812730.39773,-0.0444335900247097,-0.07275390625,0.9921874403953552,0.9958430557449323,-2.6607513427734375,2.3097991943359375,-1.9893646240234375,4.046275031870858
1782812730.407159,-0.0361328087747097,-0.0888671875,0.9794921278953552,0.9841787365580913,-2.414703369140625,1.880645751953125,-1.9893646240234375,3.650368805010575
1782812730.416588,-0.024414055049419403,-0.0712890625,0.9843749403953552,0.9872548808663567,-2.353668212890625,1.880645751953125,-2.5959014892578125,3.976843854445635
1782812730.426017,-0.0454101525247097,-0.06298828125,0.9882811903953552,0.9913270483631559,-2.780914306640625,2.00653076171875,-2.9659271240234375,4.533913737999442
1782812730.435446,-0.0556640550494194,-0.05126953125,0.9833983778953552,0.9863059472123016,-3.147125244140625,1.758575439453125,-2.8400421142578125,4.5894252460752565
1782812730.445058,-0.0439453087747097,-0.07861328125,0.9902343153953552,0.9943214960658872,-3.086090087890625,1.758575439453125,-3.2711029052734375,4.828732113475839
1782812730.45467,-0.0273437462747097,-0.08349609375,0.9829100966453552,0.9868290308960443,-3.1490325927734375,1.8215179443359375,-2.9010772705078125,4.653018721361894
1782812730.464282,-0.0507812462747097,-0.072265625,0.9985350966453552,1.0024337358461168,-3.452301025390625,1.70135498046875,-2.9010772705078125,4.8196722366708755
1782812730.473894,-0.0493164025247097,-0.0732421875,0.9848632216453552,0.988813476312612,-3.391265869140625,1.70135498046875,-3.0841827392578125,4.889527189197311
1782812730.483506,-0.0537109337747097,-0.0771484375,0.9833983778953552,0.9878811241555628,-3.6373138427734375,1.4553070068359375,-3.1490325927734375,5.026368146617043
1782812730.493113,-0.0463867150247097,-0.07470703125,0.9960936903953552,0.9999677534272842,-3.452301025390625,1.575469970703125,-2.9659271240234375,4.816348378545556
1782812730.502721,-0.0449218712747097,-0.0869140625,0.9951171278953552,0.9999150598974776,-3.757476806640625,1.270294189453125,-3.1490325927734375,5.064453134401581
1782812730.51233,-0.0351562425494194,-0.08056640625,1.00048828125,1.0043424257317883,-3.8204193115234375,1.2722015380859375,-2.9010772705078125,4.962897318988828
1782812730.521937,-0.04248046875,-0.09033203125,0.9931640028953552,0.9981679231181975,-3.391265869140625,1.575469970703125,-3.0841827392578125,4.847161333494197
1782812730.531545,-0.0439453050494194,-0.0888671875,0.9926757216453552,0.9976139810538811,-3.818511962890625,1.087188720703125,-3.1490325927734375,5.067486477092199
1782812730.541124,-0.0507812462747097,-0.07861328125,0.9916991591453552,0.9961054187241976,-3.6373138427734375,1.5163421630859375,-3.0231475830078125,4.966766237203981
1782812730.550703,-0.06494140625,-0.08935546875,0.9985350966453552,1.0046263610287203,-3.2100677490234375,1.2722015380859375,-3.3283233642578125,4.795911605095852
