timestamp,accel_x,accel_y,accel_z,accel_rms,gyro_x,gyro_y,gyro_z,gyro_rms
1781869755.866242,-0.11962890625,-0.0283203162252903,0.9897460341453552,0.9973516569536195,-0.3681182861328125,0.1354217529296875,0.4863739013671875,0.6248277328056487
1781869755.874254,-0.1196288987994194,-0.03076171875,0.9995116591453552,1.0071151441299633,-0.0019073486328125,0.1354217529296875,0.6084442138671875,0.6233354237758482
1781869755.882266,-0.1103515625,-0.0302734337747097,1.00146484375,1.007981042185772,0.423431396484375,-0.1678466796875,0.4253387451171875,0.6232011741875091
1781869755.890278,-0.1108398362994194,-0.02197265625,0.9912108778953552,0.9976308292107073,0.5474090576171875,0.0743865966796875,0.4863739013671875,0.7360364216926105
1781869755.900948,-0.12353515625,-0.013671878725290298,0.9819335341453552,0.9897683166159535,0.2422332763671875,-0.3528594970703125,0.2384185791015625,0.489928774122427
1781869755.911618,-0.1108398362994194,-0.021484375,0.9790038466453552,0.9854925567585099,0.118255615234375,-0.476837158203125,0.0553131103515625,0.4943860901708873
1781869755.922288,-0.1166992112994194,-0.0224609375,0.9873046278953552,0.9944313087865201,0.423431396484375,-0.782012939453125,0.0553131103515625,0.8910094978043663
1781869755.930487,-0.119140625,-0.0244140587747097,0.9985350966453552,1.0059139496118912,1.2798309326171875,-0.3528594970703125,0.0553131103515625,1.3287349551107843
1781869755.938686,-0.1137695237994194,-0.02587890625,0.9829100966453552,0.9898108306245312,1.0356903076171875,-0.2918243408203125,-0.1239776611328125,1.083137257990582
1781869755.946885,-0.1142578050494194,-0.015625,0.9780272841453552,0.9848026986013242,0.789642333984375,0.072479248046875,-0.1850128173828125,0.8142591722625282
1781869755.955084,-0.1210937425494194,-0.02685546875,0.9819335341453552,0.9897365185571333,0.5474090576171875,0.6847381591796875,-0.0629425048828125,0.878911134255931
1781869755.965489,-0.1240234300494194,-0.01220703125,0.9916991591453552,0.9994988969792644,0.789642333984375,1.171112060546875,0.3643035888671875,1.4586828232484783
1781869755.975894,-0.11865234375,-0.0185546912252903,0.9887694716453552,0.9960360050227446,0.423431396484375,0.865936279296875,0.0553131103515625,0.9655047009248519
1781869755.986299,-0.1127929612994194,-0.00830078125,0.9956054091453552,1.00200862561534,0.3032684326171875,0.6237030029296875,0.1811981201171875,0.7168053688551712
1781869755.99697,-0.109375,-0.0380859412252903,0.9785155653953552,0.9853456963243956,0.1811981201171875,0.2574920654296875,-0.1239776611328125,0.33838644026203485
1781869756.00764,-0.1142578125,-0.0229492224752903,0.9770507216453552,0.9839764363018125,-0.3070831298828125,0.1964569091796875,-0.4329681396484375,0.5660006853120314
1781869756.01831,-0.1137695237994194,-0.00537109375,0.9838866591453552,0.9904571223621073,-0.3070831298828125,-0.1087188720703125,-0.7953643798828125,0.8594907437484339
1781869756.028982,-0.1279296875,-0.0126953125,0.9892577528953552,0.9975761011406037,-0.4291534423828125,-0.5359649658203125,-1.2264251708984375,1.405542536357064
1781869756.039653,-0.1225585862994194,-0.01904296875,0.9887694716453552,0.9965180930582046,-0.6122589111328125,-0.5970001220703125,-1.5926361083984375,1.807694635105173
1781869756.050324,-0.1352538913488388,-0.0190429724752903,0.9843749403953552,0.9938059534959817,-0.6732940673828125,-1.0242462158203125,-1.4667510986328125,1.9114821466955123
1781869756.058376,-0.1240234375,-0.0283203162252903,0.9965819716453552,1.0046688407475173,-0.732421875,-0.965118408203125,-0.9784698486328125,1.5573370186040556
1781869756.06643,-0.13232421875,-0.02294921875,0.9892577528953552,0.9983322428793938,-0.732421875,-0.965118408203125,-0.6732940673828125,1.386080894466099
1781869756.074484,-0.1298828125,-0.0224609375,0.9770507216453552,0.9859016945740576,-0.492095947265625,-0.782012939453125,-0.2498626708984375,0.9571488980800588
1781869756.082538,-0.1201171875,-0.0273437537252903,0.9868163466453552,0.9944759029796475,-0.6732940673828125,-0.7190704345703125,0.0553131103515625,0.9866340411838593
1781869756.093095,-0.1225585862994194,-0.03759765625,0.9921874403953552,1.000434959259967,-0.3070831298828125,-0.5359649658203125,0.3032684326171875,0.6881353322330417
1781869756.103652,-0.1142578050494194,-0.04052734375,0.9873046278953552,0.9947199303672002,-0.3681182861328125,-0.3528594970703125,0.8525848388671875,0.9934393815046095
1781869756.114209,-0.1132812425494194,-0.0126953125,0.9877929091453552,0.9943483505446454,-0.1239776611328125,-0.2307891845703125,0.6694793701171875,0.7189135797765253
1781869756.124887,-0.1123046800494194,-0.0234375,0.9780272841453552,0.9847329719776787,0.5474090576171875,0.1964569091796875,0.2384185791015625,0.6285661559347443
1781869756.135566,-0.1103515550494194,-0.021484375,0.9897460341453552,0.9961105642334209,0.606536865234375,0.255584716796875,-0.1850128173828125,0.6836960281765626
1781869756.146245,-0.0908203125,-0.0302734337747097,0.9790038466453552,0.9836733917828171,0.606536865234375,0.743865966796875,-0.6122589111328125,1.138457078553482
1781869756.156912,-0.115234375,-0.0322265662252903,0.9858397841453552,0.9930748173003252,0.3032684326171875,0.6237030029296875,-0.6732940673828125,0.9665930266965962
1781869756.167579,-0.1259765625,-0.02978515625,0.9809569716453552,0.9894613838102928,0.606536865234375,0.743865966796875,-0.6122589111328125,1.138457078553482
1781869756.178246,-0.1210937425494194,-0.0185546875,0.9912108778953552,0.9987527098190665,0.301361083984375,0.377655029296875,-0.6732940673828125,0.8287138983185647
1781869756.188906,-0.13232421875,-0.02001953125,0.9916991591453552,1.000688614279623,0.484466552734375,-0.110626220703125,-0.2498626708984375,0.5562170041754264
1781869756.199567,-0.1181640550494194,-0.013671875,0.9780272841453552,0.9852345064016369,0.2422332763671875,0.2574920654296875,-0.1850128173828125,0.39900985769120373
1781869756.210228,-0.1176757737994194,-0.02685546875,0.9804686903953552,0.987870263135123,0.1811981201171875,0.3185272216796875,-0.0019073486328125,0.3664641696861926
1781869756.220894,-0.12744140625,-0.017578125,0.9985350966453552,1.0067882804929953,0.1811981201171875,0.7457733154296875,0.3032684326171875,0.8252165406504383
1781869756.231562,-0.1166992112994194,-0.01513671875,0.9897460341453552,0.9967171305234408,0.3032684326171875,0.1354217529296875,0.4253387451171875,0.539651592684112
1781869756.24223,-0.1259765625,-0.0234375,0.9873046278953552,0.995585174140893,0.362396240234375,0.011444091796875,0.5435943603515625,0.6534193376225489
1781869756.250322,-0.1147460862994194,-0.005859375,0.9868163466453552,0.9934825104665458,0.1811981201171875,0.0743865966796875,0.6084442138671875,0.6391951860645143
1781869756.258412,-0.1132812425494194,-0.03125,0.9833983778953552,0.9903946547012238,0.0591278076171875,-0.2307891845703125,0.5435943603515625,0.5935103823474946
1781869756.266502,-0.1235351487994194,-0.0224609375,0.9809569716453552,0.9889600633604473,0.0591278076171875,-0.5970001220703125,1.0318756103515625,1.1935964638955634
1781869756.274592,-0.1132812425494194,-0.015625,0.9887694716453552,0.9953601602416963,0.1811981201171875,-0.3528594970703125,0.2384185791015625,0.4628023360653278
1781869756.282498,-0.115234375,-0.0058593712747097015,0.9799804091453552,0.9867496621342585,0.0591278076171875,-0.5970001220703125,0.3032684326171875,0.6722179598966906
1781869756.290404,-0.1093749925494194,-0.0263671875,0.9877929091453552,0.9941795355617061,-0.3070831298828125,-0.3528594970703125,-0.1239776611328125,0.48392182611585177
1781869756.29831,-0.1235351487994194,-0.0244140625,0.9916991591453552,0.9996620437359084,-0.2460479736328125,-0.4138946533203125,-0.4901885986328125,0.6871195322544363
1781869756.306216,-0.125,-0.0283203162252903,0.9819335341453552,0.9902628468191099,-0.1239776611328125,-0.6580352783203125,-0.1239776611328125,0.6809929136444931
1781869756.316879,-0.1201171875,-0.014160159975290298,0.9892577528953552,0.9966240768348935,-0.4291534423828125,-0.8411407470703125,-0.2498626708984375,0.9767915784851559
1781869756.327542,-0.13232421875,-0.025390625,0.9868163466453552,0.9959723312985027,-0.4901885986328125,-0.4138946533203125,-0.1239776611328125,0.6534249052008232
1781869756.338205,-0.1035156175494194,-0.029296875,0.9838866591453552,0.9897508514801144,-0.4901885986328125,-0.6580352783203125,-0.2498626708984375,0.8577450927007351
1781869756.346223,-0.115234375,-0.0224609412252903,0.9921874403953552,0.99910928928754,-0.370025634765625,-0.293731689453125,0.0553131103515625,0.4756646044740505
1781869756.354244,-0.1108398362994194,-0.03955078125,0.9838866591453552,0.9908999402828601,-0.7953643798828125,0.0743865966796875,0.1201629638671875,0.8078223817382781
1781869756.362265,-0.1137695237994194,-0.02197265625,0.9912108778953552,0.9979605736833034,-0.7343292236328125,0.0743865966796875,0.2384185791015625,0.7756392159422857
1781869756.370286,-0.1127929612994194,-0.03125,0.9877929091453552,0.9947027927861348,-0.3070831298828125,0.3185272216796875,0.4863739013671875,0.6575098566110957
1781869756.380942,-0.1171874925494194,-0.02587890625,0.9848632216453552,0.9921482709496522,-0.1239776611328125,0.4405975341796875,0.8525848388671875,0.9676763689640103
1781869756.391598,-0.1010742112994194,-0.02197265625,0.9887694716453552,0.9941649067787071,-0.308990478515625,0.499725341796875,0.7915496826171875,0.985774534616658
1781869756.402254,-0.11376953125,-0.0283203162252903,0.9990233778953552,1.00587934471953,0.1811981201171875,0.7457733154296875,1.0318756103515625,1.2859929517611675
1781869756.410267,-0.1015624925494194,-0.0146484375,0.9921874403953552,0.9974795403878361,0.5474090576171875,0.5626678466796875,0.4253387451171875,0.8928408761623525
1781869756.41828,-0.1118163987994194,-0.02685546875,0.9882811903953552,0.9949491617824066,0.423431396484375,0.8087158203125,0.1201629638671875,0.9207358814762108
1781869756.426293,-0.11474609375,-0.0332031287252903,0.9790038466453552,0.9862644906587859,0.3032684326171875,0.6237030029296875,0.1201629638671875,0.7038581646688077
1781869756.434306,-0.1132812425494194,-0.021484375,0.9843749403953552,0.9911045563214005,0.301361083984375,0.072479248046875,-0.3681182861328125,0.4812305236817768
1781869756.444995,-0.1191406175494194,-0.0126953125,0.9785155653953552,0.9858237009884279,0.423431396484375,0.011444091796875,-0.9212493896484375,1.0139652620742892
1781869756.455684,-0.1181640550494194,-0.00830078125,0.9780272841453552,0.9851746116338067,0.2422332763671875,-0.0476837158203125,-0.6732940673828125,0.7171301123972593
1781869756.466373,-0.1181640550494194,-0.0185546875,0.9819335341453552,0.9891918346878589,0.0591278076171875,-0.5970001220703125,-0.7953643798828125,0.9962478306987443
1781869756.474382,-0.1318359375,-0.01220703125,0.9848632216453552,0.9937229449791881,-0.1239776611328125,-0.4749298095703125,-0.2498626708984375,0.5507813892888509
1781869756.482391,-0.13134765625,-0.02587890625,0.9873046278953552,0.996339476711954,-0.1850128173828125,-0.0476837158203125,0.1201629638671875,0.22570471248005713
1781869756.4904,-0.1220703050494194,-0.02197265625,0.9780272841453552,0.985860702903954,-0.064849853515625,-0.293731689453125,0.3643035888671875,0.4724414394943545
1781869756.498409,-0.1069335862994194,-0.03759765625,0.9814452528953552,0.987969210079533,0.0591278076171875,-0.2307891845703125,0.4253387451171875,0.4875169673417621
1781869756.50908,-0.1113281175494194,-0.025390625,0.9868163466453552,0.9934007930344498,-0.0019073486328125,-0.2307891845703125,0.5435943603515625,0.5905608472456172
1781869756.519751,-0.1103515625,-0.0258789025247097,0.9882811903953552,0.9947597178370942,0.118255615234375,0.194549560546875,0.1201629638671875,0.25743554519294676
1781869756.530422,-0.1186523362994194,-0.025390625,0.9843749403953552,0.991825127744584,0.0591278076171875,0.2574920654296875,0.0553131103515625,0.2699218434466276
1781869756.541016,-0.1108398362994194,-0.01806640625,0.9897460341453552,0.9960969212140608,0.301361083984375,0.072479248046875,-0.2498626708984375,0.39812447632138726
1781869756.551611,-0.1225585862994194,-0.013671875,0.9794921278953552,0.9872245721469349,0.2422332763671875,0.1354217529296875,-0.4901885986328125,0.5632946596371495
1781869756.562206,-0.1240234300494194,-0.0224609375,0.9868163466453552,0.9948330547991899,0.0591278076171875,0.1354217529296875,-0.8563995361328125,0.8690542642946186
1781869756.570209,-0.1127929612994194,-0.02001953125,0.9868163466453552,0.9934432725408371,0.1811981201171875,0.1354217529296875,-1.3446807861328125,1.363575530176202
1781869756.578212,-0.1220703050494194,-0.017578125,0.9970702528953552,1.0046687210529557,-0.1239776611328125,0.2574920654296875,-1.5277862548828125,1.554285515865106
1781869756.586215,-0.134765625,-0.015625,0.9824218153953552,0.9917451979572909,-0.186920166015625,0.194549560546875,-1.2264251708984375,1.2557497281646341
1781869756.594218,-0.130859375,-0.01123046875,0.9804686903953552,0.9892265424559322,-0.553131103515625,0.011444091796875,-0.7953643798828125,0.9688598875481631
1781869756.60494,-0.13720703125,-0.021484375,0.9843749403953552,0.9941234184304977,-0.553131103515625,-0.232696533203125,-0.3070831298828125,0.6740932746288086
1781869756.615662,-0.12646484375,-0.021484375,1.00341796875,1.01158418091834,-0.3070831298828125,-0.4138946533203125,-0.2498626708984375,0.5727479262417865
1781869756.626384,-0.1259765625,-0.0224609375,0.9941405653953552,1.0023422827444186,-0.553131103515625,-0.415802001953125,0.1201629638671875,0.7023421248864307
1781869756.634504,-0.1162109300494194,-0.02294921875,0.9838866591453552,0.9909917279919115,-0.186920166015625,-0.293731689453125,0.3032684326171875,0.4617241558272444
1781869756.642626,-0.1166992112994194,-0.02001953125,0.9965819716453552,1.0035911088475824,-0.064849853515625,-0.3509521484375,0.0553131103515625,0.36115433566642835
1781869756.650748,-0.1162109300494194,-0.01953125,0.9902343153953552,0.9972213642797778,0.0591278076171875,-0.1087188720703125,-0.2498626708984375,0.27883192981858623
1781869756.65887,-0.1171874925494194,-0.03759765625,0.9790038466453552,0.9867091891291555,0.2422332763671875,-0.3528594970703125,-0.1850128173828125,0.4662794520973684
1781869756.66935,-0.1069335862994194,-0.02197265625,0.9814452528953552,0.987498037432158,0.2422332763671875,-0.3528594970703125,-0.7381439208984375,0.8532544947503148
1781869756.67983,-0.1245117112994194,-0.0205078125,0.9956054091453552,1.003570559225277,0.606536865234375,-0.598907470703125,-0.5512237548828125,1.0150983968559224
1781869756.69031,-0.115234375,-0.0249023400247097,0.9814452528953552,0.9885008205111286,0.5474090576171875,-0.3528594970703125,-0.7953643798828125,1.0279936759632435
1781869756.700995,-0.115234375,-0.0219726599752903,0.9980468153953552,1.004917511385308,0.606536865234375,-0.476837158203125,-1.4667510986328125,1.6572928014301327
1781869756.711678,-0.1240234375,-0.0195312462747097,0.9790038466453552,0.9870216889089936,0.6084442138671875,-0.5359649658203125,-0.9784698486328125,1.2707737999576272
1781869756.722361,-0.12841796875,-0.0322265625,0.9819335341453552,0.9908194545464022,0.5474090576171875,-0.6580352783203125,-0.5512237548828125,1.0180936753671224
1781869756.730386,-0.1206054612994194,-0.01708984375,0.9770507216453552,0.9846145706429266,0.606536865234375,-0.293731689453125,-0.5512237548828125,0.870639364044859
1781869756.73841,-0.13232421875,-0.015625,0.9746093153953552,0.9836753311678609,-0.0019073486328125,-0.1087188720703125,0.1201629638671875,0.16205730162012164
1781869756.746434,-0.130859375,-0.0234375,0.9814452528953552,0.9904081365086155,-0.003814697265625,-0.476837158203125,0.4863739013671875,0.6811371369185496
1781869756.754458,-0.1210937425494194,-0.02490234375,0.9951171278953552,1.0027671312122117,-0.3070831298828125,-0.6580352783203125,0.6694793701171875,0.9876806686299077
1781869756.765062,-0.1088867112994194,-0.01806640625,0.9926757216453552,0.9987931714206499,-0.1239776611328125,-0.5359649658203125,0.8525848388671875,1.0146574853185282
1781869756.775666,-0.10546875,-0.0224609412252903,0.9921874403953552,0.9980300937274261,0.2422332763671875,-0.5359649658203125,0.6084442138671875,0.8462504157486782
1781869756.78627,-0.1025390550494194,-0.02734375,0.9999999403953552,1.0056151447075588,0.3643035888671875,-0.1087188720703125,-0.0019073486328125,0.3801848707991427
1781869756.79692,-0.099609375,-0.0190429724752903,0.9824218153953552,0.9876422863331089,0.6084442138671875,0.6237030029296875,-0.9212493896484375,1.268034003952413
1781869756.807571,-0.115234375,-0.0180664099752903,0.9829100966453552,0.9898068571385114,0.6694793701171875,1.1119842529296875,-1.2836456298828125,1.8255020429715612
1781869756.818222,-0.1127929612994194,-0.03125,0.9921874403953552,0.9990669304390867,0.423431396484375,0.926971435546875,-1.4095306396484375,1.7393524122374613
1781869756.826241,-0.1142578050494194,-0.03076171875,0.9863280653953552,0.9934003130368488,0.4863739013671875,0.7457733154296875,-1.1043548583984375,1.4185686670747948
1781869756.83426,-0.10986328125,-0.0190429724752903,0.9887694716453552,0.9950365035643397,0.3643035888671875,0.5626678466796875,-0.9212493896484375,1.1393035804719862
1781869756.842279,-0.1279296875,-0.01806640625,0.9804686903953552,0.988944514532651,0.301361083984375,0.865936279296875,-1.2264251708984375,1.531268377050873
1781869756.850298,-0.12744140625,-0.0078125,0.9736327528953552,0.9819689835701612,-0.003814697265625,0.194549560546875,-0.9212493896484375,0.9415755526519521
1781869756.858291,-0.12744140625,-0.0166015625,0.9790038466453552,0.9874033905404727,-0.4901885986328125,0.5626678466796875,-0.8563995361328125,1.1359137878401042
1781869756.866284,-0.1142578125,-0.0332031287252903,0.9931640028953552,1.0002659806879162,-0.858306884765625,0.072479248046875,-0.6122589111328125,1.056789914834093
1781869756.874277,-0.1328125,-0.02197265625,0.9848632216453552,0.99402088666617,-0.9784698486328125,-0.1697540283203125,-0.7381439208984375,1.237366608072891
1781869756.88227,-0.1318359375,-0.01953125,0.9838866591453552,0.9928721680998389,-0.9174346923828125,-0.1697540283203125,-0.5512237548828125,1.083674523492006
1781869756.890251,-0.1401367038488388,-0.0185546912252903,0.9843749403953552,0.9944730240737766,-1.2226104736328125,-0.8411407470703125,-0.1239776611328125,1.489182523090644
1781869756.898232,-0.134765625,-0.0224609375,0.9863280653953552,0.9957456100739605,-0.9784698486328125,-1.0852813720703125,0.0553131103515625,1.4622921874314665
1781869756.906213,-0.1127929612994194,-0.021484375,0.9824218153953552,0.9891089191047355,-0.858306884765625,-0.904083251953125,-0.1239776611328125,1.252768013384031
1781869756.914194,-0.1210937425494194,-0.03759765625,0.9799804091453552,0.9881492197784786,-0.6122589111328125,-0.9632110595703125,-0.0629425048828125,1.1430652992987864
1781869756.92386,-0.1162109300494194,-0.02587890625,0.9877929091453552,0.9949419728856006,-0.4901885986328125,-1.0852813720703125,-0.1850128173828125,1.2051349556744035
1781869756.933526,-0.1010742112994194,-0.00341796875,0.9785155653953552,0.983727803013195,-0.186920166015625,-0.965118408203125,-0.3070831298828125,1.0298993829372203
1781869756.943192,-0.1127929612994194,-0.0234375,0.9843749403953552,0.9910931297326712,-0.3070831298828125,-1.0242462158203125,-0.0629425048828125,1.0711405688338844
1781869756.952858,-0.1118163987994194,-0.025390625,1.009765625,1.0162549917761792,0.118255615234375,-0.965118408203125,-0.4329681396484375,1.0643774435498072
1781869756.962524,-0.1157226413488388,-0.0239257849752903,0.9804686903953552,0.9875641881685558,-0.064849853515625,-0.6561279296875,-0.2498626708984375,0.7050820646743923
1781869756.972067,-0.12548828125,-0.01953125,0.9794921278953552,0.9876910483884181,0.118255615234375,-0.415802001953125,-0.2498626708984375,0.49930656882439267
1781869756.98161,-0.1166992112994194,-0.0166015625,0.9863280653953552,0.9933465509991425,-0.186920166015625,-0.110626220703125,-0.1850128173828125,0.2853192103001325
1781869756.991153,-0.1093749925494194,-0.02734375,0.9882811903953552,0.9946910479885241,-0.2460479736328125,0.0743865966796875,-0.1239776611328125,0.28538295596331986
1781869757.000696,-0.13037109375,-0.02001953125,0.9902343153953552,0.9989801815369256,0.0591278076171875,0.2574920654296875,-0.3070831298828125,0.4050904961258483
1781869757.010239,-0.1249999925494194,-0.02587890625,0.9853515028953552,0.9935855776852773,-0.1239776611328125,0.2574920654296875,-0.2498626708984375,0.37961029823716563
1781869757.018402,-0.1142578050494194,-0.02734375,0.9853515028953552,0.9923306459728576,-0.1850128173828125,0.6237030029296875,-0.1850128173828125,0.6763615313243071
1781869757.026565,-0.1206054612994194,-0.0322265625,0.9907225966453552,0.9985567045138335,-0.0019073486328125,0.3185272216796875,0.1201629638671875,0.3404443666961386
1781869757.034728,-0.1201171875,-0.014160159975290298,0.9843749403953552,0.9917775315774173,-0.003814697265625,0.377655029296875,0.2384185791015625,0.4466332857381544
1781869757.042891,-0.1162109300494194,-0.02197265625,0.9838866591453552,0.9909695938472785,-0.003814697265625,-0.293731689453125,-0.0019073486328125,0.2937626512731367
1781869757.053466,-0.1142578050494194,-0.02587890625,0.9877929091453552,0.9947157358568585,0.0591278076171875,-0.0476837158203125,0.4863739013671875,0.49226964797678324
1781869757.064041,-0.1162109225988388,-0.009277347475290298,0.9794921278953552,0.9864055333971021,0.06103515625,0.499725341796875,0.1811981201171875,0.5350546385804614
1781869757.074616,-0.1108398362994194,-0.021484375,0.9873046278953552,0.9937391387801975,0.118255615234375,0.499725341796875,0.0553131103515625,0.5164971906460172
1781869757.082529,-0.1088867112994194,-0.02734375,0.9912108778953552,0.9975484955728952,0.1811981201171875,0.4405975341796875,0.1201629638671875,0.49132278976714544
1781869757.090443,-0.1157226487994194,-0.0263671875,0.9848632216453552,0.9919891760354455,0.1201629638671875,0.4405975341796875,-0.1850128173828125,0.49274239477286086
1781869757.098357,-0.10986328125,-0.0297851525247097,0.9877929091453552,0.9943298885358827,0.244140625,0.194549560546875,-0.0629425048828125,0.31845868681085726
1781869757.106271,-0.1240234375,-0.0185546912252903,0.9819335341453552,0.9899088620145643,0.423431396484375,0.438690185546875,0.0553131103515625,0.6122113741189588
1781869757.116936,-0.1298827975988388,-0.0185546912252903,0.9858397841453552,0.9945319993254754,0.423431396484375,0.1373291015625,-0.2498626708984375,0.5104750571508585
1781869757.127601,-0.1166992112994194,-0.01611328125,0.9882811903953552,0.9952778783032448,0.1811981201171875,0.0743865966796875,0.1811981201171875,0.2668311886447908
1781869757.138266,-0.1210937425494194,-0.02001953125,0.9819335341453552,0.9895746265922961,0.0591278076171875,0.1354217529296875,0.1811981201171875,0.23381169246675235
1781869757.148938,-0.11962890625,-0.0278320349752903,0.9887694716453552,0.9963687898761542,-0.3070831298828125,-0.2918243408203125,0.1811981201171875,0.46075400517829135
1781869757.159608,-0.1162109300494194,-0.02880859375,0.9814452528953552,0.9887212447235223,-0.186920166015625,0.011444091796875,0.1201629638671875,0.22250674952843819
1781869757.170278,-0.14306640625,-0.02490234375,0.9721679091453552,0.9829540003955347,-0.064849853515625,0.011444091796875,0.3032684326171875,0.3103356456486088
1781869757.178317,-0.126953125,-0.021484375,0.9985350966453552,1.0068023706512392,-0.244140625,0.011444091796875,0.3643035888671875,0.438694331937351
1781869757.186356,-0.1123046800494194,-0.02880859375,0.9824218153953552,0.9892395562246591,-0.0019073486328125,0.0743865966796875,0.3643035888671875,0.37182537380591224
1781869757.194395,-0.12841796875,-0.01708984375,0.9912108778953552,0.9996410565374735,-0.42724609375,0.011444091796875,0.5435943603515625,0.6914947725527023
1781869757.202434,-0.1245117112994194,-0.0166015625,0.9824218153953552,0.9904198107332348,-0.1239776611328125,-0.1697540283203125,0.0553131103515625,0.2173624410235128
1781869757.213029,-0.1201171875,-0.0239257849752903,0.9848632216453552,0.9924495691314809,-0.1850128173828125,-0.0476837158203125,0.1811981201171875,0.26331775117595274
1781869757.223624,-0.1220703050494194,-0.025390625,0.9946288466453552,1.0024132809334774,-0.244140625,0.194549560546875,-0.0019073486328125,0.3121823413698794
1781869757.234219,-0.1171874925494194,-0.025390625,0.9926757216453552,0.9998913343919116,-0.064849853515625,0.011444091796875,-0.3681182861328125,0.37396195437960333
1781869757.242227,-0.1201171800494194,-0.0263671875,0.9833983778953552,0.9910578868900144,-0.1850128173828125,-0.5359649658203125,-0.7381439208984375,0.930776361507969
1781869757.250236,-0.1191406175494194,-0.02490234375,0.9912108778953552,0.9986559056714084,-0.3070831298828125,-0.1697540283203125,-0.7953643798828125,0.86932213567582
1781869757.258245,-0.115234375,-0.0224609412252903,0.9892577528953552,0.996199958204142,-0.3070831298828125,-0.4138946533203125,-1.1615753173828125,1.2707737999576272
1781869757.266254,-0.1279296875,-0.02490234375,0.9882811903953552,0.9968379221103856,-0.244140625,0.011444091796875,-1.2836456298828125,1.3067064380072857
1781869757.276907,-0.1074218675494194,-0.03369140625,0.9960936903953552,1.002435638097701,-0.2460479736328125,0.0743865966796875,-1.2836456298828125,1.309129128165607
1781869757.28756,-0.12841796875,-0.01611328125,0.9755858778953552,0.9841334348955778,-0.553131103515625,0.072479248046875,-1.0395050048828125,1.1797363748949463
1781869757.298213,-0.12744140625,-0.017578125,0.9882811903953552,0.9966192923051177,-0.1850128173828125,-0.3528594970703125,-0.9784698486328125,1.0564766026524954
1781869757.308894,-0.1337890625,-0.01611328125,0.9931640028953552,1.002264380153458,0.179290771484375,-0.476837158203125,-0.7953643798828125,0.9445228176010706
1781869757.319577,-0.1118163987994194,-0.017578125,0.9853515028953552,0.9918313776933666,0.0591278076171875,-0.1087188720703125,-0.5512237548828125,0.5649455891720574
1781869757.33026,-0.1225585862994194,-0.01953125,0.9897460341453552,0.9974965107250919,0.1201629638671875,-0.2307891845703125,-0.2498626708984375,0.36074109816941796
1781869757.340918,-0.1298827975988388,-0.0195312462747097,0.9799804091453552,0.9887429458670449,0.5474090576171875,-0.1697540283203125,-0.0019073486328125,0.5731289073769686
1781869757.351575,-0.1171874925494194,-0.0126953125,0.9760741591453552,0.9831657253590592,0.4253387451171875,-0.5359649658203125,-0.1850128173828125,0.7088026772526741
1781869757.362232,-0.115234375,-0.0292968712747097,0.9809569716453552,0.9881365533506762,0.6084442138671875,-0.5359649658203125,-0.3070831298828125,0.8670425910149125
1781869757.37023,-0.1098632737994194,-0.0107421875,0.9907225966453552,0.9968533478029387,0.3032684326171875,-0.2307891845703125,-0.6122589111328125,0.7211770685471444
1781869757.378228,-0.1132812425494194,-0.0263671875,0.9892577528953552,0.9960716691853896,0.423431396484375,-0.293731689453125,-0.3681182861328125,0.6333115548472602
1781869757.386226,-0.1142578050494194,-0.03662109375,0.9843749403953552,0.9916602108587984,0.1811981201171875,-0.5359649658203125,-0.9212493896484375,1.081106674314977
1781869757.394224,-0.1166992112994194,-0.021484375,0.9892577528953552,0.9963489278112436,-0.0019073486328125,-0.3528594970703125,-0.4329681396484375,0.5585471086686868
1781869757.404948,-0.11376953125,-0.0185546912252903,0.9804686903953552,0.9872216750319522,-0.064849853515625,-0.232696533203125,-0.7381439208984375,0.7766657118896584
1781869757.415672,-0.1162109300494194,-0.0185546875,0.9868163466453552,0.9938087133335366,-0.1850128173828125,-0.2307891845703125,-0.9212493896484375,0.9675710972523799
1781869757.426396,-0.1225585862994194,-0.0234375,0.9970702528953552,1.0048477559763815,-0.553131103515625,-0.232696533203125,-0.4901885986328125,0.7748461501941961
1781869757.43703,-0.11962890625,-0.0239257849752903,0.9916991591453552,0.9991750300357088,-0.2460479736328125,-0.0476837158203125,-0.2498626708984375,0.35389927435888646
1781869757.447664,-0.12939453125,-0.0234375037252903,0.9853515028953552,0.994087443616715,-0.492095947265625,-0.293731689453125,0.1811981201171875,0.6010569735376528
1781869757.458298,-0.13330078125,-0.02197265625,0.9873046278953552,0.9965050547629585,-0.6122589111328125,0.0133514404296875,0.7266998291015625,0.9503325085670409
1781869757.466605,-0.1235351487994194,-0.01611328125,1.00732421875,1.0149988435963038,-0.7343292236328125,0.0743865966796875,1.0318756103515625,1.2686764952836342
1781869757.47491,-0.1157226487994194,-0.025390625,0.9833983778953552,0.9905093563062695,-0.553131103515625,0.011444091796875,1.0318756103515625,1.1708340019626513
1781869757.483215,-0.1103515625,-0.0185546912252903,0.9882811903953552,0.9945961266775161,-0.553131103515625,0.072479248046875,1.3408660888671875,1.452284106966623
1781869757.49152,-0.1010742112994194,-0.01806640625,0.9916991591453552,0.9970003076600299,-0.4291534423828125,0.2574920654296875,0.9746551513671875,1.0956402260572855
1781869757.501917,-0.1083984300494194,-0.0283203125,0.9877929091453552,0.9941262953443695,-0.064849853515625,0.255584716796875,0.7915496826171875,0.8343140601790834
1781869757.512314,-0.1162109300494194,-0.0302734375,0.9868163466453552,0.9940965563201108,-0.3070831298828125,0.2574920654296875,0.6694793701171875,0.7802594692987563
1781869757.522711,-0.1210937425494194,-0.02880859375,0.9946288466453552,1.002387236619435,-0.0019073486328125,-0.3528594970703125,0.4253387451171875,0.552654060646789
1781869757.530608,-0.1020507737994194,-0.01953125,0.9892577528953552,0.9946993172930152,-0.0019073486328125,-0.0476837158203125,0.3032684326171875,0.30700019048092625
1781869757.538506,-0.1230468675494194,-0.0283203125,0.9907225966453552,0.9987361189110651,0.06103515625,0.011444091796875,0.3032684326171875,0.30956097906164276
1781869757.546404,-0.12451171875,-0.0229492224752903,0.9736327528953552,0.9818302156833876,-0.1850128173828125,0.2574920654296875,0.3032684326171875,0.43875237728958005
1781869757.554302,-0.10986328125,-0.0190429724752903,0.9882811903953552,0.9945512991580533,0.118255615234375,0.194549560546875,0.1811981201171875,0.2909753954846448
1781869757.564958,-0.1259765625,-0.02099609375,0.9848632216453552,0.9931095083633744,0.0591278076171875,0.3795623779296875,0.3032684326171875,0.4894235778907057
1781869757.575614,-0.1069335862994194,-0.02490234375,0.9853515028953552,0.9914496975950085,0.118255615234375,0.499725341796875,0.4863739013671875,0.7072972357500082
1781869757.58627,-0.1132812425494194,-0.013671875,0.9873046278953552,0.9938762439776603,0.1201629638671875,0.6237030029296875,0.4863739013671875,0.8000025910458012
1781869757.594536,-0.13330078125,-0.0224609375,0.9829100966453552,0.9921622095618341,0.118255615234375,0.865936279296875,0.7266998291015625,1.1366277631455322
1781869757.602801,-0.13037109375,-0.02587890625,0.9848632216453552,0.9937916809995623,-0.0019073486328125,0.7457733154296875,0.5435943603515625,0.9228631017609381
1781869757.611066,-0.13037109375,-0.02001953125,0.9785155653953552,0.9873652391278683,0.2422332763671875,0.5626678466796875,1.1577606201171875,1.3098403411717296
1781869757.619331,-0.1191406175494194,-0.037109375,0.9814452528953552,0.9893464392687605,-0.064849853515625,0.255584716796875,1.5850067138671875,1.6067903827087082
1781869757.629625,-0.1201171875,-0.0302734337747097,0.9941405653953552,1.0018283701762585,0.0591278076171875,-0.1697540283203125,1.5850067138671875,1.5951673300217282
1781869757.639919,-0.1171874925494194,-0.021484375,0.9931640028953552,1.0002845712227526,0.2422332763671875,-0.4138946533203125,1.8291473388671875,1.8909695215713123
1781869757.650213,-0.1108398362994194,-0.0263671875,0.9829100966453552,0.9894912611917923,0.5474090576171875,-0.1087188720703125,1.9512176513671875,2.0294646566305268
1781869757.660897,-0.1113281175494194,-0.02197265625,0.9780272841453552,0.9845882976719342,0.972747802734375,0.865936279296875,0.9746551513671875,1.6266642528849231
1781869757.67158,-0.12744140625,-0.021484375,0.9848632216453552,0.9933068286012063,0.8525848388671875,0.8678436279296875,0.5435943603515625,1.3324970163607777
1781869757.682263,-0.12451171875,-0.013671878725290298,0.9926757216453552,1.0005474385145787,0.4863739013671875,0.6237030029296875,0.5435943603515625,0.9597186235562342
1781869757.690241,-0.1181640625,-0.0190429724752903,0.9848632216453552,0.9921093416639452,0.5474090576171875,0.6237030029296875,-0.4901885986328125,0.9638189531517045
1781869757.698217,-0.1201171800494194,-0.01123046875,0.9868163466453552,0.9941633479352652,0.2422332763671875,0.2574920654296875,-0.4329681396484375,0.5589638037381827
1781869757.706193,-0.1210937425494194,-0.00830078125,0.9843749403953552,0.9918299353882926,-0.6122589111328125,0.1354217529296875,-0.3681182861328125,0.7271252285634475
1781869757.714169,-0.1308593600988388,-0.0190429724752903,0.9848632216453552,0.9937013496397398,-0.7953643798828125,-0.1697540283203125,-0.8563995361328125,1.1810339082371177
1781869757.724848,-0.1230468675494194,-0.0234375,0.9921874403953552,1.0000628804721536,-1.2226104736328125,-0.0476837158203125,-0.8563995361328125,1.4934759028787772
1781869757.735527,-0.12890625,-0.02490234375,0.9931640028953552,1.0018042147348107,-1.1005401611328125,-0.4749298095703125,-0.7381439208984375,1.4076943625105731
1781869757.746206,-0.13623046875,-0.00732421875,0.9912108778953552,1.0005555403145912,-1.220703125,-0.476837158203125,-0.5512237548828125,1.4217374661923714
1781869757.754213,-0.130859375,-0.0244140625,0.9887694716453552,0.9976899771627354,-1.041412353515625,-0.720977783203125,-0.1239776611328125,1.2726818590627462
1781869757.76222,-0.13037109375,-0.02783203125,0.9750975966453552,0.9841679567190857,-1.2836456298828125,-0.8411407470703125,0.2384185791015625,1.553096029986573
1781869757.770227,-0.11474609375,0.0014648400247097015,0.9829100966453552,0.9895863124935406,-0.7343292236328125,-0.5970001220703125,0.4253387451171875,1.0375748659884745
1781869757.778234,-0.1157226487994194,-0.0419921875,0.9824218153953552,0.9901048927365698,-0.8563995361328125,-0.5359649658203125,0.6694793701171875,1.2119741074328987
1781869757.788899,-0.1079101487994194,-0.01904296875,0.9873046278953552,0.9933668321100277,-0.4901885986328125,-0.5970001220703125,0.8525848388671875,1.150475951703362
1781869757.799564,-0.0996093675494194,-0.0302734375,0.9799804091453552,0.985494855100908,-0.553131103515625,-0.415802001953125,0.5435943603515625,0.8799659942922022
1781869757.810229,-0.1118163987994194,-0.017578125,0.9868163466453552,0.9932866653315509,-0.370025634765625,-0.415802001953125,0.5435943603515625,0.7780135627467909
1781869757.820903,-0.1137695237994194,-0.021484375,0.9873046278953552,0.9940701741719611,-0.1850128173828125,-0.1697540283203125,-0.1850128173828125,0.31189087085521644
1781869757.83158,-0.1103515625,-0.0185546912252903,0.9999999403953552,1.0062413352190276,0.301361083984375,0.377655029296875,-0.5512237548828125,0.7330003083495722
1781869757.842257,-0.1206054612994194,-0.025390625,0.9829100966453552,0.9906071972383997,0.423431396484375,0.011444091796875,-0.5512237548828125,0.6951782093196465
1781869757.850246,-0.12841796875,-0.0185546912252903,0.9936522841453552,1.0020879767024569,0.3643035888671875,0.6847381591796875,-0.6122589111328125,0.9881520256316014
1781869757.858235,-0.1201171875,-0.009765621274709702,0.9882811903953552,0.9956019372123839,0.5474090576171875,0.4405975341796875,-0.6732940673828125,0.9731946180797804
1781869757.866224,-0.13427734375,-0.0234375037252903,0.9833983778953552,0.992800126547456,0.179290771484375,0.682830810546875,-0.1239776611328125,0.7167799920697614
1781869757.882231,-0.13427734375,-0.0234375037252903,0.9946288466453552,1.0039254276112834,-0.0019073486328125,-0.1697540283203125,0.6694793701171875,0.6906682960164645
1781869757.890249,-0.12744140625,-0.0322265625,0.9809569716453552,0.9897254384813852,0.06103515625,-0.476837158203125,1.1577606201171875,1.2535982686793359
1781869757.898267,-0.1201171875,-0.015624996274709702,0.9780272841453552,0.9854996944566925,0.1811981201171875,-0.2918243408203125,1.0967254638671875,1.149261044203583
1781869757.906285,-0.1142578050494194,-0.01513671875,0.9809569716453552,0.9877046858696449,-0.0019073486328125,-0.2307891845703125,1.0318756103515625,1.0573715340086693
1781869757.916947,-0.11474609375,-0.013183597475290298,0.9853515028953552,0.9920978064341285,0.3643035888671875,0.1354217529296875,0.5435943603515625,0.6682447041571572
1781869757.927609,-0.12548828125,-0.02099609375,0.9770507216453552,0.9853000849241551,-0.1850128173828125,0.3185272216796875,0.8525848388671875,0.9287573639078696
1781869757.938271,-0.1088867112994194,-0.02734375,0.9951171278953552,1.0014300249105608,0.3032684326171875,-0.2307891845703125,-0.0019073486328125,0.3811023850824375
1781869757.946258,-0.1162109300494194,-0.0205078125,0.9829100966453552,0.9899685897662954,0.301361083984375,-0.110626220703125,0.3643035888671875,0.4855654111536435
1781869757.954244,-0.1225585862994194,-0.01318359375,0.9946288466453552,1.0022379741353582,0.1811981201171875,0.1354217529296875,-0.0629425048828125,0.23480538499249737
1781869757.96223,-0.13330078125,-0.0224609375,0.9897460341453552,0.9989348347623572,0.1811981201171875,-0.6580352783203125,-0.4329681396484375,0.8082726001781346
1781869757.970216,-0.12841796875,-0.02490234375,0.9868163466453552,0.9954485438377039,-0.064849853515625,-0.1678466796875,-0.1850128173828125,0.25808478060327805
1781869757.980891,-0.1220703050494194,-0.01318359375,0.9877929091453552,0.9953942926684216,-0.4291534423828125,-0.2307891845703125,-0.2498626708984375,0.5476017523092386
1781869757.991566,-0.13818359375,-0.00732421875,0.9848632216453552,0.9945370355656098,-0.3681182861328125,-0.0476837158203125,-0.3070831298828125,0.481751863513174
1781869758.002241,-0.126953125,-0.02734375,0.9921874403953552,1.0006501354067838,-0.51116943359375,0.232696533203125,-0.3223419189453125,0.6475694396083362
1781869758.012911,-0.1235351487994194,-0.01708984375,0.9843749403953552,0.9922434273033273,-0.8754730224609375,-0.0095367431640625,0.4100799560546875,0.9668037716542488
1781869758.023583,-0.12451171875,-0.014648433774709702,0.9794921278953552,0.9874829483728325,-0.9365081787109375,-0.1926422119140625,0.3490447998046875,1.0178363635056051
1781869758.034255,-0.1230468675494194,-0.03125,0.9902343153953552,0.9983391675679324,-1.24359130859375,0.110626220703125,0.5893707275390625,1.380621366630582
1781869758.04225,-0.1215820237994194,-0.0185546875,0.9819335341453552,0.9896059470408273,-0.8144378662109375,-0.1926422119140625,0.6542205810546875,1.0622733303650715
1781869758.050243,-0.12744140625,-0.02587890625,0.9824218153953552,0.9909912477819263,-1.3027191162109375,0.3566741943359375,0.2841949462890625,1.3802392343875896
1781869758.058236,-0.1157226487994194,-0.0263671875,0.9863280653953552,0.9934435125402742,-1.1196136474609375,0.0514984130859375,0.3490447998046875,1.1738905734359777
1781869758.066229,-0.1171874925494194,-0.0263671875,0.9775390028953552,0.98489118138418,-0.38909912109375,0.232696533203125,0.0438690185546875,0.45548907054904547
1781869758.074277,-0.12646484375,-0.0185546875,0.9868163466453552,0.9950598651033115,-0.263214111328125,0.415802001953125,-0.1392364501953125,0.5114291371182061
1781869758.082325,-0.1201171875,-0.0205078087747097,0.9902343153953552,0.9977037177139103,-0.3261566162109375,0.5397796630859375,-0.5054473876953125,0.8082185872072929
1781869758.090373,-0.1215820237994194,-0.02392578125,0.9975585341453552,1.005225179034934,-0.0209808349609375,0.1125335693359375,-0.5054473876953125,0.5182480693559407
1781869758.098421,-0.1113281175494194,-0.03271484375,0.9902343153953552,0.9970096339279737,0.1010894775390625,0.1735687255859375,-0.6923675537109375,0.720914706745753
1781869758.109017,-0.1147460862994194,-0.03564453125,0.9785155653953552,0.9858650560041459,-0.08392333984375,-0.011444091796875,-0.6923675537109375,0.6975291561212712
1781869758.119613,-0.1215820237994194,-0.01171875,0.9882811903953552,0.9958007978014405,0.1010894775390625,0.1735687255859375,-0.7495880126953125,0.776033100935234
1781869758.130209,-0.12353515625,-0.0288085974752903,0.9887694716453552,0.9968730802745354,0.09918212890625,0.110626220703125,-0.5054473876953125,0.5268323425241166
1781869758.138257,-0.12548828125,-0.02490234375,0.9912108778953552,0.9994330592457922,-0.0820159912109375,-0.1316070556640625,-0.6275177001953125,0.6463942326268779
1781869758.146305,-0.1127929612994194,-0.02978515625,0.9819335341453552,0.9888391543272933,0.1010894775390625,-0.0095367431640625,-0.9326934814453125,0.9382042220486302
1781869758.154353,-0.13671875,-0.01611328125,0.9775390028953552,0.9871849657565949,0.1621246337890625,-0.0095367431640625,-0.5702972412109375,0.5929707325696785
1781869758.162401,-0.14208984375,-0.021484375,0.9916991591453552,1.0020570464377987,0.28228759765625,-0.072479248046875,-0.6923675537109375,0.7512072674166865
1781869758.173109,-0.1230468675494194,-0.02099609375,0.9892577528953552,0.9971019352253062,0.09918212890625,-0.255584716796875,-0.7495880126953125,0.7981496294123194
1781869758.183817,-0.1376953125,-0.029296875,0.9877929091453552,0.997774091328835,0.2231597900390625,-0.3147125244140625,-0.5054473876953125,0.6358626633490646
1781869758.194525,-0.126953125,-0.02099609375,0.9780272841453552,0.9864559292906926,0.4673004150390625,-0.4367828369140625,-0.5054473876953125,0.8152459667158078
1781869758.202508,-0.1181640550494194,-0.01513671875,0.9892577528953552,0.9964049206140074,0.40435791015625,-0.255584716796875,-0.3871917724609375,0.6154237041482162
1781869758.210492,-0.115234375,-0.012207034975290298,0.9853515028953552,0.99214190373286,0.4062652587890625,-0.3147125244140625,-0.5702972412109375,0.7676811687509484
1781869758.218476,-0.1235351487994194,-0.01806640625,0.9912108778953552,0.9990427080369315,0.2231597900390625,-0.4367828369140625,-0.2040863037109375,0.5312539485739075
1781869758.22646,-0.10546875,-0.0195312462747097,0.9931640028953552,0.9989393692585807,0.40435791015625,-0.560760498046875,-0.1392364501953125,0.7052265201612181
1781869758.237079,-0.1152343675494194,-0.03125,0.9921874403953552,0.999345505239705,0.1010894775390625,-0.6198883056640625,-0.6275177001953125,0.8878395452031842
1781869758.247698,-0.10986328125,-0.0244140587747097,0.9897460341453552,0.9961240881232268,0.0400543212890625,-0.3147125244140625,-0.5054473876953125,0.5967624178892424
1781869758.258317,-0.1093749925494194,-0.02099609375,0.9902343153953552,0.9964776587231909,0.0400543212890625,-0.6198883056640625,-0.6275177001953125,0.8829747019090659
1781869758.266282,-0.1113281175494194,-0.0224609375,0.9873046278953552,0.9938153106760139,-0.0209808349609375,-0.3757476806640625,-0.4444122314453125,0.5823476164785792
1781869758.274247,-0.1176757737994194,-0.017578125,1.0009765625,1.00802314303399,-0.08392333984375,-0.43487548828125,-0.9937286376953125,1.0879597523135527
1781869758.282212,-0.1108398362994194,-0.0263671875,0.9721679091453552,0.9788213021075879,-0.0209808349609375,-0.1316070556640625,-0.9937286376953125,1.002625163215049
1781869758.290177,-0.1215820237994194,-0.025390625,0.9892577528953552,0.9970244600874247,-0.57220458984375,0.110626220703125,-0.6923675537109375,0.9050022556750776
1781869758.301075,-0.12451171875,-0.0351562462747097,0.9877929091453552,0.9962298736316088,-0.08392333984375,-0.072479248046875,-0.2040863037109375,0.23226620014621802
1781869758.311973,-0.1181640550494194,-0.029296875,0.9902343153953552,0.9976898567074818,-0.08392333984375,0.476837158203125,-0.1392364501953125,0.5037892331885958
1781869758.322871,-0.1220703050494194,-0.02294921875,1.0009765625,1.008653510721303,0.1010894775390625,0.4787445068359375,-0.3223419189453125,0.5859348922909883
1781869758.330704,-0.1235351487994194,-0.0263671875,0.9897460341453552,0.9977742097649215,0.1010894775390625,0.6618499755859375,-0.0782012939453125,0.6740770838909655
1781869758.338539,-0.1142578125,-0.0239257849752903,0.9799804091453552,0.9869087562752024,0.40435791015625,0.54168701171875,-0.0171661376953125,0.6761840093155809
1781869758.346374,-0.12841796875,-0.02978515625,0.9814452528953552,0.9902591149095982,0.6504058837890625,-0.0095367431640625,-0.1392364501953125,0.6652109080589408
1781869758.354209,-0.125,-0.0302734337747097,0.9707030653953552,0.9791863571151566,0.9555816650390625,0.1125335693359375,-0.1392364501953125,0.9722072370895544
1781869758.364916,-0.130859375,-0.0234375,0.9848632216453552,0.9937952796131146,0.5893707275390625,0.1735687255859375,0.1659393310546875,0.6364116738183921
1781869758.375623,-0.125,-0.0385742150247097,0.9824218153953552,0.9910931305530666,0.5283355712890625,-0.1316070556640625,0.1659393310546875,0.569205371180544
1781869758.38633,-0.1225585862994194,-0.0302734375,0.9887694716453552,0.9967959450918796,0.1621246337890625,-0.6809234619140625,0.5893707275390625,0.9150404430112328
1781869758.397003,-0.1191406175494194,-0.02099609375,0.9882811903953552,0.9956580909087598,0.5893707275390625,-0.1316070556640625,1.2035369873046875,1.346543557182957
1781869758.407675,-0.13232421875,-0.02587890625,0.9941405653953552,1.0032421843309276,0.7114410400390625,-0.0095367431640625,0.9593963623046875,1.194437391798125
1781869758.418347,-0.1059570237994194,-0.0205078125,0.9877929091453552,0.9936711189441957,0.7724761962890625,-0.0095367431640625,1.2035369873046875,1.4301439448929045
1781869758.428995,-0.1118163987994194,-0.01708984375,0.9848632216453552,0.9913377502897477,0.77056884765625,0.415802001953125,0.8373260498046875,1.2115207664287186
1781869758.439644,-0.1210937425494194,-0.02197265625,0.9892577528953552,0.9968838416640493,0.347137451171875,0.720977783203125,0.7724761962890625,1.1122197839059582
1781869758.450293,-0.1108398362994194,-0.01123046875,0.9697265028953552,0.9761050574384307,0.5893707275390625,0.6618499755859375,0.7152557373046875,1.13885645030895
1781869758.458302,-0.1235351487994194,-0.017578125,0.9995116591453552,1.0072703114035035,0.5283355712890625,0.6618499755859375,0.6542205810546875,1.0701347741046354
1781869758.466313,-0.1230468675494194,-0.02001953125,0.9775390028953552,0.9854561458668972,0.225067138671875,0.232696533203125,0.3490447998046875,0.4760621448355167
1781869758.474324,-0.11474609375,-0.0234375037252903,0.9892577528953552,0.9961660927151277,0.09918212890625,0.293731689453125,0.4711151123046875,0.5639723833001234
1781869758.482335,-0.126953125,-0.02294921875,0.9848632216453552,0.9932770650418589,-0.2040863037109375,0.2956390380859375,0.2841949462890625,0.45806159814921676
1781869758.492976,-0.130859375,-0.02490234375,0.9897460341453552,0.998669872808874,-0.2040863037109375,-0.1316070556640625,0.2841949462890625,0.3738160028131484
1781869758.503617,-0.1357421875,-0.02197265625,0.9741210341453552,0.9837786988212248,-0.3261566162109375,-0.1316070556640625,0.4100799560546875,0.5402445055311038
1781869758.514258,-0.1191406175494194,-0.02197265625,0.9780272841453552,0.985502233840937,-0.5702972412109375,-0.3147125244140625,0.3490447998046875,0.7389960680724712
1781869758.522257,-0.15234375,-0.01318359375,0.9892577528953552,1.0010061573096318,-0.8144378662109375,-0.3757476806640625,0.4711151123046875,1.0131361243606436
1781869758.530257,-0.12451171875,-0.0336914025247097,0.9765624403953552,0.9850444044311367,-0.9365081787109375,-0.1926422119140625,0.5893707275390625,1.1231724912423486
1781869758.538257,-0.1337890625,-0.03125,0.9902343153953552,0.9997199983651106,-0.99945068359375,-0.560760498046875,0.6542205810546875,1.3196054614093284
1781869758.546257,-0.1142578125,-0.0190429724752903,0.9868163466453552,0.9935914575540924,-0.9365081787109375,-0.6198883056640625,0.5893707275390625,1.2683323439743477
1781869758.556921,-0.12548828125,-0.02197265625,0.9863280653953552,0.9945215728883431,-0.87738037109375,-0.560760498046875,0.6542205810546875,1.229737053367881
1781869758.567585,-0.1113281175494194,-0.02880859375,0.9868163466453552,0.9934940295932511,-0.6313323974609375,-0.4367828369140625,0.4100799560546875,0.8703593585779876
1781869758.578249,-0.12451171875,-0.0273437537252903,0.9995116591453552,1.0076082600601135,-0.51116943359375,-0.255584716796875,0.2269744873046875,0.6149269510990063
1781869758.588905,-0.1279296875,-0.02734375,1.00048828125,1.009004700943702,0.0400543212890625,-0.5588531494140625,0.1010894775390625,0.5693331834111416
1781869758.59956,-0.1162109300494194,-0.0283203125,0.9829100966453552,0.990161238612394,0.4673004150390625,-0.6809234619140625,-0.0171661376953125,0.8260273089699192
1781869758.610215,-0.1166992112994194,-0.0205078125,0.9980468153953552,1.0050555815537028,0.3452301025390625,-0.2536773681640625,-0.0171661376953125,0.42875483332686914
1781869758.618364,-0.1162109300494194,-0.02392578125,0.9824218153953552,0.9895605320727374,0.46539306640625,-0.255584716796875,-0.0782012939453125,0.536683981588674
1781869758.626515,-0.1201171800494194,-0.03125,0.9794921278953552,0.9873244289756005,0.5283355712890625,0.1125335693359375,0.2841949462890625,0.6103843441742829
1781869758.634666,-0.130859375,-0.02734375,0.9960936903953552,1.0050246249395538,0.77056884765625,0.110626220703125,0.1010894775390625,0.7850054726907694
1781869758.642817,-0.1176757737994194,-0.02783203125,0.9887694716453552,0.9961361743058165,0.6504058837890625,-0.3757476806640625,0.6542205810546875,0.9961017527679523
1781869758.653341,-0.1166992112994194,-0.0224609375,0.9814452528953552,0.9886141735086106,0.4673004150390625,-0.1926422119140625,0.5893707275390625,0.776426786108482
1781869758.663865,-0.1298827975988388,-0.013671878725290298,0.9716796278953552,0.9804171360430396,0.09918212890625,-0.255584716796875,0.5893707275390625,0.6500142280246168
1781869758.674389,-0.1201171875,-0.0278320349752903,0.9838866591453552,0.9915824317463396,0.225067138671875,0.232696533203125,0.8373260498046875,0.8977292504737829
1781869758.685031,-0.1201171875,-0.0219726599752903,0.9941405653953552,1.0016119010294837,-0.32806396484375,0.232696533203125,0.5321502685546875,0.6670513847647573
1781869758.695675,-0.1181640550494194,-0.02734375,0.9921874403953552,0.9995730795935189,-0.02288818359375,0.415802001953125,0.2841949462890625,0.504164597401177
1781869758.706319,-0.125,-0.010253902524709702,0.9887694716453552,0.9966921342996649,-0.08392333984375,0.476837158203125,0.5893707275390625,0.7627415400341622
1781869758.714366,-0.1220703050494194,-0.02587890625,0.9882811903953552,0.9961277972493363,0.40435791015625,0.293731689453125,0.3490447998046875,0.6096030652528015
1781869758.722411,-0.1069335862994194,-0.01416015625,0.9853515028953552,0.9912380572607243,0.7724761962890625,-0.1926422119140625,0.1010894775390625,0.8025269952552883
1781869758.730456,-0.1176757737994194,-0.0234375,0.9819335341453552,0.9892372665972151,0.3452301025390625,-0.0705718994140625,-0.0171661376953125,0.3527873197401156
1781869758.738501,-0.115234375,-0.0229492224752903,0.9692382216453552,0.9763341427462792,0.3452301025390625,-0.1926422119140625,-0.1392364501953125,0.4191439306172355
1781869758.749064,-0.1210937425494194,-0.0458984375,1.00146484375,1.0098030472903012,0.3452301025390625,-0.0705718994140625,-0.2613067626953125,0.438686039117208
1781869758.759627,-0.1176757737994194,-0.015625,0.9951171278953552,1.002172553303568,0.40435791015625,-0.011444091796875,-0.5702972412109375,0.6991961313364022
1781869758.77019,-0.1201171875,-0.0205078087747097,0.9829100966453552,0.9904347363865181,0.0400543212890625,0.1125335693359375,-0.7495880126953125,0.759045678242042
1781869758.780909,-0.13671875,-0.01611328125,0.9907225966453552,1.0002414298247795,-0.1430511474609375,-0.5588531494140625,-0.1392364501953125,0.5934368226381803
1781869758.791627,-0.1220703050494194,-0.02685546875,0.9809569716453552,0.9888877367003126,-0.4482269287109375,-0.4978179931640625,-0.2040863037109375,0.7002723422368811
1781869758.802345,-0.13720703125,-0.0078125,0.9887694716453552,0.9982744475536391,-0.6313323974609375,-0.0095367431640625,0.0438690185546875,0.6329265647315682
1781869758.810348,-0.1186523362994194,-0.01171875,0.9877929091453552,0.994962580888707,-0.4482269287109375,-0.6809234619140625,0.7724761962890625,1.1230688378010896
1781869758.818354,-0.1176757737994194,-0.02099609375,0.9819335341453552,0.9891824347263948,-0.69427490234375,-0.560760498046875,0.2269744873046875,0.9208623100558675
1781869758.82636,-0.1206054612994194,-0.01953125,0.9956054091453552,1.003073914395793,-0.87738037109375,-0.255584716796875,-0.0171661376953125,0.9140101418059429
1781869758.834366,-0.1157226487994194,-0.017578125,0.9814452528953552,0.9884004787304067,-0.6313323974609375,-0.0095367431640625,-0.0171661376953125,0.6316377299032467
1781869758.844988,-0.1259765625,-0.02587890625,0.9965819716453552,1.0048459773997984,-0.4482269287109375,-0.3147125244140625,-0.4444122314453125,0.7053038948587437
1781869758.85561,-0.1083984300494194,-0.0166015625,0.9907225966453552,0.996773341847752,-0.2040863037109375,-0.6198883056640625,-0.6923675537109375,0.9514649548423332
1781869758.866232,-0.1220703050494194,-0.03125,0.9833983778953552,0.991438395222857,-0.0209808349609375,-0.3147125244140625,-0.6923675537109375,0.7608265228620765
1781869758.876926,-0.1123046800494194,-0.02197265625,0.9897460341453552,0.9963394757260909,-0.0209808349609375,-0.6198883056640625,-0.9326934814453125,1.1200976909472218
1781869758.887619,-0.1118163987994194,-0.03076171875,0.9916991591453552,0.998457015915322,0.1621246337890625,-0.6198883056640625,-1.2989044189453125,1.4483433977948599
1781869758.898312,-0.1132812425494194,-0.0283203125,1.0048828125,1.0116442788211417,0.1621246337890625,-0.1926422119140625,-1.0585784912109375,1.0881102153489806
1781869758.906381,-0.12548828125,-0.0205078125,0.9814452528953552,0.9896477471986899,0.3452301025390625,-0.4978179931640625,-1.1157989501953125,1.2696510840675825
1781869758.91445,-0.1230468675494194,-0.02587890625,0.9829100966453552,0.9909200308247896,-0.1430511474609375,-0.4367828369140625,-0.7495880126953125,0.8792753073918859
1781869758.922519,-0.1279296875,-0.02001953125,0.9838866591453552,0.9923707697325258,-0.2651214599609375,-0.1316070556640625,-0.7495880126953125,0.8059106615555416
1781869758.930588,-0.13427734375,-0.0195312462747097,0.9877929091453552,0.9970690577805748,-0.2040863037109375,-0.0095367431640625,-0.4444122314453125,0.4891261598920797
1781869758.941185,-0.1064453050494194,-0.0166015625,1.0009765625,1.00675731609898,-0.3871917724609375,0.0514984130859375,-0.2040863037109375,0.44070486107394513
1781869758.951782,-0.1069335862994194,-0.01806640625,0.9824218153953552,0.9883895033226278,-0.4482269287109375,-0.1316070556640625,-0.1392364501953125,0.4874572655989397
1781869758.962379,-0.1113281175494194,-0.037109375,0.9916991591453552,0.9986181841522778,-0.99945068359375,-0.072479248046875,-0.0782012939453125,1.005122058611876
1781869758.970374,-0.1118163987994194,-0.0244140625,0.9838866591453552,0.9905210303332449,-1.18255615234375,0.110626220703125,-0.6923675537109375,1.374790909042091
1781869758.978368,-0.1157226487994194,-0.00830078125,0.9770507216453552,0.9839150100909242,-1.24359130859375,-0.011444091796875,-0.6923675537109375,1.4233843962467196
1781869758.986362,-0.11474609375,-0.0371093787252903,0.9995116591453552,1.0067608101171606,-0.9365081787109375,0.0514984130859375,-0.6275177001953125,1.1284848777902436
1781869758.994356,-0.1025390550494194,-0.01123046875,0.9814452528953552,0.9868511365295175,-0.87738037109375,0.110626220703125,-0.3871917724609375,0.9653765819353116
1781869759.005031,-0.1118163987994194,-0.0146484375,0.9858397841453552,0.99226889690518,-0.9975433349609375,0.0514984130859375,-0.3871917724609375,1.0712899982436135
1781869759.015706,-0.1123046800494194,-0.029296875,0.9692382216453552,0.9761625778240113,-0.6313323974609375,0.4787445068359375,-0.3871917724609375,0.8818698132779025
1781869759.026381,-0.12744140625,-0.0166015625,0.9912108778953552,0.999507843072029,-0.4482269287109375,0.2956390380859375,-0.2613067626953125,0.5971524467774729
1781869759.034418,-0.12841796875,-0.0146484375,0.9907225966453552,0.999118118603993,-0.69427490234375,0.720977783203125,-0.1392364501953125,1.0105510343173707
1781869759.042455,-0.1235351487994194,-0.03076171875,0.9902343153953552,0.9983843026189146,-0.57220458984375,0.904083251953125,0.2841949462890625,1.1070462441093574
1781869759.050492,-0.12646484375,-0.02783203125,0.9843749403953552,0.9928554788822853,-0.629425048828125,0.720977783203125,0.4100799560546875,1.0412254445232283
1781869759.058529,-0.1157226487994194,-0.015625,0.9941405653953552,1.0009751924172499,-0.3261566162109375,0.9059906005859375,0.6542205810546875,1.1641312964282722
1781869759.069136,-0.12890625,-0.02783203125,0.9921874403953552,1.0009132630407342,-0.4482269287109375,0.6618499755859375,0.4711151123046875,0.9278481658367409
1781869759.079743,-0.1215820237994194,-0.03271484375,0.9814452528953552,0.9894883697869203,-0.08392333984375,0.415802001953125,0.4711151123046875,0.633943121139913
1781869759.09035,-0.13671875,-0.01806640625,0.9843749403953552,0.9939881462646885,0.2231597900390625,0.0514984130859375,0.2841949462890625,0.3649919806473718
1781869759.098353,-0.1210937425494194,-0.0439453125,0.9892577528953552,0.9976100373587444,0.4673004150390625,0.1735687255859375,0.0438690185546875,0.5004200947065955
1781869759.106354,-0.12841796875,-0.02294921875,0.9907225966453552,0.9992742890932532,0.3452301025390625,0.2346038818359375,0.2269744873046875,0.47512127184419756
1781869759.114355,-0.1171874925494194,-0.013671875,0.9868163466453552,0.9938442184681268,0.4673004150390625,-0.4367828369140625,-0.2040863037109375,0.6714165204109663
1781869759.122356,-0.1249999925494194,-0.03125,0.9809569716453552,0.9893827069728787,0.7114410400390625,-0.3757476806640625,-0.3871917724609375,0.8928897701495564
1781869759.130362,-0.11865234375,-0.0283203162252903,0.9858397841453552,0.9933581926939694,0.4062652587890625,-0.8029937744140625,-0.5702972412109375,1.0654057469243783
1781869759.138368,-0.1181640550494194,-0.03173828125,0.9829100966453552,0.9904959972103915,0.58746337890625,-0.92315673828125,-0.6275177001953125,1.26139210757339
1781869759.146374,-0.13037109375,-0.02978515625,0.9921874403953552,1.0011591754045381,0.2231597900390625,-1.1692047119140625,-0.2613067626953125,1.2186554781736423
1781869759.15438,-0.1240234300494194,-0.01513671875,0.9877929091453552,0.9956634786982917,0.6504058837890625,-1.1692047119140625,-0.2040863037109375,1.3534100233823712
1781869759.164993,-0.1059570237994194,-0.0224609375,0.9848632216453552,0.9908011657015133,0.4062652587890625,-1.2912750244140625,-0.2040863037109375,1.3689754813497848
1781869759.175606,-0.13037109375,-0.017578125,0.9858397841453552,0.9945781480446106,0.46539306640625,-1.049041748046875,-0.0782012939453125,1.1503020202446732
1781869759.186219,-0.12744140625,-0.02685546875,0.9848632216453552,0.9934375136758365,0.6504058837890625,-0.4367828369140625,-0.0782012939453125,0.787351575006267
1781869759.194231,-0.1181640550494194,-0.0185546875,0.9873046278953552,0.994523729529633,0.1621246337890625,0.0514984130859375,-0.4444122314453125,0.47585577110066607
1781869759.202243,-0.1010742112994194,-0.0244140625,0.9868163466453552,0.9922794690227342,0.3452301025390625,0.5397796630859375,-0.6923675537109375,0.9433550433489862
1781869759.210255,-0.13037109375,-0.02587890625,0.9877929091453552,0.9966951245150704,0.5893707275390625,0.5397796630859375,-0.5702972412109375,0.9818140773557376
1781869759.218267,-0.1108398362994194,-0.01953125,0.9794921278953552,0.9859369998364071,0.530242919921875,0.232696533203125,-0.8106231689453125,0.9962003577207598
1781869759.228934,-0.115234375,-0.014648433774709702,0.9790038466453552,0.9858712236088925,0.1621246337890625,0.5397796630859375,-0.9937286376953125,1.1424285916144552
1781869759.239601,-0.13525390625,-0.01806640625,0.9873046278953552,0.9966897423241897,-0.08392333984375,-0.072479248046875,-1.0585784912109375,1.064370607646789
1781869759.250268,-0.1206054612994194,-0.0244140625,0.9902343153953552,0.9978505515003273,-0.20599365234375,-0.377655029296875,-0.8754730224609375,0.9754535965467709
1781869759.260971,-0.1225585862994194,-0.0205078125,0.9858397841453552,0.9936404065118366,-0.57220458984375,-0.43487548828125,-1.0585784912109375,1.2795011547476363
1781869759.271674,-0.130859375,-0.02294921875,0.9833983778953552,0.9923322086447874,-0.9975433349609375,-1.0471343994140625,-0.8754730224609375,1.6905727339035512
1781869759.282377,-0.1181640550494194,-0.01513671875,0.9765624403953552,0.9838018419128776,-0.9365081787109375,-1.0471343994140625,-0.9326934814453125,1.6862547700627282
1781869759.290491,-0.1240234375,-0.0346679650247097,0.9882811903953552,0.9966360379484234,-0.9365081787109375,-1.0471343994140625,-0.3223419189453125,1.441333525572091
1781869759.298606,-0.1210937425494194,-0.01611328125,0.9877929091453552,0.995318121846031,-1.3027191162109375,-0.8029937744140625,-0.2040863037109375,1.5438676487482796
1781869759.306721,-0.1166992112994194,-0.0205078125,0.9990233778953552,1.0060253405719397,-0.8754730224609375,-0.4367828369140625,0.1659393310546875,0.9923548363717803
1781869759.314836,-0.103515625,-0.0288085974752903,0.9868163466453552,0.9926489419296833,-0.87738037109375,-0.560760498046875,0.0438690185546875,1.042196307103099
1781869759.325361,-0.1093749925494194,-0.0322265625,0.9785155653953552,0.9851366159303712,-0.9365081787109375,-0.0095367431640625,-0.1392364501953125,0.9468502032136056
1781869759.335886,-0.1166992112994194,-0.0390625,0.9960936903953552,1.0036668893958764,-0.9975433349609375,-0.1316070556640625,0.1010894775390625,1.0112527897092167
1781869759.346411,-0.1059570237994194,-0.025390625,1.00390625,1.0098016307767501,-0.57220458984375,-0.072479248046875,0.0438690185546875,0.5784425855905201
1781869759.357225,-0.1191406175494194,-0.0302734375,0.9902343153953552,0.9978351402684871,0.3452301025390625,0.4177093505859375,0.2269744873046875,0.5875222065192796
1781869759.368041,-0.1201171875,-0.0302734337747097,0.9829100966453552,0.990685054703463,0.5283355712890625,0.6618499755859375,0.1010894775390625,0.8528792109915487
1781869759.378857,-0.1210937425494194,-0.03173828125,0.9990233778953552,1.006835995861677,0.6504058837890625,0.6008148193359375,0.2841949462890625,0.9299317331381642
1781869759.389331,-0.1147460862994194,-0.0361328125,0.9873046278953552,0.9946067930211314,0.95367431640625,0.904083251953125,0.1010894775390625,1.3179834258078462
1781869759.399807,-0.12939453125,-0.0249023400247097,1.0029296875,1.0115488269603998,0.7724761962890625,0.5397796630859375,-0.0782012939453125,0.945619902967946
1781869759.410283,-0.13525390625,-0.0244140625,0.9897460341453552,0.9992431524459381,0.6504058837890625,0.7839202880859375,0.2841949462890625,1.057509148535564
1781869759.418285,-0.12548828125,-0.01806640625,0.9829100966453552,0.9910529561296161,0.7114410400390625,0.1735687255859375,0.7152557373046875,1.0236528834036769
1781869759.426289,-0.12939453125,-0.01611328125,0.9897460341453552,0.9982984496915276,0.28228759765625,0.110626220703125,0.5893707275390625,0.6627837528014076
1781869759.434293,-0.134765625,-0.03076171875,0.9897460341453552,0.9993524248875135,-0.2040863037109375,0.1735687255859375,0.7724761962890625,0.8176165334049561
1781869759.442297,-0.126953125,-0.0205078125,0.9765624403953552,0.9849933331306017,-0.08392333984375,0.415802001953125,0.2269744873046875,0.4810944290739416
1781869759.452944,-0.1137695237994194,-0.0146484375,0.9804686903953552,0.9871559826655162,-0.1430511474609375,0.1735687255859375,0.4100799560546875,0.4677128431518978
1781869759.463591,-0.12548828125,-0.029296875,0.9843749403953552,0.9927737098121625,0.1621246337890625,0.1125335693359375,0.2841949462890625,0.34599850954153977
1781869759.474238,-0.1215820237994194,-0.02783203125,0.9936522841453552,1.0014497851924204,0.1621246337890625,0.1125335693359375,0.2269744873046875,0.3007750305393545
1781869759.482227,-0.11376953125,-0.0283203162252903,0.9931640028953552,1.000060139791138,0.1010894775390625,0.0514984130859375,0.3490447998046875,0.3670196742549163
1781869759.490215,-0.12548828125,-0.0341796875,0.9785155653953552,0.987121204052303,0.2841949462890625,-0.6198883056640625,0.0438690185546875,0.6833394250182385
1781869759.498203,-0.1123046800494194,-0.017578125,0.9868163466453552,0.993341750681005,0.2841949462890625,-0.8029937744140625,-0.0782012939453125,0.8553836634041514
1781869759.506191,-0.1171874925494194,-0.01953125,0.9873046278953552,0.9944268733296423,0.1010894775390625,-0.6198883056640625,-0.1392364501953125,0.6433252544640032
1781869759.516885,-0.1225585862994194,-0.02099609375,0.9960936903953552,1.0038247272676186,0.225067138671875,-0.560760498046875,-0.3223419189453125,0.6848444099129894
1781869759.527579,-0.1201171875,-0.0253906212747097,0.9819335341453552,0.9895788436808931,-0.0820159912109375,-0.6198883056640625,-0.2613067626953125,0.6776941482288888
1781869759.538273,-0.12646484375,-0.021484375,1.00048828125,1.008678212311752,-0.1430511474609375,-0.5588531494140625,-0.3871917724609375,0.6947646666759542
1781869759.548921,-0.1162109300494194,-0.017578125,0.9829100966453552,0.9899122328918095,0.0400543212890625,-0.8640289306640625,-0.2040863037109375,0.8887078040845617
1781869759.559568,-0.12548828125,-0.02490234375,0.9985350966453552,1.0066974593629763,-0.38909912109375,-0.682830810546875,-0.0171661376953125,0.7860984150546326
1781869759.570215,-0.1245117112994194,-0.02197265625,0.9921874403953552,1.0002109181326093,-0.20599365234375,-0.560760498046875,-0.2040863037109375,0.6312978222187132
1781869759.580896,-0.1201171875,-0.0371093787252903,0.9946288466453552,1.0025426610879742,-0.6923675537109375,-0.6198883056640625,-0.0171661376953125,0.9294778196461196
1781869759.591579,-0.1230468675494194,-0.0205078125,0.9873046278953552,0.9951540233807253,-0.3871917724609375,-0.6198883056640625,0.0438690185546875,0.7321908705723229
1781869759.602262,-0.1079101487994194,-0.0126953125,0.9702147841453552,0.9762799283748508,-0.263214111328125,-0.560760498046875,0.0438690185546875,0.6210140862822561
1781869759.612924,-0.1093749925494194,-0.03173828125,0.9780272841453552,0.984635758046918,-0.1430511474609375,-0.3147125244140625,-0.1392364501953125,0.3726853805503437
1781869759.623585,-0.1157226487994194,-0.0107421875,0.9755858778953552,0.9824840615431325,-0.0209808349609375,-0.1926422119140625,0.0438690185546875,0.19868494667626982
1781869759.634246,-0.1083984375,-0.0239257849752903,0.9956054091453552,1.0017748225817094,0.0400543212890625,-0.0705718994140625,0.3490447998046875,0.3583531971554466
1781869759.642292,-0.1206054612994194,-0.02587890625,0.9838866591453552,0.9915888024418945,0.1010894775390625,-0.3147125244140625,-0.1392364501953125,0.35867791199791527
1781869759.650338,-0.1210937425494194,-0.03271484375,0.9838866591453552,0.99185024753257,0.2231597900390625,-0.1926422119140625,-0.2613067626953125,0.39394484122999424
1781869759.658384,-0.1201171875,-0.014648433774709702,0.9877929091453552,0.9951771433784069,0.2841949462890625,-0.1926422119140625,-0.3871917724609375,0.5174893795710479
1781869759.66643,-0.12451171875,-0.012695316225290298,0.9809569716453552,0.9889089540396353,0.2841949462890625,-0.1926422119140625,-0.3871917724609375,0.5174893795710479
1781869759.677373,-0.1215820237994194,-0.029296875,0.9838866591453552,0.9918031324008493,0.4673004150390625,0.1735687255859375,-0.3223419189453125,0.5936329616072148
1781869759.688316,-0.12646484375,-0.02734375,0.9848632216453552,0.9933260304242724,0.4673004150390625,-0.3757476806640625,-0.0171661376953125,0.5998755485127534
1781869759.699259,-0.13623046875,-0.0087890625,0.9887694716453552,0.9981488147031526,0.2841949462890625,0.0514984130859375,0.0438690185546875,0.29213583285102923
1781869759.707136,-0.1069335862994194,-0.02587890625,0.9892577528953552,0.995356926600262,0.16021728515625,-0.255584716796875,-0.0171661376953125,0.30213871351806665
1781869759.715014,-0.1186523362994194,-0.01806640625,0.9838866591453552,0.9911799685164692,0.3452301025390625,0.1125335693359375,-0.2040863037109375,0.41653192829483177
1781869759.722892,-0.11962890625,-0.0273437537252903,0.9907225966453552,0.9982935538117412,0.28228759765625,-0.072479248046875,-0.4444122314453125,0.5314525008372614
1781869759.73077,-0.1132812425494194,-0.0048828125,0.9833983778953552,0.9899135575486712,0.4673004150390625,0.0514984130859375,-0.3871917724609375,0.6090478085565142
1781869759.741434,-0.1166992112994194,-0.0361328125,0.9814452528953552,0.9890192467732336,0.28228759765625,-0.072479248046875,-0.6275177001953125,0.6918944957480089
1781869759.752098,-0.10498046875,-0.0288085974752903,0.9882811903953552,0.9942587919635025,0.40435791015625,-0.072479248046875,-0.9326934814453125,1.0191544000954653
1781869759.762762,-0.11328125,-0.014160159975290298,0.9868163466453552,0.9933980338910351,0.0400543212890625,-0.3757476806640625,-0.4444122314453125,0.5833462947825688
1781869759.770735,-0.125,-0.0244140587747097,0.9868163466453552,0.9950012805380407,0.2231597900390625,-0.4367828369140625,-0.9326934814453125,1.053801057526302
1781869759.778707,-0.1235351487994194,-0.01513671875,0.9824218153953552,0.9902740411664424,0.28228759765625,-0.255584716796875,-0.8106231689453125,0.8956113874229248
1781869759.786679,-0.1235351487994194,-0.03076171875,0.9853515028953552,0.9935415444698243,-0.0209808349609375,-0.1926422119140625,-0.6275177001953125,0.6567569423349972
1781869759.794651,-0.1103515550494194,-0.0458984375,0.9770507216453552,0.9843334013099808,-0.08392333984375,-0.072479248046875,-0.5054473876953125,0.5174682889762285
1781869759.805321,-0.11865234375,-0.0239257849752903,0.9702147841453552,0.9777359302174949,-0.1430511474609375,0.1735687255859375,-0.5054473876953125,0.5532330386188382
1781869759.815991,-0.1015624925494194,-0.0224609375,0.9965819716453552,1.001995538819796,-0.20599365234375,0.232696533203125,-0.3871917724609375,0.4964861831230686
1781869759.826661,-0.1171874925494194,-0.0146484375,0.9936522841453552,1.0006459648239698,-0.08392333984375,0.232696533203125,-0.6275177001953125,0.6745140974017494
1781869759.83459,-0.1171874925494194,-0.03369140625,0.9824218153953552,0.989959919708787,0.2841949462890625,0.4787445068359375,-0.3871917724609375,0.6781449247640732
1781869759.842518,-0.1225585862994194,-0.01806640625,0.9921874403953552,0.9998914536032343,0.2841949462890625,0.0514984130859375,-0.0782012939453125,0.29922282068942224
1781869759.850446,-0.126953125,-0.00830078125,1.00146484375,1.0095136612170426,0.3452301025390625,0.0514984130859375,-0.1392364501953125,0.3757960874097723
1781869759.858374,-0.12646484375,-0.0126953125,0.9868163466453552,0.9949678535865721,0.2841949462890625,-0.1926422119140625,-0.6923675537109375,0.7728199135238776
1781869759.869005,-0.12646484375,-0.0234375,0.9902343153953552,0.9985522883141722,0.5283355712890625,-0.1316070556640625,-0.2040863037109375,0.5814723659403744
1781869759.879636,-0.1162109300494194,-0.0302734375,0.9819335341453552,0.9892496786758158,0.2841949462890625,-0.3147125244140625,-0.5702972412109375,0.7106684767541904
1781869759.890267,-0.12548828125,-0.03271484375,0.9907225966453552,0.999174075542586,0.3452301025390625,-0.4978179931640625,-0.5054473876953125,0.7889763239445413
1781869759.900941,-0.1337890625,-0.0322265625,0.9819335341453552,0.9915298936766268,-0.2040863037109375,-0.6809234619140625,-0.3871917724609375,0.8094599736916379
1781869759.911617,-0.1137695237994194,-0.02587890625,0.9916991591453552,0.998539155258244,-0.1430511474609375,-0.8640289306640625,-0.2040863037109375,0.899255716232467
1781869759.922293,-0.13427734375,-0.02099609375,0.9819335341453552,0.9912944600251239,0.0400543212890625,-1.3523101806640625,0.3490447998046875,1.39720415317601
1781869759.930288,-0.1176757737994194,-0.03515625,0.9853515028953552,0.9929758979509471,0.1010894775390625,-1.2912750244140625,1.0204315185546875,1.6489059267297463
1781869759.938285,-0.1103515625,-0.0175781287252903,0.9980468153953552,1.0042827807328394,0.2841949462890625,-0.6809234619140625,0.7724761962890625,1.068242950978144
1781869759.946282,-0.1035156175494194,-0.02197265625,0.9829100966453552,0.9885901773670928,0.6504058837890625,-0.0095367431640625,0.9593963623046875,1.1591204178777441
1781869759.954279,-0.1025390550494194,-0.01171875,0.9970702528953552,1.0023974641432398,0.530242919921875,0.720977783203125,0.4711151123046875,1.011393082358005
1781869759.964936,-0.1064453050494194,-0.01953125,1.0078125,1.0136064856984077,0.713348388671875,0.904083251953125,0.1010894775390625,1.156049969746991
1781869759.975593,-0.1201171875,-0.0249023400247097,0.9980468153953552,1.0055574130761638,0.5283355712890625,1.3332366943359375,0.1659393310546875,1.4436739315385712
1781869759.98625,-0.1191406175494194,-0.02197265625,0.9873046278953552,0.9947098635463124,0.40435791015625,1.02996826171875,0.0438690185546875,1.1073682451844216
1781869759.994316,-0.1186523362994194,-0.0126953125,0.9931640028953552,1.0003070951042525,0.2841949462890625,0.7839202880859375,0.2269744873046875,0.8641847044794349
1781869760.002383,-0.12890625,-0.0224609375,0.9785155653953552,0.9872254183941138,-0.2040863037109375,0.6618499755859375,0.2841949462890625,0.7486410201436615
1781869760.01045,-0.1240234300494194,-0.01611328125,0.9760741591453552,0.9840539686344327,-0.6923675537109375,0.6618499755859375,0.3490447998046875,1.0194363598996596
1781869760.018517,-0.1215820237994194,-0.02490234375,0.9907225966453552,0.9984656121965948,-0.8754730224609375,0.5397796630859375,0.2269744873046875,1.0532485535832856
1781869760.029119,-0.1206054612994194,-0.0283203125,0.9775390028953552,0.9853579144539251,-0.9365081787109375,0.3566741943359375,0.4100799560546875,1.0827878924588517
1781869760.039721,-0.12939453125,-0.0322265625,0.9926757216453552,1.0015920249243704,-1.1806488037109375,0.1735687255859375,0.4100799560546875,1.2618332974539104
1781869760.050323,-0.1396484225988388,-0.0180664099752903,0.9775390028953552,0.9876287659264408,-1.36566162109375,0.293731689453125,0.8373260498046875,1.6286266860146061
1781869760.060973,-0.1157226413488388,-0.0288085974752903,0.9892577528953552,0.9964198746877809,-0.934600830078125,-0.072479248046875,0.8983612060546875,1.2983777607168854
1781869760.071623,-0.10986328125,-0.0278320349752903,1.0029296875,1.009312895393064,-0.75531005859375,-0.316619873046875,0.7724761962890625,1.1258156609562382
1781869760.082273,-0.1191406175494194,-0.0361328125,0.9843749403953552,0.9922167556373841,-0.9975433349609375,-0.4367828369140625,0.9593963623046875,1.4513143462913722
1781869760.090272,-0.1079101487994194,-0.0166015625,0.9843749403953552,0.9904111446110213,-0.8754730224609375,-0.3147125244140625,0.6542205810546875,1.137322098068746
1781869760.098269,-0.115234375,-0.0297851525247097,0.9843749403953552,0.9915443206286444,-0.3261566162109375,-0.1316070556640625,0.4100799560546875,0.5402445055311038
1781869760.106266,-0.1108398362994194,-0.029296875,0.9975585341453552,1.004124895240566,-0.3261566162109375,-0.1316070556640625,0.3490447998046875,0.4955106736180632
1781869760.114263,-0.1040038987994194,-0.021484375,0.9838866591453552,0.989601610436659,-0.1430511474609375,0.1125335693359375,0.1659393310546875,0.2462992013958923
1781869760.124953,-0.1176757737994194,-0.0244140625,0.9838866591453552,0.9911995723522354,0.1010894775390625,0.1735687255859375,0.5893707275390625,0.6226580437532072
1781869760.135643,-0.10888671875,-0.0288085974752903,0.9887694716453552,0.9951639668247991,0.4673004150390625,0.6618499755859375,0.3490447998046875,0.8821832804749139
1781869760.146333,-0.130859375,-0.017578125,0.9809569716453552,0.9898028827617813,0.46539306640625,0.415802001953125,0.5321502685546875,0.8201621299536237
1781869760.156975,-0.1186523362994194,-0.02490234375,0.9897460341453552,0.9971437788704357,0.4062652587890625,0.3566741943359375,0.3490447998046875,0.6435061877517795
1781869760.167617,-0.1157226487994194,-0.02783203125,0.9882811903953552,0.9954225558514912,0.1621246337890625,0.6618499755859375,0.8983612060546875,1.1275560489875331
1781869760.178259,-0.1123046800494194,-0.02001953125,0.9951171278953552,1.0016342750840612,0.1621246337890625,0.6618499755859375,0.8983612060546875,1.1275560489875331
1781869760.186303,-0.1210937425494194,-0.0263671875,0.9848632216453552,0.9926300863921833,0.16021728515625,-0.255584716796875,1.3256072998046875,1.3594954355268916
1781869760.194345,-0.12646484375,-0.00537109375,0.9877929091453552,0.9958699898634495,0.0400543212890625,-0.4367828369140625,0.9593963623046875,1.0549051972950418
1781869760.202387,-0.1215820237994194,-0.0205078125,0.9975585341453552,1.0051496345972213,0.2231597900390625,-0.1316070556640625,0.7724761962890625,0.8147638816393743
1781869760.210429,-0.1127929612994194,-0.02685546875,0.9814452528953552,0.9882703338415568,0.225067138671875,0.720977783203125,0.5893707275390625,0.95803028932407
1781869760.221037,-0.12353515625,-0.014160159975290298,0.9912108778953552,0.9989797042074071,0.1010894775390625,0.3566741943359375,0.4711151123046875,0.5994872912882884
1781869760.231645,-0.1108398362994194,-0.0341796875,0.9804686903953552,0.9873057141504158,0.5741119384765625,0.1964569091796875,0.1277923583984375,0.6201054119508932
1781869760.242253,-0.1157226487994194,-0.01611328125,0.9833983778953552,0.9903149695551468,0.4520416259765625,0.1354217529296875,0.1888275146484375,0.508268150753507
1781869760.250257,-0.12451171875,-0.015136715024709702,0.9902343153953552,0.9981464259487814,0.0247955322265625,-0.1087188720703125,0.1888275146484375,0.21929533020779388
1781869760.258261,-0.1127929612994194,-0.015625,0.9956054091453552,1.0020960649873756,0.087738037109375,-0.476837158203125,0.0629425048828125,0.4889104187067003
1781869760.266265,-0.1215820237994194,-0.02587890625,0.9848632216453552,0.9926769220897235,-0.03814697265625,-0.476837158203125,0.0057220458984375,0.4783948251970673
1781869760.274269,-0.1132812425494194,-0.029296875,0.9892577528953552,0.9961535265519436,0.0247955322265625,-0.2307891845703125,-0.1773834228515625,0.29213583285102923
1781869760.284919,-0.1298827975988388,-0.0190429724752903,0.9877929091453552,0.9964772989238839,-0.2803802490234375,-0.1697540283203125,0.0057220458984375,0.3278143620750654
1781869760.295568,-0.1201171875,-0.0268554724752903,0.9746093153953552,0.9823505854786183,-0.2803802490234375,-0.0476837158203125,-0.0553131103515625,0.2897349840347922
1781869760.306217,-0.1201171800494194,-0.021484375,0.9936522841453552,1.0011166650792738,-0.5245208740234375,-0.0476837158203125,0.0629425048828125,0.5304315629387697
1781869760.314232,-0.1103515625,-0.0195312462747097,0.9882811903953552,0.9946148240482318,-0.52642822265625,-0.110626220703125,-0.0553131103515625,0.54076277099375
1781869760.322247,-0.1230468675494194,-0.0224609375,0.9877929091453552,0.9956805997331409,-0.6465911865234375,-0.2307891845703125,0.3681182861328125,0.779008910597161
1781869760.330262,-0.1201171800494194,-0.02587890625,1.0078125,1.0152752778867271,-0.1583099365234375,-0.1697540283203125,0.0629425048828125,0.24049994813710698
1781869760.338277,-0.1166992112994194,-0.0146484375,0.9746093153953552,0.9816804980718018,-0.4024505615234375,-0.1697540283203125,0.0629425048828125,0.4412988143224798
1781869760.348962,-0.1108398362994194,-0.0283203125,0.9892577528953552,0.9958505967636648,-0.34332275390625,-0.110626220703125,0.0057220458984375,0.3607511827646471
1781869760.359647,-0.1069335862994194,-0.0146484375,0.9702147841453552,0.9761998237933999,-0.16021728515625,0.011444091796875,0.0629425048828125,0.17251754873292544
1781869760.370332,-0.1162109300494194,-0.0166015625,0.9995116591453552,1.0063817113341702,-0.4024505615234375,-0.1087188720703125,-0.4253387451171875,0.5955663654981155
1781869760.378324,-0.12451171875,-0.012695316225290298,0.9833983778953552,0.9913307766872544,-0.1583099365234375,0.1354217529296875,-0.4253387451171875,0.4736181323244159
1781869760.386316,-0.1206054612994194,-0.01171875,0.9853515028953552,0.9927741891562972,-0.16021728515625,0.011444091796875,-0.6656646728515625,0.6847700361307233
1781869760.394308,-0.1225585862994194,-0.0263671875,0.9843749403953552,0.992325480339355,-0.3414154052734375,0.1354217529296875,-0.9136199951171875,0.9846852418933192
1781869760.4023,-0.1298828125,-0.021484375,0.9863280653953552,0.9950749599595977,-0.03814697265625,0.011444091796875,-0.9136199951171875,0.9144876457546169
1781869760.412943,-0.1240234375,-0.0234375037252903,0.9916991591453552,0.9996991306787227,-0.1583099365234375,0.0743865966796875,-0.6656646728515625,0.6882622018171701
1781869760.423586,-0.1249999925494194,-0.0361328125,0.9838866591453552,0.9924532917577146,-0.3414154052734375,-0.1697540283203125,-0.5435943603515625,0.6639847420649239
1781869760.434229,-0.1162109300494194,-0.02587890625,0.9916991591453552,0.9988202642624207,-0.0972747802734375,0.0743865966796875,-0.8487701416015625,0.8575584539360384
1781869760.44489,-0.1259765625,-0.03759765625,0.9770507216453552,0.985855867113707,-0.1583099365234375,-0.2307891845703125,-0.4253387451171875,0.5091549192677494
1781869760.455552,-0.125,-0.008789066225290298,0.9858397841453552,0.9937717684100676,-0.16021728515625,-0.110626220703125,-0.8487701416015625,0.8708148439503268
1781869760.466214,-0.1201171800494194,-0.01611328125,0.9916991591453552,0.9990770726151565,-0.03814697265625,-0.232696533203125,-1.0318756103515625,1.0584753862636578
1781869760.474218,-0.1108398288488388,-0.013671878725290298,0.9794921278953552,0.9858383318455871,0.32806396484375,-0.293731689453125,-0.9708404541015625,1.0660372684564627
1781869760.482223,-0.1279296875,-0.0166015625,0.9907225966453552,0.9990860224850532,0.0858306884765625,-0.4138946533203125,-0.9708404541015625,1.0588705673743277
1781869760.490228,-0.0927734300494194,-0.01708984375,0.9804686903953552,0.9849963578247977,0.26702880859375,-0.1678466796875,-1.2149810791015625,1.255251335420884
1781869760.498233,-0.10009765625,-0.0288085974752903,0.9873046278953552,0.9927839162369736,0.26702880859375,-0.3509521484375,-1.3370513916015625,1.4078985115751665
1781869760.50895,-0.126953125,-0.025390625,0.9970702528953552,1.00544063424648,0.5130767822265625,-0.8411407470703125,-1.1539459228515625,1.5173518819666423
1781869760.519667,-0.130859375,-0.0224609375,0.9902343153953552,0.9990959258876384,0.5130767822265625,-0.5359649658203125,-1.0967254638671875,1.3241272492254774
1781869760.530384,-0.1220703050494194,-0.0263671875,0.9824218153953552,0.9903277292473557,0.45013427734375,-0.1678466796875,-1.1539459228515625,1.2499538265022603
1781869760.540997,-0.115234375,-0.0200195275247097,0.9838866591453552,0.9908141605307029,0.1468658447265625,-0.3528594970703125,-1.2798309326171875,1.3356820793526207
1781869760.551612,-0.1157226413488388,-0.0185546912252903,0.9770507216453552,0.9840549369597854,0.2079010009765625,-0.0476837158203125,-1.3370513916015625,1.3539582662494305
1781869760.562227,-0.1215820237994194,-0.01904296875,0.9936522841453552,1.0012440686252566,0.14495849609375,-0.293731689453125,-1.0318756103515625,1.0826165277775683
1781869760.570272,-0.1201171875,-0.0239257849752903,0.9824218153953552,0.9900268709910349,0.0247955322265625,-0.3528594970703125,-0.8487701416015625,0.9195299866591893
1781869760.578316,-0.1220703050494194,-0.01953125,0.9936522841453552,1.001312883612661,0.2079010009765625,-0.3528594970703125,-0.7915496826171875,0.8912258697609382
1781869760.58636,-0.1152343675494194,-0.01171875,0.9829100966453552,0.9897113451170794,0.3910064697265625,-0.4138946533203125,-0.6084442138671875,0.8333061891067597
1781869760.594404,-0.126953125,-0.01220703125,0.9868163466453552,0.9950239241172496,0.1468658447265625,-0.2307891845703125,-0.6084442138671875,0.6671113740975613
1781869760.602532,-0.11865234375,-0.013671878725290298,0.9936522841453552,1.0008047565497122,0.0247955322265625,-0.0476837158203125,-0.4825592041015625,0.4855429338750223
1781869760.61066,-0.1103515625,-0.0239257849752903,0.9790038466453552,0.9854940092559048,-0.03814697265625,-0.415802001953125,-0.4253387451171875,0.5960365294584947
1781869760.618788,-0.1157226487994194,-0.02734375,0.9946288466453552,1.001711512706271,0.14495849609375,-0.415802001953125,-0.3604888916015625,0.5690839229727996
1781869760.626916,-0.1035156175494194,-0.0234375,0.9892577528953552,0.9949350235801608,0.0247955322265625,-0.5359649658203125,-0.6656646728515625,0.8549752743136757
1781869760.637481,-0.1220703050494194,-0.021484375,0.9780272841453552,0.9858499410542856,0.2079010009765625,-0.4138946533203125,-0.4253387451171875,0.6288439061898128
1781869760.648046,-0.1123046800494194,-0.0205078125,0.9853515028953552,0.9919427885683089,0.32806396484375,0.011444091796875,-0.4253387451171875,0.5372801693380469
1781869760.658611,-0.1142578125,-0.0229492224752903,0.9916991591453552,0.9985232780356751,0.63323974609375,0.011444091796875,-0.6084442138671875,0.8782527567041234
1781869760.666569,-0.1142578050494194,-0.025390625,0.9868163466453552,0.9937333806706342,0.8182525634765625,0.0743865966796875,-0.6656646728515625,1.0574403435107487
1781869760.674527,-0.11865234375,-0.008789066225290298,0.9868163466453552,0.9939628405372942,1.1844635009765625,0.8068084716796875,-0.7266998291015625,1.606856041074
1781869760.682485,-0.1259765625,-0.005859375,0.9843749403953552,0.9924205005203521,1.0623931884765625,1.2340545654296875,-0.6084442138671875,1.738325147596879
1781869760.690443,-0.1157226487994194,-0.02294921875,0.9916991591453552,0.9986919546767129,0.8792877197265625,1.2950897216796875,-0.3604888916015625,1.6063488171099176
1781869760.701085,-0.1225585862994194,-0.017578125,0.9863280653953552,0.9940687351188408,0.7572174072265625,1.0509490966796875,-0.2384185791015625,1.3170860353369391
1781869760.711727,-0.12841796875,-0.00830078125,0.9750975966453552,0.9835524391972114,0.45013427734375,0.988006591796875,0.3681182861328125,1.1464244264927437
1781869760.722369,-0.1245117112994194,-0.01123046875,0.9848632216453552,0.9927662640464384,0.26702880859375,1.171112060546875,0.4329681396484375,1.2768199767108808
1781869760.730498,-0.1235351487994194,-0.0244140625,0.9819335341453552,0.9899749718633477,-0.22125244140625,0.377655029296875,0.6160736083984375,0.7557265741963299
1781869760.738627,-0.1347656100988388,-0.0195312462747097,0.9848632216453552,0.9942327718376737,-0.16021728515625,0.377655029296875,0.1888275146484375,0.45160683110906163
1781869760.746756,-0.1259765625,-0.0166015625,0.9897460341453552,0.9978691889637722,-0.16021728515625,-0.110626220703125,0.6771087646484375,0.704545256412694
1781869760.754885,-0.12548828125,-0.03173828125,0.9853515028953552,0.9938169909424563,-0.3414154052734375,-0.0476837158203125,0.4329681396484375,0.5534434258920118
1781869760.765423,-0.130859375,-0.02978515625,0.9863280653953552,0.9954166887011547,-0.4634857177734375,0.0743865966796875,0.7381439208984375,0.8747621529906652
1781869760.775961,-0.1215820237994194,-0.0400390625,0.9936522841453552,1.001863352371132,-0.34332275390625,-0.293731689453125,1.1043548583984375,1.193209316091268
1781869760.786499,-0.1132812425494194,-0.03271484375,0.9985350966453552,1.0054726451513618,-0.5245208740234375,-0.3528594970703125,0.9212493896484375,1.1172879708860395
1781869760.794549,-0.1147460862994194,-0.02099609375,0.9848632216453552,0.9917474807749505,-0.0362396240234375,-0.0476837158203125,0.7381439208984375,0.7405697097931505
1781869760.802597,-0.1171874925494194,-0.01904296875,0.9931640028953552,1.0002351122191016,0.0858306884765625,-0.4138946533203125,0.7991790771484375,0.9040812399797545
1781869760.810645,-0.1206054612994194,-0.0263671875,0.9897460341453552,0.9974157197369432,-0.1583099365234375,-0.3528594970703125,0.9212493896484375,0.9991357758595112
1781869760.818693,-0.1225585862994194,-0.02587890625,0.9926757216453552,1.0005475566951005,0.3910064697265625,0.1354217529296875,0.9822845458984375,1.065883689548479
1781869760.829322,-0.1123046800494194,-0.02294921875,0.9838866591453552,0.9905412489373909,0.087738037109375,0.194549560546875,0.8563995361328125,0.8825914457739122
1781869760.839951,-0.1113281175494194,-0.02587890625,0.9965819716453552,1.0031147959004179,0.32806396484375,0.377655029296875,0.6771087646484375,0.8418583998190895
1781869760.85058,-0.1025390550494194,-0.0146484375,0.9916991591453552,0.997093805407106,0.6351470947265625,0.8068084716796875,0.6771087646484375,1.2299707399273525
1781869760.861127,-0.1108398362994194,-0.0205078125,0.9697265028953552,0.9762558732740473,0.45013427734375,0.743865966796875,1.1043548583984375,1.4055451246639727
1781869760.871675,-0.1181640550494194,-0.01806640625,0.9731444716453552,0.9804587200052992,0.6961822509765625,0.8678436279296875,0.7991790771484375,1.3698574693977412
1781869760.882223,-0.1416015625,-0.02001953125,0.9907225966453552,1.0009910327458615,0.6961822509765625,1.1119842529296875,0.7991790771484375,1.5361855039969023
1781869760.890239,-0.13232421875,-0.03125,0.9887694716453552,0.9980738096081034,0.7572174072265625,0.3795623779296875,1.1043548583984375,1.3917778033201957
1781869760.898255,-0.12451171875,-0.0200195275247097,0.9726561903953552,0.9807976418725716,1.2454986572265625,0.1354217529296875,1.0395050048828125,1.6279363044960131
1781869760.906271,-0.1079101487994194,-0.0185546875,0.9726561903953552,0.9787997452781345,1.0013580322265625,-0.0476837158203125,1.3446807861328125,1.6772471678479128
1781869760.914287,-0.1108398362994194,-0.0185546875,0.9877929091453552,0.9941652664909133,0.63323974609375,0.011444091796875,1.1653900146484375,1.32637001983316
1781869760.922281,-0.115234375,-0.0219726599752903,0.9790038466453552,0.9860072467859617,0.4520416259765625,0.6237030029296875,0.6771087646484375,1.0255843927453154
1781869760.930275,-0.1176757737994194,-0.0009765625,0.9863280653953552,0.9933235092356129,0.7572174072265625,0.5626678466796875,0.9212493896484375,1.3185877844958571
1781869760.938269,-0.1220703050494194,-0.0009765625,0.9819335341453552,0.9894925863938355,0.4520416259765625,0.1354217529296875,0.7991790771484375,0.9280990680600385
1781869760.946263,-0.115234375,-0.0244140587747097,0.9770507216453552,0.9841255611532529,0.45013427734375,0.377655029296875,0.8563995361328125,1.038587672891172
1781869760.956912,-0.1215820237994194,-0.02001953125,0.9848632216453552,0.992541452782855,0.26702880859375,0.560760498046875,0.7381439208984375,0.9646829369010813
1781869760.967561,-0.12548828125,-0.0146484375,0.9921874403953552,1.0001988813883753,0.20599365234375,0.011444091796875,0.7991790771484375,0.8253796395567322
1781869760.97821,-0.1118163987994194,-0.0205078125,0.9775390028953552,0.9841270139548305,0.0247955322265625,0.0743865966796875,0.4940032958984375,0.5001874054217121
1781869760.988929,-0.1108398362994194,-0.0185546875,0.9794921278953552,0.9859181377518499,-0.2803802490234375,0.0743865966796875,-0.4253387451171875,0.5148392932808209
1781869760.999649,-0.1083984300494194,-0.01513671875,0.9824218153953552,0.9884998549602326,-0.4024505615234375,0.3795623779296875,-0.6656646728515625,0.8655307677331562
1781869761.010369,-0.1201171875,-0.0234375037252903,0.9926757216453552,1.0001912535399966,-0.03814697265625,0.377655029296875,-0.7915496826171875,0.877855006665355
1781869761.020996,-0.12451171875,-0.0180664099752903,0.9863280653953552,0.9943201777405598,-0.2803802490234375,0.6237030029296875,-1.0318756103515625,1.237895712547856
1781869761.031626,-0.13037109375,-0.00732421875,0.9838866591453552,0.992513588980059,-0.22125244140625,0.3204345703125,-1.1539459228515625,1.2178760813585785
1781869761.042256,-0.12890625,-0.008300784975290298,0.9843749403953552,0.9928140548957934,-0.34332275390625,0.011444091796875,-1.2149810791015625,1.262608610441741
1781869761.052927,-0.1298827975988388,-0.0278320349752903,0.9833983778953552,0.992328843141316,-0.0972747802734375,-0.4138946533203125,-1.3370513916015625,1.4030244440878648
1781869761.063597,-0.11865234375,-0.0190429724752903,0.9863280653953552,0.9936216916234302,0.0247955322265625,-0.6580352783203125,-1.3370513916015625,1.4904132546767572
1781869761.074267,-0.1201171875,-0.0307617150247097,0.9799804091453552,0.9877935129129313,0.2079010009765625,-0.9632110595703125,-1.5201568603515625,1.8115946708796482
1781869761.082411,-0.1220703050494194,-0.02783203125,0.9882811903953552,0.9961804518397355,0.2079010009765625,-0.9632110595703125,-1.7032623291015625,1.9677654670265206
1781869761.090554,-0.1230468675494194,-0.01318359375,0.9897460341453552,0.9974525306320837,0.3910064697265625,-1.3904571533203125,-1.4591217041015625,2.053117946433644
1781869761.098697,-0.126953125,-0.01708984375,0.9799804091453552,0.9883171358503114,0.45013427734375,-1.270294189453125,-1.7032623291015625,2.1719509103878547
1781869761.10684,-0.1249999925494194,-0.02587890625,0.9790038466453552,0.9872908627514251,0.45013427734375,-1.3275146484375,-1.3980865478515625,1.9797883737256916
1781869761.114837,-0.1206054612994194,-0.02099609375,0.9760741591453552,0.9837211380260753,0.93841552734375,-1.209259033203125,-1.5201568603515625,2.1572686414577866
1781869761.122834,-0.1108398362994194,-0.017578125,0.9912108778953552,0.9975437154568608,0.6961822509765625,-1.6345977783203125,-1.3370513916015625,2.2235750599537156
1781869761.130831,-0.1074218675494194,-0.015625,0.9829100966453552,0.9888861695565302,0.69427490234375,-0.965118408203125,-1.2798309326171875,1.7468366832536857
1781869761.138828,-0.1191406175494194,-0.021484375,0.9829100966453552,0.9903374794516155,0.6961822509765625,-0.5970001220703125,-1.2149810791015625,1.5222542149396594
1781869761.149343,-0.1171874925494194,-0.0185546875,0.9858397841453552,0.9929538080102233,0.4520416259765625,-0.5359649658203125,-1.2149810791015625,1.402775498352142
1781869761.159858,-0.1166992112994194,-0.0185546875,0.9804686903953552,0.9875635853917013,0.3299713134765625,-0.1697540283203125,-1.0318756103515625,1.0965695477655901
1781869761.170373,-0.1025390550494194,-0.025390625,0.9931640028953552,0.9987660778658052,0.32806396484375,-0.110626220703125,-1.5850067138671875,1.622378010434103
1781869761.181051,-0.1088867112994194,-0.0205078125,0.9863280653953552,0.9925320845482439,0.3299713134765625,0.3185272216796875,-1.2149810791015625,1.2986607259955256
1781869761.191727,-0.125,-0.0244140587747097,0.9765624403953552,0.9848325980880135,0.26702880859375,0.6256103515625,-1.1539459228515625,1.3395088239600725
1781869761.202403,-0.1215820237994194,-0.02392578125,0.9790038466453552,0.9868146549712299,0.0858306884765625,0.9288787841796875,-0.9708404541015625,1.3463706362304635
1781869761.210444,-0.1127929612994194,-0.02099609375,0.9907225966453552,0.9973436476837692,-0.22125244140625,0.682830810546875,-0.9708404541015625,1.2073697635689145
1781869761.218483,-0.1215820237994194,-0.02734375,0.9829100966453552,0.990778546024593,0.26702880859375,0.560760498046875,-1.1539459228515625,1.3104762163635482
1781869761.226522,-0.1196288987994194,-0.02685546875,0.9907225966453552,0.9982802978790372,0.02288818359375,0.988006591796875,-0.8487701416015625,1.3027247014072598
1781869761.234561,-0.12744140625,-0.01171875,0.9829100966453552,0.9912067893310263,0.1468658447265625,1.1119842529296875,-1.2798309326171875,1.7017772390047476
1781869761.245161,-0.13671875,-0.01611328125,0.9760741591453552,0.9857344564260277,0.1468658447265625,0.8068084716796875,-1.0967254638671875,1.3694218595509777
1781869761.255761,-0.12646484375,-0.03076171875,0.9809569716453552,0.9895535459310892,0.14495849609375,0.194549560546875,-1.1539459228515625,1.179175003960179
1781869761.266361,-0.1328125,-0.0263671875,0.9770507216453552,0.9863886158105332,0.32806396484375,0.194549560546875,-0.6656646728515625,0.7671929048293924
1781869761.276964,-0.12548828125,-0.01611328125,0.9721679091453552,0.9803659470502698,0.3910064697265625,-0.1697540283203125,-0.4253387451171875,0.6021756700472599
1781869761.287569,-0.12841796875,-0.0234375037252903,0.9892577528953552,0.9978333492834947,0.5130767822265625,-0.7190704345703125,-0.7266998291015625,1.1438543246188921
1781869761.298174,-0.1245117112994194,-0.025390625,1.00537109375,1.0133700638151257,0.32806396484375,-0.598907470703125,-0.5435943603515625,0.8728178229728356
1781869761.308859,-0.1083984300494194,-0.0146484375,0.9853515028953552,0.9914042468219033,0.2079010009765625,-0.5970001220703125,-0.4253387451171875,0.7619350497627002
1781869761.319545,-0.1279296875,-0.0205078125,0.9975585341453552,1.0059371771455774,0.69427490234375,-0.965118408203125,-0.3604888916015625,1.242345935255185
1781869761.330231,-0.1152343675494194,-0.01123046875,0.9916991591453552,0.998434927845808,0.45013427734375,-0.904083251953125,-0.2384185791015625,1.037704588484953
1781869761.340892,-0.1215820237994194,-0.02490234375,0.9814452528953552,0.9892608855434614,0.02288818359375,-0.965118408203125,0.2498626708984375,0.9972004638533096
1781869761.351554,-0.1166992112994194,-0.0107421875,0.9833983778953552,0.9903567388357629,-0.3414154052734375,-0.9021759033203125,0.8563995361328125,1.2899248059396113
1781869761.362216,-0.1103515625,-0.0190429724752903,0.9711913466453552,0.977626070614785,-0.03814697265625,-1.1444091796875,0.9212493896484375,1.4696353289178483
1781869761.370227,-0.1049804612994194,-0.02685546875,0.9790038466453552,0.9849825608622841,-0.0362396240234375,-0.7190704345703125,0.9822845458984375,1.2178910170181065
1781869761.378239,-0.1025390550494194,-0.0283203125,0.9902343153953552,0.9959318738232216,-0.0972747802734375,-0.5359649658203125,1.1653900146484375,1.2864115646659509
1781869761.386251,-0.1132812425494194,-0.02294921875,0.9829100966453552,0.9896825575113251,0.0858306884765625,-0.1087188720703125,1.0395050048828125,1.0486931655184073
1781869761.394263,-0.1064453050494194,-0.01806640625,0.9926757216453552,0.9985299626681118,0.2079010009765625,0.6237030029296875,0.4940032958984375,0.8223548616194141
1781869761.404983,-0.1108398362994194,-0.0283203125,0.9960936903953552,1.0026415857405964,0.6351470947265625,1.1119842529296875,0.3108978271484375,1.3177929540063598
1781869761.415703,-0.1059570163488388,-0.0288085974752903,0.9902343153953552,0.9963035802347341,0.5741119384765625,1.4171600341796875,0.1888275146484375,1.5406501584285108
1781869761.426423,-0.1206054612994194,-0.0244140625,0.9868163466453552,0.9944587602055127,0.81634521484375,1.354217529296875,-0.1773834228515625,1.591159798749251
1781869761.434671,-0.1191406175494194,-0.01708984375,0.9819335341453552,0.9892825759047027,0.6961822509765625,0.8678436279296875,0.2498626708984375,1.1402866496725532
1781869761.442918,-0.134765625,-0.01025390625,0.9760741591453552,0.9853870713716193,0.2079010009765625,0.6237030029296875,0.3108978271484375,0.7272452963039266
1781869761.451165,-0.1401367038488388,-0.008300784975290298,0.9941405653953552,1.0040033180031924,-0.1583099365234375,0.4405975341796875,0.6160736083984375,0.7737796288946531
1781869761.459412,-0.119140625,-0.008789066225290298,0.9931640028953552,1.000323184204799,-0.3414154052734375,0.6237030029296875,0.6160736083984375,0.9408063593463889
1781869761.469723,-0.13916015625,-0.0195312462747097,0.9916991591453552,1.0016058311123055,-0.52642822265625,0.560760498046875,0.7381439208984375,1.0660372684564627
1781869761.480034,-0.1259765625,-0.01513671875,0.9877929091453552,0.9959086533973269,-0.5855560302734375,0.5626678466796875,0.9212493896484375,1.2280763039014968
1781869761.490345,-0.1328125,-0.014160159975290298,0.9819335341453552,0.9909758502435684,-0.8907318115234375,0.4405975341796875,1.4705657958984375,1.7748501647326318
1781869761.498338,-0.1176757737994194,-0.015625,0.9892577528953552,0.996354670801447,-1.19781494140625,0.194549560546875,1.5926361083984375,2.002273692365647
1781869761.506333,-0.1191406175494194,-0.01171875,0.9868163466453552,0.9940514664030758,-1.1348724365234375,0.2574920654296875,1.7147064208984375,2.072306859712195
1781869761.514328,-0.1088867112994194,-0.017578125,0.9824218153953552,0.98859391548847,-1.0738372802734375,-0.0476837158203125,1.7147064208984375,2.0237634128350614
1781869761.522323,-0.1044921875,-0.0244140587747097,0.9951171278953552,1.0008859883848364,-1.0128021240234375,0.2574920654296875,1.3446807861328125,1.7030081393758492
1781869761.533072,-0.1020507737994194,-0.02734375,0.9858397841453552,0.9914848062884692,-0.7686614990234375,0.2574920654296875,1.2264251708984375,1.4701229076691058
1781869761.543821,-0.1127929612994194,-0.01416015625,0.9897460341453552,0.9962529669969246,-0.8296966552734375,0.3185272216796875,0.7991790771484375,1.1952168539954322
1781869761.55457,-0.103515625,-0.0185546912252903,0.9907225966453552,0.9962886251931825,-0.4634857177734375,0.3185272216796875,0.3681182861328125,0.6721530139159524
1781869761.565198,-0.1103515625,-0.0317382849752903,0.9999999403953552,1.0065707460829956,-0.03814697265625,0.194549560546875,0.0629425048828125,0.20800596614698758
1781869761.575827,-0.13232421875,-0.01171875,0.9848632216453552,0.9937819646778807,0.45013427734375,0.255584716796875,0.1277923583984375,0.5331747386785626
1781869761.586456,-0.1210937350988388,-0.0190429724752903,0.9848632216453552,0.9924625397618544,0.2079010009765625,0.1354217529296875,0.4940032958984375,0.5528120238671778
1781869761.597028,-0.1235351487994194,-0.02978515625,0.9892577528953552,0.9973860788006313,0.1468658447265625,0.2574920654296875,0.3681182861328125,0.472633909798961
1781869761.607602,-0.1416015625,-0.021484375,0.9824218153953552,0.9928067305554931,0.2079010009765625,0.3185272216796875,0.4329681396484375,0.5763192059168828
1781869761.618176,-0.12646484375,-0.0244140625,1.0009765625,1.0092291522874188,0.26702880859375,0.255584716796875,0.6160736083984375,0.7184529372507344
1781869761.62623,-0.125,-0.0229492224752903,0.9853515028953552,0.9935135887698545,0.45013427734375,-0.232696533203125,0.6771087646484375,0.8457214809665569
1781869761.634284,-0.13232421875,-0.01318359375,0.9790038466453552,0.9879939462154437,0.3910064697265625,-0.3528594970703125,0.6160736083984375,0.8105199411524768
1781869761.642338,-0.1210937350988388,-0.014160159975290298,0.9794921278953552,0.9870506731772611,0.4520416259765625,-0.3528594970703125,0.4329681396484375,0.7185491397523743
1781869761.650392,-0.1186523362994194,-0.03955078125,0.9902343153953552,0.9981015181800414,0.5130767822265625,-0.3528594970703125,0.2498626708984375,0.6709612235004182
1781869761.658378,-0.1298827975988388,-0.0327148474752903,0.9970702528953552,1.0060262877113302,0.6961822509765625,-0.4138946533203125,0.1888275146484375,0.8316455620697083
1781869761.666364,-0.130859375,-0.0263671875,0.9897460341453552,0.9987074730412853,0.6961822509765625,-0.7190704345703125,0.3681182861328125,1.0664160018647932
1781869761.67435,-0.1142578050494194,-0.0322265625,0.9775390028953552,0.9847212293471299,0.8792877197265625,-0.7190704345703125,0.6160736083984375,1.2921903400428851
1781869761.682336,-0.12890625,-0.01611328125,0.9824218153953552,0.9909738051464375,0.63323974609375,-0.598907470703125,0.3681182861328125,0.946146821102439
1781869761.692983,-0.1230468675494194,-0.01318359375,0.9887694716453552,0.9964835205941562,-0.03814697265625,0.011444091796875,0.5512237548828125,0.5526606433490618
1781869761.70363,-0.12841796875,-0.02099609375,0.9760741591453552,0.9847094875149457,0.3299713134765625,-0.6580352783203125,0.5512237548828125,0.9196407576758687
1781869761.714277,-0.1181640550494194,-0.02587890625,0.9902343153953552,0.997595339344028,0.0858306884765625,-0.4138946533203125,0.4940032958984375,0.6501653231986627
1781869761.724934,-0.1171874925494194,-0.0068359375,0.9809569716453552,0.9879555752518179,0.0858306884765625,-0.4138946533203125,0.3108978271484375,0.5247219740559015
1781869761.735592,-0.1240234300494194,-0.0078125,0.9902343153953552,0.998001425722419,-0.4024505615234375,0.3185272216796875,0.1277923583984375,0.5289205349450384
1781869761.74625,-0.1259765625,-0.02099609375,0.9770507216453552,0.9853623916710971,-0.34332275390625,0.072479248046875,0.3108978271484375,0.4688082909599953
1781869761.756906,-0.1157226413488388,-0.0185546912252903,0.9902343153953552,0.9971459299790205,-0.22125244140625,-0.049591064453125,0.1888275146484375,0.2950724432916872
1781869761.767563,-0.1259765625,-0.02294921875,0.9794921278953552,0.9878267001602673,-0.5855560302734375,0.0743865966796875,-0.1773834228515625,0.6163392808005259
1781869761.77822,-0.1108398362994194,-0.021484375,0.9926757216453552,0.9990756407921021,-0.70953369140625,0.6256103515625,-0.0553131103515625,0.9475684204317378
1781869761.7889,-0.13134765625,-0.02685546875,0.9863280653953552,0.9953976469686346,-0.3414154052734375,0.3185272216796875,-0.1773834228515625,0.4994886871707332
1781869761.799582,-0.1137695237994194,-0.0205078125,0.9912108778953552,0.9979293959880943,-0.16021728515625,0.377655029296875,-0.3604888916015625,0.5461182478037021
1781869761.810264,-0.1186523362994194,-0.02001953125,0.9873046278953552,0.9946102688009842,-0.34332275390625,0.499725341796875,-0.3032684326171875,0.6779142075556911
1781869761.820928,-0.13232421875,-0.0224609375,0.9907225966453552,0.9997727022103033,0.0858306884765625,-0.0476837158203125,-0.7266998291015625,0.7333029970312634
1781869761.831592,-0.1191406175494194,-0.0068359375,0.9838866591453552,0.9910974598069401,-0.22125244140625,-0.232696533203125,-0.4253387451171875,0.5329290454561872
1781869761.842256,-0.1230468675494194,-0.013671875,0.9741210341453552,0.9819568427095746,-0.22125244140625,-0.293731689453125,-0.4253387451171875,0.5622668372890909
1781869761.850273,-0.1357421875,-0.021484375,0.9882811903953552,0.9977911761113576,0.1468658447265625,-0.5359649658203125,-0.2384185791015625,0.6047077308872638
1781869761.85829,-0.13525390625,-0.01708984375,0.9833983778953552,0.9928031283001173,0.4520416259765625,-0.5359649658203125,0.1277923583984375,0.7126927550265527
1781869761.866307,-0.1318359375,-0.02294921875,0.9848632216453552,0.9939129470971828,0.26702880859375,-0.3509521484375,-0.2384185791015625,0.5013134887200849
1781869761.874324,-0.1225585862994194,-0.0087890625,0.9975585341453552,1.0050974498731806,0.0247955322265625,-0.5359649658203125,-0.1201629638671875,0.549829428905469
1781869761.885019,-0.12841796875,-0.0239257849752903,0.9877929091453552,0.996392718380862,0.14495849609375,-0.476837158203125,0.0629425048828125,0.5023429107232595
1781869761.895714,-0.1171874925494194,-0.02734375,0.9902343153953552,0.9975192170883679,-0.0362396240234375,-0.5359649658203125,-0.3032684326171875,0.6168820771899719
1781869761.906409,-0.1220703050494194,-0.00732421875,0.9892577528953552,0.9967876931517181,0.2079010009765625,-0.4138946533203125,-0.1201629638671875,0.4785088798962307
1781869761.914471,-0.1171874925494194,-0.0302734375,0.9877929091453552,0.9951804965863884,0.6351470947265625,-0.5359649658203125,-0.3604888916015625,0.905882176386358
1781869761.922534,-0.1279296875,-0.0302734375,0.9877929091453552,0.9965025425555913,0.20599365234375,-0.476837158203125,-0.3032684326171875,0.601480508804097
1781869761.930597,-0.1206054612994194,-0.01806640625,0.9873046278953552,0.9948077706741245,0.3910064697265625,-0.6580352783203125,-0.3032684326171875,0.8233275345232941
1781869761.93866,-0.1118163987994194,-0.03076171875,0.9975585341453552,1.0042769635051652,0.1468658447265625,-0.5359649658203125,-0.4825592041015625,0.7359968793392734
1781869761.949208,-0.1210937425494194,-0.02001953125,0.9755858778953552,0.983276299554172,0.32806396484375,-0.293731689453125,-0.5435943603515625,0.69957065334676
1781869761.959756,-0.1210937425494194,-0.01806640625,0.9780272841453552,0.9856609244827322,0.14495849609375,-0.110626220703125,-0.7266998291015625,0.7492287820906631
1781869761.970304,-0.1074218675494194,-0.03271484375,0.9956054091453552,1.0019180851491214,0.20599365234375,-0.476837158203125,-0.6084442138671875,0.8000071384916572
1781869761.980984,-0.13427734375,-0.0224609375,0.9853515028953552,0.9947122614183811,-0.03814697265625,-0.110626220703125,-0.6084442138671875,0.6195947979271235
1781869761.991663,-0.119140625,-0.0239257849752903,0.9819335341453552,0.9894242756225774,-0.22125244140625,0.1373291015625,-0.3604888916015625,0.4447068314432696
1781869762.002342,-0.1303710788488388,-0.0239257849752903,0.9902343153953552,0.9990660942967696,-0.2803802490234375,-0.1087188720703125,-0.4825592041015625,0.5685914725440571
1781869762.010319,-0.1240234300494194,-0.0263671875,0.9843749403953552,0.992507462468793,-0.4634857177734375,-0.0476837158203125,-0.3032684326171875,0.5559356883277745
1781869762.018298,-0.1166992112994194,-0.01513671875,0.9887694716453552,0.9957474048322988,-0.3414154052734375,0.1354217529296875,-0.3604888916015625,0.514641400484549
1781869762.026277,-0.1245117112994194,-0.01708984375,0.9833983778953552,0.9913967917324149,-0.52642822265625,0.3204345703125,-0.1773834228515625,0.6413032560052312
1781869762.034256,-0.12548828125,-0.00830078125,0.9921874403953552,1.000126056344262,-0.22125244140625,0.011444091796875,-0.3604888916015625,0.42312628260769203
1781869762.044919,-0.1152343675494194,-0.0263671875,0.9858397841453552,0.9929019428145638,-0.1583099365234375,0.0743865966796875,-0.5435943603515625,0.5710431072814606
1781869762.055582,-0.1220703050494194,-0.0234375,0.9912108778953552,0.9989742140011368,-0.03814697265625,-0.476837158203125,-0.5435943603515625,0.724101992520455
1781869762.066245,-0.1166992112994194,-0.02490234375,0.9785155653953552,0.9857644466925866,-0.1583099365234375,0.0743865966796875,-0.6084442138671875,0.6330874845991674
1781869762.07689,-0.1074218675494194,-0.009765625,1.00341796875,1.009198912538961,0.14495849609375,0.011444091796875,-0.4825592041015625,0.5039913871188182
1781869762.087534,-0.1137695237994194,-0.017578125,0.9960936903953552,1.002723857834,0.14495849609375,0.072479248046875,-0.3604888916015625,0.39524479497562676
1781869762.098178,-0.1230468675494194,-0.0302734375,0.9907225966453552,0.9987934101382057,0.26702880859375,0.011444091796875,0.0629425048828125,0.2745853433396906
1781869762.108923,-0.1328125,-0.013671875,0.9799804091453552,0.9890337115745669,0.26702880859375,-0.232696533203125,0.6160736083984375,0.7106326421920274
1781869762.119669,-0.126953125,-0.01513671875,0.9672850966453552,0.9756980446808308,0.26702880859375,-0.598907470703125,0.9822845458984375,1.181049309806289
1781869762.130415,-0.1157226487994194,-0.0283203125,0.9799804091453552,0.9871957120317881,0.14495849609375,-0.476837158203125,1.2264251708984375,1.3238222466956262
1781869762.138366,-0.1079101487994194,-0.02734375,0.9916991591453552,0.9979276041515135,0.2079010009765625,-0.1087188720703125,1.2264251708984375,1.2486638135080872
1781869762.146318,-0.1103515625,-0.0219726599752903,0.9770507216453552,0.9835081991525493,0.5130767822265625,-0.4138946533203125,1.2264251708984375,1.392363195549339
1781869762.15427,-0.0922851487994194,-0.03173828125,0.9907225966453552,0.9955175190268377,0.5741119384765625,-0.2918243408203125,0.9822845458984375,1.1745845618376847
1781869762.162222,-0.1093749925494194,-0.01123046875,0.9946288466453552,1.000687541144887,0.5741119384765625,0.3185272216796875,0.8563995361328125,1.0791127255022033
1781869762.172899,-0.1083984300494194,-0.021484375,0.9951171278953552,1.001234186510339,0.8792877197265625,0.8678436279296875,0.5512237548828125,1.35282928876751
1781869762.183576,-0.1044921800494194,-0.02197265625,1.0009765625,1.0066555975051632,0.8182525634765625,0.9288787841796875,0.1277923583984375,1.244461305224126
1781869762.194253,-0.1030273362994194,-0.0078125,0.9858397841453552,0.9912395004160015,0.81634521484375,0.988006591796875,-0.1201629638671875,1.2872512082409215
1781869762.205014,-0.1157226487994194,-0.01611328125,0.9868163466453552,0.9937091482341708,0.3299713134765625,0.7457733154296875,-0.4253387451171875,0.919767336788114
1781869762.215773,-0.1162109300494194,-0.01171875,0.9882811903953552,0.9951592941101308,0.5130767822265625,0.3795623779296875,-0.6656646728515625,0.922184818722462
1781869762.226532,-0.1215820237994194,-0.01708984375,0.9843749403953552,0.9920021545082053,-0.22125244140625,0.682830810546875,-0.6084442138671875,0.940964887787418
1781869762.234447,-0.130859375,-0.0078125,0.9912108778953552,0.9998420953529219,-0.70953369140625,0.499725341796875,-0.9136199951171875,1.2601051432132608
1781869762.242365,-0.1279296875,-0.0068359375,0.9858397841453552,0.9941291741967501,-0.6465911865234375,0.2574920654296875,-0.6656646728515625,0.9630637481141168
1781869762.250283,-0.1416015625,-0.01806640625,0.9731444716453552,0.9835586206379104,-0.7686614990234375,-0.2307891845703125,-0.3032684326171875,0.857948652319982
1781869762.258201,-0.13134765625,-0.0185546875,0.9882811903953552,0.9971440189460353,-1.19781494140625,-0.720977783203125,0.0057220458984375,1.3980709350879927
1781869762.2689,-0.1176757737994194,-0.0234375,0.9990233778953552,1.0062030678381912,-1.0128021240234375,-0.8411407470703125,0.1888275146484375,1.3300156875378184
1781869762.279599,-0.1235351487994194,-0.0302734375,0.9882811903953552,0.9964321980427074,-1.3790130615234375,-0.7190704345703125,0.3108978271484375,1.5860002435847864
1781869762.290298,-0.115234375,-0.013671878725290298,0.9897460341453552,0.9965255107401808,-1.2569427490234375,-0.5970001220703125,0.3681182861328125,1.439383650268379
1781869762.298409,-0.1069335862994194,-0.03662109375,0.9858397841453552,0.9922983303372339,-1.2569427490234375,-0.7190704345703125,-0.0553131103515625,1.4491469574796403
1781869762.306522,-0.1162109300494194,-0.01806640625,0.9838866591453552,0.9908906767862686,-0.83160400390625,-0.476837158203125,0.0057220458984375,0.9586300832779046
1781869762.314635,-0.1113281175494194,-0.01220703125,0.9926757216453552,0.9989734980034067,-1.01470947265625,-0.598907470703125,-0.1773834228515625,1.1915495587951328
1781869762.322748,-0.1132812425494194,-0.02490234375,0.9985350966453552,1.005248778099398,-0.64849853515625,-0.476837158203125,-0.1773834228515625,0.824250510612866
1781869762.333473,-0.1162109300494194,-0.0283203125,0.9804686903953552,0.9877377552815482,-0.22125244140625,-0.3509521484375,-0.4825592041015625,0.6363830912149195
1781869762.344198,-0.1230468675494194,-0.02734375,0.9809569716453552,0.989022139538551,0.087738037109375,0.011444091796875,-0.3032684326171875,0.3159124445395385
1781869762.354923,-0.1132812425494194,-0.01123046875,0.9731444716453552,0.9797800396189966,0.5130767822265625,0.3795623779296875,-0.0553131103515625,0.6406051228146451
1781869762.365378,-0.1137695237994194,-0.0068359375,0.9819335341453552,0.9885260239701522,0.4520416259765625,0.4405975341796875,-0.1773834228515625,0.6556925327036228
1781869762.375834,-0.1245117112994194,-0.015625,0.9829100966453552,0.990888270675908,0.26702880859375,0.3204345703125,0.0629425048828125,0.4218346327546814
1781869762.38629,-0.1206054538488388,-0.0234375037252903,0.9985350966453552,1.006065271894178,0.5130767822265625,0.8068084716796875,0.0057220458984375,0.9561487521527915
1781869762.394329,-0.1132812425494194,-0.01806640625,0.9951171278953552,1.0017071094781305,0.8792877197265625,-0.0476837158203125,0.2498626708984375,0.9153425507015781
1781869762.402367,-0.1254882663488388,-0.0185546912252903,0.9790038466453552,0.9871879827591629,0.93841552734375,-0.3509521484375,0.5512237548828125,1.1435203279346862
1781869762.410405,-0.1176757737994194,-0.03173828125,0.9892577528953552,0.9967375822650433,0.0858306884765625,0.0743865966796875,0.4329681396484375,0.4476177865105185
1781869762.418443,-0.1206054612994194,-0.01318359375,0.9794921278953552,0.9869773619736076,0.26702880859375,0.255584716796875,0.4329681396484375,0.5692884523945354
1781869762.428008,-0.1230468675494194,-0.0078125,0.9814452528953552,0.9891594164748179,0.3910064697265625,0.8068084716796875,0.3108978271484375,0.9489380529137622
1781869762.437573,-0.1142578050494194,-0.0205078125,0.9824218153953552,0.9892563064003947,0.63323974609375,0.499725341796875,0.5512237548828125,0.9770187414855395
1781869762.447138,-0.1064453050494194,-0.01611328125,0.9814452528953552,0.9873322770124217,0.6961822509765625,0.3185272216796875,0.5512237548828125,0.9433858942515948
1781869762.456703,-0.1235351487994194,-0.00537109375,0.9907225966453552,0.9984092573392341,0.45013427734375,0.3204345703125,0.6771087646484375,0.8739424813194915
1781869762.466268,-0.125,-0.0229492224752903,0.9746093153953552,0.9828606129394052,0.2079010009765625,0.3795623779296875,0.4329681396484375,0.6121697762037297
1781869762.475866,-0.1162109300494194,-0.01513671875,0.9741210341453552,0.9811451929668126,0.45013427734375,0.072479248046875,0.7381439208984375,0.8676004593109314
1781869762.485464,-0.1132812425494194,-0.0126953125,0.9897460341453552,0.9962886243350727,-0.0972747802734375,0.1354217529296875,0.4940032958984375,0.5213834389413554
1781869762.495062,-0.13134765625,-0.01171875,0.9799804091453552,0.9888129945609678,-0.16021728515625,0.194549560546875,0.5512237548828125,0.6061078599712499
1781869762.50466,-0.1298828125,-0.01123046875,0.9760741591453552,0.9847418101017987,-0.095367431640625,0.011444091796875,0.0629425048828125,0.11483759478370949
1781869762.514258,-0.1215820237994194,-0.013671875,0.9848632216453552,0.9924337126613778,-0.2803802490234375,-0.1697540283203125,0.6160736083984375,0.6978368040870943
1781869762.523863,-0.12451171875,0.0009765587747097015,0.9829100966453552,0.9907655524191892,-0.0972747802734375,-0.1087188720703125,0.1888275146484375,0.23861686090842868
1781869762.533464,-0.115234375,-0.0224609412252903,0.9809569716453552,0.9879575068200013,-0.4634857177734375,-0.1697540283203125,0.0629425048828125,0.497591398269559
1781869762.543065,-0.11962890625,-0.009277347475290298,0.9877929091453552,0.9950537552035028,-0.5855560302734375,0.1964569091796875,-0.0553131103515625,0.6201054119508932
1781869762.552666,-0.12548828125,-0.00732421875,0.9794921278953552,0.9875250789323519,-0.64849853515625,0.011444091796875,0.0629425048828125,0.6516464350073436
1781869762.562267,-0.11376953125,-0.0185546912252903,0.9794921278953552,0.9862517991954598,-0.888824462890625,0.194549560546875,0.1888275146484375,0.9292546947043615
1781869762.57292,-0.130859375,-0.0185546875,0.9853515028953552,0.9941760592127274,-0.9517669677734375,-0.2307891845703125,-0.1773834228515625,0.9952833201464846
1781869762.583573,-0.1220703050494194,-0.00927734375,0.9819335341453552,0.9895355950955486,-0.7686614990234375,-0.3528594970703125,0.0629425048828125,0.8481226819715381
1781869762.594226,-0.126953125,-0.0166015625,0.9926757216453552,1.000898494438289,-0.7686614990234375,0.0133514404296875,-0.1773834228515625,0.7889763239445413
1781869762.602254,-0.10986328125,-0.0048828087747097015,0.9912108778953552,0.9972927287645427,-0.6465911865234375,-0.4138946533203125,-0.3032684326171875,0.8254457515542823
1781869762.610284,-0.1108398362994194,-0.01953125,0.9882811903953552,0.9946691160012484,-0.4024505615234375,-0.1697540283203125,-0.0553131103515625,0.44027539651707515
1781869762.618314,-0.1201171875,-0.0170898474752903,0.9824218153953552,0.9898852584943086,-0.5245208740234375,-0.0476837158203125,-0.3032684326171875,0.6077562227265375
1781869762.626344,-0.1186523362994194,-0.009765625,0.9741210341453552,0.9813692136527248,-0.4024505615234375,-0.0476837158203125,-0.1773834228515625,0.44238565746133623
1781869762.636981,-0.1118163987994194,-0.0166015625,0.9824218153953552,0.9889040106514978,-0.4634857177734375,0.2574920654296875,-0.3032684326171875,0.6108133238243012
1781869762.647618,-0.1142578050494194,-0.02001953125,0.9873046278953552,0.994095596967297,-0.3414154052734375,-0.0476837158203125,0.1277923583984375,0.3676535088605746
1781869762.658255,-0.1162109225988388,-0.014160159975290298,0.9931640028953552,1.000040111849982,-0.1583099365234375,0.2574920654296875,0.1277923583984375,0.32816929567882486
1781869762.666256,-0.1069335862994194,-0.0263671875,0.9755858778953552,0.9817829829470291,-0.400543212890625,0.194549560546875,-0.1773834228515625,0.4793216828021271
1781869762.674258,-0.1181640550494194,-0.0224609375,0.9770507216453552,0.9844264067398896,0.1468658447265625,0.1354217529296875,0.1888275146484375,0.2748899012370261
