timestamp,accel_x,accel_y,accel_z,accel_rms,gyro_x,gyro_y,gyro_z,gyro_rms
1781795641.249507,-0.0200195275247097,0.08056640625,0.9809569716453552,0.9844634617485704,0.591278076171875,-0.06103515625,-0.4520416259765625,0.7467775339922258
1781795641.260159,-0.0317382775247097,0.07861328125,0.9902343153953552,0.9938568134473069,0.225067138671875,-0.18310546875,-0.3910064697265625,0.4868972057468922
1781795641.270811,-0.02392578125,0.07568359375,0.9838866591453552,0.9870832829176808,0.0400543212890625,-0.0019073486328125,0.0972747802734375,0.10521582347717516
1781795641.279042,-0.0214843712747097,0.06982421875,0.9877929091453552,0.9904907021728985,0.286102294921875,-0.1220703125,-0.3299713134765625,0.45347188674807515
1781795641.287275,-0.013671875,0.0859375,0.9975585341453552,1.0013466947658516,0.2231597900390625,0.1811981201171875,0.2193450927734375,0.3615872237069074
1781795641.295508,-0.0273437462747097,0.08154296875,0.9931640028953552,0.9968809722630001,-0.202178955078125,0.18310546875,-0.0858306884765625,0.28595602747100896
1781795641.303741,-0.020019523799419403,0.0771484300494194,0.9907225966453552,0.9939235006256573,-0.2651214599609375,0.0591278076171875,-0.0858306884765625,0.2848725912575565
1781795641.313164,-0.0185546837747097,0.0693359375,0.9824218153953552,0.9850402894723083,-0.202178955078125,0.06103515625,-0.3910064697265625,0.4443958590524597
1781795641.322587,-0.0278320275247097,0.08544921875,0.9946288466453552,0.9986804961148441,0.102996826171875,0.06103515625,-0.2689361572265625,0.29438120382207095
1781795641.33201,-0.0322265587747097,0.06982421875,0.9858397841453552,0.98883469428326,0.225067138671875,-0.06103515625,-0.2689361572265625,0.35595949751649736
1781795641.341433,-0.0249023400247097,0.07080078125,0.9863280653953552,0.989179422425912,-0.019073486328125,-0.1220703125,-0.3910064697265625,0.4100622128928561
1781795641.350856,-0.0380859375,0.08154296875,0.9838866591453552,0.9879943078945475,0.1010894775390625,-0.3070831298828125,-0.3299713134765625,0.4619525937206033
1781795641.361519,-0.0273437462747097,0.06884765625,0.9755858778953552,0.9783943404273682,0.164031982421875,-0.42724609375,-0.1468658447265625,0.48064050206899006
1781795641.372182,-0.0278320275247097,0.078125,0.9916991591453552,0.9951609717180134,0.041961669921875,-0.3662109375,0.2765655517578125,0.4608250610658719
1781795641.382845,-0.0224609337747097,0.0810546875,0.9916991591453552,0.9952595531625703,0.0400543212890625,-0.4901885986328125,-0.0286102294921875,0.49265378930352666
1781795641.393516,-0.0239257775247097,0.08349609375,0.9907225966453552,0.9945226513284582,-0.4482269287109375,-0.4291534423828125,0.0972747802734375,0.6281261335177063
1781795641.404188,-0.013671875,0.06640625,1.001953125,1.0042443800700822,-0.3223419189453125,-0.0019073486328125,0.2193450927734375,0.389897705061137
1781795641.41486,-0.009765617549419403,0.08154296875,0.9931640028953552,0.9965537414940602,-0.3223419189453125,0.1811981201171875,0.0362396240234375,0.37155131784547507
1781795641.425524,-0.02392578125,0.0678710862994194,0.9819335341453552,0.9845671093648587,-0.4482269287109375,-0.1811981201171875,0.5245208740234375,0.7133458387359902
1781795641.436188,-0.02783203125,0.07177734375,0.9916991591453552,0.9946827792260763,-0.507354736328125,-0.1220703125,0.4596710205078125,0.6954188930156576
1781795641.44685,-0.0234374962747097,0.08447265625,0.9877929091453552,0.991675237788764,-0.873565673828125,0.244140625,0.5245208740234375,1.0477804056921887
1781795641.454973,-0.0297851525247097,0.06640625,0.9916991591453552,0.9943662140276023,-0.568389892578125,0.42724609375,0.4596710205078125,0.8467016840093682
1781795641.463098,-0.0200195275247097,0.0791015625,0.9897460341453552,0.9931037462313355,-0.6313323974609375,0.3643035888671875,0.4024505615234375,0.8326248587544202
1781795641.471223,-0.0244140587747097,0.080078125,0.9882811903953552,0.9918206812013102,-0.507354736328125,0.3662109375,0.5855560302734375,0.8569685780755307
1781795641.479348,-0.0253906212747097,0.07666015625,0.9912108778953552,0.9944950817691715,-0.4482269287109375,0.6694793701171875,0.5245208740234375,0.9613699360394296
1781795641.488964,-0.013671871274709702,0.0888671875,1.0126953125,1.0166789527858757,-0.6313323974609375,0.7953643798828125,0.1583099365234375,1.027738842737882
1781795641.498579,-0.0258789025247097,0.076171875,0.9892577528953552,0.9925234374061233,-0.4482269287109375,1.0356903076171875,0.3414154052734375,1.1790361622409424
1781795641.508192,-0.0190429650247097,0.06982421875,0.9902343153953552,0.9928756495289267,-0.7534027099609375,0.8525848388671875,0.4596710205078125,1.2271161305831515
1781795641.517806,-0.0278320275247097,0.06884765625,0.9941405653953552,0.996910269428423,-0.690460205078125,0.8544921875,0.4024505615234375,1.169982327971492
1781795641.527421,-0.0185546837747097,0.0751953125,0.9970702528953552,1.0000738475336508,-0.6313323974609375,0.7953643798828125,0.4024505615234375,1.0923147656882957
1781795641.537916,-0.0336913987994194,0.0732421800494194,0.9882811903953552,0.9915640365506977,-0.7534027099609375,0.8525848388671875,0.4024505615234375,1.206848377101781
1781795641.548412,-0.0258789025247097,0.07373046875,0.9838866591453552,0.9869847302072037,-0.751495361328125,0.91552734375,0.4024505615234375,1.2509604509024856
1781795641.558908,-0.0278320275247097,0.078125,0.9897460341453552,0.9932146542855652,-0.385284423828125,0.8544921875,0.3414154052734375,0.9975798036754407
1781795641.566973,-0.0312499962747097,0.072265625,0.9814452528953552,0.9845982263109343,-0.446319580078125,0.79345703125,0.2765655517578125,0.9514534841074894
1781795641.575037,-0.01904296875,0.06591796875,0.9931640028953552,0.9955312902717145,-0.568389892578125,0.42724609375,0.2193450927734375,0.7441226809696061
1781795641.583099,-0.0283203125,0.06689453125,0.9965819716453552,0.999225972750808,-0.385284423828125,0.9765625,0.2765655517578125,1.0856366372179613
1781795641.591162,-0.0244140587747097,0.0703125,0.9970702528953552,0.999844479472139,-0.080108642578125,0.42724609375,0.4596710205078125,0.6326563572232854
1781795641.601738,-0.0366210900247097,0.08935546875,0.9916991591453552,0.9963898465358499,-0.385284423828125,0.42724609375,0.2193450927734375,0.6157073830911823
1781795641.612314,-0.0258789025247097,0.068359375,0.9970702528953552,0.9997458731873223,-0.3223419189453125,0.1811981201171875,0.5245208740234375,0.6417625875116592
1781795641.62289,-0.0415039025247097,0.0585937462747097,0.9946288466453552,0.9972173000937936,-0.324249267578125,0.06103515625,0.4024505615234375,0.5204126557780302
1781795641.630895,-0.0239257775247097,0.080078125,0.9951171278953552,0.9986205721716223,-0.1430511474609375,-0.1811981201171875,0.2193450927734375,0.31844726289871217
1781795641.6389,-0.0478515587747097,0.07861328125,0.9858397841453552,0.9901262039103004,-0.2651214599609375,-0.3070831298828125,0.2765655517578125,0.4909968855395587
1781795641.646905,-0.0249023400247097,0.0703125,0.9960936903953552,0.99888268292147,-0.324249267578125,-0.1220703125,0.4024505615234375,0.53104162095765
1781795641.65491,-0.0292968712747097,0.07470703125,0.9755858778953552,0.9788806118896861,-0.1430511474609375,-0.1239776611328125,0.3414154052734375,0.3903825946528341
1781795641.662934,-0.0361328087747097,0.0712890625,0.9951171278953552,0.9983214955778421,-0.202178955078125,-0.30517578125,0.4596710205078125,0.5876274622860338
1781795641.670958,-0.02880859375,0.07568359375,0.9897460341453552,0.9930534494896165,-0.080108642578125,-0.18310546875,0.5855560302734375,0.6187251990112039
1781795641.678982,-0.01806640625,0.07666015625,0.9970702528953552,1.0001761163914444,-0.446319580078125,-0.8544921875,0.2765655517578125,1.002919024886233
1781795641.687006,-0.0288085900247097,0.0693359375,1.005859375,1.00865776622381,-0.1430511474609375,-0.8525848388671875,0.0972747802734375,0.8699579996375253
1781795641.697711,-0.01904296875,0.0683593675494194,0.9960936903953552,0.9986181842105659,-0.324249267578125,-0.6103515625,0.0362396240234375,0.6920837577349306
1781795641.708416,-0.02880859375,0.0556640625,0.9873046278953552,0.9892920959915945,-0.324249267578125,-0.42724609375,0.3414154052734375,0.6357997256271898
1781795641.719121,-0.0258789025247097,0.07421875,0.9985350966453552,1.001623921279836,-0.6313323974609375,-0.4291534423828125,0.0972747802734375,0.7695554925215197
1781795641.729708,-0.0361328087747097,0.07275390625,0.9897460341453552,0.9930739765249325,-0.690460205078125,-0.42724609375,-0.0286102294921875,0.8124611157789373
1781795641.740295,-0.0170898400247097,0.0791015625,0.9829100966453552,0.9862359646197217,-0.4482269287109375,-0.3070831298828125,0.2193450927734375,0.5859348922909883
1781795641.750882,-0.0263671837747097,0.072265625,0.9980468153953552,1.0010069903140837,-0.690460205078125,-0.30517578125,0.2765655517578125,0.8039627209499067
1781795641.758875,-0.014648433774709702,0.07958984375,0.9990233778953552,1.0022957794092755,-0.4482269287109375,-0.2460479736328125,-0.1468658447265625,0.5319930086925013
1781795641.766869,-0.011230465024709702,0.07421875,0.9882811903953552,0.9911277705147273,-0.324249267578125,-0.42724609375,-0.1468658447265625,0.5560992613705138
1781795641.774863,-0.02392578125,0.07568359375,0.9931640028953552,0.9963308617213777,-0.507354736328125,-0.244140625,0.0362396240234375,0.5642045582936493
1781795641.782857,-0.0283203087747097,0.0634765625,0.9877929091453552,0.9902353988995523,-0.507354736328125,-0.06103515625,0.0972747802734375,0.5201889095802492
1781795641.793522,-0.0185546875,0.0576171875,0.9848632216453552,0.9867216335285758,-0.507354736328125,-0.18310546875,-0.0858306884765625,0.5461715373809763
1781795641.804187,-0.0327148400247097,0.06298828125,0.9926757216453552,0.9952099641165165,-0.4482269287109375,0.1811981201171875,0.0972747802734375,0.4931556764682813
1781795641.814852,-0.0292968712747097,0.0732421875,0.9887694716453552,0.9919111818878276,-0.812530517578125,0.06103515625,-0.2117156982421875,0.841875685108208
1781795641.825539,-0.0317382775247097,0.080078125,0.9916991591453552,0.9954330949960202,-0.4482269287109375,0.5474090576171875,0.2765655517578125,0.7596397569914837
1781795641.836224,-0.0205078087747097,0.06298828125,0.9975585341453552,0.9997555315384852,-0.324249267578125,0.1220703125,0.1583099365234375,0.38092096912726264
1781795641.84691,-0.0317382775247097,0.08154296875,0.9897460341453552,0.9936064543466179,-0.263214111328125,0.244140625,-0.2117156982421875,0.4167851365629804
1781795641.857598,-0.024414055049419403,0.0776367112994194,0.9853515028953552,0.9887067761897259,-0.5702972412109375,0.3643035888671875,0.0362396240234375,0.6776941482288888
1781795641.868288,-0.0205078087747097,0.06591796875,0.9863280653953552,0.9887410183720559,-0.507354736328125,0.30517578125,-0.0286102294921875,0.5927559625745866
1781795641.878978,-0.014648433774709702,0.06494140625,0.9848632216453552,0.9871106970383047,-0.263214111328125,0.732421875,-0.0858306884765625,0.7830008802454381
1781795641.886961,-0.02392578125,0.0727538987994194,0.9921874403953552,0.9951389298370482,-0.324249267578125,0.48828125,0.2765655517578125,0.6481085333843525
1781795641.894945,-0.02783203125,0.0722656175494194,0.9912108778953552,0.9942313341981235,-0.629425048828125,0.1220703125,0.1583099365234375,0.6604082746969407
1781795641.902929,-0.010742183774709702,0.07080078125,0.9936522841453552,0.9962293947305217,-0.4482269287109375,0.1811981201171875,-0.0286102294921875,0.4843125887143944
1781795641.910913,-0.0224609337747097,0.068359375,0.9960936903953552,0.9986892097854368,-0.6313323974609375,0.4253387451171875,0.2765655517578125,0.8099272489555727
1781795641.921902,-0.0322265587747097,0.07958984375,0.9936522841453552,0.9973554813134036,-0.507354736328125,0.18310546875,0.2193450927734375,0.5822788944178953
1781795641.932891,-0.0166015587747097,0.068359375,0.9941405653953552,0.9966263490740837,-0.507354736328125,0.3662109375,0.2193450927734375,0.6630471694706177
1781795641.94388,-0.0439453087747097,0.06982421875,1.00244140625,1.0058306938306416,-0.507354736328125,0.1220703125,0.1583099365234375,0.545318279237441
1781795641.954249,-0.0161132775247097,0.0751953125,0.9941405653953552,0.9971105437709289,-0.4482269287109375,0.3643035888671875,-0.0858306884765625,0.5839446819412891
1781795641.96462,-0.0327148400247097,0.08056640625,0.9897460341453552,0.99355846263838,-0.751495361328125,0.30517578125,-0.0858306884765625,0.8156251851454795
1781795641.974991,-0.0336914025247097,0.07373046875,0.9936522841453552,0.9969534364319421,-0.690460205078125,0.244140625,-0.2689361572265625,0.7801708763057663
1781795641.982991,-0.0200195275247097,0.06787109375,0.9916991591453552,0.9942205434905972,-0.385284423828125,0.1220703125,-0.0858306884765625,0.41317327542180005
1781795641.99099,-0.0209960900247097,0.06982421875,0.9946288466453552,0.9972977488691345,-0.2040863037109375,-0.0019073486328125,-0.0286102294921875,0.20609076294874487
1781795641.998989,-0.0405273400247097,0.07421875,0.9814452528953552,0.9850815563047908,-0.080108642578125,0.06103515625,-0.3910064697265625,0.40376818136425874
1781795642.006988,-0.033203125,0.06201171875,1.0009765625,1.0034450555194396,0.1010894775390625,-0.3070831298828125,-0.2689361572265625,0.42053036488645534
1781795642.01763,-0.0278320275247097,0.0610351525247097,1.001953125,1.0041961841677733,0.3452301025390625,-0.3643035888671875,-0.2689361572265625,0.5694098569786396
1781795642.028272,-0.0405273400247097,0.0419921837747097,1.0029296875,1.0046261826453136,0.286102294921875,-0.42724609375,-0.3299713134765625,0.6109622046425173
1781795642.038914,-0.0322265587747097,0.0581054650247097,0.9873046278953552,0.989537884277193,0.2841949462890625,-0.4901885986328125,-0.2689361572265625,0.6271987614701052
1781795642.04958,-0.0302734337747097,0.07177734375,0.9877929091453552,0.9908598787044318,0.3452301025390625,-0.4291534423828125,-0.0858306884765625,0.557425697194263
1781795642.060245,-0.0253906212747097,0.06640625,0.9941405653953552,0.9966794557190264,0.469207763671875,-0.18310546875,0.0362396240234375,0.5049721264837095
1781795642.07091,-0.0258789025247097,0.0703125,0.9873046278953552,0.990143420679913,0.3452301025390625,-0.7953643798828125,0.3414154052734375,0.9318544947809867
1781795642.078903,-0.0229492150247097,0.0703125,0.9877929091453552,0.990558097985345,1.0166168212890625,-0.7343292236328125,-0.0858306884765625,1.2570266811382356
1781795642.086896,-0.0214843712747097,0.08837890625,0.9975585341453552,1.0016962804788914,1.140594482421875,-0.244140625,-0.3910064697265625,1.230222125258136
1781795642.094889,-0.02392578125,0.0727538987994194,0.9848632216453552,0.9878365948620283,0.713348388671875,-0.244140625,-0.3299713134765625,0.8230137520804855
1781795642.102882,-0.0249023400247097,0.0791015625,0.9628905653953552,0.9664550815511471,0.8373260498046875,-0.0019073486328125,-0.5168914794921875,0.984019996357773
1781795642.113557,-0.0229492150247097,0.076171875,0.9912108778953552,0.9943982227806658,0.3452301025390625,0.0591278076171875,-0.6351470947265625,0.7253218273789502
1781795642.124232,-0.0224609337747097,0.0693359375,0.9858397841453552,0.9885302452524133,0.102996826171875,0.1220703125,-0.5168914794921875,0.5410049066015479
1781795642.134907,-0.0263671837747097,0.06494140625,0.9936522841453552,0.996121215722875,-0.080108642578125,0.06103515625,-0.8792877197265625,0.8850364845451907
1781795642.14555,-0.012695308774709702,0.06884765625,0.9790038466453552,0.9815037964177243,-0.568389892578125,-0.06103515625,-0.6351470947265625,0.8545198606369704
1781795642.156194,-0.0346679650247097,0.07421875,0.9946288466453552,0.9979964094272016,-0.4482269287109375,-0.3070831298828125,-0.5168914794921875,0.7499228159296706
1781795642.166838,-0.0200195275247097,0.0634765625,1.00048828125,1.002699783777631,-0.324249267578125,-0.1220703125,-0.2689361572265625,0.4385948077469551
1781795642.174852,-0.0166015587747097,0.07568359375,0.9951171278953552,0.9981291080553487,-0.2651214599609375,-0.1239776611328125,-0.3299713134765625,0.44106792754543983
1781795642.182865,-0.0332031212747097,0.0693359375,0.9936522841453552,0.9966216841302765,-0.2651214599609375,-0.1239776611328125,-0.3910064697265625,0.4884116177567961
1781795642.190878,-0.0327148400247097,0.06640625,0.9853515028953552,0.9881283494845394,-0.202178955078125,0.18310546875,-0.3299713134765625,0.4281179864010476
1781795642.198891,-0.01806640625,0.06201171875,0.9897460341453552,0.9918513297886825,0.164031982421875,0.1220703125,-0.0858306884765625,0.22175337547703458
1781795642.209565,-0.01904296875,0.06103515625,0.9902343153953552,0.9922962885871252,0.164031982421875,0.244140625,0.0362396240234375,0.2963518962011228
1781795642.220239,-0.0297851525247097,0.06982421875,0.9887694716453552,0.991679204628595,0.286102294921875,-0.244140625,-0.0286102294921875,0.3771971807510626
1781795642.230913,-0.0214843712747097,0.06298828125,0.9848632216453552,0.987109247820912,0.2231597900390625,0.0591278076171875,-0.1468658447265625,0.2736164576028649
1781795642.241571,-0.015624996274709702,0.0673828125,0.9877929091453552,0.9902118032455677,0.5283355712890625,-0.1811981201171875,-0.0858306884765625,0.5651001165348521
1781795642.252232,-0.0244140587747097,0.07568359375,0.9848632216453552,0.9880686301965255,0.4062652587890625,-0.1239776611328125,-0.2689361572265625,0.5027410641898041
1781795642.262893,-0.0170898400247097,0.07177734375,0.9902343153953552,0.9929793799945614,0.530242919921875,0.1220703125,-0.2117156982421875,0.5838512243742412
1781795642.273555,-0.0327148400247097,0.07421875,0.9843749403953552,0.9877108417384938,0.774383544921875,0.1220703125,-0.0286102294921875,0.7844677055629588
1781795642.284217,-0.02392578125,0.0683593675494194,0.9755858778953552,0.9782705409491949,1.384735107421875,-0.244140625,-0.2689361572265625,1.4315804619950123
1781795642.294879,-0.0312499962747097,0.07080078125,0.9975585341453552,1.0005560163923906,0.835418701171875,0.244140625,-0.3299713134765625,0.9308115377242275
1781795642.302869,-0.0424804650247097,0.07373046875,0.9824218153953552,0.98610009395371,1.140594482421875,0.244140625,-0.2117156982421875,1.185488909686123
1781795642.310857,-0.0327148400247097,0.06787109375,0.9902343153953552,0.993096543902541,0.896453857421875,0.6103515625,-0.1468658447265625,1.0944076592750973
1781795642.318846,-0.02783203125,0.0722656175494194,0.9868163466453552,0.9898502126330962,1.262664794921875,0.244140625,-0.3910064697265625,1.34417747655528
1781795642.326833,-0.0278320275247097,0.07763671875,0.9921874403953552,0.9956093605087737,1.079559326171875,0.3662109375,-0.2117156982421875,1.1594750218747616
1781795642.337509,-0.04248046875,0.06689453125,1.0009765625,1.0041083343995774,0.713348388671875,0.244140625,-0.1468658447265625,0.7681407063444807
1781795642.348185,-0.0209960900247097,0.078125,0.9926757216453552,0.9959665856671359,0.652313232421875,0.06103515625,-0.0286102294921875,0.6557868470187037
1781795642.358861,-0.0258789025247097,0.07080078125,1.00390625,1.0067324505600066,1.0166168212890625,0.2422332763671875,-0.1468658447265625,1.055346529749687
1781795642.369528,-0.0209960900247097,0.08251953125,0.9887694716453552,0.9924290286422905,0.957489013671875,0.244140625,-0.0858306884765625,0.9918451306338563
1781795642.380197,-0.0268554650247097,0.0732421875,0.9941405653953552,0.9971966194267182,1.0166168212890625,-0.1239776611328125,-0.0858306884765625,1.027738842737882
1781795642.390867,-0.012207027524709702,0.08154296875,0.9916991591453552,0.995120841668567,0.835418701171875,-0.18310546875,-0.2689361572265625,0.8965370464278931
1781795642.398873,-0.02880859375,0.06640625,0.9936522841453552,0.9962853943023539,1.262664794921875,-0.6103515625,-0.0858306884765625,1.4050687959191368
1781795642.406881,-0.015624996274709702,0.078125,0.9902343153953552,0.9934342733770023,1.0166168212890625,-0.4901885986328125,-0.0286102294921875,1.1289876743300051
1781795642.414889,-0.0332031212747097,0.07373046875,0.9829100966453552,0.986230646132972,0.896453857421875,-0.42724609375,-0.3299713134765625,1.0464462770867127
1781795642.422897,-0.0253906212747097,0.0771484375,0.9946288466453552,0.9979394308456183,0.774383544921875,-0.732421875,-0.0858306884765625,1.0693355809607412
1781795642.430895,-0.0219726525247097,0.078125,0.9887694716453552,0.9920944416444467,0.850677490234375,-0.835418701171875,0.2307891845703125,1.2144300088410973
1781795642.438893,-0.0219726525247097,0.0791015625,0.9853515028953552,0.9887656137361616,0.179290771484375,-0.652313232421875,0.0476837158203125,0.6781824759506617
1781795642.446891,-0.0209960900247097,0.06982421875,0.9946288466453552,0.9972977488691345,0.244140625,-0.347137451171875,-0.1392364501953125,0.44664957611587214
1781795642.454889,-0.0317382775247097,0.0732421875,0.9931640028953552,0.9963666358008711,0.423431396484375,-0.652313232421875,0.4138946533203125,0.880974168048374
1781795642.465561,-0.0278320275247097,0.06884765625,0.9863280653953552,0.989119646005375,0.362396240234375,-0.347137451171875,0.2918243408203125,0.5805143330162715
1781795642.476233,-0.02880859375,0.0722656175494194,0.9951171278953552,0.9981534715585335,0.301361083984375,-0.164031982421875,-0.0133514404296875,0.343370434311161
1781795642.486905,-0.0185546837747097,0.07470703125,0.9824218153953552,0.9854329201791837,0.6084442138671875,-0.2880096435546875,0.1659393310546875,0.6933179485343179
1781795642.497563,-0.0268554650247097,0.0654296875,0.9916991591453552,0.9942180255143465,0.362396240234375,-0.347137451171875,-0.1964569091796875,0.5389162848778581
1781795642.50822,-0.0224609375,0.0917968675494194,0.9946288466453552,0.9991084531642869,0.5474090576171875,-0.1621246337890625,-0.0743865966796875,0.575738168795644
1781795642.518877,-0.0234375,0.09130859375,1.0048828125,1.0092948243980857,0.3643035888671875,-0.1049041748046875,-0.1392364501953125,0.4038672799521607
1781795642.52706,-0.0170898400247097,0.07275390625,0.9916991591453552,0.9945111441086563,0.423431396484375,0.080108642578125,-0.1392364501953125,0.4528778325414145
1781795642.535243,-0.0322265587747097,0.07080078125,0.9921874403953552,0.9952322435463778,0.423431396484375,0.080108642578125,-0.1964569091796875,0.47361045101312294
1781795642.543426,-0.0161132775247097,0.06640625,0.9882811903953552,0.9906407719455681,0.179290771484375,-0.041961669921875,-0.2574920654296875,0.3165566714529031
1781795642.551609,-0.0317382775247097,0.064453125,0.9833983778953552,0.9860192154464927,0.484466552734375,0.141143798828125,-0.3223419189453125,0.5987768577486188
1781795642.562106,-0.0263671837747097,0.06689453125,1.001953125,1.0045298260323743,0.6694793701171875,0.0782012939453125,-0.1392364501953125,0.6882622018171701
1781795642.572603,-0.0180664025247097,0.0654296875,0.9941405653953552,0.9964551684200996,0.789642333984375,-0.041961669921875,-0.0743865966796875,0.7942475452455048
1781795642.5831,-0.0166015587747097,0.076171875,0.9863280653953552,0.9894042747438025,0.972747802734375,0.019073486328125,-0.2574920654296875,1.0064314429530261
1781795642.591327,-0.02392578125,0.08056640625,0.9936522841453552,0.9972002058823216,0.8525848388671875,0.2002716064453125,-0.0133514404296875,0.875892621715654
1781795642.599557,-0.0351562462747097,0.072265625,0.9848632216453552,0.9881365530929603,0.789642333984375,0.019073486328125,-0.0133514404296875,0.789985490032917
1781795642.607787,-0.0268554650247097,0.0610351525247097,0.9999999403953552,1.0022207275027402,0.5474090576171875,0.0782012939453125,-0.1392364501953125,0.5702270668769155
1781795642.616017,-0.0170898400247097,0.07763671875,0.9960936903953552,0.999260808185618,0.7305145263671875,-0.1049041748046875,-0.5016326904296875,0.8923517889446154
1781795642.626543,-0.02734375,0.06201171875,0.9960936903953552,0.9983966015426081,0.7305145263671875,-0.1049041748046875,-0.3795623779296875,0.829893943744963
1781795642.637069,-0.0395507737994194,0.06689453125,0.9892577528953552,0.9923054185495803,0.423431396484375,-0.469207763671875,-0.2574920654296875,0.6824604287267626
1781795642.647595,-0.0400390587747097,0.07373046875,0.9995116591453552,1.003026851593296,0.911712646484375,-0.347137451171875,-0.1392364501953125,0.985449719076849
1781795642.658063,-0.0283203125,0.0859375,0.9897460341453552,0.9938734859693191,0.8525848388671875,-0.4100799560546875,-0.4405975341796875,1.0436439359040148
1781795642.66853,-0.0273437462747097,0.07080078125,0.9926757216453552,0.9955729603751162,0.911712646484375,-0.530242919921875,0.0476837158203125,1.0557704488387858
1781795642.678997,-0.0317382775247097,0.080078125,0.9926757216453552,0.9964059979284939,0.789642333984375,-0.408172607421875,-0.0133514404296875,0.8889983993413098
1781795642.689648,-0.0268554650247097,0.0810546875,1.0048828125,1.0085041126467091,0.667572021484375,-0.652313232421875,0.0476837158203125,0.9345794208176437
1781795642.700301,-0.0307617150247097,0.07470703125,0.9941405653953552,0.9974181106206396,0.789642333984375,-0.469207763671875,0.2307891845703125,0.9470768653202776
1781795642.710954,-0.013183590024709702,0.0810546875,0.9853515028953552,0.9887675427873821,0.301361083984375,-0.469207763671875,0.2918243408203125,0.629393258881448
1781795642.718948,-0.009765621274709702,0.076171875,1.005859375,1.0087866990475673,0.606536865234375,-0.347137451171875,0.0476837158203125,0.7004749214988932
1781795642.726943,-0.0175781212747097,0.07373046875,0.9960936903953552,0.9989733792324402,0.3643035888671875,-0.5931854248046875,0.3490447998046875,0.7787286596324324
1781795642.734938,-0.0288085900247097,0.0703125,0.9931640028953552,0.9960665234624578,0.4863739013671875,-0.4100799560546875,0.2307891845703125,0.6767486904335928
1781795642.742933,-0.0185546875,0.0810546875,0.9848632216453552,0.9883671909485935,0.244140625,-0.652313232421875,-0.1392364501953125,0.7102844409326854
1781795642.753805,-0.012695308774709702,0.083984375,0.9902343153953552,0.9938704872847034,0.5474090576171875,-0.5321502685546875,0.1087188720703125,0.7711422552476321
1781795642.764677,-0.0292968712747097,0.0654296875,0.9960936903953552,0.9986701110568356,0.423431396484375,-0.286102294921875,0.1659393310546875,0.5372937113713027
1781795642.775549,-0.0302734337747097,0.0712890625,0.9980468153953552,1.001047479865691,0.0591278076171875,-0.4100799560546875,-0.3795623779296875,0.5618979148662757
1781795642.783562,-0.0317382775247097,0.0771484375,0.9873046278953552,0.9908227025722174,0.2422332763671875,-0.2269744873046875,-0.1392364501953125,0.35997384228551904
1781795642.791574,-0.0258789025247097,0.0732421875,0.9926757216453552,0.9957104117010103,0.423431396484375,-0.469207763671875,-0.3795623779296875,0.737236510055158
1781795642.799586,-0.0312499962747097,0.08544921875,0.9843749403953552,0.9885707635422534,0.1811981201171875,-0.4100799560546875,-0.4405975341796875,0.6285893064768426
1781795642.807598,-0.0180664025247097,0.08056640625,0.9936522841453552,0.9970768287867824,0.3643035888671875,-0.7762908935546875,-0.5016326904296875,0.9934686771031962
1781795642.81802,-0.0219726525247097,0.08056640625,0.9912108778953552,0.9947224475868093,0.3643035888671875,-0.7762908935546875,-0.0133514404296875,0.8576263272772096
1781795642.828442,-0.0205078087747097,0.0908203125,0.9956054091453552,0.9999495137769846,0.54931640625,-0.835418701171875,-0.0743865966796875,1.0025997637186557
1781795642.838864,-0.0312499962747097,0.08544921875,0.9843749403953552,0.9885707635422534,0.423431396484375,-0.774383544921875,0.4138946533203125,0.9748193710742618
1781795642.846875,-0.0317382775247097,0.07080078125,0.9882811903953552,0.9913222383136102,0.5474090576171875,-1.0204315185546875,0.2307891845703125,1.180762807737351
1781795642.854886,-0.0068359337747097015,0.083984375,0.9892577528953552,0.9928398697163004,0.5474090576171875,-1.0204315185546875,0.2918243408203125,1.1941937055253526
1781795642.862897,-0.0205078087747097,0.083984375,0.9877929091453552,0.9915688462344532,0.54931640625,-0.835418701171875,0.2918243408203125,1.0415538230635648
1781795642.870908,-0.0317382775247097,0.06884765625,0.9995116591453552,1.002382599010405,0.8525848388671875,-0.8983612060546875,0.4749298095703125,1.3264660146527365
1781795642.881578,-0.0268554650247097,0.07568359375,0.9907225966453552,0.9939720749942242,0.3032684326171875,-0.7762908935546875,0.2918243408203125,0.8830406216778652
1781795642.892248,-0.0244140587747097,0.06591796875,0.9912108778953552,0.993700271373648,0.301361083984375,-0.957489013671875,0.5359649658203125,1.137920102129032
1781795642.902918,-0.0180664025247097,0.07080078125,0.9887694716453552,0.9914656895645104,0.0591278076171875,-0.7762908935546875,0.7801055908203125,1.1021290223375206
1781795642.913705,-0.0185546875,0.0830078050494194,0.9863280653953552,0.989988699285951,0.1201629638671875,-0.7762908935546875,0.5970001220703125,0.9866487901240493
1781795642.924491,-0.0073242150247097015,0.07275390625,0.9951171278953552,0.997800016652166,0.1201629638671875,-0.7762908935546875,0.7190704345703125,1.064954918846061
1781795642.935277,-0.0278320275247097,0.0810546875,0.9965819716453552,1.0002600213596475,0.0591278076171875,-0.7762908935546875,0.9632110595703125,1.2385068406464756
1781795642.945819,-0.0214843712747097,0.078125,0.9843749403953552,0.9877039622844634,0.423431396484375,-0.164031982421875,0.6542205810546875,0.7963700191879973
1781795642.95636,-0.015624996274709702,0.07958984375,0.9736327528953552,0.9770053332747585,-0.2460479736328125,0.0209808349609375,0.4749298095703125,0.5352925599921641
1781795642.966901,-0.0170898400247097,0.08544921875,0.9824218153953552,0.9862789944948442,-0.0019073486328125,0.3833770751953125,0.2918243408203125,0.48181227221743667
1781795642.974896,-0.013671871274709702,0.0751953125,0.9980468153953552,1.0009688810382344,-0.244140625,0.812530517578125,0.2307891845703125,0.8792463445962093
1781795642.982891,-0.01904296875,0.0810546875,0.9833983778953552,0.9869168489147159,-0.2460479736328125,0.6885528564453125,0.4749298095703125,0.8718961896156593
1781795642.990886,-0.0170898400247097,0.08447265625,0.9824218153953552,0.9861948669764542,-0.675201416015625,0.507354736328125,0.2307891845703125,0.875539507034786
1781795642.998881,-0.01904296875,0.0810546875,0.9926757216453552,0.9961614253566853,-0.6732940673828125,0.5664825439453125,0.2918243408203125,0.9270322646288284
1781795643.009565,-0.0292968712747097,0.078125,0.9980468153953552,1.0015284659021415,-0.8563995361328125,0.2002716064453125,0.2918243408203125,0.9266554525452771
1781795643.020249,-0.029296867549419403,0.0624999925494194,0.9921874403953552,0.9945855782159584,-0.732421875,0.507354736328125,0.5359649658203125,1.039763952077521
1781795643.030933,-0.015624996274709702,0.07666015625,0.9960936903953552,0.9991614284540296,-0.4901885986328125,0.3833770751953125,0.1659393310546875,0.6440486826364836
1781795643.038935,-0.0166015587747097,0.08349609375,0.9926757216453552,0.996319375385918,-0.3681182861328125,0.8716583251953125,0.0476837158203125,0.9474033170841701
1781795643.046937,-0.02783203125,0.07177734375,0.9916991591453552,0.9946827792260763,-0.186920166015625,0.812530517578125,0.2918243408203125,0.8833495550201486
1781795643.05494,-0.0200195275247097,0.0712890625,0.9809569716453552,0.9837476770666692,-0.1850128173828125,0.8716583251953125,-0.0133514404296875,0.8911768844846519
1781795643.062941,-0.0249023400247097,0.07763671875,0.9912108778953552,0.9945584905348974,-0.0019073486328125,0.5664825439453125,-0.1392364501953125,0.5833462947825688
1781795643.0736,-0.0312499962747097,0.078125,0.9863280653953552,0.9899106679285326,-0.064849853515625,0.324249267578125,-0.2574920654296875,0.41910053064294134
1781795643.084259,-0.0234374962747097,0.0654296875,0.9892577528953552,0.991696154021756,-0.003814697265625,0.263214111328125,0.1659393310546875,0.311178537030368
1781795643.094918,-0.0180664025247097,0.07470703125,0.9926757216453552,0.9956468368666171,0.1811981201171875,-0.2269744873046875,-0.1392364501953125,0.3220822343505152
1781795643.105588,-0.0292968712747097,0.0888671875,0.9897460341453552,0.9941593915399611,0.3032684326171875,-0.1049041748046875,-0.1392364501953125,0.34980482726304646
1781795643.116259,-0.019531242549419403,0.0776367112994194,0.9882811903953552,0.9915183506451981,0.423431396484375,-0.102996826171875,-0.1964569091796875,0.47801444632419154
1781795643.12693,-0.0205078087747097,0.07275390625,1.001953125,1.0048003611626737,0.118255615234375,-0.225067138671875,-0.2574920654296875,0.3618587724563991
1781795643.134919,-0.0449218712747097,0.0849609375,0.9853515028953552,0.9900272317859927,0.8525848388671875,-0.5321502685546875,-0.2574920654296875,1.0374907129937407
1781795643.142908,-0.0200195275247097,0.0791015625,0.9907225966453552,0.9940770101838032,0.301361083984375,-0.469207763671875,-0.1964569091796875,0.591244235147063
1781795643.150898,-0.01904296875,0.08642578125,0.9936522841453552,0.997585541249856,0.3643035888671875,-0.5321502685546875,-0.0133514404296875,0.6450420716091985
1781795643.158886,-0.024414055049419403,0.09130859375,0.9960936903953552,1.000567811506045,0.789642333984375,-0.713348388671875,-0.3795623779296875,1.1298090714721185
1781795643.16955,-0.0273437462747097,0.0751953125,0.9921874403953552,0.995408424899345,0.2422332763671875,-0.4673004150390625,-0.2574920654296875,0.5859597271438617
1781795643.180214,-0.024414055049419403,0.09130859375,0.9824218153953552,0.9869579163982951,0.244140625,-0.530242919921875,-0.3223419189453125,0.6668331962432682
1781795643.190878,-0.0263671837747097,0.08056640625,0.9897460341453552,0.9933697127971579,0.3032684326171875,-0.5931854248046875,-0.3223419189453125,0.7400979686042582
1781795643.201549,-0.0195312462747097,0.07958984375,0.9931640028953552,0.9965393868063208,0.301361083984375,-0.469207763671875,-0.4405975341796875,0.7107043095095319
1781795643.21222,-0.0263671837747097,0.07666015625,0.9951171278953552,0.9984137950605373,-0.064849853515625,-0.713348388671875,-0.6847381591796875,0.9909277338729325
1781795643.222891,-0.009765621274709702,0.0712890625,0.9931640028953552,0.995767158746529,0.301361083984375,-0.408172607421875,-0.5626678466796875,0.7576400768682752
1781795643.233552,-0.0253906212747097,0.068359375,0.9853515028953552,0.9880461892326905,0.3032684326171875,-0.5931854248046875,-0.8678436279296875,1.0940718682796688
1781795643.244214,-0.0200195275247097,0.07666015625,0.9897460341453552,0.9929122686043544,0.0591278076171875,-0.6504058837890625,-0.8106231689453125,1.0409773452539623
1781795643.254876,-0.0263671837747097,0.078125,0.9804686903953552,0.9839296706832212,0.0591278076171875,-0.6504058837890625,-0.9288787841796875,1.1354909541692444
1781795643.26287,-0.0297851525247097,0.07470703125,0.9868163466453552,0.9900882777993054,0.2422332763671875,-0.4100799560546875,-1.0509490966796875,1.15383557509259
1781795643.270865,-0.029296867549419403,0.0678710862994194,0.9877929091453552,0.9905552090426436,-0.064849853515625,-0.530242919921875,-0.6275177001953125,0.8241004317962028
1781795643.27886,-0.0283203087747097,0.08447265625,0.9941405653953552,0.9981248084821969,0.06103515625,-0.347137451171875,-0.5016326904296875,0.6130783444326626
1781795643.286855,-0.0249023400247097,0.0810546875,0.9990233778953552,1.002615429008488,0.0591278076171875,-0.4673004150390625,-0.4405975341796875,0.6449743891462018
1781795643.294949,-0.0268554650247097,0.0888671875,0.9907225966453552,0.995062739991589,0.0591278076171875,-0.5321502685546875,-0.1392364501953125,0.5532330386188382
1781795643.303043,-0.0229492150247097,0.0888671875,0.9907225966453552,0.9949649777696327,-0.0019073486328125,-0.5931854248046875,-0.1964569091796875,0.624874310036795
1781795643.311137,-0.0180664025247097,0.07421875,0.9960936903953552,0.9990182469790956,-0.2460479736328125,-0.7152557373046875,0.0476837158203125,0.7578945255314341
1781795643.319231,-0.0234374962747097,0.0849609375,0.9921874403953552,0.9960941692484664,-0.492095947265625,-0.347137451171875,0.1087188720703125,0.6119498545351568
1781795643.329779,-0.012207027524709702,0.08056640625,0.9868163466453552,0.990174964005612,-0.1850128173828125,-0.1049041748046875,-0.1392364501953125,0.25420743016357744
1781795643.340328,-0.01904296875,0.08642578125,1.00244140625,1.0063403118666985,-0.1239776611328125,-0.1621246337890625,0.2307891845703125,0.30808846952755287
1781795643.350875,-0.01904296875,0.0874023362994194,0.9887694716453552,0.99280757002918,0.0591278076171875,-0.0438690185546875,-0.1964569091796875,0.2097996796637274
1781795643.358861,-0.0263671837747097,0.0703125,1.00146484375,1.0042763112329551,0.0591278076171875,0.3833770751953125,-0.3223419189453125,0.5043593878657101
1781795643.366846,-0.0185546837747097,0.080078125,0.9912108778953552,0.9946133856185406,-0.1850128173828125,0.2002716064453125,0.0476837158203125,0.2767890816100671
1781795643.374831,-0.0200195275247097,0.07373046875,0.9980468153953552,1.0009667373220839,0.1811981201171875,0.0782012939453125,-0.1964569091796875,0.2784663682981481
1781795643.39111,-0.0292968712747097,0.07958984375,0.9907225966453552,0.9943460732553588,-0.0019073486328125,0.3833770751953125,-0.2574920654296875,0.46182657299398205
1781795643.399401,-0.015624996274709702,0.080078125,0.9882811903953552,0.9916432614107559,0.2422332763671875,0.5092620849609375,0.0476837158203125,0.5659492628432126
1781795643.407692,-0.0219726525247097,0.08544921875,1.0009765625,1.0048574252690146,0.0591278076171875,0.3833770751953125,0.2918243408203125,0.4854230374777626
1781795643.415983,-0.0224609337747097,0.0810546875,0.9951171278953552,0.9986653364077754,-0.003814697265625,0.324249267578125,0.1659393310546875,0.3642636422030835
1781795643.426434,-0.015136715024709702,0.078125,1.00244140625,1.005595052061821,0.0591278076171875,0.3833770751953125,-0.0133514404296875,0.3881395887827921
1781795643.436885,-0.0332031212747097,0.080078125,0.9926757216453552,0.996453732849662,0.1201629638671875,0.2002716064453125,0.2918243408203125,0.3737770727703119
1781795643.447336,-0.0322265587747097,0.06494140625,0.9975585341453552,1.0001894652426695,0.3643035888671875,0.5092620849609375,0.1659393310546875,0.6477660361821628
1781795643.45784,-0.0278320275247097,0.06396484375,0.9731444716453552,0.9756414739472773,0.3643035888671875,-0.0438690185546875,0.2307891845703125,0.4334803840603333
1781795643.468345,-0.0161132775247097,0.07763671875,1.005859375,1.008979771891511,0.118255615234375,0.080108642578125,0.1087188720703125,0.1795036999463
1781795643.47885,-0.0170898400247097,0.07470703125,1.00390625,1.006827175804925,0.1811981201171875,-0.4100799560546875,-0.0743865966796875,0.4544575831223456
1781795643.486859,-0.01904296875,0.0830078050494194,0.9980468153953552,1.0016737872574815,-0.0019073486328125,-0.2880096435546875,0.3490447998046875,0.45253228064967876
1781795643.49487,-0.02294921875,0.0722656175494194,0.9936522841453552,0.9965409414109969,0.1811981201171875,-0.2880096435546875,0.1659393310546875,0.37857387007739723
1781795643.502881,-0.0234375,0.076171875,0.9833983778953552,0.9866224407515174,0.301361083984375,-0.347137451171875,-0.0133514404296875,0.45989256778935983
1781795643.510892,-0.0258789025247097,0.080078125,0.9741210341453552,0.9777494632388275,0.2422332763671875,-0.4673004150390625,0.1659393310546875,0.5518899343765381
1781795643.521654,-0.0170898400247097,0.078125,0.9809569716453552,0.9842114399237069,-0.186920166015625,-0.469207763671875,0.2918243408203125,0.5833151119664918
1781795643.532416,-0.010742183774709702,0.068359375,0.9951171278953552,0.9975201736773753,0.1811981201171875,-0.5931854248046875,0.2918243408203125,0.6854656467175654
1781795643.543178,-0.0166015587747097,0.07373046875,0.9965819716453552,0.9994435551767736,0.2422332763671875,-0.5931854248046875,0.2918243408203125,0.70406487930837
1781795643.551127,-0.0307617150247097,0.0771484375,0.9999999403953552,1.0034430952030449,0.0591278076171875,-0.5321502685546875,0.1087188720703125,0.5463513513305172
1781795643.559076,-0.00927734375,0.0878906175494194,0.9995116591453552,1.0034113745258098,0.3643035888671875,-0.2269744873046875,0.7190704345703125,0.8374346617031544
1781795643.567025,-0.01904296875,0.0678710862994194,0.9907225966453552,0.9932272562299083,0.3643035888671875,-0.6504058837890625,0.7190704345703125,1.0357640698547532
1781795643.574974,-0.01904296875,0.0908203125,0.9921874403953552,0.9965173760149382,0.1811981201171875,-0.5931854248046875,0.7801055908203125,0.9966275331154709
1781795643.582959,-0.014648433774709702,0.0712890625,0.9931640028953552,0.9958270149435122,-0.125885009765625,-0.347137451171875,0.5970001220703125,0.7019690815426028
1781795643.590944,-0.0161132775247097,0.07861328125,0.9863280653953552,0.9895871554784975,-0.370025634765625,-0.408172607421875,0.2307891845703125,0.5973169138304268
1781795643.598929,-0.014648433774709702,0.076171875,0.9912108778953552,0.9942412864144943,-0.186920166015625,-0.408172607421875,0.5970001220703125,0.7469626307017299
1781795643.606914,-0.0263671837747097,0.07373046875,0.9965819716453552,0.999653458259835,-0.370025634765625,-0.164031982421875,0.2307891845703125,0.46592822339453077
1781795643.617755,-0.0185546837747097,0.07958984375,0.9941405653953552,0.9974940016274411,-0.3681182861328125,-0.2880096435546875,0.4138946533203125,0.6243151539190755
1781795643.628596,-0.010253902524709702,0.07861328125,0.9843749403953552,0.9875622581813447,-0.308990478515625,-0.164031982421875,0.1659393310546875,0.3871917724609375
1781795643.639437,-0.0180664025247097,0.08349609375,0.9921874403953552,0.9958583782094622,-0.186920166015625,-0.164031982421875,0.0476837158203125,0.2532180413694716
1781795643.649939,-0.0273437462747097,0.078125,0.9960936903953552,0.9995268061091576,-0.064849853515625,-0.225067138671875,0.2307891845703125,0.3288227001372819
1781795643.660442,-0.012207027524709702,0.07275390625,0.9965819716453552,0.9993086453164339,-0.003814697265625,-0.347137451171875,0.2307891845703125,0.4168724140980835
1781795643.670945,-0.0371093712747097,0.072265625,0.9897460341453552,0.9930743366432865,0.2422332763671875,0.0209808349609375,0.2918243408203125,0.3798402315585465
1781795643.6816,-0.0273437462747097,0.08056640625,0.9912108778953552,0.9948555828533389,0.179290771484375,-0.347137451171875,0.4749298095703125,0.6149861094074089
1781795643.692255,-0.0180664025247097,0.07421875,0.9975585341453552,1.0004788087700693,0.606536865234375,-0.102996826171875,0.3490447998046875,0.7073383825019792
1781795643.70291,-0.0234374962747097,0.0830078125,0.9956054091453552,0.9993346505986632,-0.064849853515625,-0.164031982421875,0.4749298095703125,0.5066264094742216
1781795643.713572,-0.0273437462747097,0.08544921875,0.9956054091453552,0.9996396251473884,0.1811981201171875,0.0209808349609375,0.8373260498046875,0.8569643328932557
1781795643.724235,-0.0307617150247097,0.06884765625,1.00341796875,1.0062474362167366,0.423431396484375,0.263214111328125,0.3490447998046875,0.6086116070217992
1781795643.734898,-0.0307617150247097,0.08837890625,0.9999999403953552,1.0043689536081457,0.118255615234375,0.019073486328125,0.4749298095703125,0.48980252391516216
1781795643.742894,-0.0219726525247097,0.07958984375,0.9936522841453552,0.9970768287721878,0.301361083984375,0.019073486328125,0.0476837158203125,0.3057058023253386
1781795643.75089,-0.0161132775247097,0.0791015625,1.00341796875,1.0066599797910443,0.301361083984375,0.141143798828125,0.4749298095703125,0.5799124062359462
1781795643.758886,-0.015624996274709702,0.07421875,1.00146484375,1.0043328116851302,0.244140625,0.141143798828125,0.2918243408203125,0.4058172773776823
1781795643.766882,-0.008300777524709702,0.0859375,0.9892577528953552,0.9930181561670121,0.423431396484375,-0.164031982421875,0.1659393310546875,0.4834630289658512
1781795643.777528,-0.0175781212747097,0.0830078125,0.9907225966453552,0.9943493102463031,0.5474090576171875,0.3261566162109375,-0.0133514404296875,0.6373484726749202
1781795643.788174,-0.0170898400247097,0.0791015625,0.9858397841453552,0.9891558015933446,-0.064849853515625,0.324249267578125,0.2307891845703125,0.4032452587949154
1781795643.79882,-0.0166015587747097,0.080078125,0.9975585341453552,1.0009051637910036,0.06103515625,0.629425048828125,-0.1392364501953125,0.647524494867755
1781795643.806832,-0.012207027524709702,0.06982421875,0.9790038466453552,0.9815665870390246,-0.064849853515625,0.629425048828125,-0.1964569091796875,0.6625531773055817
1781795643.814846,-0.02294921875,0.0771484300494194,0.9960936903953552,0.9993403759209187,-0.064849853515625,0.812530517578125,-0.1392364501953125,0.8269208756342806
1781795643.82286,-0.029785148799419403,0.07666015625,0.9936522841453552,0.9970500471052391,-0.064849853515625,0.751495361328125,-0.1964569091796875,0.7794524352153396
1781795643.830874,-0.0288085900247097,0.080078125,0.9902343153953552,0.9938845206306592,-0.308990478515625,0.324249267578125,-0.1392364501953125,0.46904103487995286
1781795643.84288,-0.0263671837747097,0.07666015625,0.9980468153953552,1.0013338372677185,-0.3070831298828125,0.3833770751953125,-0.0133514404296875,0.4913820218582321
1781795643.854885,-0.0302734337747097,0.068359375,0.9921874403953552,0.9950002019201749,-0.492095947265625,0.141143798828125,-0.0743865966796875,0.5173135983409614
1781795643.86689,-0.0288085900247097,0.08349609375,0.9892577528953552,0.9931930498117112,-0.370025634765625,0.019073486328125,0.1659393310546875,0.4059786076325821
1781795643.878895,-0.0288085900247097,0.0791015625,0.9873046278953552,0.990887188489557,-0.244140625,0.324249267578125,-0.0743865966796875,0.4126446389642396
1781795643.886909,-0.0180664025247097,0.08447265625,0.9956054091453552,0.9993458636896466,-0.064849853515625,0.019073486328125,-0.0743865966796875,0.10051202488903349
1781795643.894922,-0.0327148400247097,0.07470703125,0.9975585341453552,1.0008868219345586,0.1811981201171875,0.2002716064453125,-0.1392364501953125,0.3038556633422859
1781795643.902936,-0.0200195275247097,0.06787109375,0.9838866591453552,0.986428013031535,0.301361083984375,-0.347137451171875,-0.2574920654296875,0.5269013918235459
1781795643.91095,-0.0219726525247097,0.0810546875,0.9868163466453552,0.9903833408489766,-0.0019073486328125,-0.2880096435546875,-0.0743865966796875,0.2974669032428511
1781795643.919026,-0.02392578125,0.06689453125,0.9956054091453552,0.9981369906175556,0.244140625,-0.530242919921875,0.1087188720703125,0.5937861500969078
1781795643.927102,-0.0327148400247097,0.068359375,0.9863280653953552,0.9892352184868759,0.118255615234375,-0.469207763671875,-0.1964569091796875,0.5222409723383054
1781795643.935178,-0.0205078087747097,0.0908203125,0.9999999403953552,1.0043250371140071,0.4863739013671875,-0.5931854248046875,-0.2574920654296875,0.8091543016576644
1781795643.943254,-0.0166015587747097,0.0869140625,0.9956054091453552,0.9995297878169986,0.179290771484375,-0.164031982421875,-0.0743865966796875,0.25413586476981004
1781795643.954061,-0.0234374962747097,0.0732421875,0.9970702528953552,1.0000314112417767,0.5474090576171875,-0.2880096435546875,-0.2574920654296875,0.6700062648222641
1781795643.964868,-0.011230465024709702,0.09033203125,1.00048828125,1.0046207245189607,0.423431396484375,-0.286102294921875,-0.0743865966796875,0.5164126610123516
1781795643.975675,-0.0302734337747097,0.0751953125,0.9985350966453552,1.0018199214664447,0.4863739013671875,-0.2880096435546875,-0.2574920654296875,0.6211370947471123
1781795643.986163,-0.0053710900247097015,0.0771484375,0.9990233778953552,1.0020121953340642,0.3643035888671875,-0.1621246337890625,-0.1392364501953125,0.42236038025096784
1781795643.996651,-0.0253906212747097,0.0810546875,0.9887694716453552,0.9924110106565088,0.5474090576171875,0.0782012939453125,0.1087188720703125,0.5635529361828394
1781795644.007139,-0.0209960900247097,0.07666015625,0.9985350966453552,1.0016935432482077,0.2422332763671875,-0.2880096435546875,-0.1392364501953125,0.4012646309146523
1781795644.017754,-0.01904296875,0.0673828050494194,0.9882811903953552,0.9907586933075085,-0.003814697265625,0.324249267578125,-0.0743865966796875,0.3326943119528276
1781795644.028369,-0.0253906212747097,0.08203125,0.9868163466453552,0.9905454616683498,-0.1239776611328125,0.2002716064453125,-0.0133514404296875,0.23591828621303632
1781795644.038984,-0.0170898400247097,0.07080078125,0.9936522841453552,0.9963180591783741,-0.186920166015625,0.141143798828125,-0.0133514404296875,0.2346038818359375
1781795644.049626,-0.0268554650247097,0.07958984375,0.9960936903953552,0.999629130865683,0.179290771484375,-0.041961669921875,-0.4405975341796875,0.4775271192375525
1781795644.060269,-0.0185546837747097,0.07568359375,0.9863280653953552,0.9894015035562856,0.301361083984375,0.019073486328125,0.2918243408203125,0.4199330264651217
1781795644.070912,-0.0209960900247097,0.095703125,0.9794921278953552,0.9843803901643217,-0.0019073486328125,0.0782012939453125,-0.1964569091796875,0.21145779133899098
1781795644.07891,-0.0219726525247097,0.0610351525247097,0.9926757216453552,0.9947930315632558,-0.064849853515625,-0.102996826171875,-0.0743865966796875,0.14264366606360043
1781795644.086908,-0.0224609337747097,0.068359375,0.9970702528953552,0.999663236747871,-0.186920166015625,-0.408172607421875,-0.2574920654296875,0.5175385876165441
1781795644.094906,-0.013671875,0.0722656175494194,0.9873046278953552,0.990040235500255,-0.370025634765625,-0.041961669921875,-0.1964569091796875,0.421040460396352
1781795644.102904,-0.011230465024709702,0.072265625,0.9931640028953552,0.995852991434196,-0.1850128173828125,-0.2880096435546875,0.0476837158203125,0.3456197826092372
1781795644.113575,-0.0244140587747097,0.08837890625,0.9931640028953552,0.9973873941367649,-0.553131103515625,0.141143798828125,0.1087188720703125,0.5811156363137102
1781795644.124246,-0.0253906212747097,0.0732421875,0.9941405653953552,0.9971582449356258,-0.553131103515625,0.080108642578125,0.0476837158203125,0.5609323925809199
1781795644.134917,-0.033203125,0.0712890625,0.9892577528953552,0.9923786976781909,-0.553131103515625,0.324249267578125,0.3490447998046875,0.7300163542497236
1781795644.143025,-0.0268554650247097,0.0791015625,0.9941405653953552,0.9976440933299968,-0.553131103515625,-0.225067138671875,0.1659393310546875,0.6197943983106295
1781795644.151134,-0.02783203125,0.0771484300494194,0.9960936903953552,0.9994644277151783,-0.797271728515625,0.324249267578125,0.4749298095703125,0.9830249847454215
1781795644.159243,-0.0209960900247097,0.07470703125,0.9843749403953552,0.9874289845821184,-0.6122589111328125,0.3261566162109375,0.2307891845703125,0.7310969568219633
1781795644.167352,-0.0224609337747097,0.08447265625,0.9941405653953552,0.9979757446774742,-0.370025634765625,0.019073486328125,0.3490447998046875,0.5090334375412948
1781795644.177902,-0.0209960900247097,0.0712890625,0.9990233778953552,1.0017837470282198,-0.4901885986328125,0.2613067626953125,0.2307891845703125,0.6015228459290093
1781795644.188452,-0.0253906212747097,0.06591796875,0.9902343153953552,0.9927506543132316,-0.3070831298828125,-0.1049041748046875,0.0476837158203125,0.327991876887994
1781795644.199002,-0.0253906212747097,0.078125,0.9926757216453552,0.996068917102548,-0.1850128173828125,0.2002716064453125,-0.1964569091796875,0.3360562097455544
1781795644.209641,-0.0249023400247097,0.07080078125,0.9926757216453552,0.9955088977545321,-0.244140625,-0.164031982421875,-0.3223419189453125,0.4363661865245603
1781795644.220281,-0.0361328087747097,0.08154296875,0.9858397841453552,0.9898661099493576,-0.553131103515625,-0.102996826171875,0.0476837158203125,0.5646557363848568
1781795644.230921,-0.0312499962747097,0.08837890625,0.9838866591453552,0.9883422238179062,-0.308990478515625,-0.041961669921875,-0.3795623779296875,0.49122652238614545
1781795644.241577,-0.01904296875,0.0781249925494194,0.9873046278953552,0.9905738626590377,-0.244140625,-0.041961669921875,-0.1964569091796875,0.3161656902360833
1781795644.252232,-0.0244140587747097,0.0830078125,0.9892577528953552,0.9930343623789953,-0.3070831298828125,0.0782012939453125,0.0476837158203125,0.32045159975849363
1781795644.262887,-0.0200195275247097,0.0791015625,1.0078125,1.0111102184373888,-0.370025634765625,-0.164031982421875,0.0476837158203125,0.4075526940107087
1781795644.270873,-0.0161132775247097,0.078125,0.9829100966453552,0.9861416791845733,-0.308990478515625,-0.164031982421875,0.2918243408203125,0.45556893327549797
1781795644.278861,-0.014648433774709702,0.0703125,0.9868163466453552,0.9894265643668497,-0.4291534423828125,-0.1049041748046875,-0.2574920654296875,0.5113508841878704
1781795644.286849,-0.0312499962747097,0.07568359375,0.9921874403953552,0.995560387675389,-0.675201416015625,-0.164031982421875,-0.0133514404296875,0.694968851394293
1781795644.294837,-0.0258789025247097,0.087890625,0.9936522841453552,0.997867396674556,-0.3070831298828125,-0.2880096435546875,0.3490447998046875,0.5468837862926792
1781795644.302972,-0.0175781212747097,0.06640625,0.9951171278953552,0.9974852773937627,-0.7953643798828125,-0.4100799560546875,-0.1392364501953125,0.9056251190239685
1781795644.311107,-0.01416015625,0.0712890625,0.9877929091453552,0.9904632612141641,-0.6122589111328125,-0.1049041748046875,-0.3795623779296875,0.7279652868733705
1781795644.319242,-0.011230465024709702,0.072265625,1.00146484375,1.004131603510478,-0.4901885986328125,-0.4100799560546875,0.1659393310546875,0.6602925822529677
1781795644.327377,-0.011718746274709702,0.072265625,0.9887694716453552,0.9914760297802093,-0.370025634765625,-0.469207763671875,0.1087188720703125,0.6073670134423722
1781795644.337885,-0.0234375,0.0712890625,0.9887694716453552,0.9916130872957526,-0.4901885986328125,-0.1049041748046875,-0.3223419189453125,0.5959815943721747
1781795644.348393,-0.0180664025247097,0.0732421875,0.9814452528953552,0.9843401837580328,-0.4291534423828125,-0.2269744873046875,-0.2574920654296875,0.5495382231978866
1781795644.358901,-0.0161132775247097,0.076171875,0.9931640028953552,0.9962110865176763,-0.553131103515625,0.019073486328125,-0.1964569091796875,0.5872930552301451
1781795644.369567,-0.0224609337747097,0.08251953125,0.9921874403953552,0.995866398399925,-0.6122589111328125,-0.2880096435546875,-0.4405975341796875,0.8074259818505076
1781795644.380235,-0.0278320275247097,0.0791015625,0.9916991591453552,0.9952381128130505,-0.4291534423828125,-0.1049041748046875,-0.4405975341796875,0.6239421047867272
1781795644.390903,-0.0214843712747097,0.06396484375,0.9956054091453552,0.9978893777190544,-0.1239776611328125,0.0782012939453125,-0.1964569091796875,0.24511470783924746
1781795644.398956,-0.0170898400247097,0.076171875,0.9912108778953552,0.994280253063072,-0.553131103515625,0.019073486328125,0.0476837158203125,0.5555101730045585
1781795644.407011,-0.0180664025247097,0.0693359375,0.9877929091453552,0.9903881554658419,-0.4291534423828125,0.0782012939453125,0.1659393310546875,0.4667161675736296
1781795644.415066,-0.024902336299419403,0.07177734375,1.00927734375,1.0121328322093057,-0.370025634765625,0.141143798828125,0.2307891845703125,0.45837123605868607
1781795644.423121,-0.0317382775247097,0.06982421875,0.9819335341453552,0.984924466780814,-0.4291534423828125,-0.1621246337890625,-0.0133514404296875,0.45895025324298827
1781795644.433703,-0.015624996274709702,0.076171875,1.00244140625,1.0054526682117253,-0.3070831298828125,-0.2880096435546875,0.0476837158203125,0.42370194735634004
1781795644.444285,-0.0229492150247097,0.078125,0.9892577528953552,0.9926031854466406,-0.1239776611328125,-0.2269744873046875,0.1087188720703125,0.28054887540574674
1781795644.454867,-0.0200195275247097,0.08740234375,0.9892577528953552,0.9933130688956395,-0.4291534423828125,-0.2269744873046875,-0.5016326904296875,0.6980869939369809
1781795644.462888,-0.0214843712747097,0.06787109375,0.9975585341453552,1.0000955417469477,-0.064849853515625,-0.225067138671875,-0.3223419189453125,0.3984533010533222
1781795644.470907,-0.0229492150247097,0.07373046875,0.9946288466453552,0.9976218677792777,-0.6122589111328125,-0.2880096435546875,-0.1964569091796875,0.7045607469952263
1781795644.478927,-0.0312499962747097,0.072265625,0.9921874403953552,0.9953063848394105,-0.553131103515625,-0.164031982421875,-0.0133514404296875,0.5770951133870489
1781795644.486947,-0.0195312462747097,0.0703125,0.9995116591453552,1.0021720780408891,-0.553131103515625,-0.347137451171875,-0.3795623779296875,0.7553317326990558
1781795644.497614,-0.0283203125,0.0771484300494194,0.9956054091453552,0.9989915170203789,-0.308990478515625,-0.164031982421875,-0.3795623779296875,0.5161871809820583
1781795644.508281,-0.0317382775247097,0.07373046875,0.9921874403953552,0.9954292627608538,-0.553131103515625,-0.164031982421875,-0.2574920654296875,0.6317932198852009
1781795644.518948,-0.0205078087747097,0.07080078125,0.9907225966453552,0.9934609123413289,-0.4291534423828125,-0.4100799560546875,-0.0743865966796875,0.5982237150367903
1781795644.526951,-0.0317382775247097,0.06494140625,0.9882811903953552,0.9909209937200965,-0.553131103515625,-0.225067138671875,-0.1392364501953125,0.6131851463052166
1781795644.534954,-0.0166015587747097,0.07275390625,0.9882811903953552,0.9910945736495808,-0.3681182861328125,-0.2880096435546875,-0.0133514404296875,0.4675883748847964
1781795644.542957,-0.0190429650247097,0.06982421875,1.0126953125,1.0152782140873766,-0.2460479736328125,-0.4100799560546875,0.1659393310546875,0.5062025654592288
1781795644.55096,-0.0224609337747097,0.0566406212747097,0.9863280653953552,0.9882083313304746,-0.492095947265625,-0.347137451171875,-0.0743865966796875,0.6067917246361763
1781795644.561703,-0.0166015587747097,0.06884765625,0.9897460341453552,0.9922765862557309,-0.4901885986328125,-0.2880096435546875,-0.0133514404296875,0.5686938350040787
1781795644.572446,-0.0229492150247097,0.0693359375,0.9868163466453552,0.9895153564779782,-0.7343292236328125,-0.7152557373046875,-0.1964569091796875,1.04375547691635
1781795644.583189,-0.019531242549419403,0.08154296875,0.9965819716453552,1.0001031703762524,-0.553131103515625,-0.347137451171875,-0.0743865966796875,0.6572608260410059
1781795644.593735,-0.009765621274709702,0.06787109375,0.9887694716453552,0.9911442482219918,-0.370025634765625,-0.408172607421875,-0.3795623779296875,0.6690227548991997
1781795644.60428,-0.0205078087747097,0.072265625,1.00244140625,1.0052520399093245,-0.492095947265625,-0.652313232421875,-0.1964569091796875,0.8403965086031497
1781795644.614826,-0.0356445275247097,0.0849609375,0.9951171278953552,0.9993732993601737,-0.492095947265625,-0.225067138671875,0.2307891845703125,0.5882833381456826
1781795644.625633,-0.0170898400247097,0.0595703087747097,0.9956054091453552,0.9975323629031163,-0.0019073486328125,-0.5931854248046875,0.2918243408203125,0.6610854952838813
1781795644.636441,-0.0273437462747097,0.07763671875,0.9985350966453552,1.0019218930591103,-0.186920166015625,-0.408172607421875,0.4749298095703125,0.6535306801760528
1781795644.647249,-0.013183590024709702,0.0610351525247097,0.9936522841453552,0.9956123536180815,0.423431396484375,-0.408172607421875,0.8373260498046875,1.0232369904669212
1781795644.655251,-0.0239257775247097,0.0751953125,0.9941405653953552,0.9972673872220685,0.118255615234375,-0.225067138671875,0.5970001220703125,0.6488826960216874
1781795644.66325,-0.0253906212747097,0.07080078125,0.9790038466453552,0.9818889784597484,-0.3490447998046875,-0.0591278076171875,0.4596710205078125,0.5801946371684276
1781795644.67125,-0.0249023400247097,0.0581054650247097,0.9819335341453552,0.9839663800575869,-0.286102294921875,0.064849853515625,0.5817413330078125,0.651523602941803
1781795644.67925,-0.0273437462747097,0.064453125,1.0068359375,1.0092673039507944,-0.347137451171875,0.003814697265625,0.6427764892578125,0.7305344461857586
1781795644.689815,-0.008300777524709702,0.06591796875,0.9980468153953552,1.0002557309170745,0.019073486328125,0.003814697265625,0.6427764892578125,0.6430707308986596
1781795644.70038,-0.0224609337747097,0.0771484375,1.001953125,1.0051698561198446,-0.164031982421875,0.186920166015625,0.6427764892578125,0.6892077008153332
1781795644.710945,-0.0175781212747097,0.07958984375,0.9980468153953552,1.001369551812171,0.202178955078125,0.858306884765625,0.2155303955078125,0.907755688332664
1781795644.71909,-0.029785148799419403,0.0673828050494194,0.9877929091453552,0.990536434899381,-0.286102294921875,1.041412353515625,0.0934600830078125,1.0840336712161407
1781795644.727235,-0.0161132775247097,0.0751953125,0.9853515028953552,0.988347892694013,-0.347137451171875,1.163482666015625,0.2155303955078125,1.2331462506583257
1781795644.73538,-0.02392578125,0.0727538987994194,0.9838866591453552,0.9868629747047699,-0.4100799560546875,1.2836456298828125,-0.2117156982421875,1.3640876842627214
1781795644.743525,-0.0249023400247097,0.0673828125,0.9965819716453552,0.9991677517652678,-0.835418701171875,1.041412353515625,0.0324249267578125,1.3354832354611963
1781795644.754182,-0.0312499962747097,0.0600585900247097,0.9907225966453552,0.993033161584567,-1.140594482421875,1.041412353515625,-0.0286102294921875,1.5447698885652108
1781795644.764839,-0.0312499962747097,0.07373046875,0.9877929091453552,0.9910335895655142,-1.262664794921875,0.980377197265625,0.3376007080078125,1.6338408953447332
1781795644.775496,-0.0268554650247097,0.07421875,0.9941405653953552,0.9972688216413127,-1.018524169921875,0.553131103515625,0.3986358642578125,1.2256655557957197
1781795644.786229,-0.0346679650247097,0.076171875,0.9858397841453552,0.9893857196987081,-0.957489013671875,1.041412353515625,0.3986358642578125,1.4697739464386577
1781795644.796961,-0.0278320275247097,0.0610351525247097,0.9848632216453552,0.9871451144332929,-1.140594482421875,1.285552978515625,0.5207061767578125,1.7957553164101612
1781795644.807693,-0.0209960900247097,0.0546874962747097,0.9985350966453552,1.0002519169077713,-0.774383544921875,1.041412353515625,0.1544952392578125,1.3069347128506654
1781795644.818205,-0.0380859337747097,0.06494140625,0.9877929091453552,0.9906577390577752,-0.7152557373046875,0.6122589111328125,0.3376007080078125,1.0002129683503336
1781795644.828718,-0.019531242549419403,0.0673828050494194,0.9907225966453552,0.9932034914132992,-0.7152557373046875,0.7343292236328125,0.3986358642578125,1.0998821440049904
1781795644.839231,-0.0283203125,0.0615234375,0.9936522841453552,0.9959578481287227,-0.652313232421875,0.370025634765625,0.2155303955078125,0.7803107553815549
1781795644.847145,-0.0292968712747097,0.0585937462747097,1.0009765625,1.0031179454298025,-0.286102294921875,-0.057220458984375,0.4596710205078125,0.5444503202135526
1781795644.855057,-0.0263671837747097,0.0634765625,0.9858397841453552,0.9882330607558049,-0.1010894775390625,-0.2422332763671875,0.3376007080078125,0.42763334843774653
1781795644.862969,-0.0244140587747097,0.0610351525247097,0.9882811903953552,0.9904650662183043,-0.164031982421875,-0.179290771484375,0.3376007080078125,0.4159638326153957
1781795644.870881,-0.0229492150247097,0.076171875,0.9868163466453552,0.9900178397472198,-0.102996826171875,-0.362396240234375,0.2765655517578125,0.4673626916609771
1781795644.881748,-0.0263671837747097,0.07763671875,0.9995116591453552,1.0028690070223412,-0.286102294921875,-0.423431396484375,0.0324249267578125,0.5120547300470146
1781795644.892615,-0.0249023400247097,0.0712890625,0.9882811903953552,0.9911619283750237,-0.2269744873046875,-0.3643035888671875,0.1544952392578125,0.45618340796445817
1781795644.903482,-0.02392578125,0.0678710862994194,0.9936522841453552,0.9962548816197428,0.0782012939453125,-0.1811981201171875,0.0324249267578125,0.19999894245713748
1781795644.911326,-0.0219726525247097,0.07470703125,0.9873046278953552,0.9903708225915917,-0.102996826171875,0.186920166015625,-0.1506805419921875,0.2612510677487226
1781795644.919169,-0.02294921875,0.07177734375,0.9907225966453552,0.993584378510832,0.1392364501953125,-0.0591278076171875,0.0324249267578125,0.15470702172770434
1781795644.927012,-0.0175781212747097,0.07373046875,0.9946288466453552,0.9975127643036518,0.141143798828125,-0.118255615234375,0.0324249267578125,0.18696881653726183
1781795644.934855,-0.0332031212747097,0.06884765625,0.9902343153953552,0.9931799667834672,0.019073486328125,-0.362396240234375,0.0324249267578125,0.36434353115153495
1781795644.945531,-0.0219726525247097,0.0634765625,0.9960936903953552,0.9983560043848215,-0.102996826171875,-0.179290771484375,0.0934600830078125,0.22691036568823605
1781795644.956207,-0.013183590024709702,0.0703125,1.00341796875,1.0059648476525238,-0.2269744873046875,-0.3643035888671875,0.2155303955078125,0.4802997752825756
1781795644.966883,-0.0209960900247097,0.076171875,0.9975585341453552,1.000682776599843,-0.102996826171875,-0.301361083984375,0.3986358642578125,0.5102326934000703
1781795644.977553,-0.0268554650247097,0.06787109375,0.9990233778953552,1.001686283698624,0.324249267578125,-0.362396240234375,-0.0286102294921875,0.4871213069580892
1781795644.988224,-0.0327148400247097,0.0703125,0.9951171278953552,0.9981343630217292,0.629425048828125,-0.667572021484375,0.2155303955078125,0.942486948105265
1781795644.998895,-0.024414055049419403,0.0615234375,0.9790038466453552,0.9812388655124575,0.3871917724609375,-0.7305145263671875,0.0934600830078125,0.8320479126893751
1781795645.009544,-0.014648430049419403,0.06640625,0.9853515028953552,0.9876952722373994,0.446319580078125,-0.667572021484375,-0.0286102294921875,0.8035372528149796
1781795645.020193,-0.0185546875,0.07177734375,0.9829100966453552,0.9857020450376522,0.507354736328125,-0.667572021484375,0.0324249267578125,0.8391141806801775
1781795645.030842,-0.013183590024709702,0.07958984375,0.9916991591453552,0.9949751617621887,0.7495880126953125,-0.6046295166015625,-0.0896453857421875,0.9672100786836398
1781795645.03885,-0.0249023400247097,0.0703125,0.9843749403953552,0.9871970408552263,0.385284423828125,-0.606536865234375,-0.0286102294921875,0.719131143369906
1781795645.046857,-0.0336914025247097,0.0654296875,0.9882811903953552,0.9910175911151577,0.2613067626953125,0.0667572021484375,0.2765655517578125,0.38629813963840803
1781795645.054864,-0.0224609337747097,0.0732421875,0.9863280653953552,0.9892987234209701,0.324249267578125,-0.179290771484375,0.0324249267578125,0.3719329833984375
1781795645.062871,-0.013183590024709702,0.064453125,0.9902343153953552,0.9924172568807503,0.385284423828125,-0.118255615234375,0.0934600830078125,0.4137188234717608
1781795645.073531,-0.0161132775247097,0.06640625,0.9946288466453552,0.9969734050267942,0.2613067626953125,0.0667572021484375,-0.0896453857421875,0.28420774699831336
1781795645.084191,-0.0219726525247097,0.0703125,0.9755858778953552,0.9783631484597488,0.202178955078125,0.186920166015625,-0.0896453857421875,0.2895717070513915
1781795645.094851,-0.0390624925494194,0.06201171875,0.9902343153953552,0.9929427631908148,0.324249267578125,0.492095947265625,-0.0896453857421875,0.596097562505559
1781795645.102867,-0.0175781212747097,0.0732421875,0.9907225966453552,0.9935817389027682,0.1392364501953125,0.4291534423828125,-0.2727508544921875,0.5272120017585223
1781795645.110884,-0.013671871274709702,0.0703125,0.9814452528953552,0.9840556651690137,0.3223419189453125,0.4291534423828125,-0.1506805419921875,0.5574779058881381
1781795645.118901,-0.0170898400247097,0.06640625,0.9897460341453552,0.9921184731561001,0.324249267578125,0.614166259765625,-0.1506805419921875,0.7106633576416523
1781795645.126918,-0.0195312462747097,0.0703125,0.9741210341453552,0.9768506059790871,0.263214111328125,0.370025634765625,-0.2117156982421875,0.5010231288754395
1781795645.137599,-0.0258789025247097,0.08203125,0.9921874403953552,0.9959090121345084,0.019073486328125,0.186920166015625,-0.0286102294921875,0.19005654836288494
1781795645.14828,-0.0239257775247097,0.07470703125,0.9858397841453552,0.9889558449961813,0.141143798828125,0.370025634765625,-0.0286102294921875,0.39706307756190773
1781795645.158961,-0.015624996274709702,0.06396484375,0.9975585341453552,0.9997292987558064,-0.347137451171875,0.370025634765625,0.0324249267578125,0.5084041269158416
1781795645.169614,-0.0317382775247097,0.06591796875,0.9941405653953552,0.9968289525434934,-0.347137451171875,0.186920166015625,0.1544952392578125,0.423452875090893
1781795645.180265,-0.0263671837747097,0.06494140625,0.9916991591453552,0.9941729411302349,-0.1010894775390625,0.2460479736328125,0.2765655517578125,0.38372801854573646
1781795645.190916,-0.029296867549419403,0.0776367112994194,1.00732421875,1.0107362895779963,-0.102996826171875,0.064849853515625,0.2155303955078125,0.2475221224259188
1781795645.201576,-0.0249023400247097,0.064453125,0.9873046278953552,0.9897195360932094,0.1392364501953125,0.4291534423828125,0.7648468017578125,0.8880034326122643
1781795645.212235,-0.0268554650247097,0.07958984375,0.9995116591453552,1.0030350522276594,0.0782012939453125,0.1239776611328125,0.1544952392578125,0.21296638652147054
1781795645.222894,-0.0278320275247097,0.07080078125,0.9941405653953552,0.9970470581403583,0.019073486328125,0.186920166015625,0.3986358642578125,0.4406966060869894
1781795645.230885,-0.0205078087747097,0.072265625,0.9887694716453552,0.9916188576440121,-0.102996826171875,0.186920166015625,0.5817413330078125,0.619653510596442
1781795645.238874,-0.0297851525247097,0.06494140625,0.9921874403953552,0.9947564819768375,-0.4100799560546875,0.4291534423828125,0.5817413330078125,0.8311204641906845
1781795645.246863,-0.012207027524709702,0.0654296875,0.9980468153953552,1.0002637158510483,0.019073486328125,0.614166259765625,0.1544952392578125,0.6335872248305952
1781795645.254852,-0.0322265587747097,0.0771484375,0.9843749403953552,0.9879192556973015,-0.1010894775390625,0.2460479736328125,0.4596710205078125,0.5310895733232085
1781795645.262851,-0.0185546875,0.0615234375,0.9926757216453552,0.9947534861131002,0.0782012939453125,0.3719329833984375,0.3986358642578125,0.5507813892888509
1781795645.27085,-0.0351562462747097,0.07666015625,0.9951171278953552,0.9986845545211477,0.324249267578125,0.614166259765625,0.5817413330078125,0.9059584762499627
1781795645.278849,-0.0234374962747097,0.06982421875,0.9956054091453552,0.9983260331550836,0.0782012939453125,0.3719329833984375,0.1544952392578125,0.410266212924867
1781795645.286848,-0.0351562462747097,0.0620117150247097,0.9897460341453552,0.9923097432550446,0.0782012939453125,0.5550384521484375,0.5817413330078125,0.8078403952933779
1781795645.297506,-0.0268554650247097,0.0712890625,0.9956054091453552,0.9985156369097644,0.0782012939453125,0.6732940673828125,0.7038116455078125,0.9771341647389201
1781795645.308164,-0.009765621274709702,0.07373046875,0.9960936903953552,0.9988664522479537,0.141143798828125,0.675201416015625,0.3376007080078125,0.767979662611267
1781795645.318822,-0.0273437462747097,0.06884765625,0.9897460341453552,0.9925144292844877,-0.164031982421875,0.675201416015625,0.5207061767578125,0.868296243203029
1781795645.329598,-0.0219726525247097,0.0581054650247097,0.9960936903953552,0.9980288986648368,-0.164031982421875,0.553131103515625,0.6427764892578125,0.8637257227130972
1781795645.340374,-0.0234374962747097,0.0693359375,0.9833983778953552,0.986118227246534,-0.2269744873046875,0.7343292236328125,0.7648468017578125,1.084318890699387
1781795645.35115,-0.0375976525247097,0.0693359375,0.9882811903953552,0.9914236062317828,-0.469207763671875,0.247955322265625,0.5817413330078125,0.7874393601157607
1781795645.361754,-0.0253906212747097,0.06494140625,0.9863280653953552,0.9887897261202644,-0.469207763671875,0.797271728515625,0.3376007080078125,0.9847702131094497
1781795645.372358,-0.0288085900247097,0.07373046875,0.9990233778953552,1.002154592097822,-0.774383544921875,0.675201416015625,0.3986358642578125,1.1020332931031838
1781795645.382962,-0.0317382775247097,0.07177734375,0.9931640028953552,0.996260027293661,-0.6542205810546875,0.2460479736328125,-0.0896453857421875,0.7046846593968197
1781795645.390922,-0.0239257775247097,0.07373046875,1.0029296875,1.005920763738926,-0.652313232421875,0.186920166015625,-0.1506805419921875,0.6950944737163742
1781795645.398882,-0.01904296875,0.0727538987994194,0.9965819716453552,0.9994155245231451,-0.652313232421875,0.186920166015625,-0.0286102294921875,0.6791687911613574
1781795645.406842,-0.0273437462747097,0.0654296875,0.9873046278953552,0.9898480452727424,-0.347137451171875,0.064849853515625,0.0934600830078125,0.3653008357818678
1781795645.414802,-0.0307617150247097,0.0634765625,0.9975585341453552,1.0000492918573103,-0.225067138671875,-0.301361083984375,0.0324249267578125,0.3775249604005436
1781795645.425644,-0.0234374962747097,0.06884765625,0.9882811903953552,0.9909535949235996,-0.2269744873046875,-0.3643035888671875,0.0324249267578125,0.43044848544743197
1781795645.436486,-0.0219726525247097,0.0703125,0.9941405653953552,0.9968661439129218,-0.2269744873046875,-0.4215240478515625,0.5817413330078125,0.7534075386761794
1781795645.447328,-0.0258789025247097,0.0634765625,0.9946288466453552,0.9969882317067587,0.141143798828125,-0.423431396484375,0.5817413330078125,0.7332385000844192
1781795645.455238,-0.0214843712747097,0.0712890625,0.9985350966453552,1.0013071695907043,-0.102996826171875,-0.301361083984375,0.8869171142578125,0.9423634207168287
1781795645.463146,-0.0209960900247097,0.0673828125,0.9956054091453552,0.9981039073845097,-0.164031982421875,-0.301361083984375,1.1310577392578125,1.1819545692337254
1781795645.471054,-0.0273437462747097,0.0610351525247097,0.9897460341453552,0.9920031161294348,-0.591278076171875,0.064849853515625,1.0089874267578125,1.1712689248067087
1781795645.478962,-0.0351562462747097,0.07177734375,0.9858397841453552,0.9890743292249042,-0.7152557373046875,-0.4215240478515625,1.3141632080078125,1.5544446693098548
1781795645.489607,-0.015624996274709702,0.068359375,0.9956054091453552,0.9980717786704849,-0.835418701171875,-0.301361083984375,1.0089874267578125,1.3441720636002268
1781795645.500252,-0.010742183774709702,0.0590820275247097,0.9892577528953552,0.9910786962457865,-0.5893707275390625,-0.2422332763671875,0.7038116455078125,0.9494133172712087
1781795645.510897,-0.0161132775247097,0.07177734375,0.9868163466453552,0.9895545092590301,-0.408172607421875,-0.301361083984375,0.8258819580078125,0.969280345902375
1781795645.518921,-0.01904296875,0.06103515625,0.9809569716453552,0.9830384047314233,-0.5321502685546875,0.1239776611328125,0.5207061767578125,0.7547776436120288
1781795645.526946,-0.0244140587747097,0.07861328125,0.9921874403953552,0.9955963093207172,-0.286102294921875,0.370025634765625,0.3986358642578125,0.6145600424822951
1781795645.534971,-0.013671875,0.07666015625,0.9926757216453552,0.9957252573207214,-0.652313232421875,0.492095947265625,0.5207061767578125,0.9689199641981097
1781795645.542996,-0.019531242549419403,0.06640625,0.9926757216453552,0.995086100706222,-0.957489013671875,0.553131103515625,0.3376007080078125,1.1561632527572088
1781795645.553595,-0.0170898400247097,0.07958984375,0.9829100966453552,0.9862752475590174,-1.2607574462890625,0.7343292236328125,0.2155303955078125,1.4748566365725997
1781795645.564194,-0.0166015587747097,0.0673828125,0.9755858778953552,0.978051052002405,-1.8749237060546875,0.9784698486328125,0.4596710205078125,2.164264215687183
1781795645.574793,-0.0297851525247097,0.0791015625,0.9960936903953552,0.9996733729305285,-2.4852752685546875,0.9174346923828125,0.5817413330078125,2.7123241977696595
1781795645.585519,-0.0205078087747097,0.078125,0.9892577528953552,0.9925497405718807,-3.3397674560546875,0.9174346923828125,0.8258819580078125,3.560591816520445
1781795645.596245,-0.013671871274709702,0.0732421875,0.9882811903953552,0.991085793149714,-4.0111541748046875,1.2836456298828125,1.0700225830078125,4.345348345681509
1781795645.606972,-0.0224609337747097,0.0610351525247097,0.9853515028953552,0.987495502596281,-4.192352294921875,1.346588134765625,1.0700225830078125,4.531452934498491
1781795645.61496,-0.0200195275247097,0.0751953125,0.9990233778953552,1.0020493132005686,-4.4994354248046875,1.4057159423828125,1.3751983642578125,4.910410063702817
1781795645.622949,-0.0258789025247097,0.0673828125,0.9853515028953552,0.9879917738900607,-4.741668701171875,1.773834228515625,1.5583038330078125,5.297001111751199
1781795645.630938,-0.0224609337747097,0.06640625,0.9970702528953552,0.9995315766867509,-4.8046112060546875,2.0771026611328125,1.7414093017578125,5.516443660772755
1781795645.638927,-0.0249023400247097,0.0654296875,0.9843749403953552,0.9868612839824111,-4.9877166748046875,1.9550323486328125,1.8024444580078125,5.652280525286102
1781795645.649566,-0.01806640625,0.05224609375,0.9868163466453552,0.9883635724536846,-5.290985107421875,2.506256103515625,2.0465850830078125,6.201963686233538
1781795645.660205,-0.015136715024709702,0.0634765625,0.9970702528953552,0.9992034244023402,-5.290985107421875,2.628326416015625,1.8634796142578125,6.194770328982347
1781795645.670844,-0.0244140587747097,0.06298828125,0.9985350966453552,1.000817620285151,-5.107879638671875,2.445220947265625,2.1686553955078125,6.064042060257372
1781795645.681528,-0.014648433774709702,0.06298828125,0.9970702528953552,0.999165246290967,-5.2928924560546875,2.5653839111328125,2.0465850830078125,6.2277135182063255
1781795645.692213,-0.0385742150247097,0.0600585900247097,0.9902343153953552,0.9928036078132656,-5.107879638671875,2.628326416015625,2.4738311767578125,6.254468390149814
1781795645.702899,-0.0307617150247097,0.0502929650247097,0.9931640028953552,0.9949122584878343,-4.9877166748046875,2.6264190673828125,2.4127960205078125,6.131637577533025
1781795645.713581,-0.0219726525247097,0.0610351525247097,0.9965819716453552,0.9986910000151347,-4.924774169921875,2.750396728515625,2.1076202392578125,6.021639798417729
1781795645.724262,-0.0297851525247097,0.0493164025247097,0.9848632216453552,0.9865469214480209,-4.6215057373046875,2.8705596923828125,2.5348663330078125,6.001997630263571
1781795645.734943,-0.0283203087747097,0.0541992150247097,0.9916991591453552,0.9935828184142448,-4.3163299560546875,2.3822784423828125,2.8400421142578125,5.689621611085831
1781795645.742928,-0.0297851525247097,0.0537109337747097,1.001953125,1.003833693604243,-4.070281982421875,2.384185791015625,2.7179718017578125,5.44416274716871
1781795645.750914,-0.0327148400247097,0.0561523400247097,0.9931640028953552,0.9952879395909598,-3.582000732421875,2.201080322265625,2.7179718017578125,5.006281508993117
1781795645.7589,-0.0366210900247097,0.0507812462747097,0.9902343153953552,0.9922115896291065,-3.5228729248046875,2.1381378173828125,2.7790069580078125,4.970427209315142
1781795645.766886,-0.0253906212747097,0.0581054650247097,0.9975585341453552,0.9995718872400741,-3.582000732421875,1.895904541015625,3.0231475830078125,5.056145229753641
1781795645.774893,-0.0371093712747097,0.0415039025247097,0.9902343153953552,0.9917982046503677,-3.459930419921875,1.773834228515625,3.0841827392578125,4.962840874951585
1781795645.7829,-0.0351562462747097,0.0532226525247097,0.9902343153953552,0.9922865572909884,-3.2787322998046875,1.7108917236328125,2.8400421142578125,4.6629470503680155
1781795645.790907,-0.0375976525247097,0.0566406212747097,0.9951171278953552,0.9974366354232507,-2.9735565185546875,1.7108917236328125,3.4503936767578125,4.865635146992078
1781795645.798914,-0.0336914025247097,0.0493164025247097,0.9936522841453552,0.995445669009285,-2.910614013671875,1.407623291015625,3.3893585205078125,4.68410380398766
1781795645.809567,-0.0361328087747097,0.0546874962747097,0.9916991591453552,0.9938629303723682,-2.544403076171875,1.468658447265625,3.6334991455078125,4.672607482890424
1781795645.82022,-0.0410156212747097,0.0512695275247097,0.9809569716453552,0.9831517817004573,-2.666473388671875,1.041412353515625,3.5114288330078125,4.530425197686067
1781795645.830873,-0.0371093712747097,0.0458984337747097,0.9965819716453552,0.9983283016462667,-2.727508544921875,0.614166259765625,3.8166046142578125,4.7310647679809215
1781795645.841567,-0.0336914025247097,0.0546874962747097,0.9882811903953552,0.9903663686445228,-3.1566619873046875,0.6122589111328125,3.9386749267578125,5.084538922559899
1781795645.852263,-0.0366210900247097,0.0502929650247097,0.9985350966453552,1.0004713018363511,-3.3397674560546875,0.2460479736328125,4.1828155517578125,5.358220992631587
1781795645.862959,-0.0322265587747097,0.0512695275247097,0.9921874403953552,0.9940337179499261,-3.704071044921875,0.125885009765625,4.3048858642578125,5.680495721836173
1781795645.873584,-0.0195312462747097,0.064453125,0.9833983778953552,0.9857018030573571,-4.253387451171875,0.125885009765625,4.3048858642578125,6.053031814698879
1781795645.884211,-0.0400390587747097,0.0493164025247097,0.9804686903953552,0.9825243440399463,-4.192352294921875,0.064849853515625,4.1828155517578125,5.922496872794845
1781795645.894838,-0.033203125,0.046875,0.9760741591453552,0.9777629964802707,-4.924774169921875,0.125885009765625,4.4879913330078125,6.664181410013283
1781795645.902853,-0.0312499962747097,0.0546874962747097,0.9750975966453552,0.9771297802746131,-5.901336669921875,0.308990478515625,4.4879913330078125,7.420466010482843
1781795645.910867,-0.024414055049419403,0.0615234375,0.9965819716453552,0.9987776557644429,-6.5746307373046875,0.2460479736328125,4.2438507080078125,7.829213100248249
1781795645.918881,-0.030761711299419403,0.0478515625,0.9960936903953552,0.9977167408444132,-7.244110107421875,0.308990478515625,4.3048858642578125,8.432357242702174
1781795645.926895,-0.0273437462747097,0.0439453087747097,0.9926757216453552,0.9940241239365205,-7.366180419921875,0.431060791015625,4.3048858642578125,8.542743686233257
1781795645.937551,-0.0185546837747097,0.0654296875,0.9897460341453552,0.9920799022270261,-8.220672607421875,0.797271728515625,4.1828155517578125,9.258026045952434
1781795645.948207,-0.0219726525247097,0.0566406212747097,0.9833983778953552,0.9852732245852277,-9.014129638671875,0.858306884765625,4.6710968017578125,10.18873736940014
1781795645.958863,-0.014160152524709702,0.064453125,0.9799804091453552,0.9821997340411401,-9.990692138671875,1.041412353515625,4.4269561767578125,10.977085682944681
1781795645.96686,-0.0336913987994194,0.05126953125,0.9931640028953552,0.9950569892397024,-10.540008544921875,1.346588134765625,4.4269561767578125,11.510995644280813
1781795645.974858,-0.0292968712747097,0.0454101525247097,1.0009765625,1.0024342708093736,-11.455535888671875,1.102447509765625,4.9152374267578125,12.514162056240062
1781795645.982856,-0.0395507775247097,0.0253906212747097,1.0009765625,1.0020793513119812,-11.943817138671875,1.895904541015625,5.2204132080078125,13.172013359126922
1781795645.990855,-0.0297851525247097,0.0395507775247097,0.9980468153953552,0.9992741691020235,-12.372970581054688,2.0771026611328125,5.4645538330078125,13.684520636776801
1781795646.001535,-0.02197265625,0.02783203125,1.00390625,1.0045323182333379,-12.248992919921875,2.323150634765625,5.4645538330078125,13.612354866735899
1781795646.012216,-0.024902336299419403,0.0234375,0.9936522841453552,0.9942405667375985,-12.432098388671875,2.323150634765625,5.5255889892578125,13.801675003260906
1781795646.022897,-0.033203125,0.0087890625,1.01123046875,1.011813597486088,-11.823654174804688,2.7484893798828125,5.7086944580078125,13.414253029207181
1781795646.033553,-0.0307617150247097,0.0166015587747097,0.9921874403953552,0.9928030075212797,-11.272430419921875,2.628326416015625,5.7086944580078125,12.90600556857135
1781795646.044211,-0.0205078087747097,0.0263671837747097,0.9863280653953552,0.9868935358930534,-10.845184326171875,2.506256103515625,5.5866241455078125,12.454304961266379
1781795646.054869,-0.0288085900247097,0.0048828087747097015,0.9892577528953552,0.9896891826954106,-10.053634643554688,2.4433135986328125,5.5866241455078125,11.758219262733533
1781795646.062873,-0.0322265625,0.01806640625,0.9892577528953552,0.9899473965968718,-9.624481201171875,2.872467041015625,5.4035186767578125,11.405249641437155
1781795646.070877,-0.0312499962747097,0.0034179650247097015,1.00048828125,1.0009820406334264,-8.647918701171875,2.933502197265625,5.5255889892578125,10.673521756273685
1781795646.078881,-0.0380859375,0.00390625,0.9931640028953552,0.9939016722349558,-7.976531982421875,3.055572509765625,5.4645538330078125,10.140164417940905
1781795646.086885,-0.0341796837747097,0.015136715024709702,0.9975585341453552,0.9982586838945646,-7.1239471435546875,2.8705596923828125,5.2204132080078125,9.286735159033896
1781795646.097651,-0.0249023400247097,-0.0039062537252902985,0.9858397841453552,0.9861619873837326,-6.389617919921875,2.750396728515625,5.1593780517578125,8.660893788043843
1781795646.108417,-0.0268554650247097,-0.0053710900247097015,0.9975585341453552,0.9979344135042025,-5.840301513671875,2.933502197265625,4.7931671142578125,8.104875563336108
1781795646.119183,-0.024902336299419403,0.00341796875,0.9897460341453552,0.9900651599617087,-5.168914794921875,3.116607666015625,4.0607452392578125,7.274652940119178
1781795646.12974,-0.0380859375,-0.0029296875,0.9941405653953552,0.9948741555939113,-4.558563232421875,3.177642822265625,3.2672882080078125,6.44616823268457
1781795646.140299,-0.0224609375,0.00244140625,0.9819335341453552,0.9821934227315127,-4.558563232421875,2.811431884765625,2.5959014892578125,5.951752055369603
1781795646.150858,-0.03173828125,-0.01171875,1.00439453125,1.0049641894133212,-4.253387451171875,2.689361572265625,2.2907257080078125,5.529140506940776
1781795646.158887,-0.0512695275247097,-0.0068359412252902985,0.9897460341453552,0.9910966182222101,-3.9501190185546875,3.0536651611328125,1.8024444580078125,5.308212241542986
1781795646.166919,-0.0488281175494194,-0.00537109375,0.9780272841453552,0.9792601300186946,-4.070281982421875,2.628326416015625,1.4362335205078125,5.05351975270543
1781795646.174951,-0.0532226487994194,0.0068359375,0.9848632216453552,0.9863239557753823,-4.4384002685546875,2.5653839111328125,1.0700225830078125,5.2369399350720185
1781795646.182983,-0.0639648362994194,0.01904296875,0.9990233778953552,1.001250140835481,-4.558563232421875,2.262115478515625,1.0089874267578125,5.18803631535901
1781795646.193705,-0.0600585900247097,0.0019531212747097015,0.9721679091453552,0.974023250487647,-4.9877166748046875,1.9550323486328125,0.9479522705078125,5.440411989866795
1781795646.204427,-0.0585937462747097,-0.0043945349752902985,0.9916991591453552,0.9934383530394619,-5.657196044921875,1.956939697265625,1.0089874267578125,6.070546573148841
1781795646.215149,-0.0693359300494194,0.00341796875,0.9809569716453552,0.9834102571794846,-6.084442138671875,1.956939697265625,0.7648468017578125,6.437005495394517
1781795646.225713,-0.0493164025247097,0.015136715024709702,0.9824218153953552,0.9837753051710659,-7.549285888671875,1.590728759765625,1.5583038330078125,7.87086057887018
1781795646.236276,-0.0400390587747097,0.00048827752470970154,0.9755858778953552,0.9764072765968905,-9.014129638671875,1.651763916015625,1.4362335205078125,9.276078045298254
1781795646.246839,-0.0541992150247097,0.0048828087747097015,0.9882811903953552,0.989778312563013,-9.807586669921875,1.407623291015625,1.5583038330078125,10.029878885281006
1781795646.254848,-0.0419921837747097,0.0053710900247097015,0.9897460341453552,0.9906510002077832,-10.295867919921875,1.834869384765625,1.6193389892578125,10.582717072933448
1781795646.262859,-0.0585937425494194,0.00927734375,0.9838866591453552,0.9856735026453799,-11.089324951171875,1.651763916015625,1.1920928955078125,11.274863075818464
1781795646.27087,-0.0449218712747097,0.00048827752470970154,1.001953125,1.0029597587296453,-11.577606201171875,1.285552978515625,1.4362335205078125,11.736966325904412
1781795646.278881,-0.0434570237994194,-0.0146484375,0.9863280653953552,0.9873936105855855,-11.638641357421875,1.346588134765625,1.1920928955078125,11.776771956818331
1781795646.289636,-0.0371093712747097,-0.0043945349752902985,0.9941405653953552,0.9948426413954369,-11.577606201171875,1.041412353515625,0.8869171142578125,11.658135657429614
1781795646.300391,-0.0302734337747097,-0.0190429724752903,0.9956054091453552,0.9962475828390734,-11.882781982421875,0.858306884765625,0.5817413330078125,11.927934495491487
1781795646.311146,-0.0434570237994194,-0.029296875,0.9892577528953552,0.9906451036904369,-11.455535888671875,0.919342041015625,0.3986358642578125,11.499278361588638
1781795646.319276,-0.0478515625,-0.02294921875,1.00537109375,1.0067708154406334,-10.601043701171875,0.797271728515625,-0.1506805419921875,10.6320493974107
1781795646.327405,-0.0419921875,-0.02587890625,0.9970702528953552,0.9982896126918976,-10.234832763671875,0.186920166015625,-0.3948211669921875,10.244150750682053
1781795646.335534,-0.0458984337747097,-0.0395507775247097,1.00927734375,1.011094301651847,-9.685516357421875,0.675201416015625,-0.5168914794921875,9.722772282823858
1781795646.343663,-0.03662109375,-0.03125,0.9970702528953552,0.9982318148687979,-9.260177612304688,0.7953643798828125,-0.8220672607421875,9.330556708439184
1781795646.354079,-0.0307617150247097,-0.0493164025247097,1.00537109375,1.007049863123625,-8.281707763671875,1.285552978515625,-0.4558563232421875,8.393279152445324
1781795646.364495,-0.0390624925494194,-0.03955078125,0.9882811903953552,0.9898433481672335,-7.915496826171875,1.651763916015625,-0.5779266357421875,8.10662773511209
1781795646.374911,-0.0498046837747097,-0.0375976599752903,0.9970702528953552,0.9990211107731027,-7.1849822998046875,1.7108917236328125,-0.6389617919921875,7.413460279122549
1781795646.382898,-0.0273437462747097,-0.0288085974752903,0.9960936903953552,0.9968852771479108,-6.694793701171875,2.079010009765625,-0.2727508544921875,7.015478483366797
1781795646.390885,-0.0380859375,-0.05078125,1.00439453125,1.006398354724273,-6.328582763671875,2.445220947265625,0.0934600830078125,6.785189758931373
1781795646.398872,-0.0341796800494194,-0.044921875,0.9999999403953552,1.0015917861946104,-5.2928924560546875,2.7484893798828125,0.2765655517578125,5.970376280194435
1781795646.406859,-0.0410156212747097,-0.0415039099752903,1.00390625,1.0056006237671344,-4.924774169921875,2.933502197265625,0.1544952392578125,5.734344299485798
1781795646.417566,-0.0390624925494194,-0.041015625,1.00537109375,1.0069653400025174,-4.131317138671875,3.177642822265625,0.2765655517578125,5.2193566376134255
1781795646.428273,-0.04248046875,-0.03515625,0.9877929091453552,0.989330775573633,-4.0111541748046875,3.4847259521484375,0.3986358642578125,5.3283752990853115
1781795646.43898,-0.0361328087747097,-0.0249023400247097,0.9863280653953552,0.987303782528559,-3.7021636962890625,4.0302276611328125,0.2765655517578125,5.479529134797976
1781795646.446964,-0.04248046875,-0.03515625,0.9868163466453552,0.9883557325911395,-3.8280487060546875,4.2133331298828125,0.2155303955078125,5.696717152069499
1781795646.454947,-0.0424804650247097,-0.0380859412252903,0.9790038466453552,0.980664907383829,-3.7670135498046875,4.3354034423828125,-0.2727508544921875,5.749826703585342
1781795646.46293,-0.046875,-0.0263671875,0.9887694716453552,0.9902310650850614,-4.0111541748046875,4.3964385986328125,-0.4558563232421875,5.968738154169724
1781795646.470913,-0.0576171875,-0.03662109375,0.9814452528953552,0.9838168677318377,-4.192352294921875,4.459381103515625,-0.5779266357421875,6.147836756732341
1781795646.481751,-0.0546874925494194,-0.056640625,0.9873046278953552,0.9904389483987992,-4.375457763671875,4.459381103515625,-0.6999969482421875,6.286549625638622
1781795646.492589,-0.0468749962747097,-0.0380859412252903,0.9902343153953552,0.9920744949756939,-4.3163299560546875,4.3354034423828125,-0.6999969482421875,6.15763128364375
1781795646.503427,-0.0600585862994194,-0.03076171875,0.9824218153953552,0.9847364827675698,-4.619598388671875,4.459381103515625,-0.9441375732421875,6.489850911709734
1781795646.513916,-0.0600585900247097,-0.0380859412252903,1.00146484375,1.0039867560988962,-4.4994354248046875,3.9081573486328125,-1.4324188232421875,6.129472790447685
1781795646.524408,-0.0610351525247097,-0.0415039099752903,0.9726561903953552,0.9754526790682145,-4.4994354248046875,3.4198760986328125,-1.3713836669921875,5.815596687708
1781795646.5349,-0.0585937425494194,-0.0400390625,0.9926757216453552,0.9952092451017289,-4.4994354248046875,3.5419464111328125,-1.4934539794921875,5.9178296959430154
1781795646.545569,-0.0747070237994194,-0.03515625,0.9804686903953552,0.9839389992091037,-4.6215057373046875,3.0536651611328125,-1.4934539794921875,5.7370367773893065
1781795646.556239,-0.0712890625,-0.0458984375,0.9980468153953552,1.0016417736485836,-4.619598388671875,2.628326416015625,-1.8596649169921875,5.630909573526899
1781795646.56691,-0.0654296875,-0.0478515662252903,0.9731444716453552,0.9765147101249825,-4.253387451171875,2.262115478515625,-1.7986297607421875,5.142328292141007
1781795646.574911,-0.06591796875,-0.0576171912252903,0.9731444716453552,0.9770747576427994,-4.4994354248046875,1.4667510986328125,-1.7986297607421875,5.062741050414824
1781795646.582914,-0.0678710862994194,-0.0380859375,0.9902343153953552,0.9932879856200945,-4.253387451171875,1.346588134765625,-1.6155242919921875,4.744947117987175
1781795646.590917,-0.0585937425494194,-0.060546875,0.9824218153953552,0.9860282826080187,-4.3163299560546875,0.7343292236328125,-2.1648406982421875,4.884309464702452
1781795646.59892,-0.0688476487994194,-0.05078125,0.9863280653953552,0.9900312049038226,-4.1904449462890625,0.4291534423828125,-1.7986297607421875,4.580291534522236
1781795646.609579,-0.0405273400247097,-0.0478515662252903,1.00390625,1.0058628119523827,-3.887176513671875,-0.057220458984375,-1.7986297607421875,4.28351309623259
1781795646.620238,-0.0581054612994194,-0.046875,0.9907225966453552,0.9935314659141569,-4.192352294921875,-0.362396240234375,-2.0427703857421875,4.677612601374553
1781795646.630898,-0.0551757737994194,-0.0517578125,1.001953125,1.0048051064094048,-4.131317138671875,0.003814697265625,-1.9817352294921875,4.582037796877024
1781795646.638887,-0.06103515625,-0.06103515625,0.9926757216453552,0.9964214313938909,-4.070281982421875,-0.484466552734375,-2.0427703857421875,4.579826864196043
1781795646.646877,-0.0507812462747097,-0.0439453087747097,0.9838866591453552,0.9861758885618355,-4.131317138671875,-0.423431396484375,-2.0427703857421875,4.628173105738155
1781795646.654867,-0.0449218712747097,-0.0449218712747097,0.9956054091453552,0.9976302319783283,-4.131317138671875,-0.301361083984375,-2.2869110107421875,4.7316552890376595
1781795646.662857,-0.0576171875,-0.0361328125,0.9902343153953552,0.9925670354293851,-3.887176513671875,-0.423431396484375,-2.1648406982421875,4.469448583968347
1781795646.672547,-0.0605468675494194,-0.05078125,0.9912108778953552,0.9943559035776326,-4.375457763671875,-0.362396240234375,-2.0427703857421875,4.842403589693633
1781795646.682237,-0.0458984337747097,-0.0507812462747097,1.009765625,1.0120830097515838,-4.558563232421875,-0.423431396484375,-1.7986297607421875,4.918827289887782
1781795646.691927,-0.0517578125,-0.0458984375,0.9926757216453552,0.9950832256971541,-4.436492919921875,-0.606536865234375,-1.6765594482421875,4.781339559254856
1781795646.701617,-0.0551757737994194,-0.0517578125,0.9912108778953552,0.9940936784967656,-4.436492919921875,-0.484466552734375,-1.4934539794921875,4.706121764053317
1781795646.711307,-0.06396484375,-0.0439453087747097,0.9882811903953552,0.9913235610478179,-4.4994354248046875,-0.4863739013671875,-1.2493133544921875,4.694918803518438
1781795646.719748,-0.0576171837747097,-0.0488281212747097,0.9995116591453552,1.0023609539785792,-4.558563232421875,-1.033782958984375,-0.9441375732421875,4.768710696559681
1781795646.728189,-0.0434570237994194,-0.044921875,0.9956054091453552,0.9975653454739238,-4.924774169921875,-0.301361083984375,-0.9441375732421875,5.02350623418321
1781795646.73663,-0.0556640587747097,-0.0473632849752903,0.9995116591453552,1.002180285662428,-4.741668701171875,-0.179290771484375,-0.6999969482421875,4.796411469000633
1781795646.745071,-0.0502929612994194,-0.06103515625,0.9892577528953552,0.9924140133625152,-4.9877166748046875,0.0667572021484375,-0.6999969482421875,5.037039793342097
1781795646.752521,-0.0551757775247097,-0.0551757775247097,0.9755858778953552,0.9787014549901126,-5.1097869873046875,0.1239776611328125,-0.2727508544921875,5.118562937457592
1781795646.759971,-0.0458984300494194,-0.041015625,0.9833983778953552,0.9853229506219562,-5.352020263671875,0.308990478515625,-0.0896453857421875,5.3616818549548935
1781795646.767421,-0.0502929650247097,-0.0581054650247097,0.9907225966453552,0.9936985915761527,-5.535125732421875,0.736236572265625,-0.1506805419921875,5.585907785650896
1781795646.774871,-0.0463867150247097,-0.068359375,0.9887694716453552,0.9922145934922592,-5.4759979248046875,0.5550384521484375,0.0324249267578125,5.504150464122854
1781795646.785551,-0.0478515625,-0.05029296875,0.9760741591453552,0.978539686926745,-5.290985107421875,1.041412353515625,0.4596710205078125,5.412056960538176
1781795646.796232,-0.0566406212747097,-0.0600585900247097,0.9877929091453552,0.9912366143217195,-5.413055419921875,0.980377197265625,0.1544952392578125,5.503287854275598
1781795646.806911,-0.0483398362994194,-0.0888671875,0.9975585341453552,1.002674995117483,-5.8383941650390625,1.4057159423828125,0.3376007080078125,6.014720107792111
1781795646.81761,-0.0556640587747097,-0.07275390625,1.00634765625,1.0105083985567742,-4.802703857421875,1.529693603515625,0.3986358642578125,5.056168254222178
1781795646.828309,-0.0571289025247097,-0.06396484375,0.9848632216453552,0.9885902983993459,-4.619598388671875,1.529693603515625,0.5207061767578125,4.89405626405849
1781795646.839008,-0.0595703050494194,-0.07568359375,1.00439453125,1.0090019831553867,-4.192352294921875,1.651763916015625,0.7038116455078125,4.5606460760883865
1781795646.849661,-0.06298828125,-0.06298828125,1.00048828125,1.004446040396515,-3.887176513671875,2.079010009765625,0.3986358642578125,4.426209938697042
1781795646.860315,-0.0566406212747097,-0.0771484375,0.9916991591453552,0.9963068119995372,-3.6449432373046875,2.0771026611328125,0.2765655517578125,4.204337661567787
1781795646.870969,-0.0556640587747097,-0.072265625,0.9853515028953552,0.9895647488942045,-3.3397674560546875,2.4433135986328125,0.5817413330078125,4.178785826088211
1781795646.881646,-0.0625,-0.07666015625,0.9882811903953552,0.9932183752053396,-2.910614013671875,2.445220947265625,1.1310577392578125,3.966115357256354
1781795646.892324,-0.0610351525247097,-0.07421875,0.9956054091453552,1.00023189481978,-2.605438232421875,2.262115478515625,1.1310577392578125,3.6310833687262805
1781795646.903002,-0.0712890625,-0.06689453125,0.9931640028953552,0.9979637996392511,-2.239227294921875,2.445220947265625,1.0700225830078125,3.4839909137964824
1781795646.911034,-0.0712890625,-0.0859375,0.9936522841453552,0.999906118655977,-2.483367919921875,2.017974853515625,1.1920928955078125,3.414736330471023
1781795646.919067,-0.0585937425494194,-0.06640625,0.9956054091453552,0.9995364662804955,-2.178192138671875,2.140045166015625,0.8258819580078125,3.1632886864972694
1781795646.9271,-0.0625,-0.06982421875,0.9848632216453552,0.9893114963820626,-2.0542144775390625,2.0771026611328125,1.0089874267578125,3.0906646877284256
1781795646.935133,-0.0556640587747097,-0.0869140625,0.9916991591453552,0.9970555470730469,-1.8749237060546875,1.7108917236328125,0.7648468017578125,2.650939460583786
1781795646.945748,-0.0556640587747097,-0.0732421875,1.00048828125,1.004708766950721,-1.750946044921875,1.468658447265625,0.5207061767578125,2.3439079780285685
1781795646.956363,-0.0571289025247097,-0.06884765625,0.9873046278953552,0.9913496555395487,-1.811981201171875,1.346588134765625,0.8258819580078125,2.4038836258551814
1781795646.966978,-0.0576171837747097,-0.0771484375,0.9853515028953552,0.9900450522743676,-1.628875732421875,1.163482666015625,0.2765655517578125,2.0207465378445733
1781795646.977649,-0.07177734375,-0.09033203125,0.9765624403953552,0.9833544950507362,-2.056121826171875,1.102447509765625,0.0324249267578125,2.333254990720912
1781795646.98832,-0.0634765550494194,-0.0810546875,0.9956054091453552,1.0009142151683903,-1.934051513671875,0.614166259765625,0.1544952392578125,2.0350980888213464
1781795646.998991,-0.04736328125,-0.0810546875,0.9965819716453552,1.0009938905832707,-1.811981201171875,1.041412353515625,-0.2117156982421875,2.1006282632434994
1781795647.006966,-0.0712890625,-0.07568359375,0.9858397841453552,0.9913073271184898,-2.117156982421875,0.553131103515625,-0.2727508544921875,2.2051532224587778
1781795647.014942,-0.0610351525247097,-0.07421875,0.9892577528953552,0.9939137861800915,-2.1800994873046875,0.5550384521484375,-0.2117156982421875,2.259585137761282
1781795647.022918,-0.0610351525247097,-0.076171875,0.9804686903953552,0.985315328831493,-2.3632049560546875,0.2460479736328125,-0.2727508544921875,2.391583220019004
1781795647.030894,-0.0615234337747097,-0.072265625,0.9975585341453552,1.0020631130354523,-2.2373199462890625,0.2460479736328125,-0.5779266357421875,2.32381998951984
1781795647.04157,-0.0644531175494194,-0.080078125,0.9863280653953552,0.9916701886473642,-2.910614013671875,0.186920166015625,-0.5168914794921875,2.962058386767221
1781795647.052246,-0.064453125,-0.0830078125,0.9838866591453552,0.9894834310399084,-3.215789794921875,-0.179290771484375,-0.5779266357421875,3.272223767128926
1781795647.062922,-0.0615234337747097,-0.07177734375,0.9970702528953552,1.0015419158417906,-3.4618377685546875,-0.2422332763671875,-0.5779266357421875,3.518095634327123
1781795647.070918,-0.0590820275247097,-0.07373046875,0.9936522841453552,0.9981341241465532,-4.3163299560546875,-0.0591278076171875,-0.8220672607421875,4.39431393602606
1781795647.078913,-0.0546874962747097,-0.07373046875,0.9868163466453552,0.9910768922123939,-4.1904449462890625,0.2460479736328125,-1.0051727294921875,4.316334170256415
1781795647.086908,-0.06640625,-0.0751953125,0.9897460341453552,0.9948172380731517,-4.680633544921875,0.308990478515625,-0.8220672607421875,4.762310371956598
1781795647.094903,-0.0546874962747097,-0.0732421875,1.0048828125,1.0090315193969372,-4.6787261962890625,0.4291534423828125,-0.8220672607421875,4.769742768549967
1781795647.105712,-0.0532226487994194,-0.080078125,0.9833983778953552,0.9880878129477956,-4.741668701171875,0.614166259765625,-1.1272430419921875,4.9123618700200895
1781795647.116521,-0.0527343712747097,-0.07763671875,0.9873046278953552,0.9917554145431178,-4.863739013671875,0.675201416015625,-1.1882781982421875,5.052114331814064
1781795647.12733,-0.0537109337747097,-0.07275390625,0.9804686903953552,0.9846303103841401,-4.863739013671875,0.980377197265625,-1.4934539794921875,5.181457462036461
1781795647.137851,-0.0751953125,-0.080078125,0.9990233778953552,1.0050445516030293,-4.802703857421875,0.858306884765625,-1.4934539794921875,5.102260267704116
1781795647.148372,-0.0478515587747097,-0.0791015625,0.9892577528953552,0.9935681811182756,-4.436492919921875,0.797271728515625,-1.3103485107421875,4.694158588843317
1781795647.158893,-0.0634765550494194,-0.0751953125,0.9926757216453552,0.9975413256637748,-4.558563232421875,0.980377197265625,-1.7375946044921875,4.9760298635023625
1781795647.16956,-0.0624999962747097,-0.08837890625,0.9926757216453552,0.9985600477429546,-4.253387451171875,0.797271728515625,-1.6155242919921875,4.6191845337563135
1781795647.180226,-0.0683593675494194,-0.08349609375,0.9931640028953552,0.9990091778609397,-3.6449432373046875,0.9174346923828125,-1.8596649169921875,4.193524916040476
1781795647.190892,-0.0673828050494194,-0.0849609375,0.9916991591453552,0.9976101571088837,-3.398895263671875,0.797271728515625,-1.5544891357421875,3.8215922984590978
1781795647.201674,-0.0600585900247097,-0.09912109375,0.9931640028953552,0.9999033763864774,-3.0345916748046875,0.6732940673828125,-1.4934539794921875,3.4485469871857424
1781795647.212459,-0.07421875,-0.09716796875,0.9887694716453552,0.9963007101575299,-2.3632049560546875,0.7953643798828125,-1.6155242919921875,2.971070665454571
1781795647.223244,-0.0590820275247097,-0.09326171875,0.9980468153953552,1.0041343933365916,-2.056121826171875,0.797271728515625,-1.6155242919921875,2.733715038398757
1781795647.23117,-0.0751953125,-0.0986328125,0.9741210341453552,0.9819850079751977,-1.995086669921875,0.675201416015625,-1.9817352294921875,2.8919789578245405
1781795647.239096,-0.0693359375,-0.09619140625,0.9921874403953552,0.9992478049731423,-1.628875732421875,0.308990478515625,-2.0427703857421875,2.630897587583276
1781795647.247022,-0.0732421800494194,-0.08935546875,0.9873046278953552,0.9940418728592421,-1.506805419921875,0.186920166015625,-1.9207000732421875,2.448364861151579
1781795647.254948,-0.0678710862994194,-0.0947265625,0.9995116591453552,1.0062818505597875,-0.957489013671875,0.064849853515625,-1.7375946044921875,1.9850001824593617
1781795647.265584,-0.06640625,-0.0947265625,0.9829100966453552,0.9896944830448993,-1.323699951171875,-0.118255615234375,-2.1648406982421875,2.5402167624107608
1781795647.27622,-0.06982421875,-0.0830078125,0.9956054091453552,1.0014968043781134,-1.2035369873046875,-0.1811981201171875,-1.8596649169921875,2.222540807732449
1781795647.286856,-0.06787109375,-0.0771484375,0.9790038466453552,0.9843814801802779,-1.323699951171875,-0.362396240234375,-2.4700164794921875,2.825684696605659
1781795647.297548,-0.06396484375,-0.09814453125,0.9721679091453552,0.9792008444758898,-1.323699951171875,0.003814697265625,-2.2258758544921875,2.589733467416865
1781795647.30824,-0.0673828050494194,-0.0917968675494194,0.9790038466453552,0.9856041999984658,-1.995086669921875,0.003814697265625,-2.4089813232421875,3.1278709033693937
1781795647.318932,-0.0703125,-0.0869140625,0.9843749403953552,0.9907027431045414,-2.3021697998046875,0.2460479736328125,-2.5310516357421875,3.430269344418128
1781795647.32704,-0.0624999962747097,-0.1064453125,0.9868163466453552,0.994506589266279,-2.666473388671875,0.186920166015625,-2.7141571044921875,3.809418363585706
1781795647.335148,-0.0673828050494194,-0.09228515625,0.9843749403953552,0.9909848716094378,-3.276824951171875,0.003814697265625,-3.2634735107421875,4.624700603050291
1781795647.343256,-0.0581054650247097,-0.0966796875,0.9960936903953552,1.002459897994066,-3.215789794921875,-0.362396240234375,-3.2024383544921875,4.552828401596344
1781795647.351364,-0.0756835862994194,-0.095703125,0.9853515028953552,0.9928769700360879,-2.788543701171875,-0.484466552734375,-3.5076141357421875,4.5071100207696375
1781795647.360949,-0.06640625,-0.09912109375,0.9882811903953552,0.9954569265189324,-2.6683807373046875,-0.3643035888671875,-3.5076141357421875,4.422253926374947
1781795647.370536,-0.06201171875,-0.09033203125,0.9824218153953552,0.9885130006716075,-2.727508544921875,-0.606536865234375,-3.6296844482421875,4.580589375322938
1781795647.380123,-0.07177734375,-0.09033203125,0.9863280653953552,0.9930533296515857,-2.7256011962890625,-0.7305145263671875,-3.7517547607421875,4.694487952822705
1781795647.38971,-0.0566406212747097,-0.0986328125,0.9926757216453552,0.9991704959736211,-2.483367919921875,-0.911712646484375,-3.8738250732421875,4.6909334757099765
1781795647.399297,-0.06640625,-0.09765625,0.9941405653953552,1.001130359627417,-2.605438232421875,-0.606536865234375,-4.1790008544921875,4.961879028523408
1781795647.408903,-0.07470703125,-0.10302734375,0.9868163466453552,0.9949885808816376,-2.300262451171875,-0.911712646484375,-3.7517547607421875,4.494228641133254
1781795647.418509,-0.0727538987994194,-0.09423828125,0.9946288466453552,1.0017287686906768,-1.873016357421875,-0.789642333984375,-3.9958953857421875,4.4831802578734115
1781795647.428115,-0.0629882737994194,-0.1113281175494194,1.00341796875,1.0115379836682872,-1.811981201171875,-1.094818115234375,-3.8738250732421875,4.414569432790185
1781795647.437721,-0.0444335862994194,-0.08544921875,0.9785155653953552,0.9832439291942793,-2.4852752685546875,-1.2187957763671875,-3.5076141357421875,4.468267363334303
1781795647.447327,-0.0595703050494194,-0.095703125,0.9838866591453552,0.9903235165453029,-1.934051513671875,-1.094818115234375,-3.5076141357421875,4.152413622008317
1781795647.455216,-0.0576171837747097,-0.10400390625,0.9921874403953552,0.999285979717355,-1.445770263671875,-0.728607177734375,-3.5076141357421875,3.863221065383433
1781795647.463102,-0.0634765625,-0.1015625,0.9780272841453552,0.9853332349646011,-1.5087127685546875,-0.7305145263671875,-3.4465789794921875,3.8325934239246973
1781795647.470988,-0.06298828125,-0.10205078125,0.9902343153953552,0.9974697413531262,-1.567840576171875,-0.606536865234375,-2.9582977294921875,3.402577919386701
1781795647.478874,-0.0546874962747097,-0.09912109375,0.9843749403953552,0.9908631271539737,-1.628875732421875,-0.484466552734375,-3.0803680419921875,3.518040827863999
1781795647.489556,-0.0620117150247097,-0.0888671875,0.9804686903953552,0.9864388894706295,-1.5659332275390625,-0.2422332763671875,-2.8362274169921875,3.248847456281791
1781795647.500238,-0.0561523400247097,-0.1064453125,0.9853515028953552,0.9926738004508875,-2.239227294921875,-0.301361083984375,-2.7141571044921875,3.5315161289634216
1781795647.51092,-0.0532226487994194,-0.0830078125,0.9746093153953552,0.9795847410697374,-2.361297607421875,-0.484466552734375,-2.7141571044921875,3.630025209196214
1781795647.521557,-0.0605468712747097,-0.10888671875,0.9975585341453552,1.0053085447699763,-2.239227294921875,0.125885009765625,-2.8362274169921875,3.6158224340950436
1781795647.532195,-0.0512695275247097,-0.10693359375,0.9916991591453552,0.9987645268903484,-1.811981201171875,-0.118255615234375,-2.5920867919921875,3.1648339926692968
1781795647.542833,-0.0581054612994194,-0.087890625,0.9931640028953552,0.9987370741305411,-1.811981201171875,-0.301361083984375,-2.4700164794921875,3.0781611045076067
1781795647.550844,-0.0571289025247097,-0.109375,0.9970702528953552,1.0046769089301721,-1.079559326171875,-0.362396240234375,-2.4700164794921875,2.7198824942676594
1781795647.558856,-0.0522460900247097,-0.11376953125,0.9838866591453552,0.9918195996288454,-1.3866424560546875,-0.4863739013671875,-2.6531219482421875,3.032885250897062
1781795647.566868,-0.0463867150247097,-0.1103515625,0.9794921278953552,0.9867796224517134,-1.140594482421875,-0.423431396484375,-2.7751922607421875,3.0301719431318195
1781795647.57488,-0.0595703050494194,-0.0947265625,0.9746093153953552,0.9810122631966178,-1.750946044921875,-0.606536865234375,-2.4089813232421875,3.039225236280717
1781795647.58552,-0.0483398400247097,-0.10693359375,0.9853515028953552,0.992315029546585,-1.934051513671875,-0.484466552734375,-2.3479461669921875,3.080278283101724
1781795647.59616,-0.0581054612994194,-0.10302734375,0.9790038466453552,0.9861234253070967,-1.934051513671875,-0.484466552734375,-2.1038055419921875,2.8984928595343895
1781795647.6068,-0.0605468712747097,-0.09619140625,0.9941405653953552,1.0006168967302647,-2.117156982421875,-0.545501708984375,-2.2869110107421875,3.163840668203193
1781795647.614823,-0.0581054612994194,-0.1059570237994194,0.9746093153953552,0.9820725294908986,-2.422332763671875,-0.484466552734375,-1.7986297607421875,3.055727879720976
1781795647.622846,-0.0673828050494194,-0.099609375,0.9882811903953552,0.9955712838835193,-2.239227294921875,-0.484466552734375,-1.4324188232421875,2.701975278239977
1781795647.630869,-0.0654296800494194,-0.09130859375,0.9995116591453552,1.00580408583952,-2.239227294921875,-0.667572021484375,-1.0662078857421875,2.5683828643352022
1781795647.638892,-0.0610351525247097,-0.099609375,0.9941405653953552,1.000980909506371,-2.239227294921875,-0.545501708984375,-0.8831024169921875,2.4681128158423906
1781795647.649565,-0.0595703087747097,-0.1083984375,0.9912108778953552,0.9988983168461325,-2.1800994873046875,-0.5474090576171875,-0.4558563232421875,2.293533395952059
1781795647.660238,-0.06640625,-0.1083984375,0.9887694716453552,0.9969077586965299,-1.9969940185546875,-0.5474090576171875,-0.3948211669921875,2.107967158285349
1781795647.670911,-0.0673828050494194,-0.103515625,0.9814452528953552,0.9891868941035846,-2.117156982421875,-0.667572021484375,0.1544952392578125,2.2252808521711955
1781795647.681571,-0.0493163987994194,-0.10986328125,0.9921874403953552,0.9994688412531161,-1.750946044921875,-0.606536865234375,-0.0896453857421875,1.855191450039797
1781795647.692232,-0.0512695275247097,-0.11279296875,0.9892577528953552,0.9969863188206812,-1.750946044921875,-0.545501708984375,0.2765655517578125,1.8546893732244043
1781795647.702893,-0.0556640587747097,-0.111328125,0.9741210341453552,0.9820408484476123,-1.323699951171875,-0.423431396484375,0.3986358642578125,1.4458168143072985
1781795647.710886,-0.0576171837747097,-0.11572265625,0.9921874403953552,1.000573530488375,-1.323699951171875,-0.606536865234375,0.4596710205078125,1.526881127237959
1781795647.718881,-0.0512695275247097,-0.12158203125,0.9790038466453552,0.9878559037237593,-1.140594482421875,-0.545501708984375,0.6427764892578125,1.4183404044793682
1781795647.726876,-0.0522460900247097,-0.1083984375,0.9956054091453552,1.0028509390207507,-1.201629638671875,-0.118255615234375,0.9479522705078125,1.5350933802964817
1781795647.734871,-0.0502929650247097,-0.12451171875,0.9824218153953552,0.9915569443061559,-0.835418701171875,0.003814697265625,0.6427764892578125,1.0540875548670186
1781795647.743048,-0.0517578087747097,-0.10205078125,0.9858397841453552,0.9924582171188142,-0.835418701171875,-0.118255615234375,0.8869171142578125,1.2241449115058105
1781795647.751225,-0.06494140625,-0.10107421875,0.9829100966453552,0.9902250461531621,-0.957489013671875,-0.301361083984375,1.1920928955078125,1.558425226234091
1781795647.759402,-0.0473632775247097,-0.11181640625,0.9785155653953552,0.9860217545701208,-0.8373260498046875,0.2460479736328125,1.2531280517578125,1.5270836365807428
1781795647.767579,-0.0688476487994194,-0.10546875,0.9887694716453552,0.9967591103318824,-0.957489013671875,0.492095947265625,1.1310577392578125,1.5614849477829067
1781795647.778018,-0.06640625,-0.1181640625,1.00146484375,1.0105960463868728,-1.018524169921875,0.308990478515625,1.3751983642578125,1.738975888730411
1781795647.788457,-0.0600585862994194,-0.115234375,0.9868163466453552,0.9953353690974772,-0.774383544921875,0.308990478515625,1.5583038330078125,1.7673301407563684
1781795647.798896,-0.0415039025247097,-0.109375,0.9931640028953552,1.0000301001454435,-1.2035369873046875,0.4291534423828125,1.7414093017578125,2.1599028480855553
1781795647.806916,-0.0629882737994194,-0.1181640625,0.9897460341453552,0.9987629750892817,-0.835418701171875,0.370025634765625,1.8024444580078125,2.0208041470796925
1781795647.814936,-0.04736328125,-0.11474609375,0.9995116591453552,1.0071908971039953,-0.774383544921875,0.492095947265625,1.7414093017578125,1.9683329627402104
1781795647.822956,-0.052734375,-0.1044921875,0.9936522841453552,1.0005220603976994,-0.957489013671875,0.247955322265625,1.6193389892578125,1.8975051555325755
1781795647.830976,-0.0551757775247097,-0.1015625,0.9882811903953552,0.9950170948888097,-0.8983612060546875,-0.0591278076171875,1.5583038330078125,1.799683247170037
1781795647.841643,-0.0571289025247097,-0.12109375,0.9750975966453552,0.9842472914752106,-1.2035369873046875,0.2460479736328125,1.3751983642578125,1.8439662215443697
1781795647.85231,-0.06689453125,-0.111328125,0.9873046278953552,0.995810854525476,-1.140594482421875,0.064849853515625,1.4972686767578125,1.8833413836137924
1781795647.862977,-0.0732421800494194,-0.1044921875,0.9770507216453552,0.9853482363381162,-1.0204315185546875,0.1239776611328125,1.5583038330078125,1.8668052336777472
1781795647.870958,-0.06689453125,-0.107421875,0.9907225966453552,0.9987720465869017,-1.0204315185546875,-0.0591278076171875,1.4972686767578125,1.8128954939801498
1781795647.878939,-0.0600585900247097,-0.1025390625,0.9814452528953552,0.9886132095035767,-1.262664794921875,0.003814697265625,1.6803741455078125,2.1019025203708757
1781795647.88692,-0.0458984337747097,-0.1171875,0.9780272841453552,0.9860917527856933,-1.262664794921875,-0.179290771484375,1.6803741455078125,2.10953189925293
1781795647.894901,-0.05712890625,-0.115234375,0.9814452528953552,0.9898370863641096,-1.3866424560546875,0.1239776611328125,2.1686553955078125,2.577055293519812
1781795647.905551,-0.0556640587747097,-0.1142578125,0.9770507216453552,0.9852824203365596,-1.445770263671875,0.125885009765625,1.8634796142578125,2.361917645422037
1781795647.916201,-0.0493164025247097,-0.10693359375,0.9697265028953552,0.9768502400306429,-1.628875732421875,0.308990478515625,2.0465850830078125,2.6338606207383695
1781795647.926851,-0.0566406212747097,-0.10693359375,0.9829100966453552,0.9903308596312934,-1.2035369873046875,0.5550384521484375,1.6803741455078125,2.140146310901404
1781795647.934943,-0.0634765550494194,-0.1181640625,0.9873046278953552,0.9963746519111331,-1.079559326171875,0.370025634765625,1.8024444580078125,2.1333479166116938
1781795647.943038,-0.06396484375,-0.1181640625,0.9882811903953552,0.9973735299233313,-0.652313232421875,0.797271728515625,1.8024444580078125,2.076044504938669
1781795647.951131,-0.0683593675494194,-0.1103515625,0.9853515028953552,0.9938652095410541,-0.652313232421875,0.431060791015625,1.7414093017578125,1.9088824780463367
1781795647.959225,-0.0571289025247097,-0.1181640625,0.9916991591453552,1.000346779581854,0.0171661376953125,0.7343292236328125,1.9245147705078125,2.0599250439924464
1781795647.969772,-0.0537109300494194,-0.13330078125,0.9716796278953552,0.9822501013262813,0.1392364501953125,0.4291534423828125,1.4362335205078125,1.505432227502213
1781795647.980319,-0.0605468712747097,-0.119140625,0.9799804091453552,0.9890510676680172,-0.102996826171875,0.553131103515625,1.6193389892578125,1.7142990188436806
1781795647.990866,-0.0581054612994194,-0.10546875,1.00244140625,1.009647797414454,-0.041961669921875,0.553131103515625,1.4362335205078125,1.5396368158917577
1781795648.00153,-0.0546874962747097,-0.1025390625,0.9916991591453552,0.9984849542365573,0.019073486328125,0.797271728515625,1.6193389892578125,1.8050664168117236
1781795648.012193,-0.0610351525247097,-0.1123046875,0.9711913466453552,0.9795663655296694,-0.102996826171875,0.614166259765625,1.6193389892578125,1.7349545535738078
1781795648.022856,-0.0649413987994194,-0.10498046875,0.9819335341453552,0.9896624422378483,-0.102996826171875,0.614166259765625,1.8024444580078125,1.906990971409947
1781795648.030953,-0.0688476487994194,-0.115234375,0.9907225966453552,0.9997750864222232,-0.0438690185546875,0.7343292236328125,1.8634796142578125,2.0034271067909026
1781795648.039048,-0.064453125,-0.1181640625,0.9829100966453552,0.9920832672090337,0.324249267578125,0.797271728515625,1.8024444580078125,1.99739475838361
1781795648.047143,-0.0595703050494194,-0.11474609375,0.9819335341453552,0.9904083767586743,-0.102996826171875,0.553131103515625,1.6803741455078125,1.772066486554329
1781795648.055238,-0.06591796875,-0.1142578125,0.9790038466453552,0.9878504735372724,0.141143798828125,0.308990478515625,1.5583038330078125,1.5949004745525
1781795648.065781,-0.0532226525247097,-0.1015625,0.9877929091453552,0.9944256752044669,-0.041961669921875,0.308990478515625,2.0465850830078125,2.0702044342397787
1781795648.076324,-0.0610351525247097,-0.119140625,0.9848632216453552,0.9939191836959247,-0.102996826171875,0.370025634765625,1.6803741455078125,1.7237124428036987
1781795648.086867,-0.0546874962747097,-0.1162109375,0.9873046278953552,0.9956234893306862,0.141143798828125,0.492095947265625,1.8634796142578125,1.9325207026102806
1781795648.097566,-0.0566406212747097,-0.10107421875,0.9892577528953552,0.9960196079083361,-0.102996826171875,0.492095947265625,1.4972686767578125,1.5794240272696953
1781795648.108264,-0.06591796875,-0.107421875,0.9775390028953552,0.9856303262452343,-0.2269744873046875,0.6122589111328125,1.4972686767578125,1.6334600951810405
1781795648.118963,-0.0512695275247097,-0.11328125,0.9711913466453552,0.9791189089446634,-0.225067138671875,0.858306884765625,1.3751983642578125,1.6366173854641102
1781795648.127048,-0.0512695275247097,-0.0986328125,0.9667968153953552,0.9731665214200844,-0.957489013671875,0.980377197265625,1.3751983642578125,1.9414157723883119
