timestamp,accel_x,accel_y,accel_z,accel_rms,gyro_x,gyro_y,gyro_z,gyro_rms
1784819894.426805,-0.0512695275247097,-0.0400390587747097,0.9926757216453552,0.9948048949539293,-0.2536773681640625,0.0896453857421875,-1.3751983642578125,1.4012705104157706
1784819894.434777,-0.0556640587747097,-0.0527343787252903,0.9829100966453552,0.985896373979638,-0.49591064453125,0.026702880859375,-1.7414093017578125,1.810841452876044
1784819894.44275,-0.0532226487994194,-0.0390625,0.9892577528953552,0.9914582345792706,-0.31280517578125,0.209808349609375,-1.6803741455078125,1.7220696531942195
1784819894.450724,-0.0454101525247097,-0.0493164025247097,0.9853515028953552,0.9876293706489453,-0.6160736083984375,-0.0934600830078125,-2.0465850830078125,2.139343819976348
1784819894.461426,-0.0532226487994194,-0.0390625,0.9790038466453552,0.9812273238133346,-0.43487548828125,0.026702880859375,-2.5348663330078125,2.572037530902401
1784819894.472127,-0.0546874962747097,-0.0585937462747097,0.9926757216453552,0.9959061389987653,-0.2536773681640625,0.2117156982421875,-2.4127960205078125,2.4353152528120785
1784819894.48283,-0.0385742112994194,-0.048828125,0.9999999403953552,1.0019341477158574,-0.43487548828125,0.026702880859375,-2.5348663330078125,2.572037530902401
1784819894.493515,-0.0507812462747097,-0.0625,0.9873046278953552,0.9905833701596239,-0.49591064453125,0.274658203125,-2.4776458740234375,2.541671413257154
1784819894.5042,-0.0405273400247097,-0.0581054650247097,0.9853515028953552,0.9878948803457539,-0.43487548828125,0.453948974609375,-2.9659271240234375,3.0318162983391157
1784819894.514884,-0.0590820237994194,-0.04296875,0.9829100966453552,0.9856212543873936,-0.55694580078125,0.148773193359375,-2.1076202392578125,2.1850366498069027
1784819894.522867,-0.0551757737994194,-0.0419921875,0.9819335341453552,0.9843785731640989,-0.5588531494140625,0.2727508544921875,-2.2296905517578125,2.314785050028251
1784819894.530849,-0.0502929612994194,-0.056640625,0.9931640028953552,0.9960483316605578,-0.49591064453125,0.209808349609375,-2.4127960205078125,2.4721511983500415
1784819894.538832,-0.0507812462747097,-0.06640625,0.9755858778953552,0.9791610338249405,-0.7419586181640625,0.0286102294921875,-2.3517608642578125,2.4661914562649376
1784819894.546813,-0.0498046800494194,-0.05078125,0.9980468153953552,1.0005781764695838,-0.9212493896484375,-0.0934600830078125,-2.2945404052734375,2.474338476537888
1784819894.557478,-0.0361328087747097,-0.0590820275247097,0.9995116591453552,1.0019080909014964,-0.86212158203125,-0.034332275390625,-2.1686553955078125,2.333987693155795
1784819894.568141,-0.0400390587747097,-0.0493164025247097,0.9809569716453552,0.9830116042067714,-1.0471343994140625,0.2727508544921875,-2.4776458740234375,2.703629515323398
1784819894.578805,-0.0351562462747097,-0.0493164025247097,0.9877929091453552,0.9896478669546817,-1.04522705078125,0.453948974609375,-3.0231475830078125,3.2307879175024397
1784819894.589729,-0.0483398362994194,-0.0380859375,0.9873046278953552,0.9892207572995496,-0.61798095703125,0.820159912109375,-3.6945343017578125,3.83459860370673
1784819894.600654,-0.0566406212747097,-0.0498046837747097,0.9804686903953552,0.9833654047961352,-0.61798095703125,0.762939453125,-4.2438507080078125,4.3559437443849465
1784819894.611579,-0.0454101525247097,-0.0371093787252903,0.9790038466453552,0.9807587469342788,-0.86212158203125,0.820159912109375,-4.3659210205078125,4.525172069761249
1784819894.619709,-0.0610351525247097,-0.0454101525247097,0.9956054091453552,0.9985076376851216,-1.0471343994140625,0.5168914794921875,-4.1828155517578125,4.342765615599682
1784819894.627841,-0.0498046800494194,-0.04638671875,0.9877929091453552,0.9901348722214871,-0.80108642578125,0.514984130859375,-4.2438507080078125,4.349392710306391
1784819894.635974,-0.0517578125,-0.04638671875,0.9785155653953552,0.9809807901035414,-1.0471343994140625,0.3337860107421875,-4.3048858642578125,4.442965885046853
1784819894.644105,-0.0483398362994194,-0.056640625,0.9877929091453552,0.9905956448176467,-1.41143798828125,0.946044921875,-4.2438507080078125,4.571370365746721
1784819894.654356,-0.0551757775247097,-0.0439453087747097,0.9912108778953552,0.9937175459087163,-1.47247314453125,1.369476318359375,-3.9424896240234375,4.4257052526626035
1784819894.664608,-0.0507812462747097,-0.0415039099752903,0.9794921278953552,0.9816853559697326,-1.89971923828125,1.125335693359375,-3.6945343017578125,4.304055914356783
1784819894.674859,-0.0727538987994194,-0.0615234375,0.9897460341453552,0.9943216156047253,-1.89971923828125,0.514984130859375,-3.3283233642578125,3.8667658652157
1784819894.682847,-0.0673828050494194,-0.04052734375,0.9843749403953552,0.9875104714817549,-2.0236968994140625,-0.1544952392578125,-2.0465850830078125,2.882313033249774
1784819894.690836,-0.0532226487994194,-0.03759765625,0.9809569716453552,0.9831189217588815,-1.8978118896484375,-0.2765655517578125,-1.9893646240234375,2.7632861017683257
1784819894.698825,-0.0512695275247097,-0.0322265662252903,0.9785155653953552,0.9803875905703171,-2.5119781494140625,-0.0934600830078125,-1.9893646240234375,3.205673192570546
1784819894.706815,-0.0405273362994194,-0.03662109375,0.9902343153953552,0.9917396678975186,-2.6950836181640625,0.2727508544921875,-1.9893646240234375,3.360868986562616
1784819894.71748,-0.0336913987994194,-0.0615234375,0.9965819716453552,0.9990474813157888,-2.6950836181640625,0.8220672607421875,-2.9010772705078125,4.0441957939171935
1784819894.728145,-0.0546874962747097,-0.0493164025247097,0.9819335341453552,0.9846909643568195,-2.75421142578125,0.637054443359375,-3.2711029052734375,4.323382143483991
1784819894.73881,-0.0517578087747097,-0.0483398400247097,0.9951171278953552,0.9976340557205706,-2.5691986083984375,0.7610321044921875,-4.4307708740234375,5.177999796403887
1784819894.74683,-0.0478515587747097,-0.0532226525247097,0.9916991591453552,0.9942784542916235,-2.26593017578125,0.453948974609375,-4.6138763427734375,5.16026783602066
1784819894.754849,-0.0263671837747097,-0.0517578162252903,0.9853515028953552,0.9870621480832681,-2.0236968994140625,0.9441375732421875,-5.2204132080078125,5.677980183150357
1784819894.76287,-0.0546874962747097,-0.0546874962747097,0.9975585341453552,1.0005520843733338,-1.16729736328125,0.820159912109375,-5.4645538330078125,5.647706969168548
1784819894.77089,-0.0444335862994194,-0.0556640625,1.0009765625,1.00350730446756,-1.0471343994140625,0.9441375732421875,-5.7697296142578125,5.939500486512944
1784819894.780466,-0.0336913987994194,-0.046875,1.00048828125,1.0021522723102716,-0.9212493896484375,1.5544891357421875,-6.1359405517578125,6.3964758551701015
1784819894.790042,-0.0488281212747097,-0.0532226525247097,0.9877929091453552,0.9904300417126026,-0.9212493896484375,2.3479461669921875,-6.6242218017578125,7.08814969649375
1784819894.799618,-0.0605468712747097,-0.0444335900247097,0.9785155653953552,0.9813933866012303,-0.67901611328125,2.590179443359375,-6.0138702392578125,6.583063700552189
1784819894.809193,-0.0517578087747097,-0.0439453087747097,0.9960936903953552,0.9984050786018177,-0.9860992431640625,2.5310516357421875,-5.7697296142578125,6.37717758274031
1784819894.81877,-0.0615234337747097,-0.0439453087747097,0.9843749403953552,0.987274200182044,-0.80108642578125,2.773284912109375,-5.1021575927734375,5.862154959296122
1784819894.828376,-0.07177734375,-0.05615234375,0.9951171278953552,0.9992813272623103,-0.6809234619140625,2.7141571044921875,-4.4307708740234375,5.240423273643539
1784819894.837981,-0.0688476487994194,-0.04931640625,0.9965819716453552,1.0001738513274414,-1.04522705078125,2.773284912109375,-4.1828155517578125,5.126358818054525
1784819894.847588,-0.07177734375,-0.04541015625,0.9892577528953552,0.9928972610648207,-0.86212158203125,3.078460693359375,-3.3283233642578125,4.614965902347188
1784819894.857193,-0.0468749962747097,-0.0546874962747097,0.9858397841453552,0.9884675348883801,-0.8640289306640625,3.6296844482421875,-3.0841827392578125,4.840799350930743
1784819894.8668,-0.0585937425494194,-0.06591796875,0.9814452528953552,0.9854000150704796,-0.5588531494140625,3.6296844482421875,-3.0231475830078125,4.756716025270711
1784819894.876413,-0.037109375,-0.0556640625,0.9931640028953552,0.9954146524007067,0.2346038818359375,4.3010711669921875,-2.9010772705078125,5.1933131519638875
1784819894.886028,-0.0537109300494194,-0.0556640625,0.9916991591453552,0.9947113018913488,0.66375732421875,4.058837890625,-2.2945404052734375,4.7095280527097
1784819894.895642,-0.0595703050494194,-0.05126953125,0.9999999403953552,1.0030837785893008,0.7228851318359375,3.4465789794921875,-2.7828216552734375,4.488381216069516
1784819894.905256,-0.07080078125,-0.0600585900247097,0.9897460341453552,0.994091040583218,0.9670257568359375,3.0193328857421875,-2.1076202392578125,3.807042547994115
1784819894.91487,-0.0693359375,-0.0585937462747097,0.9829100966453552,0.9870931857828269,0.84686279296875,2.468109130859375,-1.7414093017578125,3.1370759678711773
1784819894.924452,-0.0727538987994194,-0.05810546875,0.9990233778953552,1.003352921394371,0.78582763671875,1.979827880859375,-1.9245147705078125,2.870714303855721
1784819894.934037,-0.07470703125,-0.0576171912252903,0.9809569716453552,0.9854833643763381,0.66375732421875,1.857757568359375,-0.8869171142578125,2.1629745573663084
1784819894.943624,-0.076171875,-0.06689453125,0.9873046278953552,0.992495572340632,0.1735687255859375,1.5544891357421875,-0.5817413330078125,1.6688275986966796
1784819894.95321,-0.07080078125,-0.0488281212747097,0.9833983778953552,0.9871521188246744,0.4177093505859375,1.7375946044921875,0.0286102294921875,1.787326119195622
1784819894.962795,-0.0737304612994194,-0.0517578125,0.9741210341453552,0.9782774868321495,0.7228851318359375,1.1882781982421875,0.0896453857421875,1.3937733981648617
1784819894.970788,-0.0751953125,-0.0537109337747097,0.9931640028953552,0.9974537262831038,0.2956390380859375,0.7610321044921875,0.6999969482421875,1.075438530301273
1784819894.978783,-0.0712890625,-0.0595703087747097,0.9853515028953552,0.9897213427918883,-0.00762939453125,0.453948974609375,0.5779266357421875,0.7349333816817001
1784819894.98678,-0.0820312425494194,-0.0439453125,0.9765624403953552,0.9809865010467045,0.1125335693359375,0.3948211669921875,1.0051727294921875,1.0857807210700203
1784819894.994776,-0.0737304612994194,-0.05712890625,0.9736327528953552,0.9780902976532045,-0.1277923583984375,0.3948211669921875,1.0662078857421875,1.1441214517650358
1784819895.002771,-0.0600585900247097,-0.0483398400247097,0.9741210341453552,0.9771671113651886,-0.3757476806640625,-0.2155303955078125,1.1234283447265625,1.2040477219143935
1784819895.010768,-0.07177734375,-0.0615234375,0.9765624403953552,0.9811275760208525,-0.6160736083984375,-0.5817413330078125,0.9441375732421875,1.2686076724907607
1784819895.020375,-0.06689453125,-0.06103515625,0.9980468153953552,1.0021465034267343,-0.49591064453125,-0.766754150390625,1.1234283447265625,1.4477328967166951
1784819895.029984,-0.07568359375,-0.0502929650247097,0.9848632216453552,0.9890464873015625,-0.49591064453125,-0.701904296875,1.1234283447265625,1.4144568763543313
1784819895.039592,-0.07666015625,-0.05615234375,0.9975585341453552,1.0020742958040199,-0.12969970703125,-0.766754150390625,1.3065338134765625,1.52044879785636
1784819895.0492,-0.0673828050494194,-0.05029296875,0.9931640028953552,0.9967168914838063,0.1735687255859375,-0.5817413330078125,1.0662078857421875,1.2269263778442694
1784819895.058808,-0.0517578087747097,-0.0483398400247097,0.9887694716453552,0.9913025163695535,0.17547607421875,-0.213623046875,1.3065338134765625,1.3354614425497247
1784819895.069696,-0.0727538987994194,-0.05712890625,0.9897460341453552,0.9940593814387026,0.4177093505859375,-0.8869171142578125,0.9441375732421875,1.3610653277260347
1784819895.080585,-0.0644531175494194,-0.0546875,0.9863280653953552,0.9899434224260664,0.29754638671875,-0.827789306640625,1.0051727294921875,1.335717486803525
1784819895.091475,-0.0600585862994194,-0.06640625,0.9887694716453552,0.99281513479861,0.17547607421875,-0.522613525390625,0.9441375732421875,1.0933034833714235
1784819895.099319,-0.0571289025247097,-0.0537109337747097,0.9746093153953552,0.977758607001765,0.17547607421875,-0.766754150390625,0.8831024169921875,1.1826130637964036
1784819895.107165,-0.0712890625,-0.0571289099752903,0.9785155653953552,0.9827708555447121,0.2346038818359375,-0.7038116455078125,1.1234283447265625,1.3462841674252763
1784819895.115012,-0.0600585862994194,-0.05517578125,1.00146484375,1.0047801918290609,-0.12969970703125,-0.827789306640625,1.3065338134765625,1.5521236277919899
1784819895.122858,-0.0683593675494194,-0.06005859375,0.9863280653953552,0.9905165775500823,0.1125335693359375,-1.1310577392578125,1.6117095947265625,1.9721975640123228
1784819895.132481,-0.0512695275247097,-0.06298828125,0.9916991591453552,0.9950192512092622,0.17547607421875,-0.885009765625,1.5544891357421875,1.7973509982792273
1784819895.142103,-0.0512695275247097,-0.0395507775247097,0.9902343153953552,0.9923491461385574,0.4177093505859375,-1.0700225830078125,1.6765594482421875,2.032309280892991
1784819895.151726,-0.0502929650247097,-0.0522460974752903,0.9750975966453552,0.9777905501772464,-0.0705718994140625,-0.5817413330078125,1.6117095947265625,1.7149376633715512
1784819895.16135,-0.07080078125,-0.0537109337747097,0.9843749403953552,0.9883782870495086,0.29754638671875,-0.644683837890625,1.7948150634765625,1.9301585984496576
1784819895.170973,-0.0517578087747097,-0.0537109337747097,0.9946288466453552,0.99742181535957,0.1735687255859375,-0.5817413330078125,1.7375946044921875,1.8405934071900818
1784819895.180533,-0.0449218712747097,-0.0478515662252903,0.9902343153953552,0.992407046677694,0.11444091796875,-0.156402587890625,1.0662078857421875,1.0836778805637957
1784819895.190095,-0.0546874962747097,-0.0590820275247097,0.9790038466453552,0.9823084749566345,0.1125335693359375,0.3948211669921875,1.0051727294921875,1.0857807210700203
1784819895.199656,-0.0605468712747097,-0.0468750037252903,0.9951171278953552,0.9980587597061121,0.1125335693359375,0.0286102294921875,0.8182525634765625,0.8264500027799915
1784819895.209217,-0.0512695275247097,-0.0600585900247097,0.9941405653953552,0.9972718097153652,-0.1926422119140625,-0.0934600830078125,0.4520416259765625,0.5001874054217121
1784819895.218778,-0.0458984337747097,-0.0556640587747097,0.9804686903953552,0.9831195280879272,-0.37384033203125,0.637054443359375,0.1468658447265625,0.7531032691499919
1784819895.226784,-0.0532226487994194,-0.06396484375,0.9868163466453552,0.9903184606921523,-0.49591064453125,0.698089599609375,-0.3414154052734375,0.9218573292002418
1784819895.234792,-0.0410156212747097,-0.0473632849752903,0.9965819716453552,0.9985495421664088,-0.4978179931640625,0.8831024169921875,-1.2531280517578125,1.611838250978574
1784819895.242802,-0.0483398362994194,-0.0615234375,0.9838866591453552,0.9869928222532722,-0.67901611328125,0.946044921875,-1.6803741455078125,2.0444366327162506
1784819895.250811,-0.0590820237994194,-0.0625,0.9848632216453552,0.988611400341865,-0.4329681396484375,0.8831024169921875,-2.2945404052734375,2.496446867105419
1784819895.25882,-0.06689453125,-0.0424804724752903,0.9897460341453552,0.9929132293203369,-0.43487548828125,0.946044921875,-2.4127960205078125,2.6278703014212224
1784819895.266829,-0.0610351525247097,-0.0576171912252903,0.9936522841453552,0.9971910009399844,-0.2536773681640625,1.1272430419921875,-2.6569366455078125,2.8972989871742185
1784819895.276447,-0.0522460900247097,-0.0581054650247097,0.9912108778953552,0.9942861275541808,0.11444091796875,1.125335693359375,-2.5348663330078125,2.775792584591044
1784819895.286065,-0.0683593675494194,-0.0576171875,0.9941405653953552,0.9981523967770469,-0.0705718994140625,1.0662078857421875,-2.5959014892578125,2.8072200110672947
1784819895.295683,-0.0712890625,-0.0517578162252903,0.9790038466453552,0.9829595788835582,0.29754638671875,1.125335693359375,-2.2296905517578125,2.5152403924070694
1784819895.3053,-0.07470703125,-0.0488281212747097,0.9785155653953552,0.9825772425954094,0.3604888916015625,1.0662078857421875,-2.0465850830078125,2.335650230359213
1784819895.314919,-0.0620117150247097,-0.0483398400247097,0.9843749403953552,0.9875101094228248,-0.06866455078125,1.125335693359375,-1.4362335205078125,1.8258866253721453
1784819895.324492,-0.07568359375,-0.0390624962747097,0.9838866591453552,0.9875661208356306,0.1735687255859375,1.0662078857421875,-0.9479522705078125,1.4371982693008187
1784819895.334065,-0.07861328125,-0.0585937462747097,0.9829100966453552,0.987788202591415,-0.2536773681640625,1.2493133544921875,-0.7648468017578125,1.486649486257713
1784819895.343637,-0.0605468675494194,-0.04638671875,0.9780272841453552,0.9809969517685454,-0.06866455078125,0.637054443359375,-0.1583099365234375,0.6600115304598616
1784819895.353211,-0.06591796875,-0.0444335900247097,0.9790038466453552,0.9822260708579325,-0.6160736083984375,0.8831024169921875,-0.3414154052734375,1.129593311249912
1784819895.362783,-0.0751953125,-0.0502929650247097,0.9921874403953552,0.9963029831488189,-0.61798095703125,0.637054443359375,-0.2155303955078125,0.9133412168762214
1784819895.370806,-0.06591796875,-0.0507812462747097,0.9951171278953552,0.9985900118707575,-0.4978179931640625,0.5779266357421875,-0.2155303955078125,0.7926381911098731
1784819895.378829,-0.0712890625,-0.0439453087747097,0.9912108778953552,0.9947423410378762,-0.2536773681640625,0.0286102294921875,-0.2155303955078125,0.33410193614822864
1784819895.386853,-0.0712890625,-0.0498046837747097,0.9941405653953552,0.9979369222163414,-0.2536773681640625,0.2117156982421875,-0.2155303955078125,0.39449853661145107
1784819895.394876,-0.0600585900247097,-0.0498046837747097,0.9799804091453552,0.9830814529174847,-0.19073486328125,-0.156402587890625,-0.3414154052734375,0.4211959597714909
1784819895.405498,-0.0546874925494194,-0.05224609375,0.9873046278953552,0.9901973562967447,-0.12969970703125,-0.156402587890625,-0.2765655517578125,0.34317967294404256
1784819895.41612,-0.0444335862994194,-0.05126953125,0.9755858778953552,0.9779420808896985,-0.00762939453125,-0.156402587890625,-0.1583099365234375,0.22267018920783482
1784819895.426742,-0.0610351525247097,-0.0576171912252903,0.9858397841453552,0.9894064435671353,-0.31280517578125,-0.278472900390625,-0.5245208740234375,0.6712051709677276
1784819895.434769,-0.0581054612994194,-0.0517578125,0.9941405653953552,0.9971813172899902,-0.49591064453125,-0.339508056640625,-0.7038116455078125,0.9254965803479278
1784819895.442796,-0.0620117150247097,-0.0444335900247097,0.9721679091453552,0.9751565209210475,-0.5588531494140625,-0.3986358642578125,-0.5817413330078125,0.8998057420423011
1784819895.450823,-0.05712890625,-0.06494140625,0.9775390028953552,0.9813580388200293,-0.6160736083984375,-0.3986358642578125,-0.4596710205078125,0.865883762598848
1784819895.458849,-0.0747070237994194,-0.056640625,0.9858397841453552,0.9902875238076657,-0.43487548828125,-0.644683837890625,-0.6427764892578125,1.008908101012099
1784819895.469492,-0.0683593675494194,-0.046875,0.9877929091453552,0.9912643946569455,-0.4329681396484375,-0.5817413330078125,-0.5817413330078125,0.9296813255143087
1784819895.480136,-0.0688476487994194,-0.06201171875,0.9829100966453552,0.9872678005966359,-0.2536773681640625,-0.7038116455078125,-0.2155303955078125,0.7785604606315518
1784819895.490779,-0.0600585900247097,-0.0473632849752903,0.9926757216453552,0.9956181011530141,-0.0705718994140625,-0.9479522705078125,0.0286102294921875,0.9510060175306049
1784819895.498791,-0.07080078125,-0.0478515662252903,0.9877929091453552,0.9914824024528462,-0.2536773681640625,-0.8258819580078125,0.1468658447265625,0.8763576849829698
1784819895.506802,-0.0654296875,-0.0590820275247097,0.9897460341453552,0.9936644011381492,-0.12969970703125,-0.644683837890625,0.2117156982421875,0.6908420960853172
1784819895.514814,-0.0561523400247097,-0.0595703087747097,0.9985350966453552,1.0018852460288623,0.17547607421875,-0.461578369140625,0.5168914794921875,0.7148588987019507
1784819895.522826,-0.0625,-0.056640625,0.9873046278953552,0.9909010236466488,0.05340576171875,-0.461578369140625,0.6999969482421875,0.8401800365348219
1784819895.533781,-0.052734375,-0.05712890625,0.9829100966453552,0.9859801642646486,-0.1277923583984375,-0.3986358642578125,0.6351470947265625,0.7606926258859098
1784819895.544734,-0.0590820237994194,-0.056640625,0.9770507216453552,0.9804728240009181,-0.12969970703125,-0.644683837890625,0.7610321044921875,1.0057878150530486
1784819895.555688,-0.0703125,-0.06787109375,0.9848632216453552,0.9896999031892139,-0.12969970703125,-0.766754150390625,0.7610321044921875,1.088073437417277
1784819895.563465,-0.0493164025247097,-0.06787109375,0.9931640028953552,0.9967012238238326,-0.0095367431640625,-0.5817413330078125,0.9441375732421875,1.1090129328405196
1784819895.571244,-0.056640625,-0.0458984375,0.9965819716453552,0.9992449415302915,0.0553131103515625,-0.5817413330078125,0.8182525634765625,1.0054947918027406
1784819895.579021,-0.0546874925494194,-0.04736328125,0.9746093153953552,0.9772908062125174,0.41961669921875,-0.522613525390625,0.8182525634765625,1.0577052183006483
1784819895.5868,-0.0488281175494194,-0.0615234375,0.9887694716453552,0.9918842606287647,0.17547607421875,0.026702880859375,0.7610321044921875,0.7814568193683014
1784819895.597569,-0.0366210900247097,-0.0590820275247097,0.9897460341453552,0.9921839558859471,0.4177093505859375,0.5168914794921875,0.6999969482421875,0.9652220628885997
1784819895.60834,-0.0581054612994194,-0.04638671875,0.9843749403953552,0.9871788062897061,0.05340576171875,0.820159912109375,0.3948211669921875,0.9118104028366262
1784819895.61911,-0.0537109300494194,-0.0478515625,0.9926757216453552,0.9952787169354078,-0.2536773681640625,1.0662078857421875,0.0896453857421875,1.0996307370760134
1784819895.627028,-0.0571289025247097,-0.0576171912252903,0.9814452528953552,0.9847934995008838,-0.61798095703125,0.209808349609375,0.0286102294921875,0.6532522882092837
1784819895.634947,-0.0634765550494194,-0.06982421875,0.9902343153953552,0.9947204099401488,-0.6160736083984375,0.3948211669921875,-0.2765655517578125,0.7822524843611859
1784819895.642866,-0.0673828050494194,-0.056640625,0.9863280653953552,0.9902482796770024,-0.80108642578125,0.148773193359375,-0.2765655517578125,0.8604425774288644
1784819895.650784,-0.0737304612994194,-0.0498046875,0.9887694716453552,0.992764703179073,-0.3757476806640625,0.0286102294921875,-0.0362396240234375,0.37857387007739723
1784819895.661546,-0.0712890625,-0.0556640587747097,0.9853515028953552,0.9894939121235352,-0.5588531494140625,0.0896453857421875,0.0896453857421875,0.5730527314128672
1784819895.672308,-0.0712890625,-0.0527343787252903,0.9912108778953552,0.9951693572401393,-0.3757476806640625,-0.0934600830078125,0.1468658447265625,0.41411433564596173
1784819895.68307,-0.068359375,-0.0581054650247097,0.9848632216453552,0.9889412594111929,-0.3757476806640625,0.0896453857421875,0.2727508544921875,0.47288015747703593
1784819895.691019,-0.0742187425494194,-0.05078125,0.9946288466453552,0.9986859865224149,-0.3757476806640625,0.0896453857421875,0.2117156982421875,0.4405066986907973
1784819895.698967,-0.0605468712747097,-0.0566406287252903,0.9838866591453552,0.9873738109185197,-0.12969970703125,-0.034332275390625,0.2727508544921875,0.30396339872377437
1784819895.706917,-0.0620117150247097,-0.0537109337747097,0.9912108778953552,0.9946000812715319,-0.12969970703125,-0.156402587890625,1.0662078857421875,1.0853953377095842
1784819895.714866,-0.07666015625,-0.0590820275247097,0.9863280653953552,0.9910653450299073,-0.0705718994140625,-0.0934600830078125,0.6999969482421875,0.7097259384094057
1784819895.722837,-0.0722656175494194,-0.056640625,0.9760741591453552,0.9803832128466408,-0.2536773681640625,-0.2155303955078125,0.9441375732421875,1.0011000527989429
1784819895.73081,-0.064453125,-0.06396484375,0.9819335341453552,0.9861233046822365,0.05340576171875,-0.156402587890625,0.8831024169921875,0.8984340954021547
1784819895.738781,-0.0620117150247097,-0.0590820275247097,0.9921874403953552,0.9958775304499158,0.11444091796875,-0.156402587890625,0.6351470947265625,0.6640559653703955
1784819895.746753,-0.0590820237994194,-0.041015625,0.9882811903953552,0.9908948876241295,0.2346038818359375,-0.3986358642578125,0.7610321044921875,0.8905725112043777
1784819895.75876,-0.0483398362994194,-0.0546875,0.9902343153953552,0.9929206724689603,0.23651123046875,-0.034332275390625,0.3948211669921875,0.4615192533106422
1784819895.770768,-0.0527343712747097,-0.0590820275247097,0.9877929091453552,0.9909623763029621,0.11444091796875,-0.156402587890625,0.2727508544921875,0.3345915746557783
1784819895.782774,-0.0507812462747097,-0.06494140625,0.9770507216453552,0.9805224290584329,-0.00762939453125,0.274658203125,0.2727508544921875,0.3871541874124386
1784819895.794781,-0.0556640550494194,-0.06103515625,0.9873046278953552,0.9907543618811842,0.0553131103515625,0.0896453857421875,-0.1583099365234375,0.19015223207652476
1784819895.805429,-0.0654296875,-0.0600585900247097,0.9907225966453552,0.9946956025567918,0.1125335693359375,0.2117156982421875,-0.3986358642578125,0.4651858697147156
1784819895.816075,-0.06982421875,-0.0522460974752903,0.9858397841453552,0.9896894241271885,-0.37384033203125,0.148773193359375,-0.3414154052734375,0.5276879152241473
1784819895.82672,-0.0737304612994194,-0.0498046875,0.9877929091453552,0.991792074569182,-0.43487548828125,-0.034332275390625,-0.0934600830078125,0.44612798898654693
1784819895.834774,-0.06982421875,-0.0429687537252903,0.9897460341453552,0.993135915888259,-0.12969970703125,-0.156402587890625,0.0896453857421875,0.22208124343974292
1784819895.842832,-0.06640625,-0.0625,0.9838866591453552,0.9881037385230718,-0.2536773681640625,-0.2765655517578125,0.2117156982421875,0.4308877445691924
1784819895.850888,-0.0634765550494194,-0.03759765625,0.9887694716453552,0.9915179901818575,-0.31280517578125,-0.339508056640625,0.1468658447265625,0.4844402696583752
1784819895.858946,-0.0654296875,-0.0478515662252903,0.9804686903953552,0.9838138387124589,-0.19073486328125,-0.339508056640625,0.2117156982421875,0.4432482887468241
1784819895.866897,-0.05712890625,-0.05712890625,1.00341796875,1.0066653087640491,-0.19073486328125,0.026702880859375,0.7610321044921875,0.7850240098142953
1784819895.874847,-0.0493163987994194,-0.05078125,0.9765624403953552,0.9791246307457685,-0.37384033203125,0.148773193359375,0.3948211669921875,0.5637142989322287
1784819895.882799,-0.0595703087747097,-0.0439453087747097,0.9873046278953552,0.9900758759380034,-0.19073486328125,0.148773193359375,0.5168914794921875,0.570692607894027
1784819895.890749,-0.0615234337747097,-0.0576171912252903,0.9838866591453552,0.9874906742204359,-0.49591064453125,-0.156402587890625,0.3299713134765625,0.6158491735609721
1784819895.901452,-0.0727538987994194,-0.05322265625,0.9877929091453552,0.9918974807341058,-0.8640289306640625,-0.3986358642578125,0.2117156982421875,0.9748231030188161
1784819895.912153,-0.05712890625,-0.05517578125,0.9819335341453552,0.9851403677877872,-0.9860992431640625,-0.3986358642578125,0.2727508544921875,1.098041574015997
1784819895.922856,-0.052734375,-0.0556640625,0.9921874403953552,0.9951458782705835,-0.86212158203125,-0.156402587890625,0.2727508544921875,0.9176646557044509
1784819895.933523,-0.0610351525247097,-0.0517578162252903,0.9853515028953552,0.9885958454506375,-0.9860992431640625,-0.3986358642578125,0.5168914794921875,1.1825730722509
1784819895.944191,-0.06591796875,-0.0546874962747097,0.9873046278953552,0.9910127794920246,-0.5588531494140625,-0.7648468017578125,0.4520416259765625,1.049594733401757
1784819895.954859,-0.0590820237994194,-0.05126953125,0.9931640028953552,0.9962399244248119,-0.67901611328125,-0.339508056640625,0.7610321044921875,1.074941145685324
1784819895.962843,-0.0673828050494194,-0.0498046875,0.9936522841453552,0.9971789263219427,-0.43487548828125,-0.339508056640625,0.6351470947265625,0.8413050830533133
1784819895.970825,-0.064453125,-0.0634765625,0.9814452528953552,0.9856055315083767,-0.31280517578125,-0.034332275390625,1.3065338134765625,1.3438959739826015
1784819895.978809,-0.06640625,-0.0498046837747097,0.9741210341453552,0.977651310912729,-0.31280517578125,-0.034332275390625,0.6999969482421875,0.7674773681858066
1784819895.994804,-0.06201171875,-0.056640625,0.9897460341453552,0.993302987899049,-0.12969970703125,0.453948974609375,0.7610321044921875,0.895578890785565
1784819896.002818,-0.0546874925494194,-0.0458984375,0.9853515028953552,0.9879347006074943,-0.12969970703125,0.331878662109375,0.5168914794921875,0.62780750388883
1784819896.010831,-0.0522460900247097,-0.06396484375,0.9931640028953552,0.9965921391451756,-0.31280517578125,0.091552734375,0.3299713134765625,0.46379957835742575
1784819896.018844,-0.0546874925494194,-0.05712890625,0.9882811903953552,0.9914404394919164,-0.67901611328125,0.148773193359375,0.2117156982421875,0.7266497657331888
1784819896.029525,-0.0502929650247097,-0.0532226525247097,1.00341796875,1.0060863049873596,-0.00762939453125,0.453948974609375,-0.4596710205078125,0.646084612341534
1784819896.040205,-0.0517578087747097,-0.0551757775247097,0.9863280653953552,0.9892250956082542,-0.00762939453125,0.274658203125,-0.7038116455078125,0.7555436245228875
1784819896.050887,-0.0732421800494194,-0.06005859375,0.9907225966453552,0.9952400289002318,-0.12969970703125,0.026702880859375,-0.7648468017578125,0.7762252817380638
1784819896.058866,-0.0551757775247097,-0.0546874962747097,0.9951171278953552,0.9981448727038342,-0.2536773681640625,-0.3376007080078125,-0.8296966552734375,0.9309795835236941
1784819896.066843,-0.0625,-0.05078125,0.9824218153953552,0.985716799449146,-0.1926422119140625,-0.2765655517578125,-0.4596710205078125,0.5699973450156935
1784819896.07482,-0.0678710862994194,-0.0703125,0.9960936903953552,1.0008761022509984,-0.0705718994140625,-0.1544952392578125,-0.5817413330078125,0.6060298263864113
1784819896.082797,-0.07177734375,-0.0585937462747097,0.9843749403953552,0.9887260679564739,-0.0705718994140625,-0.2765655517578125,-0.1583099365234375,0.3263907679577758
1784819896.09351,-0.0722656175494194,-0.0722656175494194,0.9833983778953552,0.9886945982490315,-0.2536773681640625,-0.3986358642578125,0.0286102294921875,0.47337226854011427
1784819896.104223,-0.0600585900247097,-0.0590820275247097,0.9833983778953552,0.987000552106939,-0.3757476806640625,-0.0934600830078125,0.3948211669921875,0.5529962572615861
1784819896.114936,-0.0683593675494194,-0.0595703125,0.9750975966453552,0.9793043185070982,-0.12969970703125,0.026702880859375,0.6999969482421875,0.7124119492249956
1784819896.125546,-0.052734375,-0.05712890625,0.9887694716453552,0.9918214024176918,-0.31280517578125,-0.034332275390625,0.7610321044921875,0.8235263488175981
1784819896.136157,-0.0615234375,-0.0556640625,0.9873046278953552,0.9907845625964335,-0.31280517578125,-0.339508056640625,1.0662078857421875,1.1618571573727374
1784819896.146768,-0.0688476487994194,-0.05517578125,0.9902343153953552,0.9941571128188259,-0.12969970703125,-0.034332275390625,1.0051727294921875,1.01408724242654
1784819896.15478,-0.05712890625,-0.05029296875,1.00146484375,1.0043529896914838,0.05340576171875,-0.522613525390625,0.6351470947265625,0.824250510612866
1784819896.162792,-0.0776367112994194,-0.0517578125,0.9946288466453552,0.9989959322616104,0.0553131103515625,-0.2155303955078125,0.4520416259765625,0.5038397792751707
1784819896.170804,-0.0581054612994194,-0.05224609375,0.9946288466453552,0.9976935609314223,-0.0705718994140625,-0.2765655517578125,0.4520416259765625,0.5346125036150448
1784819896.178816,-0.0546874962747097,-0.0576171912252903,0.9863280653953552,0.9895218620930172,0.1125335693359375,-0.2155303955078125,0.5168914794921875,0.5712214607198007
1784819896.189472,-0.0585937425494194,-0.06103515625,0.9853515028953552,0.9889773006609124,0.05340576171875,-0.339508056640625,0.2727508544921875,0.4387606688558948
1784819896.20013,-0.0541992150247097,-0.0590820275247097,0.9814452528953552,0.9847146923431949,0.2346038818359375,-0.3986358642578125,0.3299713134765625,0.5681818382899189
1784819896.210787,-0.0595703050494194,-0.0498046875,0.9848632216453552,0.9879193760071323,0.1125335693359375,-0.4596710205078125,-0.0934600830078125,0.48238577760751533
1784819896.219401,-0.06982421875,-0.06396484375,0.9814452528953552,0.9860028941087534,0.2956390380859375,-0.2765655517578125,0.0896453857421875,0.4146410983541637
1784819896.228016,-0.0600585900247097,-0.0576171912252903,0.9750975966453552,0.978642987991022,-0.0705718994140625,-0.4596710205078125,0.2117156982421875,0.5109807990167334
1784819896.236629,-0.0610351525247097,-0.0498046837747097,0.9780272841453552,0.9811947640006814,-0.00762939453125,-0.644683837890625,0.3299713134765625,0.7242627466712249
1784819896.245244,-0.0654296875,-0.0590820275247097,1.00537109375,1.009228797711822,-0.43487548828125,-0.522613525390625,-0.0362396240234375,0.6808486598198114
1784819896.255095,-0.0571289025247097,-0.0546874962747097,0.9838866591453552,0.9870599737587795,-0.2536773681640625,-0.6427764892578125,0.0896453857421875,0.6968142632338331
1784819896.264947,-0.0537109300494194,-0.041015625,0.9882811903953552,0.9905891463115143,-0.61798095703125,-0.644683837890625,0.0896453857421875,0.8975266064443499
1784819896.2748,-0.0556640587747097,-0.0595703087747097,0.9887694716453552,0.9921250814209988,-0.5588531494140625,-0.8869171142578125,0.0286102294921875,1.0486931655184073
1784819896.285484,-0.0405273362994194,-0.05126953125,0.9946288466453552,0.9967735813118195,-0.2536773681640625,-1.0089874267578125,-0.1583099365234375,1.0523639439262693
1784819896.296169,-0.0624999962747097,-0.0478515662252903,0.9926757216453552,0.9957917002409082,-0.0705718994140625,-1.0700225830078125,-0.4596710205078125,1.1667159758177281
1784819896.306854,-0.0537109337747097,-0.0434570275247097,0.9882811903953552,0.9906932365457508,-0.0705718994140625,-1.1310577392578125,-0.0934600830078125,1.1371045640739155
1784819896.317516,-0.0600585900247097,-0.0527343787252903,0.9887694716453552,0.9919944641948025,-0.0705718994140625,-1.1920928955078125,-0.1583099365234375,1.204627702034601
1784819896.328179,-0.0566406212747097,-0.0498046837747097,0.9951171278953552,0.9979713246055644,0.1125335693359375,-1.3751983642578125,0.1468658447265625,1.3875892481682381
1784819896.338844,-0.0576171837747097,-0.0537109337747097,0.9946288466453552,0.9977430264612975,-0.00762939453125,-1.190185546875,0.3948211669921875,1.2539870802987283
1784819896.346833,-0.0639648362994194,-0.0478515625,0.9814452528953552,0.9846908432332102,-0.1926422119140625,-1.2531280517578125,0.3299713134765625,1.310084731470038
1784819896.354824,-0.0634765550494194,-0.0478515625,0.9907225966453552,0.9939065894631892,0.11444091796875,-1.010894775390625,0.2727508544921875,1.0532796396227408
1784819896.362814,-0.0498046837747097,-0.0527343787252903,0.9931640028953552,0.9958092979444239,0.2346038818359375,-1.1920928955078125,0.2727508544921875,1.2451977680348247
1784819896.370806,-0.0625,-0.06494140625,0.9936522841453552,0.9977316763704605,0.17547607421875,-0.949859619140625,0.4520416259765625,1.0664739942036712
1784819896.38147,-0.0434570237994194,-0.0615234375,0.9887694716453552,0.99163436524616,0.48065185546875,-0.827789306640625,0.1468658447265625,0.9684167071572886
1784819896.392136,-0.0605468712747097,-0.0444335900247097,0.9980468153953552,1.000868479503901,0.9059906005859375,-0.9479522705078125,-0.2155303955078125,1.3288663690901124
1784819896.402801,-0.0629882737994194,-0.04736328125,0.9907225966453552,0.9938521351542755,0.78582763671875,-1.010894775390625,-0.0934600830078125,1.283809997101933
1784819896.413481,-0.0590820275247097,-0.0590820275247097,0.9921874403953552,0.9956993968217254,1.2149810791015625,-0.5817413330078125,-0.2765655517578125,1.3751692643175266
1784819896.424164,-0.0698242112994194,-0.04638671875,0.9663085341453552,0.9699377976561809,0.7228851318359375,-0.3986358642578125,-0.0362396240234375,0.8263091288684846
1784819896.434845,-0.0610351525247097,-0.0517578162252903,0.9755858778953552,0.978862588177205,0.2346038818359375,-0.5817413330078125,0.0896453857421875,0.6336388996006027
1784819896.442827,-0.06982421875,-0.0585937462747097,0.9770507216453552,0.9812934124380243,-0.12969970703125,-1.190185546875,0.3948211669921875,1.260653562204624
1784819896.450809,-0.0629882737994194,-0.05078125,0.9790038466453552,0.9823414832603758,-0.5588531494140625,-1.6193389892578125,0.6351470947265625,1.8270159924533018
1784819896.458791,-0.0581054612994194,-0.04931640625,0.9843749403953552,0.9873208069500979,-0.5588531494140625,-1.1920928955078125,0.8182525634765625,1.5501417908585597
1784819896.466773,-0.0610351525247097,-0.0546874962747097,0.9975585341453552,1.0009190981986211,-0.6809234619140625,-1.4362335205078125,1.3713836669921875,2.09931337548929
1784819896.477613,-0.0595703087747097,-0.0590820275247097,0.9863280653953552,0.989890074831791,-0.8029937744140625,-1.5583038330078125,1.6117095947265625,2.381326868669701
1784819896.488455,-0.0610351525247097,-0.06982421875,0.9916991591453552,0.9960260707518488,-0.61798095703125,-1.621246337890625,1.4934539794921875,2.2892673369962875
1784819896.499295,-0.0493164025247097,-0.0439453087747097,0.9931640028953552,0.9953582442359178,-0.2536773681640625,-1.8634796142578125,1.3065338134765625,2.289964865588706
1784819896.509801,-0.0507812462747097,-0.06396484375,1.00439453125,1.0077095864454608,0.2956390380859375,-1.8634796142578125,0.3948211669921875,1.9276520607982908
1784819896.520309,-0.0512695275247097,-0.0620117224752903,0.9956054091453552,0.9988514148242719,0.48065185546875,-1.678466796875,0.1468658447265625,1.7520977628901366
1784819896.530818,-0.046875,-0.06591796875,1.00146484375,1.0047259713455894,0.66375732421875,-2.166748046875,-0.2155303955078125,2.2763620615970597
1784819896.538802,-0.0449218675494194,-0.06640625,0.9951171278953552,0.9983415560087092,0.9670257568359375,-2.2296905517578125,-0.4596710205078125,2.473450265939639
1784819896.546788,-0.0361328087747097,-0.0615234412252903,1.00146484375,1.00400326043164,0.84686279296875,-2.475738525390625,-1.3179779052734375,2.929765109186594
1784819896.554774,-0.0419921837747097,-0.0527343787252903,1.00830078125,1.0105516927238665,0.7228851318359375,-2.1686553955078125,-1.9245147705078125,2.9882078642887855
1784819896.56276,-0.0322265625,-0.05517578125,0.9912108778953552,0.9932683034433321,0.96893310546875,-2.475738525390625,-2.6569366455078125,3.75864669092733
1784819896.570793,-0.0405273400247097,-0.0600585900247097,0.9887694716453552,0.9914204797073084,0.90789794921875,-1.987457275390625,-3.2062530517578125,3.879990172617068
1784819896.578828,-0.0458984337747097,-0.0605468712747097,0.9902343153953552,0.9931447977161414,0.8487701416015625,-2.0465850830078125,-3.9424896240234375,4.522404857019868
1784819896.586862,-0.0493163987994194,-0.0625,0.9975585341453552,1.0007304263570551,1.27410888671875,-1.621246337890625,-4.3659210205078125,4.828359918300564
1784819896.594896,-0.0488281175494194,-0.056640625,0.9887694716453552,0.9915933710557193,1.15203857421875,-1.621246337890625,-4.6138763427734375,5.024289747916229
1784819896.605531,-0.0507812462747097,-0.0419921912252903,0.9853515028953552,0.9875523598044051,1.21307373046875,-1.621246337890625,-4.5490264892578125,4.979320190914257
1784819896.616166,-0.0415039025247097,-0.0615234412252903,0.9790038466453552,0.9818127313756858,1.0890960693359375,-1.4362335205078125,-3.9424896240234375,4.334988051795036
1784819896.626801,-0.0507812462747097,-0.0546874962747097,0.9785155653953552,0.9813573095172832,1.0890960693359375,-1.6193389892578125,-4.1255950927734375,4.563871588891363
1784819896.637475,-0.07080078125,-0.0581054650247097,0.9785155653953552,0.9827928100125376,0.84686279296875,-0.949859619140625,-3.5724639892578125,3.7923487235132596
1784819896.64815,-0.0605468712747097,-0.0493164025247097,0.9692382216453552,0.9723789186718242,0.84686279296875,-1.316070556640625,-2.5348663330078125,2.9790544853002725
1784819896.658825,-0.0585937425494194,-0.0556640625,0.9863280653953552,0.9896336529779571,0.7228851318359375,-1.4972686767578125,-2.1076202392578125,2.684481230546921
1784819896.666833,-0.06982421875,-0.0522460974752903,0.9775390028953552,0.9814212033612738,0.5435943603515625,-1.2531280517578125,-0.5245208740234375,1.4631974883776508
1784819896.674839,-0.06494140625,-0.0581054650247097,0.9921874403953552,0.9960068012768547,0.4787445068359375,-0.8869171142578125,-0.1583099365234375,1.020235417142066
1784819896.682847,-0.04296875,-0.05615234375,0.9824218153953552,0.9849629549124607,0.9059906005859375,-0.7648468017578125,0.3299713134765625,1.2307276978384252
1784819896.690854,-0.0571289025247097,-0.0488281212747097,0.9926757216453552,0.9955164414890506,0.66375732421875,-0.885009765625,0.6351470947265625,1.2756284343982165
1784819896.701831,-0.0493163987994194,-0.05029296875,0.9736327528953552,0.9761773544837125,0.54168701171875,-0.522613525390625,1.1234283447265625,1.3522725174021215
1784819896.712808,-0.0424804650247097,-0.0585937462747097,0.9897460341453552,0.9923885474539089,0.35858154296875,-0.885009765625,1.3065338134765625,1.6182872470507441
1784819896.723784,-0.0468749962747097,-0.0546874962747097,0.9843749403953552,0.98700659106356,0.4787445068359375,-0.7648468017578125,0.8182525634765625,1.2180821772855497
1784819896.731772,-0.0351562462747097,-0.0532226525247097,0.9873046278953552,0.9893629468791925,0.17547607421875,-0.522613525390625,1.4324188232421875,1.534842153031697
1784819896.739762,-0.0478515625,-0.0595703125,0.9916991591453552,0.9946384350177926,0.4787445068359375,-0.8869171142578125,0.6351470947265625,1.1913144430957696
1784819896.747752,-0.0458984337747097,-0.0434570275247097,0.9755858778953552,0.9776313132327062,0.11444091796875,-1.316070556640625,0.5779266357421875,1.4419215062069703
1784819896.755741,-0.0478515625,-0.0400390625,0.9824218153953552,0.9844010980917666,-0.12969970703125,-0.827789306640625,0.3299713134765625,0.9005210813245887
1784819896.766123,-0.0419921875,-0.0654296875,0.9887694716453552,0.9918212822253906,-0.12969970703125,-0.885009765625,0.3948211669921875,0.977725960154829
1784819896.776504,-0.0312499962747097,-0.0512695349752903,0.9833983778953552,0.9852296671999721,0.2346038818359375,-0.2765655517578125,0.5168914794921875,0.6314303503659103
1784819896.786885,-0.05224609375,-0.05517578125,0.9965819716453552,0.9994746857010562,0.1735687255859375,-0.5817413330078125,0.0286102294921875,0.6077562227265375
1784819896.797827,-0.0600585900247097,-0.0527343787252903,0.9809569716453552,0.984207564061019,0.4177093505859375,0.0286102294921875,0.3948211669921875,0.5754853609811409
1784819896.808769,-0.0424804650247097,-0.0527343787252903,0.9809569716453552,0.9832914546704269,0.17547607421875,0.331878662109375,0.5168914794921875,0.6388365209960647
1784819896.81971,-0.037109375,-0.0556640625,0.9692382216453552,0.9715442984574328,0.05340576171875,0.514984130859375,0.3299713134765625,0.6139559415293525
1784819896.830081,-0.0463867150247097,-0.0454101525247097,0.9999999403953552,1.0021046303025523,-0.0095367431640625,0.5779266357421875,0.3299713134765625,0.6655608262870556
1784819896.840453,-0.0454101487994194,-0.060546875,1.00146484375,1.0043205857461366,-0.0095367431640625,0.3948211669921875,-0.0934600830078125,0.4058441702070849
1784819896.850824,-0.0488281175494194,-0.0546875,0.9902343153953552,0.9929445639642617,-0.0095367431640625,0.3948211669921875,0.1468658447265625,0.42136003574437014
1784819896.858815,-0.0590820237994194,-0.046875,0.9951171278953552,0.9979709662069012,-0.00762939453125,0.148773193359375,-0.0934600830078125,0.17585919890380103
1784819896.866809,-0.0541992112994194,-0.04443359375,0.9902343153953552,0.9927113871340083,0.1125335693359375,0.2117156982421875,0.3948211669921875,0.4619210917621494
1784819896.874802,-0.0502929650247097,-0.0341796837747097,0.9980468153953552,0.9998975341677396,0.1125335693359375,-0.2155303955078125,0.1468658447265625,0.28405410041484547
1784819896.882794,-0.0419921837747097,-0.0576171912252903,0.9868163466453552,0.9893884910536136,-0.00762939453125,-0.034332275390625,0.2727508544921875,0.2750089842543869
1784819896.893587,-0.0590820237994194,-0.0419921875,0.9985350966453552,1.001162508576814,0.05340576171875,-0.034332275390625,0.3948211669921875,0.39989327879239284
1784819896.904381,-0.0537109300494194,-0.05517578125,0.9936522841453552,0.9966313724896498,0.29754638671875,-0.034332275390625,0.3948211669921875,0.4955767461130056
1784819896.915174,-0.0571289025247097,-0.0673828125,0.9843749403953552,0.9883310063953509,0.0553131103515625,-0.2155303955078125,0.3948211669921875,0.4532070668795788
1784819896.92309,-0.0576171837747097,-0.0493164025247097,0.9873046278953552,0.9902132475824051,0.2346038818359375,-0.2155303955078125,0.8182525634765625,0.8780829063341403
1784819896.931006,-0.04248046875,-0.046875,0.9887694716453552,0.9907910596629618,0.0553131103515625,-0.0934600830078125,0.6351470947265625,0.6443649270655444
1784819896.938924,-0.0410156212747097,-0.0454101525247097,0.9804686903953552,0.9823763107824062,-0.12969970703125,-0.213623046875,0.6351470947265625,0.6825457142930014
1784819896.946841,-0.0463867150247097,-0.0590820275247097,0.9897460341453552,0.9925923762621154,-0.00762939453125,-0.213623046875,0.8831024169921875,0.9086049156341359
1784819896.957536,-0.0468749962747097,-0.0498046837747097,1.00341796875,1.0057461865759316,-0.12969970703125,-0.339508056640625,0.5779266357421875,0.6827055960135152
1784819896.968231,-0.0551757775247097,-0.064453125,0.9921874403953552,0.9958084598084154,-0.00762939453125,-0.034332275390625,0.4520416259765625,0.4534077021952159
1784819896.978925,-0.0581054612994194,-0.0458984375,1.00537109375,1.00809421551055,0.1125335693359375,-0.2155303955078125,0.6351470947265625,0.680094837177017
1784819896.989553,-0.05224609375,-0.05224609375,0.9887694716453552,0.9915262864302199,0.17547607421875,-0.213623046875,0.6351470947265625,0.692703753937407
1784819897.00018,-0.0502929650247097,-0.0551757775247097,0.9824218153953552,0.9852544707440501,-0.06866455078125,-0.034332275390625,0.4520416259765625,0.4585140753379584
1784819897.010807,-0.0498046800494194,-0.060546875,0.9838866591453552,0.9870052625347542,0.41961669921875,-0.034332275390625,0.4520416259765625,0.6177366032641024
1784819897.018796,-0.0512695275247097,-0.0468750037252903,0.9951171278953552,0.9975389359105507,-0.00762939453125,-0.156402587890625,0.4520416259765625,0.4783948251970673
1784819897.026788,-0.0483398362994194,-0.05078125,0.9809569716453552,0.9834592291216975,-0.1926422119140625,0.0896453857421875,0.0896453857421875,0.2306157240538332
1784819897.034779,-0.0566406212747097,-0.0488281212747097,0.9921874403953552,0.9950016393372875,-0.00762939453125,-0.213623046875,0.0896453857421875,0.23179583473811066
1784819897.04277,-0.0532226487994194,-0.044921875,0.9843749403953552,0.9868356745056904,-0.61798095703125,0.148773193359375,0.4520416259765625,0.7799843318497751
1784819897.050778,-0.0478515587747097,-0.0483398400247097,0.9770507216453552,0.97941545039809,-0.4329681396484375,0.0896453857421875,0.1468658447265625,0.46590479873332624
1784819897.058785,-0.0444335900247097,-0.0581054650247097,0.9824218153953552,0.9851412144220376,-0.25177001953125,-0.034332275390625,-0.0934600830078125,0.2707427468725449
1784819897.066793,-0.04296875,-0.03759765625,0.9946288466453552,0.9962662494590114,-0.2536773681640625,0.0286102294921875,0.3299713134765625,0.41719518222013163
1784819897.074802,-0.0468749962747097,-0.06396484375,0.9926757216453552,0.995838267418883,-0.4329681396484375,-0.2155303955078125,0.3299713134765625,0.5854876848028752
1784819897.086795,-0.0483398362994194,-0.05712890625,0.9770507216453552,0.9799125289384177,-0.25177001953125,-0.034332275390625,0.1468658447265625,0.2934900751567427
1784819897.098788,-0.052734375,-0.0625,0.9907225966453552,0.9940917602567461,0.05340576171875,-0.461578369140625,0.2727508544921875,0.5387947613604808
1784819897.110782,-0.05224609375,-0.05615234375,1.0029296875,1.0058581898506367,0.2346038818359375,-0.0934600830078125,0.2117156982421875,0.32954105263304406
1784819897.122777,-0.0454101525247097,-0.0527343787252903,0.9990233778953552,1.001444310100819,0.35858154296875,-0.156402587890625,0.3299713134765625,0.5117846814571358
1784819897.130788,-0.0488281175494194,-0.03955078125,0.9809569716453552,0.9829674610995683,0.4787445068359375,-0.3986358642578125,0.2117156982421875,0.6579744614955318
1784819897.138798,-0.0439453050494194,-0.05224609375,0.9814452528953552,0.9838168673990337,0.4787445068359375,-0.2765655517578125,0.3299713134765625,0.6438679017951867
1784819897.14681,-0.0522460900247097,-0.0493164025247097,0.9755858778953552,0.9782277682777668,0.2956390380859375,0.2117156982421875,0.3948211669921875,0.5367585412712388
1784819897.154821,-0.0546874962747097,-0.06396484375,0.9814452528953552,0.9850467034184653,-0.12969970703125,0.148773193359375,0.5779266357421875,0.6107001501282123
1784819897.165545,-0.0541992112994194,-0.06103515625,0.9926757216453552,0.996026070516263,0.29754638671875,-0.034332275390625,0.6999969482421875,0.76138576617327
1784819897.176269,-0.0454101525247097,-0.0483398400247097,1.00146484375,1.0036586348720085,-0.1277923583984375,-0.0934600830078125,0.7610321044921875,0.7773258892180741
1784819897.186993,-0.0419921837747097,-0.0527343787252903,1.0009765625,1.0032439069697996,0.2346038818359375,0.1506805419921875,0.7610321044921875,0.8105019871507766
1784819897.195029,-0.033203125,-0.05126953125,0.9877929091453552,0.9896796672167234,-0.0705718994140625,0.2117156982421875,0.8182525634765625,0.8481398395931248
1784819897.203066,-0.0463867150247097,-0.0498046837747097,0.9868163466453552,0.9891606218724885,0.2346038818359375,1.0662078857421875,0.6351470947265625,1.2630320933891226
1784819897.211102,-0.0424804650247097,-0.0585937462747097,0.9975585341453552,1.0001804067554265,0.05340576171875,1.308441162109375,0.2727508544921875,1.3376335367779586
1784819897.219137,-0.0449218712747097,-0.0444335900247097,0.9921874403953552,0.9941972818910703,-0.06866455078125,1.125335693359375,0.1468658447265625,1.1369541853697813
1784819897.22868,-0.0449218675494194,-0.0458984375,0.9877929091453552,0.9898785138121309,-0.4978179931640625,0.3948211669921875,-0.5817413330078125,0.8614693765611602
1784819897.238222,-0.0410156212747097,-0.0507812462747097,0.9736327528953552,0.9758185044732196,-0.80108642578125,0.331878662109375,-0.0362396240234375,0.8678687794153256
1784819897.247763,-0.0424804650247097,-0.0429687537252903,0.9951171278953552,0.9969498492582869,-0.86212158203125,0.453948974609375,-0.2765655517578125,1.0128236757560871
1784819897.257306,-0.0390624925494194,-0.05517578125,0.9819335341453552,0.9842579492388714,-0.5588531494140625,0.2727508544921875,-0.1583099365234375,0.6416945591465536
1784819897.266847,-0.04150390625,-0.04150390625,0.9892577528953552,0.9909975025859477,-0.8640289306640625,0.2117156982421875,-0.1583099365234375,0.9035660274206391
1784819897.276448,-0.0454101487994194,-0.0556640625,0.9902343153953552,0.9928366274742774,-0.80108642578125,0.091552734375,-0.2765655517578125,0.8524141418123122
1784819897.286047,-0.0517578087747097,-0.0527343787252903,0.9965819716453552,0.9993174729170131,-0.55694580078125,0.148773193359375,-0.3414154052734375,0.6699899753192128
1784819897.295647,-0.0546874962747097,-0.0527343787252903,0.9833983778953552,0.9863285490117147,-0.49591064453125,0.274658203125,-0.2155303955078125,0.6064798820167142
1784819897.305248,-0.0590820237994194,-0.0517578125,0.9907225966453552,0.9938313841868426,-0.12969970703125,0.274658203125,0.0896453857421875,0.31669454957847226
1784819897.314847,-0.0595703050494194,-0.06005859375,0.9887694716453552,0.9923813400022913,-0.12969970703125,-0.156402587890625,-0.2155303955078125,0.29620454907146654
1784819897.324435,-0.0561523400247097,-0.0468750037252903,0.9814452528953552,0.9841672295374015,-0.00762939453125,0.026702880859375,0.2117156982421875,0.21352936189030405
1784819897.334022,-0.0566406212747097,-0.0585937462747097,0.9951171278953552,0.998448539140396,0.17547607421875,-0.461578369140625,0.0896453857421875,0.5018792072467327
1784819897.343609,-0.0576171837747097,-0.0439453087747097,0.9833983778953552,0.9860645514755355,0.17547607421875,-0.522613525390625,0.1468658447265625,0.5705140891263673
1784819897.353195,-0.0502929650247097,-0.0590820275247097,0.9853515028953552,0.988401564428923,0.4177093505859375,-0.4596710205078125,0.0896453857421875,0.6275466865871295
1784819897.362782,-0.0566406212747097,-0.0522460974752903,0.9877929091453552,0.9907939473158012,0.2346038818359375,-0.5817413330078125,0.3299713134765625,0.7087616155095061
1784819897.370816,-0.0488281175494194,-0.0576171875,0.9863280653953552,0.9892153344673617,-0.1277923583984375,-0.3986358642578125,0.2727508544921875,0.4996343340522409
1784819897.378849,-0.04638671875,-0.041015625,0.9897460341453552,0.9916810078230756,0.0553131103515625,-0.0934600830078125,-0.0362396240234375,0.11448859175459991
1784819897.386882,-0.0502929650247097,-0.0532226525247097,0.9897460341453552,0.9924511298694769,-0.6160736083984375,-0.0934600830078125,0.3299713134765625,0.7050975434635597
1784819897.394915,-0.0400390550494194,-0.05517578125,0.9868163466453552,0.9891683349017416,-0.1926422119140625,-0.0934600830078125,0.0286102294921875,0.21601933746441637
1784819897.405535,-0.0488281175494194,-0.0576171875,0.9853515028953552,0.9882416251185564,-0.2536773681640625,0.2117156982421875,0.2727508544921875,0.4284492649393166
1784819897.416155,-0.0493164025247097,-0.0488281212747097,0.9863280653953552,0.9887665778998302,-0.43487548828125,0.026702880859375,-0.4596710205078125,0.6333460201570223
1784819897.426775,-0.0566406212747097,-0.0551757775247097,0.9882811903953552,0.9914394775744517,-0.2536773681640625,-0.1544952392578125,-0.2765655517578125,0.4058441702070849
1784819897.434782,-0.0546874962747097,-0.0527343787252903,1.00390625,1.006776735794685,-0.31280517578125,-0.396728515625,-0.2765655517578125,0.5759592846066967
1784819897.442789,-0.04248046875,-0.06640625,0.9868163466453552,0.9899600407444575,-0.31280517578125,-0.396728515625,0.0286102294921875,0.506022863452977
1784819897.450795,-0.04296875,-0.041015625,0.9921874403953552,0.9939640395150067,-0.2536773681640625,-0.3376007080078125,0.3948211669921875,0.5781091584390394
1784819897.458802,-0.0585937425494194,-0.05615234375,0.9902343153953552,0.9935543828905762,-0.19073486328125,0.148773193359375,0.0896453857421875,0.2579719874678813
1784819897.469618,-0.04736328125,-0.0556640625,0.9970702528953552,0.9997453963252735,-0.0705718994140625,0.2727508544921875,0.3948211669921875,0.4850331695030762
1784819897.480433,-0.04736328125,-0.060546875,0.9868163466453552,0.9898058933394558,0.2346038818359375,0.6999969482421875,0.1468658447265625,0.752731217147338
1784819897.491248,-0.0405273400247097,-0.06689453125,0.9926757216453552,0.9957521940446641,-0.0705718994140625,0.3337860107421875,0.1468658447265625,0.37143380339077786
1784819897.499131,-0.0600585900247097,-0.0625,0.9877929091453552,0.9915886826671633,-0.0705718994140625,0.3337860107421875,0.3299713134765625,0.4746309742015792
1784819897.507015,-0.0454101525247097,-0.0522460974752903,0.9863280653953552,0.9887541601633133,-0.1926422119140625,0.2727508544921875,0.2117156982421875,0.39538283639978355
1784819897.514899,-0.0507812462747097,-0.0449218712747097,0.9843749403953552,0.9867070146555124,0.05340576171875,0.148773193359375,0.4520416259765625,0.4788812692752143
1784819897.522783,-0.0590820237994194,-0.05224609375,0.9814452528953552,0.984609122585809,-0.2536773681640625,0.0896453857421875,0.2727508544921875,0.3831207785147255
1784819897.533514,-0.0532226487994194,-0.0478515625,0.9819335341453552,0.9845384136020825,-0.12969970703125,-0.461578369140625,0.0896453857421875,0.4877631597890279
1784819897.544245,-0.04736328125,-0.05029296875,0.9975585341453552,0.9999478447212559,-0.3757476806640625,-0.2765655517578125,-0.0362396240234375,0.4679616803680464
1784819897.554976,-0.0458984337747097,-0.0395507775247097,0.9858397841453552,0.9876998583727452,0.0553131103515625,-0.2155303955078125,0.2727508544921875,0.35200272753309264
1784819897.565595,-0.0493164025247097,-0.0488281212747097,0.9809569716453552,0.9834088026882936,0.2346038818359375,0.0286102294921875,0.0286102294921875,0.23806736827142394
1784819897.576214,-0.0512695275247097,-0.0488281212747097,0.9926757216453552,0.9951973865640682,-0.12969970703125,0.274658203125,0.2727508544921875,0.40823053679760934
1784819897.586833,-0.0444335862994194,-0.060546875,0.9916991591453552,0.9945388327829628,0.2346038818359375,0.0896453857421875,0.1468658447265625,0.2909378849593206
1784819897.597488,-0.0605468675494194,-0.04150390625,0.9873046278953552,0.9900297599909013,0.4787445068359375,0.2727508544921875,0.3299713134765625,0.6422385843043467
1784819897.608144,-0.0507812462747097,-0.0556640587747097,0.9956054091453552,0.9984524791556066,0.2346038818359375,0.3337860107421875,0.0896453857421875,0.4177180598496309
1784819897.6188,-0.0537109300494194,-0.0576171875,0.9819335341453552,0.9850878487634345,0.1125335693359375,0.2117156982421875,0.2727508544921875,0.36315336944035326
1784819897.626802,-0.0463867150247097,-0.0473632849752903,0.9829100966453552,0.9851432719060795,-0.0705718994140625,0.0896453857421875,-0.3414154052734375,0.35997384228551904
1784819897.634802,-0.0512695275247097,-0.0654296875,0.9863280653953552,0.9898245607406894,-0.49591064453125,-0.156402587890625,-0.7648468017578125,0.924867432131459
1784819897.642803,-0.0551757775247097,-0.0576171912252903,0.9843749403953552,0.9876022126486489,-0.2536773681640625,-0.2155303955078125,-0.5817413330078125,0.6702451320495405
1784819897.650805,-0.0566406212747097,-0.0498046837747097,0.9863280653953552,0.9892076218321552,-0.61798095703125,-0.156402587890625,-0.3986358642578125,0.7518462509215016
1784819897.661462,-0.0522460900247097,-0.0581054650247097,0.9863280653953552,0.9894184916278611,0.05340576171875,-0.034332275390625,-0.4596710205078125,0.4640348344822309
1784819897.672118,-0.0517578087747097,-0.0468750037252903,0.9892577528953552,0.9917192336578802,0.17547607421875,-0.156402587890625,-0.4596710205078125,0.5162858406123518
1784819897.682775,-0.06640625,-0.0449218712747097,0.9946288466453552,0.9978548527400934,-0.0705718994140625,-0.4596710205078125,-0.3414154052734375,0.5769248816263933
1784819897.690988,-0.0517578087747097,-0.0532226525247097,0.9926757216453552,0.9954479443220786,0.05340576171875,-0.461578369140625,-0.4596710205078125,0.6536086086779861
1784819897.699199,-0.0595703050494194,-0.03564453125,0.9882811903953552,0.990716339393357,0.2346038818359375,-0.4596710205078125,-0.2155303955078125,0.5592761212987181
1784819897.707412,-0.05712890625,-0.046875,0.9770507216453552,0.9798413597220882,0.29754638671875,-0.156402587890625,0.2117156982421875,0.3972645952390492
1784819897.715624,-0.05712890625,-0.05712890625,0.9824218153953552,0.9857383259381508,0.11444091796875,-0.339508056640625,0.3299713134765625,0.4870764949644685
1784819897.726799,-0.0590820275247097,-0.0385742150247097,0.9931640028953552,0.9956673102439029,-0.1277923583984375,-0.3986358642578125,0.6999969482421875,0.8156207247771378
1784819897.737973,-0.0483398362994194,-0.0498046875,0.9916991591453552,0.994124976509509,-0.12969970703125,-0.339508056640625,0.6351470947265625,0.7317783588406253
1784819897.749149,-0.0493163987994194,-0.04736328125,0.9765624403953552,0.978953312263788,-0.19073486328125,0.148773193359375,0.7610321044921875,0.7985506340872011
1784819897.759215,-0.0419921837747097,-0.0488281212747097,0.9951171278953552,0.9971988904707463,-0.37384033203125,0.148773193359375,0.5779266357421875,0.704194045143712
1784819897.769282,-0.0361328087747097,-0.0419921912252903,0.9897460341453552,0.9912951811142379,-0.00762939453125,0.148773193359375,0.1468658447265625,0.20919189054670884
1784819897.779348,-0.0346679612994194,-0.0498046875,0.9892577528953552,0.9911171858570501,-0.31280517578125,0.148773193359375,-0.0362396240234375,0.3482726681886547
1784819897.787436,-0.046875,-0.04541015625,0.9912108778953552,0.9933571122077549,-0.12969970703125,0.209808349609375,0.2727508544921875,0.3677425542360039
1784819897.795525,-0.0439453050494194,-0.05615234375,0.9887694716453552,0.9913371493101323,-0.1926422119140625,0.2727508544921875,-0.0934600830078125,0.34675472246703176
1784819897.803613,-0.0498046837747097,-0.0546874962747097,0.9804686903953552,0.9832548406289583,-0.19073486328125,0.637054443359375,-0.0362396240234375,0.6659815779916141
1784819897.811701,-0.0556640587747097,-0.0434570275247097,0.9858397841453552,0.9883658637793589,-0.00762939453125,0.209808349609375,-0.3414154052734375,0.40080198375849985
1784819897.822052,-0.0488281175494194,-0.03955078125,0.9951171278953552,0.9970990660870193,-0.0705718994140625,0.0286102294921875,-0.0362396240234375,0.08433414829038294
1784819897.832402,-0.0493163987994194,-0.04150390625,0.9814452528953552,0.9835595893769629,-0.12969970703125,0.026702880859375,-0.2155303955078125,0.252959303521211
1784819897.842754,-0.0590820237994194,-0.04150390625,0.9887694716453552,0.9914022028561762,0.2956390380859375,0.3948211669921875,0.1468658447265625,0.514641400484549
1784819897.852369,-0.0532226487994194,-0.04833984375,0.9916991591453552,0.994302073360307,0.11444091796875,0.148773193359375,0.7610321044921875,0.7838367501180867
1784819897.861984,-0.0561523400247097,-0.0410156212747097,0.9819335341453552,0.9843926208368227,-0.00762939453125,0.148773193359375,0.2117156982421875,0.2588729564968818
1784819897.871601,-0.0605468712747097,-0.0566406287252903,0.9824218153953552,0.9859141482950013,-0.37384033203125,0.148773193359375,0.3299713134765625,0.5203567282480636
1784819897.881217,-0.0458984337747097,-0.0517578162252903,0.9877929091453552,0.9902122848769481,-0.3757476806640625,0.0896453857421875,0.2727508544921875,0.47288015747703593
1784819897.890833,-0.0537109300494194,-0.041015625,0.9848632216453552,0.9871791685659611,-0.2536773681640625,0.0896453857421875,0.2117156982421875,0.3423624383393831
1784819897.900411,-0.0405273362994194,-0.056640625,1.00146484375,1.0038836878120536,-0.3757476806640625,-0.0934600830078125,0.1468658447265625,0.41411433564596173
1784819897.909989,-0.0483398362994194,-0.05224609375,1.0009765625,1.0035040970319478,-0.3757476806640625,-0.0934600830078125,0.2117156982421875,0.4412988143224798
1784819897.919567,-0.0532226487994194,-0.0556640625,0.9858397841453552,0.9888433739490753,-0.19073486328125,-0.156402587890625,0.2727508544921875,0.3677425542360039
1784819897.929145,-0.0581054612994194,-0.0517578125,0.9877929091453552,0.9908531410584757,-0.31280517578125,-0.522613525390625,-0.0362396240234375,0.610151854267539
1784819897.938723,-0.0546874962747097,-0.0493164025247097,0.9853515028953552,0.9880993948307583,-0.1277923583984375,-0.3986358642578125,-0.0362396240234375,0.4201841851937885
1784819897.946758,-0.0517578087747097,-0.0478515662252903,0.9941405653953552,0.9966363965478932,-0.12969970703125,-0.461578369140625,-0.0934600830078125,0.48847865048366074
1784819897.954796,-0.0551757775247097,-0.0498046837747097,0.9926757216453552,0.9954546505469156,-0.3757476806640625,-0.3986358642578125,-0.0934600830078125,0.55572624457805
1784819897.962834,-0.0458984337747097,-0.0444335900247097,0.9965819716453552,0.9986273761288537,-0.31280517578125,-0.522613525390625,-0.1583099365234375,0.6293123317708076
1784819897.970871,-0.0444335862994194,-0.05078125,0.9877929091453552,0.9900948996438849,-0.00762939453125,-0.644683837890625,-0.3414154052734375,0.729547762285873
1784819897.978909,-0.0581054612994194,-0.0517578125,0.9936522841453552,0.9966945257072927,-0.1926422119140625,-0.7038116455078125,-0.0934600830078125,0.7356606835215435
1784819897.986948,-0.06201171875,-0.0361328125,0.9853515028953552,0.9879618503057821,-0.00762939453125,-0.461578369140625,-0.0934600830078125,0.4710069910683489
1784819897.996531,-0.0512695275247097,-0.0537109337747097,1.00048828125,1.00323986652153,-0.12969970703125,-0.278472900390625,0.0286102294921875,0.3085250646018159
1784819898.006114,-0.0390624925494194,-0.06201171875,0.9887694716453552,0.991481920987134,-0.00762939453125,-0.461578369140625,0.5779266357421875,0.739670193275162
1784819898.015697,-0.0449218675494194,-0.0703125,0.9819335341453552,0.9854721139228472,-0.1926422119140625,-0.3986358642578125,0.3948211669921875,0.5932160887811359
1784819898.02528,-0.0468749962747097,-0.0478515662252903,0.9970702528953552,0.9993178307599515,-0.12969970703125,-0.213623046875,0.1468658447265625,0.2898730696484192
1784819898.034863,-0.0419921875,-0.05615234375,0.9853515028953552,0.987843111925061,-0.19073486328125,-0.156402587890625,0.3948211669921875,0.4655376584927095
1784819898.044443,-0.0444335900247097,-0.0581054650247097,1.00390625,1.0065676071567593,-0.19073486328125,-0.034332275390625,0.2117156982421875,0.28702269960160265
1784819898.054024,-0.0390624925494194,-0.05419921875,0.9877929091453552,0.9900496275415328,0.17547607421875,-0.034332275390625,0.2727508544921875,0.32613430727683407
1784819898.063607,-0.033203125,-0.06103515625,0.9809569716453552,0.9834146216260229,-0.12969970703125,0.148773193359375,-0.1583099365234375,0.2530168236864752
1784819898.073189,-0.0380859375,-0.0595703125,0.9833983778953552,0.9859368795282066,-0.0705718994140625,0.8831024169921875,-0.3986358642578125,0.9714735324016425
1784819898.08277,-0.0541992112994194,-0.05712890625,0.9902343153953552,0.9933605920416353,-0.12969970703125,0.946044921875,-0.9479522705078125,1.3455246245871473
1784819898.090816,-0.05712890625,-0.046875,0.9887694716453552,0.991527128026337,-0.12969970703125,0.514984130859375,-0.9479522705078125,1.0865745147949564
1784819898.098861,-0.0351562462747097,-0.0590820275247097,0.9912108778953552,0.9935922967126101,-0.5588531494140625,0.2727508544921875,-0.7648468017578125,0.9857487009351772
1784819898.106906,-0.0625,-0.046875,0.9790038466453552,0.9821161068689395,-0.5588531494140625,0.0286102294921875,-1.0700225830078125,1.2075113730264917
1784819898.114951,-0.0639648362994194,-0.0556640625,0.9877929091453552,0.9914256500084409,-0.61798095703125,0.148773193359375,-0.6427764892578125,0.903988684364027
1784819898.123271,-0.0610351525247097,-0.0512695349752903,0.9863280653953552,0.9895437876349087,-0.8640289306640625,0.2117156982421875,-0.3986358642578125,0.9748231030188161
1784819898.131591,-0.0532226487994194,-0.04541015625,0.9912108778953552,0.9936768776085899,-0.6809234619140625,0.2727508544921875,-0.4596710205078125,0.8656484486822257
1784819898.139911,-0.0649413987994194,-0.0458984375,1.0029296875,1.0060775367295576,-0.6809234619140625,0.2117156982421875,-0.0362396240234375,0.7139983250796663
1784819898.148231,-0.06689453125,-0.0488281212747097,0.9814452528953552,0.9849334232166166,-0.49591064453125,-0.034332275390625,0.1468658447265625,0.5183393182464014
1784819898.158422,-0.0581054612994194,-0.03955078125,0.9916991591453552,0.9941869699306606,-0.3757476806640625,0.0286102294921875,0.1468658447265625,0.40444337193637464
1784819898.168615,-0.0556640587747097,-0.0541992150247097,0.9912108778953552,0.9942509978906985,-0.31280517578125,-0.034332275390625,0.6351470947265625,0.7088283396342371
1784819898.178807,-0.0581054612994194,-0.04248046875,0.9926757216453552,0.9952818310419239,-0.06866455078125,-0.034332275390625,0.7610321044921875,0.7648943650827194
1784819898.18951,-0.0463867150247097,-0.0502929650247097,0.9941405653953552,0.9964921341517738,-0.19073486328125,-0.034332275390625,0.9441375732421875,0.96382272769014
1784819898.200212,-0.0537109337747097,-0.0532226525247097,0.9931640028953552,0.9960382782784216,-0.31280517578125,-0.278472900390625,0.6999969482421875,0.8157143873905139
1784819898.210916,-0.0371093712747097,-0.0620117224752903,0.9975585341453552,1.0001727791771713,0.05340576171875,-0.339508056640625,0.7610321044921875,0.8350375799785669
1784819898.218893,-0.0488281175494194,-0.05615234375,0.9809569716453552,0.9837753051340862,-0.2536773681640625,-0.2765655517578125,0.6999969482421875,0.7942521256415523
1784819898.226873,-0.0371093712747097,-0.0590820275247097,0.9995116591453552,1.0019437849402208,-0.1926422119140625,-0.2765655517578125,0.5779266357421875,0.669028192627582
1784819898.234853,-0.0478515625,-0.0517578125,0.9916991591453552,0.9942011192098312,0.41961669921875,0.148773193359375,0.3948211669921875,0.5950591493546316
1784819898.242833,-0.0463867150247097,-0.0615234412252903,0.9926757216453552,0.9956615637329344,-0.1277923583984375,0.0896453857421875,0.0896453857421875,0.18000965872631916
1784819898.252434,-0.0449218712747097,-0.0537109337747097,0.9882811903953552,0.9907585731221472,0.05340576171875,-0.034332275390625,-0.3986358642578125,0.4036600460670225
1784819898.262038,-0.0478515625,-0.056640625,0.9804686903953552,0.9832684197510184,-0.1277923583984375,0.3948211669921875,-0.5817413330078125,0.7145891262115693
1784819898.271643,-0.0546874962747097,-0.0478515662252903,0.9863280653953552,0.9890012877775002,-0.19073486328125,0.453948974609375,-0.5817413330078125,0.7621498790589202
1784819898.281246,-0.0517578087747097,-0.0493164025247097,1.00341796875,1.0059615292532387,-0.19073486328125,0.331878662109375,-0.8296966552734375,0.9137394454691967
1784819898.290851,-0.0561523400247097,-0.0454101525247097,0.9755858778953552,0.9782550650987804,-0.31280517578125,0.579833984375,-0.8869171142578125,1.1048422941737577
1784819898.298841,-0.0556640587747097,-0.0390624962747097,0.9960936903953552,0.9984122425631228,-0.06866455078125,0.148773193359375,-0.5245208740234375,0.5495183626437316
1784819898.306831,-0.0585937425494194,-0.0458984375,0.9907225966453552,0.9935145478223276,-0.12969970703125,-0.213623046875,-0.3414154052734375,0.4231090865464557
1784819898.314821,-0.0595703050494194,-0.0615234375,0.9804686903953552,0.9842015075435925,0.17547607421875,-0.213623046875,-0.2765655517578125,0.39104368451425725
1784819898.322811,-0.0541992112994194,-0.037109375,0.9921874403953552,0.9943593802527617,0.2346038818359375,0.1506805419921875,0.2117156982421875,0.3500959068451485
1784819898.332412,-0.0512695275247097,-0.0434570275247097,1.00390625,1.0061534855492738,0.17547607421875,0.209808349609375,0.1468658447265625,0.31045285074593976
1784819898.342016,-0.052734375,-0.06005859375,0.9941405653953552,0.9973481903299694,0.29754638671875,0.453948974609375,-0.0934600830078125,0.5507615735634741
1784819898.351619,-0.0541992112994194,-0.0546875,0.9868163466453552,0.989815527847596,0.11444091796875,0.331878662109375,0.3299713134765625,0.4817896198409496
1784819898.361224,-0.0522460900247097,-0.0585937462747097,0.9794921278953552,0.982633049329375,0.17547607421875,0.091552734375,0.2727508544921875,0.3369967127747421
1784819898.370827,-0.0537109300494194,-0.05419921875,0.9921874403953552,0.9951172474629161,0.17547607421875,0.209808349609375,0.1468658447265625,0.31045285074593976
1784819898.380426,-0.0463867150247097,-0.0585937462747097,0.9902343153953552,0.9930503279390207,-0.00762939453125,0.148773193359375,-0.0362396240234375,0.15331334277426592
1784819898.390025,-0.0463867150247097,-0.0483398400247097,0.9799804091453552,0.9822678197788504,0.0553131103515625,0.2117156982421875,-0.0934600830078125,0.23794508646905976
1784819898.399624,-0.0434570275247097,-0.0532226525247097,0.9790038466453552,0.9814120927161288,-0.1926422119140625,-0.0934600830078125,-0.2765655517578125,0.3497632246907514
1784819898.409224,-0.05224609375,-0.05712890625,0.9931640028953552,0.996176742796468,-0.0095367431640625,0.0896453857421875,-0.3986358642578125,0.40870257758866163
1784819898.418823,-0.052734375,-0.05517578125,1.005859375,1.0087508926482192,-0.2536773681640625,0.0286102294921875,-0.7038116455078125,0.748679894683072
1784819898.428422,-0.04248046875,-0.05078125,0.9951171278953552,0.997317112962313,-0.12969970703125,0.331878662109375,-0.6427764892578125,0.7349333816817001
1784819898.438024,-0.04736328125,-0.04541015625,0.9790038466453552,0.9812002315775401,0.2956390380859375,0.3948211669921875,-0.8296966552734375,0.9652371390064622
1784819898.447625,-0.0581054612994194,-0.04150390625,0.9936522841453552,0.996214675988117,0.35858154296875,0.514984130859375,-0.6427764892578125,0.8983045102510808
1784819898.457227,-0.0444335900247097,-0.0532226525247097,0.9916991591453552,0.9941198201996853,0.2346038818359375,0.6999969482421875,-0.5817413330078125,0.9399242987871804
1784819898.46683,-0.0624999962747097,-0.06396484375,0.9843749403953552,0.988428942336605,0.54168701171875,0.453948974609375,-0.5817413330078125,0.9153783200094914
1784819898.474838,-0.0556640587747097,-0.0551757775247097,0.9775390028953552,0.9806759689348852,0.3604888916015625,0.5779266357421875,-0.0362396240234375,0.6821031795980476
1784819898.482847,-0.0566406212747097,-0.0546874962747097,0.9931640028953552,0.9962798898273049,-0.12969970703125,0.514984130859375,-0.2765655517578125,0.5987647062578766
1784819898.490856,-0.0551757737994194,-0.0556640625,0.9858397841453552,0.9889504203306296,-0.1926422119140625,0.3948211669921875,-0.2155303955078125,0.48933437147207376
1784819898.498866,-0.0517578087747097,-0.0468750037252903,0.9838866591453552,0.9863615436479738,0.05340576171875,0.514984130859375,-0.3414154052734375,0.6201816744952815
1784819898.506875,-0.0625,-0.04638671875,0.9824218153953552,0.9855001781030265,-0.3757476806640625,0.2727508544921875,-0.2155303955078125,0.5118912966034828
1784819898.514884,-0.0400390587747097,-0.0439453087747097,0.9946288466453552,0.9964039637466015,-0.06866455078125,0.148773193359375,-0.2765655517578125,0.32146039882921834
1784819898.522867,-0.0498046800494194,-0.05224609375,0.9995116591453552,1.0021146228024316,-0.00762939453125,-0.034332275390625,-0.2765655517578125,0.27879278544021624
1784819898.530852,-0.0600585862994194,-0.0517578125,0.9892577528953552,0.9924297489528604,-0.12969970703125,-0.034332275390625,-0.0362396240234375,0.13897492394978997
1784819898.538836,-0.0556640587747097,-0.0517578162252903,0.9975585341453552,1.0004500927212288,-0.00762939453125,-0.278472900390625,-0.0934600830078125,0.2938369463302864
1784819898.54682,-0.04736328125,-0.05078125,0.9907225966453552,0.9931532002999559,0.0553131103515625,-0.2155303955078125,0.0286102294921875,0.22434668884588835
1784819898.554803,-0.0439453050494194,-0.05126953125,0.9941405653953552,0.9964312411978449,0.6008148193359375,-0.0934600830078125,0.1468658447265625,0.6255260271137798
1784819898.562788,-0.0507812462747097,-0.0590820275247097,0.9873046278953552,0.9903735907288871,0.2346038818359375,-0.1544952392578125,0.1468658447265625,0.3169816030514484
1784819898.574811,-0.04638671875,-0.04638671875,0.9721679091453552,0.9743787245854841,0.60272216796875,-0.339508056640625,-0.1583099365234375,0.709649045857809
1784819898.586834,-0.0595703050494194,-0.05078125,0.9809569716453552,0.9840751682746951,0.0553131103515625,0.0896453857421875,0.3948211669921875,0.40863136109053416
1784819898.598856,-0.0498046800494194,-0.041015625,0.9843749403953552,0.9864871063158022,-0.0095367431640625,-0.3986358642578125,0.2727508544921875,0.4831092323367137
1784819898.610879,-0.0556640587747097,-0.0581054650247097,0.9873046278953552,0.9905781951812779,-0.31280517578125,0.026702880859375,0.2727508544921875,0.4158763644016658
1784819898.618863,-0.0507812462747097,-0.0576171912252903,0.9731444716453552,0.9761703941381453,-0.0705718994140625,0.0286102294921875,0.2727508544921875,0.28318186178624266
1784819898.626844,-0.0454101525247097,-0.0439453087747097,0.9902343153953552,0.9922485936004797,-0.5588531494140625,0.3337860107421875,0.0286102294921875,0.6515738552219509
1784819898.634825,-0.0356445275247097,-0.0488281212747097,0.9868163466453552,0.9886663844675632,-0.55694580078125,0.148773193359375,0.3299713134765625,0.6642312517396797
1784819898.642806,-0.0439453050494194,-0.0546875,0.9956054091453552,0.9980741671898069,-0.3757476806640625,0.2117156982421875,0.2727508544921875,0.5102968597128712
1784819898.65351,-0.0522460900247097,-0.0488281212747097,0.9921874403953552,0.9947611553676462,-0.31280517578125,-0.034332275390625,0.3948211669921875,0.504885667289248
1784819898.664213,-0.0478515587747097,-0.0585937462747097,0.9926757216453552,0.9955541608188885,-0.31280517578125,0.091552734375,-0.0934600830078125,0.3390630741955031
1784819898.674918,-0.0488281175494194,-0.0478515625,0.9980468153953552,1.0003856270548481,0.05340576171875,0.331878662109375,0.2727508544921875,0.4328841073249133
1784819898.685572,-0.0424804650247097,-0.0527343787252903,0.9843749403953552,0.9867013367208017,0.17547607421875,0.453948974609375,0.1468658447265625,0.5083611910043626
1784819898.696228,-0.0463867150247097,-0.0371093787252903,0.9741210341453552,0.9759306443003913,0.11444091796875,-0.156402587890625,0.1468658447265625,0.24316264012315217
1784819898.706884,-0.0571289025247097,-0.0576171912252903,0.9799804091453552,0.9833336435498723,-0.12969970703125,0.209808349609375,0.0286102294921875,0.2483145239437223
1784819898.714859,-0.0507812462747097,-0.0517578162252903,0.9921874403953552,0.9948334148951322,-0.3757476806640625,0.0896453857421875,0.2117156982421875,0.4405066986907973
1784819898.722837,-0.064453125,-0.0395507775247097,0.9960936903953552,0.9989600138997119,-0.37384033203125,0.331878662109375,0.0896453857421875,0.5078743303235649
1784819898.730815,-0.0581054612994194,-0.041015625,0.9916991591453552,0.9942463217817622,-0.0705718994140625,-0.0934600830078125,0.0896453857421875,0.14748381364611288
1784819898.738793,-0.052734375,-0.0517578125,0.9965819716453552,0.9993174729133727,-0.3757476806640625,-0.2155303955078125,0.3299713134765625,0.5445371783722616
1784819898.749461,-0.052734375,-0.05615234375,0.9995116591453552,1.0024757138119404,-0.43487548828125,-0.156402587890625,0.3299713134765625,0.567855199433965
1784819898.760129,-0.0585937425494194,-0.0556640625,0.9843749403953552,0.9876870647114453,-0.37384033203125,-0.156402587890625,0.6351470947265625,0.7534123673604733
1784819898.770797,-0.0541992112994194,-0.05029296875,0.9833983778953552,0.9861740753327394,-0.49591064453125,-0.339508056640625,0.4520416259765625,0.7520204249213103
1784819898.781471,-0.0507812462747097,-0.0454101525247097,0.9902343153953552,0.9925748416678906,-0.37384033203125,-0.339508056640625,0.6351470947265625,0.8114395518562809
1784819898.792146,-0.052734375,-0.0458984375,0.9921874403953552,0.9946474238391555,-0.25177001953125,-0.522613525390625,0.3948211669921875,0.7017099069851133
1784819898.802821,-0.0605468712747097,-0.0571289099752903,0.9736327528953552,0.9771849228711569,-0.31280517578125,-0.396728515625,0.8182525634765625,0.961653706248523
1784819898.813479,-0.0517578087747097,-0.0522460974752903,0.9843749403953552,0.987118305345877,-0.1926422119140625,-0.2155303955078125,0.3299713134765625,0.438686039117208
1784819898.82414,-0.0576171875,-0.04541015625,0.9755858778953552,0.978340241293851,-0.12969970703125,-0.213623046875,0.0896453857421875,0.2655053960751384
1784819898.834801,-0.0551757775247097,-0.0527343787252903,0.9794921278953552,0.9824612510088984,-0.31280517578125,-0.034332275390625,0.2117156982421875,0.37927472893829006
1784819898.842874,-0.0395507737994194,-0.0419921875,0.9916991591453552,0.9933754727034348,-0.2536773681640625,-0.1544952392578125,0.0286102294921875,0.2983949250633624
1784819898.850947,-0.0463867150247097,-0.0566406287252903,0.9775390028953552,0.9802766907025919,-0.31280517578125,-0.396728515625,0.0896453857421875,0.5131051435041557
1784819898.85902,-0.0541992112994194,-0.04443359375,0.9877929091453552,0.9902760878244324,-0.06866455078125,-0.339508056640625,0.1468658447265625,0.3762314678560679
1784819898.867092,-0.0561523400247097,-0.0478515662252903,0.9902343153953552,0.9929787797667037,-0.00762939453125,-0.034332275390625,0.0286102294921875,0.04533715943910489
1784819898.87765,-0.06689453125,-0.0478515662252903,0.9926757216453552,0.9960771752457223,-0.2536773681640625,-0.4596710205078125,0.3948211669921875,0.6569120246413609
1784819898.888206,-0.0454101525247097,-0.0532226525247097,0.9848632216453552,0.9873450754643746,-0.2536773681640625,-0.0934600830078125,0.1468658447265625,0.30766307965324546
1784819898.898763,-0.0410156212747097,-0.0493164025247097,0.9975585341453552,0.999618636177197,0.1125335693359375,-0.0934600830078125,0.3948211669921875,0.42104910075712815
1784819898.906777,-0.0649413987994194,-0.046875,0.9931640028953552,0.9963881711211501,-0.0705718994140625,0.0286102294921875,0.4520416259765625,0.4584109181008221
1784819898.914789,-0.0629882737994194,-0.04443359375,0.9887694716453552,0.991769597712899,-0.25177001953125,-0.034332275390625,0.4520416259765625,0.5185638624931341
1784819898.922801,-0.0483398362994194,-0.052734375,0.9868163466453552,0.9894059612143951,-0.31280517578125,-0.034332275390625,0.4520416259765625,0.5507879943722184
1784819898.930813,-0.04296875,-0.046875,0.9873046278953552,0.9893502955804624,-0.2841949462890625,0.1544952392578125,0.3185272216796875,0.4539770229874554
1784819898.941488,-0.0410156212747097,-0.0512695349752903,0.9809569716453552,0.9831517820889911,-0.225067138671875,0.213623046875,0.3185272216796875,0.44469046989685335
1784819898.952163,-0.0512695275247097,-0.0546874962747097,0.9877929091453552,0.9906331904692308,0.3871917724609375,-0.0286102294921875,0.1964569091796875,0.4351222024414222
1784819898.962837,-0.0585937425494194,-0.048828125,0.9970702528953552,0.9999832506926157,0.3261566162109375,-0.0896453857421875,0.2574920654296875,0.4251077478031668
1784819898.97368,-0.0517578087747097,-0.0473632849752903,0.9838866591453552,0.9863848688909509,0.385284423828125,0.579833984375,-0.5359649658203125,0.8785840775176424
1784819898.984524,-0.0361328087747097,-0.0439453087747097,0.9946288466453552,0.9962546424545905,0.080108642578125,0.885009765625,-0.2918243408203125,0.9353187295048342
1784819898.995368,-0.0595703050494194,-0.056640625,0.9848632216453552,0.9882875831425484,-0.1621246337890625,0.5207061767578125,-0.5970001220703125,0.8085966022355918
1784819899.003242,-0.0458984337747097,-0.0483398400247097,0.9755858778953552,0.977860527634405,-0.4062652587890625,0.2765655517578125,-0.8411407470703125,0.97419593578502
1784819899.011117,-0.0483398362994194,-0.0517578125,0.9775390028953552,0.98010107290518,-0.9555816650390625,0.0934600830078125,-0.7190704345703125,1.1995554991528288
1784819899.018994,-0.0581054612994194,-0.0546875,0.9770507216453552,0.9803035652066036,-1.0166168212890625,-0.1506805419921875,-0.4749298095703125,1.132154013852104
1784819899.02687,-0.0605468712747097,-0.0595703087747097,0.9936522841453552,0.9972759934421124,-0.8335113525390625,0.2765655517578125,-0.3528594970703125,0.9464351556780393
1784819899.037494,-0.0473632775247097,-0.0493164025247097,0.9882811903953552,0.9906437800264645,-1.0166168212890625,-0.0896453857421875,-0.5970001220703125,1.1823515561222522
1784819899.04812,-0.0610351525247097,-0.0454101525247097,0.9912108778953552,0.9941259358120141,-0.3452301025390625,0.3376007080078125,-0.2918243408203125,0.5641981102784002
1784819899.058745,-0.06640625,-0.0571289099752903,1.00048828125,1.004315838425645,-0.5893707275390625,0.1544952392578125,-0.4138946533203125,0.7365700356927332
1784819899.067015,-0.0488281175494194,-0.05126953125,0.9887694716453552,0.9913010733151909,-0.2231597900390625,0.0934600830078125,-0.0476837158203125,0.24659443578584248
1784819899.075285,-0.05712890625,-0.056640625,0.9829100966453552,0.986196801058031,-0.1010894775390625,-0.0286102294921875,-0.0476837158203125,0.11537488658780375
1784819899.083557,-0.0576171875,-0.04736328125,0.9877929091453552,0.990604791056464,-0.2231597900390625,0.0934600830078125,0.3795623779296875,0.45011407192593367
1784819899.091827,-0.0517578087747097,-0.0385742150247097,0.9926757216453552,0.9947723001662535,-0.0400543212890625,-0.2117156982421875,0.0743865966796875,0.22795010704470164
1784819899.10219,-0.0512695275247097,-0.0502929650247097,1.00390625,1.0064719099769481,-0.2231597900390625,-0.3948211669921875,0.2574920654296875,0.5215229712626259
1784819899.112552,-0.0590820275247097,-0.0488281212747097,0.9926757216453552,0.9956304333173907,-0.0400543212890625,-0.4558563232421875,0.5626678466796875,0.725261636777356
1784819899.122914,-0.0410156212747097,-0.0576171912252903,0.9941405653953552,0.9966531421100515,-0.4673004150390625,-0.2117156982421875,0.2574920654296875,0.5740168800106
1784819899.133551,-0.0415039025247097,-0.0585937462747097,0.9887694716453552,0.9913732239097043,-0.1010894775390625,0.1544952392578125,-0.2307891845703125,0.29555288720815964
1784819899.144189,-0.0356445275247097,-0.0478515662252903,0.9936522841453552,0.9954421964734843,0.080108642578125,0.213623046875,-0.0476837158203125,0.23307925159975212
1784819899.154826,-0.0498046837747097,-0.0541992150247097,0.9853515028953552,0.9880969819270418,-0.1621246337890625,0.0934600830078125,-0.2307891845703125,0.2971242698126402
1784819899.162827,-0.0507812425494194,-0.05126953125,0.9946288466453552,0.9972431208128373,-0.0400543212890625,0.3376007080078125,-0.2307891845703125,0.4109041669488562
1784819899.170828,-0.0610351525247097,-0.0429687537252903,0.9965819716453552,0.9993734186223701,-0.591278076171875,0.034332275390625,-0.1697540283203125,0.6161208474203619
1784819899.178828,-0.0605468712747097,-0.0541992150247097,0.9780272841453552,0.9813973950766276,-0.6504058837890625,-0.0286102294921875,-0.2307891845703125,0.6907315011013012
1784819899.18683,-0.0498046800494194,-0.04638671875,0.9858397841453552,0.9881863760622169,-0.591278076171875,0.091552734375,-0.0476837158203125,0.6002211286580016
1784819899.197492,-0.0566406212747097,-0.0581054650247097,0.9824218153953552,0.985767228309416,-0.5283355712890625,0.0324249267578125,-0.0476837158203125,0.5314730364929362
1784819899.208156,-0.0532226487994194,-0.06591796875,0.9941405653953552,0.9977441018186721,-0.713348388671875,-0.274658203125,0.1354217529296875,0.7763002662186608
1784819899.218819,-0.0600585900247097,-0.0541992150247097,0.9873046278953552,0.9906134550916602,-0.1621246337890625,-0.4558563232421875,0.0133514404296875,0.48401203010118543
1784819899.22683,-0.0493163987994194,-0.05615234375,0.9868163466453552,0.989642205499365,-0.102996826171875,-0.274658203125,0.5016326904296875,0.581103115507962
1784819899.234841,-0.0605468712747097,-0.0590820275247097,0.9926757216453552,0.9962739070866573,0.0209808349609375,0.0934600830078125,0.5016326904296875,0.5106959356204159
1784819899.242851,-0.0463867150247097,-0.06298828125,0.9794921278953552,0.9826108484616805,0.1430511474609375,0.2765655517578125,0.4405975341796875,0.5395167488912787
1784819899.250863,-0.0512695275247097,-0.0590820275247097,0.9877929091453552,0.9908855038736218,0.202178955078125,0.213623046875,0.5016326904296875,0.581503647572711
1784819899.261538,-0.0576171875,-0.05712890625,0.9897460341453552,0.9930662940263304,0.2040863037109375,0.1544952392578125,0.3185272216796875,0.40863136109053416
1784819899.272213,-0.0590820275247097,-0.0483398400247097,0.9980468153953552,1.0009619732191903,0.1430511474609375,-0.0896453857421875,0.4405975341796875,0.47183271728439663
1784819899.282888,-0.0488281175494194,-0.0546875,0.9877929091453552,0.9905098379508979,-0.102996826171875,-0.213623046875,0.3185272216796875,0.3971180470699093
1784819899.293525,-0.0468749962747097,-0.0537109337747097,0.9912108778953552,0.9937711678957013,-0.5283355712890625,-0.2117156982421875,0.3795623779296875,0.6841268972282525
1784819899.304163,-0.0434570237994194,-0.05419921875,0.9843749403953552,0.9868232321489866,-0.286102294921875,-0.453948974609375,0.1354217529296875,0.55341055815282
1784819899.314801,-0.0488281175494194,-0.04736328125,0.9873046278953552,0.9896453373495842,-0.286102294921875,-0.274658203125,0.2574920654296875,0.4728570772047974
1784819899.325471,-0.0561523400247097,-0.0415039099752903,0.9960936903953552,0.9985380813363731,0.0820159912109375,0.0324249267578125,-0.2307891845703125,0.24706607700004438
1784819899.336144,-0.0595703087747097,-0.0478515662252903,0.9951171278953552,0.9980463377561326,-0.0400543212890625,0.1544952392578125,0.0133514404296875,0.16016050876793464
1784819899.346816,-0.0585937462747097,-0.0434570275247097,0.9848632216453552,0.9875612921198645,0.2651214599609375,0.1544952392578125,0.3185272216796875,0.44228696390028105
1784819899.354866,-0.0517578087747097,-0.0585937462747097,0.9814452528953552,0.9845541540730465,0.080108642578125,0.396728515625,-0.1697540283203125,0.4388933126133265
1784819899.362919,-0.0678710862994194,-0.04931640625,0.9985350966453552,1.00205335761796,0.0820159912109375,0.5207061767578125,0.0133514404296875,0.5272948001731085
1784819899.370972,-0.0444335862994194,-0.04150390625,0.9858397841453552,0.9877130139008988,0.0209808349609375,0.5817413330078125,0.1354217529296875,0.5976639734264682
1784819899.379025,-0.0522460900247097,-0.06396484375,0.9824218153953552,0.985887305184288,-0.0400543212890625,0.3376007080078125,-0.3528594970703125,0.48998817472875567
1784819899.38859,-0.0410156212747097,-0.0380859412252903,0.9907225966453552,0.992302415401314,0.0820159912109375,0.3376007080078125,-0.2307891845703125,0.41709052803476443
1784819899.398159,-0.0493164025247097,-0.0537109337747097,0.9853515028953552,0.9880458269853002,-0.225067138671875,0.701904296875,-0.2918243408203125,0.7927712815035262
1784819899.407728,-0.0571289025247097,-0.0581054650247097,0.9897460341453552,0.9930947430511724,-0.102996826171875,0.213623046875,-0.7801055908203125,0.8153575198566251
1784819899.417297,-0.0507812462747097,-0.0522460974752903,0.9946288466453552,0.9972938043794716,-0.1010894775390625,0.3376007080078125,-1.2073516845703125,1.257732646770079
1784819899.426866,-0.04296875,-0.046875,0.9990233778953552,1.0010450982263528,0.02288818359375,0.396728515625,-1.0242462158203125,1.0986344681833295
1784819899.436446,-0.0688476487994194,-0.046875,0.9809569716453552,0.9844865893397606,-0.0400543212890625,0.0324249267578125,-1.0242462158203125,1.0255418251594652
1784819899.446028,-0.0483398362994194,-0.037109375,0.9912108778953552,0.9930824990626036,0.2651214599609375,0.0934600830078125,-0.9632110595703125,1.0033941005039895
1784819899.455609,-0.0561523400247097,-0.0551757775247097,0.9882811903953552,0.9914117020718322,0.0820159912109375,-0.2117156982421875,-0.7801055908203125,0.8124745488478998
1784819899.46519,-0.0517578087747097,-0.0522460974752903,0.9858397841453552,0.9885790840768974,0.2651214599609375,-0.4558563232421875,-0.6580352783203125,0.8432703027415325
1784819899.474771,-0.0610351525247097,-0.0473632849752903,0.9921874403953552,0.9951906789583852,0.6313323974609375,-0.2727508544921875,-0.4138946533203125,0.8026720430892902
1784819899.484596,-0.0634765550494194,-0.05224609375,0.9853515028953552,0.9887752583935395,0.4482269287109375,0.0324249267578125,-0.4749298095703125,0.653847902432502
1784819899.494418,-0.0517578087747097,-0.0634765625,0.9887694716453552,0.9921558409916311,0.0209808349609375,-0.3337860107421875,0.0743865966796875,0.3426173699163957
1784819899.504241,-0.04296875,-0.05029296875,0.9916991591453552,0.9939028717293534,-0.0400543212890625,-0.0286102294921875,-0.1087188720703125,0.1193427292706349
1784819899.514063,-0.0483398362994194,-0.048828125,0.9833983778953552,0.9857957674953195,0.0820159912109375,0.1544952392578125,-0.1087188720703125,0.2059494960224042
1784819899.523885,-0.0488281175494194,-0.05029296875,0.9936522841453552,0.9961216941500622,0.0209808349609375,-0.3337860107421875,-0.2918243408203125,0.44386342752929275
1784819899.531751,-0.0405273362994194,-0.0458984375,0.9951171278953552,0.9969991122278737,0.1430511474609375,-0.0896453857421875,-0.1697540283203125,0.23940834594000673
1784819899.539617,-0.0483398362994194,-0.052734375,0.9829100966453552,0.985509975681361,0.0820159912109375,-0.3337860107421875,-0.7801055908203125,0.8524696221042748
1784819899.547483,-0.0551757737994194,-0.0517578125,0.9956054091453552,0.9984755219276235,0.1430511474609375,0.0324249267578125,-0.2918243408203125,0.32661361355637075
1784819899.555348,-0.0566406212747097,-0.0571289099752903,0.9848632216453552,0.988143429712012,0.3261566162109375,0.0324249267578125,-0.8411407470703125,0.9027442996526878
1784819899.565864,-0.04150390625,-0.05126953125,0.9843749403953552,0.9865825674250294,0.2651214599609375,-0.1506805419921875,-0.9021759033203125,0.952321046075692
1784819899.576379,-0.0415039025247097,-0.06494140625,0.9907225966453552,0.993715866671265,0.202178955078125,-0.148773193359375,-1.0852813720703125,1.1139324259135508
1784819899.586894,-0.0488281175494194,-0.05419921875,0.9848632216453552,0.9875612921364417,0.1430511474609375,-0.1506805419921875,-1.2073516845703125,1.2250985049210212
1784819899.594867,-0.0483398362994194,-0.04150390625,0.9765624403953552,0.978638602344295,0.202178955078125,-0.030517578125,-0.7190704345703125,0.7475760445093436
1784819899.602839,-0.0512695275247097,-0.0395507775247097,0.9731444716453552,0.9752963606767604,-0.4673004150390625,-0.1506805419921875,-0.7190704345703125,0.8707103958859556
1784819899.610813,-0.0600585900247097,-0.0625,0.9941405653953552,0.9979121945343451,-0.0400543212890625,0.0324249267578125,-0.6580352783203125,0.6600501132817629
1784819899.626796,-0.0556640587747097,-0.0493164025247097,0.9946288466453552,0.9974052023006111,-0.3452301025390625,-0.1506805419921875,-0.2918243408203125,0.47649752919548377
1784819899.634808,-0.0576171875,-0.04736328125,0.9804686903953552,0.983301517110474,0.0209808349609375,-0.1506805419921875,-0.0476837158203125,0.15943198526377886
1784819899.642818,-0.0541992112994194,-0.0625,0.9799804091453552,0.9834660171120184,0.1430511474609375,0.1544952392578125,-0.4138946533203125,0.4643718270851078
1784819899.65083,-0.0615234337747097,-0.0434570275247097,0.9853515028953552,0.9882263052574798,0.2651214599609375,-0.3948211669921875,-0.2307891845703125,0.5286178110426488
1784819899.661512,-0.0532226487994194,-0.04052734375,0.9882811903953552,0.9905426932878346,-0.286102294921875,-0.030517578125,-0.2307891845703125,0.3688488761658476
1784819899.672196,-0.0424804650247097,-0.0532226525247097,0.9951171278953552,0.9974444039048905,-0.3452301025390625,-0.0896453857421875,-0.3528594970703125,0.5017269611618566
1784819899.682878,-0.0610351525247097,-0.0600585900247097,0.9785155653953552,0.9822550767496508,-0.3452301025390625,-0.3337860107421875,-0.1087188720703125,0.49235832257671475
1784819899.693529,-0.0551757775247097,-0.0532226525247097,0.9926757216453552,0.9956315109071975,-0.713348388671875,-0.274658203125,-0.5970001220703125,0.9699031899713405
1784819899.704177,-0.0410156212747097,-0.0566406287252903,0.9829100966453552,0.9853946925462549,-0.591278076171875,0.091552734375,-0.7801055908203125,0.9831360024748161
1784819899.714824,-0.0493163987994194,-0.0625,0.9897460341453552,0.9929428831997347,-0.9555816650390625,-0.0286102294921875,-1.0852813720703125,1.4463023613177304
1784819899.722833,-0.0419921837747097,-0.0576171912252903,0.9760741591453552,0.978674536490131,-0.774383544921875,0.034332275390625,-1.3904571533203125,1.5919232629115307
1784819899.730843,-0.0512695275247097,-0.0502929650247097,0.9863280653953552,0.988939330479948,-0.8335113525390625,0.0934600830078125,-1.8177032470703125,2.0018793810660225
1784819899.738853,-0.0576171875,-0.06005859375,0.9941405653953552,0.9976182830838829,-1.1386871337890625,0.0934600830078125,-2.0618438720703125,2.3572321329403425
1784819899.746863,-0.0507812462747097,-0.0341796837747097,0.9755858778953552,0.9775043687395994,-1.5048980712890625,0.0934600830078125,-2.3059844970703125,2.7551801198495154
1784819899.754862,-0.046875,-0.03125,0.9741210341453552,0.9757487470088887,-2.11334228515625,0.213623046875,-2.3059844970703125,3.1351897743381056
1784819899.762861,-0.0551757775247097,-0.0390624962747097,0.9868163466453552,0.9891292873265627,-2.7866363525390625,0.0934600830078125,-2.6111602783203125,3.8199783962066918
1784819899.770859,-0.0405273362994194,-0.04638671875,0.9868163466453552,0.9887369188365547,-2.727508544921875,0.213623046875,-3.3435821533203125,4.320240651257763
1784819899.778858,-0.0522460900247097,-0.0288085974752903,0.9794921278953552,0.9813075042107516,-2.9697418212890625,-0.0286102294921875,-3.4656524658203125,4.564091590250056
1784819899.790874,-0.0522460900247097,-0.0395507775247097,0.9775390028953552,0.9797328309836945,-3.5800933837890625,-0.2117156982421875,-3.4046173095703125,4.945028938050635
1784819899.802887,-0.0551757775247097,-0.0351562462747097,0.9677733778953552,0.9699822880035337,-3.704071044921875,-0.579833984375,-3.5877227783203125,5.189229662420352
1784819899.814899,-0.0512695275247097,-0.0498046837747097,0.9926757216453552,0.9952457783495655,-3.5800933837890625,-0.5168914794921875,-3.8318634033203125,5.269480295050677
1784819899.826912,-0.06591796875,-0.0556640587747097,0.9824218153953552,0.9862029656252843,-3.5800933837890625,-0.3948211669921875,-4.0760040283203125,5.43937140021149
1784819899.837708,-0.0537109300494194,-0.07568359375,0.9902343153953552,0.9945737125805189,-2.422332763671875,-0.885009765625,-3.0384063720703125,3.9853295453509636
1784819899.848501,-0.06494140625,-0.0498046837747097,0.9770507216453552,0.9804723379266422,-1.934051513671875,-0.637054443359375,-2.7332305908203125,3.4083636959597414
1784819899.859296,-0.0585937425494194,-0.0595703125,0.9916991591453552,0.9952130782133541,-1.6269683837890625,-0.4558563232421875,-2.7332305908203125,3.2133130211488945
1784819899.867196,-0.06201171875,-0.0654296875,0.9819335341453552,0.9860628594303024,-1.750946044921875,-0.274658203125,-2.5501251220703125,3.105541389031152
1784819899.875099,-0.07958984375,-0.0634765625,0.9794921278953552,0.984768320887678,-1.6269683837890625,-0.0286102294921875,-2.3059844970703125,2.8223056474821098
1784819899.883002,-0.0600585862994194,-0.06591796875,0.9775390028953552,0.9815980412439993,-1.567840576171875,-0.453948974609375,-2.0618438720703125,2.6297136529732206
1784819899.890905,-0.0439453050494194,-0.07177734375,0.9804686903953552,0.9840741993149069,-1.689910888671875,-0.762939453125,-1.7566680908203125,2.554164873709746
1784819899.901552,-0.0488281175494194,-0.06982421875,1.00048828125,1.004109758694759,-1.934051513671875,-1.007080078125,-1.7566680908203125,2.800115769499363
1784819899.912199,-0.0512695275247097,-0.06884765625,0.9907225966453552,0.994434426057063,-1.6269683837890625,-0.8831024169921875,-1.6345977783203125,2.4695760562566886
1784819899.922845,-0.0419921837747097,-0.06298828125,0.9902343153953552,0.9931237921122955,-1.44195556640625,-0.762939453125,-1.6956329345703125,2.352973334618175
1784819899.931124,-0.0439453050494194,-0.07421875,0.9926757216453552,0.9964159277287652,-1.0776519775390625,-0.8220672607421875,-1.4514923095703125,1.9859401528293283
1784819899.939406,-0.0488281175494194,-0.05712890625,0.9892577528953552,0.9921082595444455,-1.079559326171875,-0.453948974609375,-1.5125274658203125,1.912918541165408
1784819899.947687,-0.0419921837747097,-0.0625,0.9941405653953552,0.9969879925369038,-1.079559326171875,-0.453948974609375,-1.6956329345703125,2.0607496352233343
1784819899.955967,-0.0327148400247097,-0.0771484375,0.9931640028953552,0.9966929711870446,-1.1997222900390625,-0.0896453857421875,-1.6345977783203125,2.02960088817756
1784819899.966281,-0.0483398362994194,-0.07666015625,0.9858397841453552,0.9899967673348684,-0.713348388671875,-0.091552734375,-1.1463165283203125,1.3532514215372669
1784819899.976595,-0.04296875,-0.064453125,0.9848632216453552,0.9879048963075829,-0.8945465087890625,0.3376007080078125,-1.4514923095703125,1.738107482055076
1784819899.986909,-0.0532226525247097,-0.06787109375,0.9882811903953552,0.9920377247856291,-0.95367431640625,-0.091552734375,-1.3294219970703125,1.6386700251236932
1784819899.994884,-0.0434570237994194,-0.068359375,0.9760741591453552,0.9794295693000116,-1.0166168212890625,0.3376007080078125,-1.4514923095703125,1.8039717082363054
1784819900.002857,-0.0507812462747097,-0.0571289099752903,0.9897460341453552,0.992693134576157,-0.9555816650390625,0.0324249267578125,-1.2073516845703125,1.5400927844350314
1784819900.010832,-0.0410156212747097,-0.07666015625,0.9829100966453552,0.9867478496719445,-0.8335113525390625,-0.0286102294921875,-1.0242462158203125,1.3208482239323802
1784819900.018806,-0.0424804650247097,-0.07861328125,0.9916991591453552,0.995716756988257,-0.5893707275390625,0.1544952392578125,-1.2073516845703125,1.352377433880063
1784819900.029455,-0.0512695275247097,-0.08740234375,0.9853515028953552,0.9905479889453793,-0.286102294921875,0.522613525390625,-1.4514923095703125,1.5690154061775623
1784819900.040104,-0.0380859337747097,-0.072265625,0.9848632216453552,0.9882451235689454,-0.408172607421875,0.579833984375,-1.2683868408203125,1.453140566102224
1784819900.050752,-0.0624999962747097,-0.0673828125,0.9721679091453552,0.9765025020586483,-0.2231597900390625,0.6427764892578125,-1.1463165283203125,1.33304294384435
1784819900.061434,-0.0498046837747097,-0.06396484375,0.9780272841453552,0.9813813612936615,0.1430511474609375,0.3376007080078125,-0.9632110595703125,1.0306373824560369
1784819900.072114,-0.0512695275247097,-0.0556640587747097,0.9931640028953552,0.9960430656045984,-0.1621246337890625,0.2765655517578125,-1.0852813720703125,1.1316397650591645
1784819900.082793,-0.0532226487994194,-0.0693359375,0.9809569716453552,0.9848434915223111,-0.5893707275390625,-0.1506805419921875,-1.2683868408203125,1.406722310259248
1784819900.093462,-0.0581054612994194,-0.0654296875,1.001953125,1.0057670472512168,-0.3452301025390625,-0.1506805419921875,-0.6580352783203125,0.7582208629075582
1784819900.104133,-0.0517578125,-0.076171875,1.00634765625,1.0105526364003357,-0.3452301025390625,-0.6389617919921875,-0.7801055908203125,1.0658427314356034
1784819900.114802,-0.0488281175494194,-0.0712890625,0.9907225966453552,0.9944835740218457,0.2040863037109375,-0.3337860107421875,-0.5970001220703125,0.7137741001756401
1784819900.122812,-0.0488281175494194,-0.0654296875,0.9755858778953552,0.97899593166602,0.1430511474609375,-0.3948211669921875,-0.1697540283203125,0.45295012399373197
1784819900.130822,-0.0566406212747097,-0.0576171912252903,0.9755858778953552,0.9789257918003426,0.0209808349609375,-0.4558563232421875,0.1354217529296875,0.4760086491253002
1784819900.138832,-0.0493164025247097,-0.0634765625,0.9882811903953552,0.9915448012238559,0.1430511474609375,-0.0286102294921875,0.0133514404296875,0.146493812098102
1784819900.146842,-0.0605468712747097,-0.06982421875,0.9848632216453552,0.9891900274946529,-0.1621246337890625,-0.1506805419921875,0.4405975341796875,0.49306714526676576
1784819900.15643,-0.0341796800494194,-0.06591796875,0.9775390028953552,0.9803550026975187,-0.2231597900390625,-0.6999969482421875,0.5626678466796875,0.9254140290301474
1784819900.166018,-0.0307617150247097,-0.06982421875,0.9716796278953552,0.9746707156276756,-1.0166168212890625,-0.7610321044921875,-0.0476837158203125,1.2708081531647952
1784819900.175606,-0.0317382775247097,-0.0546874962747097,0.9677733778953552,0.9698367653744716,-1.262664794921875,-0.453948974609375,-0.1697540283203125,1.3524823422192902
1784819900.185194,-0.0405273362994194,-0.056640625,0.9755858778953552,0.9780687248536105,-2.3593902587890625,-0.3948211669921875,-0.7190704345703125,2.4979328327733175
1784819900.194782,-0.0405273400247097,-0.06884765625,0.9687499403953552,0.972038534254996,-2.7866363525390625,0.2765655517578125,-0.9632110595703125,2.9613520916955953
1784819900.202778,-0.0375976525247097,-0.07421875,0.9716796278953552,0.9752350001890762,-3.704071044921875,0.522613525390625,-1.5125274658203125,4.034972928981143
1784819900.210773,-0.0307617150247097,-0.06884765625,0.9594725966453552,0.9624312685048009,-4.55474853515625,0.396728515625,-2.0008087158203125,4.990627540792896
1784819900.21877,-0.0419921837747097,-0.064453125,0.9833983778953552,0.9864025134130846,-5.474090576171875,0.885009765625,-2.3670196533203125,6.029236432633071
1784819900.226766,-0.03759765625,-0.07568359375,1.005859375,1.00940312680009,-5.535125732421875,1.739501953125,-2.7332305908203125,6.4135819462481685
1784819900.237512,-0.0439453050494194,-0.06640625,0.9975585341453552,1.0007317367412603,-4.9839019775390625,1.9855499267578125,-3.1604766845703125,6.226580145399101
1784819900.24826,-0.0385742112994194,-0.0615234375,1.00732421875,1.0099382084164785,-3.9463043212890625,1.7414093017578125,-2.7942657470703125,5.139430437093567
1784819900.259007,-0.0620117150247097,-0.06787109375,0.9858397841453552,0.9901171739601772,-3.3359527587890625,1.6193389892578125,-3.0384063720703125,4.794033046698818
1784819900.269613,-0.0532226487994194,-0.0634765625,0.9936522841453552,0.9970991856978545,-2.422332763671875,1.556396484375,-2.5501251220703125,3.846193465330002
1784819900.280221,-0.0478515625,-0.06005859375,0.9975585341453552,1.0005097879397027,-1.934051513671875,1.678466796875,-2.6111602783203125,3.6573165087022623
1784819900.290831,-0.0654296875,-0.0380859412252903,0.9946288466453552,0.99750595261604,-0.8335113525390625,1.5583038330078125,-2.4280548095703125,3.003082111607317
1784819900.299006,-0.0712890625,-0.0615234412252903,0.9833983778953552,0.9878965704462925,0.0209808349609375,1.0089874267578125,-1.6345977783203125,1.9210428729418592
1784819900.307183,-0.076171875,-0.0571289099752903,0.9741210341453552,0.9787633299528526,-0.3452301025390625,0.8258819580078125,-1.3294219970703125,1.6026938817367362
1784819900.315358,-0.0585937425494194,-0.05712890625,0.9799804091453552,0.9833913467709418,-0.4673004150390625,0.8258819580078125,-1.0242462158203125,1.3962560642950592
1784819900.323534,-0.080078125,-0.0634765625,0.9941405653953552,0.9993784287520562,-0.2231597900390625,0.1544952392578125,-0.5359649658203125,0.6007724323155782
1784819900.334003,-0.0834960862994194,-0.076171875,0.9804686903953552,0.9869612980324601,-0.286102294921875,0.396728515625,-0.3528594970703125,0.6031234226443981
1784819900.344473,-0.0615234375,-0.06640625,0.9809569716453552,0.9851251207945644,-0.4673004150390625,0.0934600830078125,0.3185272216796875,0.5732050732176819
1784819900.354941,-0.0654296875,-0.064453125,0.9829100966453552,0.9871917277894882,-0.286102294921875,-0.030517578125,0.7457733154296875,0.7993520399305722
1784819900.365832,-0.0620117150247097,-0.078125,0.9882811903953552,0.993301907636629,-0.4062652587890625,0.0324249267578125,0.9288787841796875,1.0143562648662097
1784819900.376721,-0.0639648362994194,-0.06591796875,0.9912108778953552,0.9954575246312714,-0.102996826171875,-0.579833984375,1.1730194091796875,1.3125510770823092
1784819900.387609,-0.0571289025247097,-0.078125,0.9912108778953552,0.9959248122156404,-0.4062652587890625,-0.2117156982421875,1.6613006591796875,1.723309280881405
1784819900.39564,-0.04150390625,-0.076171875,0.9804686903953552,0.9842985226142562,0.202178955078125,-0.453948974609375,1.5392303466796875,1.617459755779122
1784819900.40367,-0.0517578125,-0.076171875,0.9794921278953552,0.9838118998593033,-0.1621246337890625,-0.6999969482421875,1.4781951904296875,1.6435757194115133
1784819900.4117,-0.0405273362994194,-0.0703125,0.9868163466453552,0.9901478751430324,-0.4062652587890625,-0.3337860107421875,0.9288787841796875,1.0673707683674225
1784819900.41973,-0.0463867150247097,-0.0732421875,0.9946288466453552,0.9984000640723328,-0.286102294921875,-0.396728515625,0.5016326904296875,0.7006307118427696
1784819900.42749,-0.0556640587747097,-0.0673828125,0.9819335341453552,0.9858155995615366,-0.286102294921875,-0.274658203125,0.0743865966796875,0.4035158205932003
1784819900.43525,-0.0361328087747097,-0.07763671875,0.9892577528953552,0.9929571700893166,-0.5283355712890625,-0.0286102294921875,-0.0476837158203125,0.5312539485739075
1784819900.44301,-0.0454101487994194,-0.08154296875,0.9819335341453552,0.9863593680022187,-0.286102294921875,-0.579833984375,-0.2918243408203125,0.709382420483452
1784819900.45077,-0.0556640587747097,-0.06640625,0.9843749403953552,0.9881813096576437,-0.2231597900390625,-0.4558563232421875,-0.3528594970703125,0.6181545955526644
1784819900.461489,-0.0551757775247097,-0.0830078125,0.9877929091453552,0.9928088913377717,-0.1621246337890625,-0.2727508544921875,-0.2918243408203125,0.43109032858864504
1784819900.472208,-0.0620117150247097,-0.06494140625,0.9858397841453552,0.9899206630077958,-0.0400543212890625,-0.3337860107421875,-0.4138946533203125,0.5332224992142144
1784819900.482927,-0.0585937462747097,-0.0732421875,0.9868163466453552,0.9912639139698247,-0.102996826171875,-0.274658203125,-0.4749298095703125,0.5582148320887098
1784819900.493582,-0.0507812425494194,-0.06591796875,0.9809569716453552,0.9844798085377958,-0.408172607421875,-0.091552734375,-0.2918243408203125,0.510047278706907
1784819900.50424,-0.0517578087747097,-0.0947265625,0.9868163466453552,0.9927026213417146,-0.1621246337890625,-0.3337860107421875,-0.5359649658203125,0.6518864490347916
1784819900.514897,-0.0546874925494194,-0.0751953125,0.9877929091453552,0.9921592050780759,-0.591278076171875,-0.274658203125,-0.4749298095703125,0.8066010264832674
1784819900.525537,-0.0556640587747097,-0.0693359375,0.9848632216453552,0.988868810822723,-0.3452301025390625,-0.3337860107421875,-0.1087188720703125,0.49235832257671475
1784819900.536177,-0.0498046837747097,-0.0732421875,0.9916991591453552,0.9956465973453074,-0.2231597900390625,-0.3948211669921875,-0.1697540283203125,0.48425249191545183
1784819900.546815,-0.0581054612994194,-0.06640625,0.9936522841453552,0.9975624774715429,-0.2231597900390625,-0.6389617919921875,-0.1697540283203125,0.6977742426079652
1784819900.557512,-0.0546874925494194,-0.06689453125,0.9838866591453552,0.9876733053984543,-0.0400543212890625,-0.5779266357421875,-0.0476837158203125,0.5812721236294089
1784819900.56821,-0.0571289025247097,-0.0473632849752903,0.9882811903953552,0.9910634205521808,0.3261566162109375,-0.7610321044921875,-0.2307891845703125,0.8595415348199331
1784819900.578909,-0.0585937425494194,-0.07177734375,0.9809569716453552,0.9853231926436014,0.202178955078125,-0.453948974609375,0.3185272216796875,0.5902589197770469
1784819900.586888,-0.0458984300494194,-0.07568359375,0.9887694716453552,0.9927233956655557,0.3261566162109375,-0.1506805419921875,0.0133514404296875,0.3595288931292945
1784819900.594867,-0.0454101487994194,-0.056640625,0.9819335341453552,0.9846134812674279,0.0209808349609375,-0.5779266357421875,0.1354217529296875,0.5939515492887366
1784819900.602848,-0.0522460900247097,-0.06884765625,0.9804686903953552,0.9842705453987594,0.1430511474609375,-0.3948211669921875,0.2574920654296875,0.4925947101362439
1784819900.610827,-0.0478515587747097,-0.072265625,0.9916991591453552,0.995479439508127,0.0209808349609375,0.0324249267578125,0.3185272216796875,0.32086003531429147
1784819900.621494,-0.0434570275247097,-0.07275390625,0.9892577528953552,0.9928809323274794,-0.0400543212890625,-0.0896453857421875,0.2574920654296875,0.27557722619628694
1784819900.632159,-0.0527343712747097,-0.06787109375,0.9873046278953552,0.991038761877731,-0.225067138671875,-0.274658203125,0.0743865966796875,0.36280257884886274
1784819900.642825,-0.0410156212747097,-0.0751953125,0.9848632216453552,0.9885808927751897,0.0209808349609375,-0.1506805419921875,0.0743865966796875,0.1693463520017599
1784819900.653491,-0.0434570237994194,-0.07666015625,0.9809569716453552,0.9849070375895402,0.1430511474609375,0.2155303955078125,-0.1697540283203125,0.30940816457976417
1784819900.664156,-0.0546874925494194,-0.080078125,0.9829100966453552,0.9876818749132941,0.1430511474609375,0.0324249267578125,-0.2918243408203125,0.32661361355637075
1784819900.674821,-0.0566406212747097,-0.08349609375,0.9916991591453552,0.996818428751946,0.202178955078125,0.396728515625,0.1354217529296875,0.46541260850244237
1784819900.685527,-0.0625,-0.07177734375,0.9892577528953552,0.9938255071889498,0.5702972412109375,-0.2117156982421875,0.3185272216796875,0.6866746472427564
1784819900.696232,-0.0522460900247097,-0.0732421875,0.9853515028953552,0.9894501787410979,0.690460205078125,-0.030517578125,0.5016326904296875,0.8539917877116082
1784819900.706937,-0.0444335862994194,-0.05712890625,0.9790038466453552,0.981675398116481,0.6313323974609375,0.1544952392578125,0.6847381591796875,0.9440951867655565
1784819900.717559,-0.0483398400247097,-0.07275390625,0.9731444716453552,0.9770568221460643,0.202178955078125,-0.091552734375,0.6237030029296875,0.6620148555066809
1784819900.72818,-0.0527343712747097,-0.0771484375,0.9941405653953552,0.998523038836374,-0.1010894775390625,-0.3337860107421875,0.7457733154296875,0.8232921847335201
1784819900.738802,-0.0488281175494194,-0.07177734375,0.9897460341453552,0.9935458641883042,-0.408172607421875,0.213623046875,0.6237030029296875,0.7753999738646116
1784819900.746794,-0.0410156212747097,-0.0693359375,0.9985350966453552,1.001779463080624,-0.102996826171875,0.213623046875,0.5016326904296875,0.5548680099495416
1784819900.754789,-0.0483398362994194,-0.06884765625,1.001953125,1.0054783957111353,0.3261566162109375,0.0934600830078125,0.0743865966796875,0.347341749836645
1784819900.762783,-0.0410156212747097,-0.06640625,0.9897460341453552,0.9928188572615205,0.6313323974609375,0.6427764892578125,-0.1087188720703125,0.9075031704465912
1784819900.770777,-0.0595703050494194,-0.05078125,0.9755858778953552,0.9787211869291961,0.5702972412109375,0.5207061767578125,-0.1087188720703125,0.7798677189054471
1784819900.778778,-0.0498046837747097,-0.0576171912252903,0.9814452528953552,0.9843957698412861,0.2651214599609375,0.8258819580078125,-0.4138946533203125,0.9610822967580762
1784819900.786779,-0.0424804650247097,-0.068359375,0.9785155653953552,0.981819894777091,-0.102996826171875,0.274658203125,-0.7190704345703125,0.7766001317399266
1784819900.79478,-0.0615234337747097,-0.06494140625,0.9809569716453552,0.9850274612257187,-0.225067138671875,0.213623046875,-0.5359649658203125,0.619312899633838
1784819900.802781,-0.07080078125,-0.08544921875,0.9916991591453552,0.9978885418022397,-0.286102294921875,-0.148773193359375,-0.7190704345703125,0.7880674311853317
1784819900.813487,-0.0600585900247097,-0.0732421875,0.9804686903953552,0.9850331492447979,-0.3452301025390625,0.3376007080078125,0.0133514404296875,0.48304898582654676
1784819900.824193,-0.0556640587747097,-0.06689453125,0.9814452528953552,0.9852959708540674,-1.0166168212890625,-0.0286102294921875,-0.1087188720703125,1.0228138147794614
1784819900.834898,-0.0419921837747097,-0.0590820275247097,0.9873046278953552,0.9899618466073252,-0.7114410400390625,-0.0286102294921875,-0.1087188720703125,0.7202684859326414
1784819900.845515,-0.0449218712747097,-0.0732421875,0.9999999403953552,1.00368434945421,-0.5283355712890625,-0.3948211669921875,-0.3528594970703125,0.7480187527509766
1784819900.856133,-0.0507812425494194,-0.0859375,0.9916991591453552,0.9967101939634798,-0.591278076171875,-0.213623046875,0.0133514404296875,0.6288265503930472
1784819900.86675,-0.0517578125,-0.08056640625,0.9902343153953552,0.9948536658008217,0.0209808349609375,0.1544952392578125,-0.2307891845703125,0.2785186207484458
1784819900.874804,-0.0566406212747097,-0.0869140625,0.9687499403953552,0.9742887976645546,0.6313323974609375,0.2155303955078125,0.3185272216796875,0.739252012795711
1784819900.882856,-0.0566406212747097,-0.07275390625,0.9833983778953552,0.9877113244770633,0.690460205078125,0.091552734375,0.1964569091796875,0.7236798429778888
1784819900.890909,-0.06201171875,-0.0654296875,0.9721679091453552,0.9763385380290631,0.2651214599609375,-0.6389617919921875,0.3185272216796875,0.7615911968429436
1784819900.898962,-0.0390624925494194,-0.06396484375,0.9716796278953552,0.9745658925013697,-0.1621246337890625,-0.6999969482421875,0.1354217529296875,0.7311765693703284
1784819900.909565,-0.0483398362994194,-0.06396484375,0.9882811903953552,0.9915280895157116,-0.0400543212890625,-0.2117156982421875,0.0743865966796875,0.22795010704470164
1784819900.920167,-0.0375976525247097,-0.07373046875,1.00537109375,1.008771927467024,-0.1621246337890625,-0.3337860107421875,-0.1087188720703125,0.38667465781023497
1784819900.930769,-0.0493163987994194,-0.08642578125,0.9907225966453552,0.9957071790234976,0.568389892578125,-0.091552734375,-0.4749298095703125,0.7463292150083668
1784819900.938903,-0.0444335900247097,-0.06298828125,0.9995116591453552,1.0024796378305216,0.690460205078125,0.274658203125,-0.3528594970703125,0.8226069827159833
1784819900.947037,-0.0493164025247097,-0.0771484375,0.9892577528953552,0.9934862307200026,0.8144378662109375,0.0934600830078125,-0.1697540283203125,0.8371739694741025
1784819900.955171,-0.0434570237994194,-0.07958984375,0.9633788466453552,0.9676372555402089,0.8144378662109375,-0.1506805419921875,-0.1697540283203125,0.845476252643596
1784819900.963305,-0.0488281175494194,-0.05908203125,0.9746093153953552,0.977618631745247,0.3871917724609375,0.1544952392578125,-0.1697540283203125,0.45011407192593367
1784819900.972873,-0.0405273400247097,-0.06396484375,0.9912108778953552,0.9940990750340336,0.0209808349609375,0.0934600830078125,-0.2918243408203125,0.3071423586005278
1784819900.982444,-0.0561523400247097,-0.0605468712747097,0.9868163466453552,0.9902653739871412,-0.1621246337890625,0.3986358642578125,-0.4138946533203125,0.5970793357678295
1784819900.992013,-0.0478515587747097,-0.0673828125,0.9921874403953552,0.9956234890639464,-0.0400543212890625,0.3986358642578125,-0.4138946533203125,0.5760413917190693
1784819901.001584,-0.052734375,-0.07568359375,1.00146484375,1.0057041085412586,0.1430511474609375,0.1544952392578125,-0.2307891845703125,0.3124036770875935
1784819901.011154,-0.0405273400247097,-0.07275390625,0.9965819716453552,1.0000556096401119,0.3871917724609375,-0.3337860107421875,-0.2918243408203125,0.5886357239616332
1784819901.02069,-0.0434570237994194,-0.05078125,0.9750975966453552,0.9773855796217855,0.263214111328125,-0.274658203125,0.0133514404296875,0.38065346170454806
1784819901.030226,-0.046875,-0.06591796875,0.9902343153953552,0.9935323062767681,0.2651214599609375,-0.3337860107421875,-0.3528594970703125,0.5533645400382252
1784819901.039762,-0.0615234337747097,-0.0751953125,0.9863280653953552,0.9911016701186351,0.202178955078125,0.091552734375,-0.1087188720703125,0.24713968963374291
1784819901.049299,-0.0478515587747097,-0.07275390625,0.9877929091453552,0.9916237864783435,0.5702972412109375,0.4596710205078125,0.4405975341796875,0.8547880307729636
1784819901.058834,-0.04296875,-0.06982421875,0.9775390028953552,0.9809710684736098,0.6313323974609375,-0.0286102294921875,0.0133514404296875,0.6321213509105023
1784819901.068445,-0.06298828125,-0.06787109375,0.9995116591453552,1.0037915947591667,0.202178955078125,-0.396728515625,0.5626678466796875,0.7175409052267715
1784819901.078055,-0.0644531175494194,-0.080078125,0.9863280653953552,0.9916701886473642,0.3261566162109375,-0.2117156982421875,0.5016326904296875,0.634694439307666
1784819901.087665,-0.0405273362994194,-0.0703125,0.9838866591453552,0.9872280743009614,0.2040863037109375,0.1544952392578125,0.6237030029296875,0.6741850147987802
1784819901.097275,-0.0581054612994194,-0.06396484375,0.9726561903953552,0.9764874861375263,0.1430511474609375,-0.0896453857421875,0.3795623779296875,0.41541247539571485
1784819901.106885,-0.0463867150247097,-0.06689453125,0.9819335341453552,0.9853020202562909,0.0209808349609375,-0.0286102294921875,0.1964569091796875,0.19963481117202408
1784819901.114897,-0.0458984337747097,-0.0551757775247097,0.9936522841453552,0.9962408817327812,-0.1621246337890625,-0.0896453857421875,0.0743865966796875,0.19963481117202408
1784819901.122905,-0.0581054612994194,-0.080078125,0.9980468153953552,1.002938780014585,-0.0400543212890625,-0.3948211669921875,0.0133514404296875,0.39707223967503413
