timestamp,accel_x,accel_y,accel_z,accel_rms,gyro_x,gyro_y,gyro_z,gyro_rms
1785337809.134709,-0.0371093712747097,-0.0292968712747097,0.9916991591453552,0.9928255810324872,-0.51116943359375,0.545501708984375,-0.8144378662109375,1.1055203943228067
1785337809.145362,-0.0517578087747097,-0.0283203162252903,0.9907225966453552,0.9924777955118065,-0.3871917724609375,0.7915496826171875,-0.6923675537109375,1.1206432073342882
1785337809.156015,-0.037109375,-0.02099609375,0.9863280653953552,0.9872492057490821,-0.5092620849609375,0.3643035888671875,-1.2416839599609375,1.390627208300107
1785337809.16403,-0.0400390587747097,-0.0229492224752903,0.9868163466453552,0.987894880564866,-0.75531005859375,0.18310546875,-1.3637542724609375,1.5696644905694057
1785337809.172046,-0.0424804650247097,-0.0288085974752903,0.9819335341453552,0.9832741177700125,-0.75531005859375,0.18310546875,-1.5468597412109375,1.7311256327251987
1785337809.180062,-0.04296875,-0.02978515625,0.9868163466453552,0.9882003698723681,-0.446319580078125,0.057220458984375,-1.9168853759765625,1.968990831141756
1785337809.188078,-0.0581054612994194,-0.0283203125,1.00146484375,1.0035487621436876,-0.5702972412109375,0.1811981201171875,-1.9168853759765625,2.008113853022188
1785337809.198753,-0.0371093712747097,-0.0190429724752903,0.9892577528953552,0.9901366783937794,-0.5702972412109375,-0.0019073486328125,-1.9168853759765625,1.9999230300050101
1785337809.209428,-0.0625,-0.0205078125,0.9960936903953552,0.9982632220105943,-0.4482269287109375,-0.1850128173828125,-2.1572113037109375,2.2110399659607713
1785337809.220103,-0.0473632775247097,-0.0195312462747097,1.00390625,1.005212668258806,-0.3871917724609375,-0.3070831298828125,-1.4858245849609375,1.565851913366781
1785337809.230734,-0.0405273400247097,-0.0219726599752903,0.9902343153953552,0.9913068457659192,-0.3261566162109375,-0.2460479736328125,-1.8520355224609375,1.8965635555087892
1785337809.241365,-0.0415039025247097,-0.0292968712747097,0.9926757216453552,0.9939748331499114,-0.263214111328125,-0.919342041015625,-1.4858245849609375,1.7669595790666441
1785337809.251996,-0.0449218675494194,-0.02685546875,0.9853515028953552,0.9867404798851849,-0.08392333984375,-0.919342041015625,-1.1806488037109375,1.4987209590358614
1785337809.259988,-0.0488281175494194,-0.0126953125,0.9980468153953552,0.999321170467084,0.2231597900390625,-1.1615753173828125,-0.8144378662109375,1.436094198777185
1785337809.267981,-0.0351562462747097,-0.0239257849752903,0.9868163466453552,0.9877322040134653,0.40435791015625,-0.919342041015625,-1.1806488037109375,1.5500408722316883
1785337809.275974,-0.046875,-0.04150390625,0.9853515028953552,0.9873385559761879,0.2231597900390625,-1.0395050048828125,-0.6923675537109375,1.2687567838235831
1785337809.283967,-0.0444335900247097,-0.0341796837747097,0.9916991591453552,0.9932823450333886,0.2841949462890625,-0.9784698486328125,-0.5092620849609375,1.139086424885541
1785337809.294652,-0.0439453050494194,-0.02099609375,0.9902343153953552,0.9914313012887747,0.1621246337890625,-0.9784698486328125,-0.8144378662109375,1.2833536844856843
1785337809.305337,-0.0356445275247097,-0.014160159975290298,0.9882811903953552,0.9890251532505359,0.1621246337890625,-0.7343292236328125,-0.5702972412109375,0.9438022827346907
1785337809.316022,-0.0502929612994194,-0.03662109375,0.9882811903953552,0.9902374451377667,0.28228759765625,-0.736236572265625,-0.5702972412109375,0.9731235900258405
1785337809.326698,-0.0263671837747097,-0.0278320349752903,0.9926757216453552,0.9934157935603811,0.09918212890625,-0.553131103515625,-0.2040863037109375,0.5978648105827788
1785337809.337372,-0.04296875,-0.01611328125,0.9897460341453552,0.9908093476626383,0.28228759765625,-0.736236572265625,-0.5702972412109375,0.9731235900258405
1785337809.348046,-0.0317382775247097,-0.0332031287252903,0.9975585341453552,0.9986154390272631,0.1621246337890625,-0.6122589111328125,-0.5092620849609375,0.8127073534314403
1785337809.358832,-0.0419921837747097,-0.0195312462747097,0.9946288466453552,0.9957064605888032,0.58746337890625,-0.553131103515625,-0.4520416259765625,0.9248831660528241
1785337809.369618,-0.0419921837747097,-0.0278320349752903,0.9882811903953552,0.989564387474759,0.58746337890625,-0.6103515625,-0.2040863037109375,0.8713744721785994
1785337809.380404,-0.0419921837747097,-0.0229492224752903,0.9990233778953552,1.0001688456914837,0.5283355712890625,-0.3681182861328125,-0.2689361572265625,0.6978368040870943
1785337809.389507,-0.0493164025247097,-0.013183597475290298,0.9936522841453552,0.9949627011037405,0.40435791015625,-0.186920166015625,-0.3261566162109375,0.5521074227606504
1785337809.398612,-0.0390624925494194,-0.01611328125,0.9848632216453552,0.9857692841159553,0.64849853515625,0.057220458984375,-0.1468658447265625,0.6673785337972981
1785337809.407717,-0.0468749962747097,-0.0224609412252903,0.9902343153953552,0.9915975789315885,0.3452301025390625,0.3032684326171875,-0.0820159912109375,0.4667785221446353
1785337809.416822,-0.0439453050494194,-0.01611328125,0.9907225966453552,0.9918276519497948,0.40435791015625,0.240325927734375,0.1010894775390625,0.48112467564700795
1785337809.425461,-0.0410156212747097,-0.0209960900247097,0.9868163466453552,0.9878915016292842,0.40435791015625,0.240325927734375,0.1010894775390625,0.48112467564700795
1785337809.434103,-0.0483398362994194,-0.02294921875,0.9873046278953552,0.9887536774537306,0.2231597900390625,0.3032684326171875,0.2841949462890625,0.47174018443270993
1785337809.442745,-0.0468749962747097,-0.0185546912252903,0.9907225966453552,0.9920044381684666,-0.0209808349609375,0.3032684326171875,0.5245208740234375,0.606245894785321
1785337809.451387,-0.0356445275247097,-0.008789066225290298,0.9877929091453552,0.9884748916312525,0.1010894775390625,0.3032684326171875,0.2193450927734375,0.3876894303627507
1785337809.460029,-0.0473632775247097,-0.0200195275247097,0.9863280653953552,0.987667511932401,-0.02288818359375,0.057220458984375,0.4673004150390625,0.47134671715233556
1785337809.469679,-0.0390624925494194,-0.015625,0.9882811903953552,0.9891762887566775,-0.02288818359375,0.240325927734375,0.7724761962890625,0.8093206375243545
1785337809.479329,-0.0449218675494194,-0.0166015625,1.00244140625,1.0035847542813943,-0.2651214599609375,-0.1239776611328125,0.6504058837890625,0.7132234310923983
1785337809.488979,-0.05224609375,-0.02099609375,0.9941405653953552,0.9957338771124989,-0.08392333984375,0.18310546875,0.8945465087890625,0.9169428532048151
1785337809.498629,-0.0375976525247097,-0.0239257849752903,1.00439453125,1.0053827137299307,-0.38909912109375,-0.064849853515625,0.5245208740234375,0.6562970187523615
1785337809.508279,-0.0410156212747097,-0.0356445275247097,0.9873046278953552,0.9887988884472899,-0.3261566162109375,0.3032684326171875,1.1386871337890625,1.2226848609421008
1785337809.516222,-0.0454101487994194,-0.02587890625,0.9892577528953552,0.9906375225410399,-0.263214111328125,0.240325927734375,0.7076263427734375,0.7923214378839898
1785337809.524165,-0.0522460900247097,-0.0249023400247097,0.9921874403953552,0.993874085254195,-0.2040863037109375,0.3643035888671875,0.8335113525390625,0.9322604244712972
1785337809.532108,-0.0449218675494194,-0.0302734375,0.9887694716453552,0.9902522523377711,-0.1430511474609375,0.1811981201171875,0.7724761962890625,0.8062356128062763
1785337809.540051,-0.0351562425494194,-0.03076171875,0.9999999403953552,1.001090468200233,-0.38909912109375,0.118255615234375,0.8335113525390625,0.9274285370754377
1785337809.550703,-0.0278320275247097,-0.0395507775247097,0.9926757216453552,0.9938530948299512,-0.2040863037109375,0.1201629638671875,1.0128021240234375,1.0401242712647978
1785337809.561355,-0.0556640587747097,-0.0253906212747097,1.00048828125,1.0023572077890044,-0.0820159912109375,-0.0019073486328125,0.8335113525390625,0.8375389158747294
1785337809.572007,-0.0395507737994194,-0.02978515625,0.9780272841453552,0.9792797290732148,0.0400543212890625,0.2422332763671875,0.9555816650390625,0.986619292023188
1785337809.582704,-0.056640625,-0.02685546875,0.9887694716453552,0.9907544825333912,-0.20599365234375,0.057220458984375,0.5245208740234375,0.5664183198119664
1785337809.593401,-0.0517578087747097,-0.0244140587747097,0.9970702528953552,0.9987111725838567,-0.08392333984375,-0.064849853515625,0.8945465087890625,0.9008119042609438
1785337809.604098,-0.0473632775247097,-0.013671878725290298,0.9916991591453552,0.9929236740935158,0.0400543212890625,0.2422332763671875,0.3414154052734375,0.42053036488645534
1785337809.612085,-0.0385742112994194,-0.03369140625,0.9946288466453552,0.9959465965660731,0.1621246337890625,-0.2460479736328125,0.2841949462890625,0.4093785164200656
1785337809.620071,-0.0400390550494194,-0.021484375,0.9887694716453552,0.9898129986801678,-0.0209808349609375,-0.1239776611328125,0.4673004150390625,0.48392182611585177
1785337809.628057,-0.0458984337747097,-0.013183597475290298,0.9990233778953552,1.0001640780625984,-0.2040863037109375,-0.3681182861328125,-0.1468658447265625,0.44579352652881693
1785337809.636043,-0.0395507737994194,-0.0263671875,0.9877929091453552,0.988935955278519,-0.2040863037109375,-0.1850128173828125,0.0362396240234375,0.2778385723899384
1785337809.646703,-0.0463867150247097,-0.0234375037252903,0.9804686903953552,0.9818451490725203,-0.3871917724609375,-0.3681182861328125,-0.3261566162109375,0.6259446297756459
1785337809.657363,-0.0395507775247097,-0.0244140587747097,0.9936522841453552,0.9947387456291957,-0.2040863037109375,-0.3681182861328125,-0.3261566162109375,0.5324851455636307
1785337809.668023,-0.0395507775247097,-0.0341796837747097,1.0087890625,1.0101425084637203,-0.2040863037109375,-0.6122589111328125,0.0362396240234375,0.6463942326268779
1785337809.678687,-0.046875,-0.021484375,0.9833983778953552,0.984749315126117,-0.263214111328125,-0.431060791015625,-0.0209808349609375,0.5055049647520081
1785337809.689352,-0.0468749962747097,-0.0200195275247097,0.9990233778953552,1.0003228260614232,-0.3261566162109375,-0.3681182861328125,0.0362396240234375,0.4931556764682813
1785337809.700017,-0.0478515625,-0.01806640625,0.9892577528953552,0.9905791582362559,-0.1430511474609375,-0.5512237548828125,-0.1468658447265625,0.5881163448538432
1785337809.708147,-0.0419921875,-0.02099609375,0.9965819716453552,0.9976872285302331,-0.57220458984375,-0.79345703125,-0.2040863037109375,0.9993214560093817
1785337809.716275,-0.0341796800494194,-0.03125,0.9882811903953552,0.9893657181838984,-0.0209808349609375,-0.7953643798828125,-0.0209808349609375,0.7959176387401444
1785337809.724403,-0.033203125,-0.02783203125,0.9941405653953552,0.9950841839954362,-0.38909912109375,-0.6103515625,0.1621246337890625,0.7417624638409238
1785337809.732531,-0.0498046800494194,-0.0263671875,0.9902343153953552,0.9918365460689543,-0.08392333984375,-0.431060791015625,0.3414154052734375,0.556256246238702
1785337809.74073,-0.04296875,-0.02734375,0.9868163466453552,0.9881297972164946,-0.1430511474609375,-0.5512237548828125,0.5245208740234375,0.7742308480184115
1785337809.748929,-0.0424804650247097,-0.0283203162252903,0.9838866591453552,0.985210428418226,-0.57220458984375,-0.431060791015625,0.3414154052734375,0.7935968605956655
1785337809.757128,-0.0375976525247097,-0.0195312462747097,0.9765624403953552,0.9774810755443524,-0.2040863037109375,-0.5512237548828125,0.6504058837890625,0.8766565239459132
1785337809.7731,-0.0541992112994194,-0.03662109375,0.9897460341453552,0.991905172443104,-0.1430511474609375,-0.4291534423828125,0.6504058837890625,0.792252561729112
1785337809.780875,-0.0415039025247097,-0.0268554724752903,0.9995116591453552,1.0007334046059182,-0.5092620849609375,-0.3070831298828125,0.8335113525390625,1.0239087335543549
1785337809.78865,-0.0449218712747097,-0.0195312462747097,0.9873046278953552,0.9885190298438623,-0.38909912109375,-0.1220703125,0.6504058837890625,0.767676429817412
1785337809.796425,-0.0361328087747097,-0.0263671912252903,0.9951171278953552,0.9961219337379141,-0.57220458984375,-0.1220703125,0.5245208740234375,0.78577439581499
1785337809.80699,-0.0434570237994194,-0.0146484375,0.9941405653953552,0.9951977458793259,-0.4482269287109375,0.1811981201171875,0.2841949462890625,0.560809152788973
1785337809.817555,-0.0410156212747097,-0.0224609412252903,0.9897460341453552,0.990850133559932,-0.38909912109375,0.118255615234375,0.5893707275390625,0.7160589159072828
1785337809.82812,-0.0385742112994194,-0.025390625,1.00048828125,1.0015535205538653,-0.3871917724609375,0.3032684326171875,0.1621246337890625,0.5178548134031059
1785337809.836097,-0.0532226487994194,-0.02294921875,0.9931640028953552,0.9948537850526512,-0.3261566162109375,0.2422332763671875,0.5245208740234375,0.663458548640427
1785337809.844074,-0.0371093712747097,-0.0224609412252903,0.9868163466453552,0.987769255101421,-0.3261566162109375,0.2422332763671875,0.1010894775390625,0.4186575939199857
1785337809.852051,-0.0332031212747097,-0.0185546912252903,0.9780272841453552,0.9787666179235928,-0.263214111328125,0.240325927734375,0.0362396240234375,0.3582618180786263
1785337809.860028,-0.0410156212747097,-0.0219726599752903,0.9956054091453552,0.9966921338580085,-0.38909912109375,0.057220458984375,0.0362396240234375,0.39495014534960154
1785337809.870705,-0.0444335900247097,-0.0244140587747097,0.9916991591453552,0.9929942660649876,-0.57220458984375,0.301361083984375,0.0362396240234375,0.647726721641042
1785337809.881382,-0.03271484375,-0.02099609375,0.9960936903953552,0.9968519132748773,-0.5092620849609375,0.4253387451171875,0.0362396240234375,0.6645105188226782
1785337809.892059,-0.0502929650247097,-0.0302734337747097,0.9926757216453552,0.9944098508500482,-0.3261566162109375,0.4863739013671875,-0.2689361572265625,0.6444100921719784
1785337809.902708,-0.03759765625,-0.02099609375,0.9892577528953552,0.9901945876300373,-0.38909912109375,0.545501708984375,-0.5092620849609375,0.8416163684955061
1785337809.913356,-0.0454101525247097,-0.0234375037252903,0.9956054091453552,0.9969160091264864,0.0400543212890625,0.8525848388671875,-0.4520416259765625,0.9658399907519102
1785337809.924004,-0.0449218712747097,-0.0190429724752903,0.9946288466453552,0.9958248600525023,-0.08392333984375,0.789642333984375,-0.7534027099609375,1.0946203844106437
1785337809.932022,-0.0434570237994194,-0.0263671875,0.9970702528953552,0.9983650788679315,-0.0820159912109375,0.4863739013671875,-0.4520416259765625,0.6690499430991573
1785337809.940041,-0.0371093712747097,-0.0278320349752903,0.9902343153953552,0.9913201939806219,-0.4482269287109375,0.4253387451171875,-0.5092620849609375,0.8007298538822346
1785337809.94806,-0.0434570237994194,-0.01708984375,0.9873046278953552,0.9884083184294274,-0.5092620849609375,0.8525848388671875,-0.3261566162109375,1.0452879588625892
1785337809.956079,-0.0463867150247097,-0.013671878725290298,0.9936522841453552,0.9948283818759618,-0.9365081787109375,1.0967254638671875,-0.2689361572265625,1.4670313454561785
1785337809.966734,-0.0400390550494194,-0.02734375,0.9848632216453552,0.9860559679566779,-0.81634521484375,1.033782958984375,-0.1468658447265625,1.325404199643273
1785337809.977389,-0.0615234337747097,-0.015624996274709702,0.9829100966453552,0.9849576292914316,-0.8144378662109375,0.7915496826171875,-0.2040863037109375,1.1539112432643979
1785337809.988044,-0.0478515625,-0.017578125,0.9902343153953552,0.9915456428721346,-1.06048583984375,0.423431396484375,-0.1468658447265625,1.1513009773230711
1785337809.99871,-0.0419921837747097,-0.0195312462747097,1.00732421875,1.008388265877539,-0.8144378662109375,0.2422332763671875,-0.0820159912109375,0.8536466604585997
1785337810.009376,-0.04638671875,-0.021484375,0.9975585341453552,0.9988675262975376,-0.6923675537109375,-0.1850128173828125,-0.2040863037109375,0.7451535354475525
1785337810.020042,-0.0454101525247097,-0.0205078087747097,0.9804686903953552,0.9817339278127452,-0.9365081787109375,-0.3070831298828125,0.0362396240234375,0.9862357364243407
1785337810.030742,-0.0385742112994194,-0.04052734375,0.9873046278953552,0.9888887013372075,-0.69427490234375,-0.736236572265625,-0.2040863037109375,1.032333836376709
1785337810.041444,-0.0507812462747097,-0.0190429724752903,0.9873046278953552,0.9887931017343786,-0.75531005859375,-0.675201416015625,-0.3261566162109375,1.0643159188420364
1785337810.052146,-0.0483398362994194,-0.0322265625,0.9843749403953552,0.9860878837012349,-0.51116943359375,-0.919342041015625,-0.0820159912109375,1.0550879589084707
1785337810.060107,-0.0419921875,-0.03076171875,0.9892577528953552,0.9906263315776827,-0.6923675537109375,-0.7953643798828125,-0.3261566162109375,1.1037914044402628
1785337810.068068,-0.04296875,-0.0263671875,0.9916991591453552,0.9929797401270719,-0.5092620849609375,-0.8563995361328125,-0.0820159912109375,0.999747297811587
1785337810.076029,-0.0585937425494194,-0.02734375,0.9868163466453552,0.9889324594412381,-0.3261566162109375,-0.9174346923828125,-0.0820159912109375,0.9771341647389201
1785337810.08399,-0.0400390587747097,-0.0297851525247097,0.9960936903953552,0.9973429307835509,-0.141143798828125,-1.102447509765625,0.0362396240234375,1.1120365974577555
1785337810.0947,-0.0444335900247097,-0.0292968712747097,0.9931640028953552,0.9945890544521874,-0.08392333984375,-0.736236572265625,0.4062652587890625,0.8450673806335861
1785337810.10541,-0.0385742112994194,-0.021484375,0.9799804091453552,0.980974592155786,0.1010894775390625,-0.9784698486328125,0.6504058837890625,1.1792583011452882
1785337810.11612,-0.0439453050494194,-0.0244140625,0.9941405653953552,0.9954108197363725,-0.08392333984375,-1.102447509765625,0.7724761962890625,1.3487598424449683
1785337810.124635,-0.0356445275247097,-0.0302734337747097,1.00146484375,1.002556156233746,0.09918212890625,-0.431060791015625,0.5245208740234375,0.6861287397651429
1785337810.133152,-0.0371093712747097,-0.0288085974752903,0.9902343153953552,0.9913480923022979,0.2841949462890625,-0.4901885986328125,0.7076263427734375,0.9065245008893881
1785337810.141669,-0.0395507737994194,-0.0263671875,0.9912108778953552,0.9923499870221563,0.1010894775390625,-0.0019073486328125,0.9555816650390625,0.9609157293991782
1785337810.150186,-0.037109375,-0.021484375,0.9907225966453552,0.9916501134905126,-0.0209808349609375,-0.1850128173828125,0.8335113525390625,0.8540556848608183
1785337810.160148,-0.0346679612994194,-0.02685546875,0.9858397841453552,0.9868146552145447,-0.08392333984375,-0.186920166015625,0.6504058837890625,0.6819164824971382
1785337810.17011,-0.0463867150247097,-0.0307617150247097,0.9838866591453552,0.9854597751741334,0.1621246337890625,-0.0019073486328125,0.4673004150390625,0.4946288636500349
1785337810.180072,-0.03271484375,-0.0322265625,0.9799804091453552,0.9810557653063617,-0.2040863037109375,-0.3681182861328125,0.2193450927734375,0.4746309742015792
1785337810.188116,-0.0439453087747097,-0.013671878725290298,0.9907225966453552,0.9917909930700615,0.0400543212890625,-0.1850128173828125,0.4062652587890625,0.4482025789180572
1785337810.19616,-0.0390624925494194,-0.0400390625,0.9931640028953552,0.9947380265663807,0.09918212890625,-0.247955322265625,0.4062652587890625,0.48617938770907376
1785337810.204204,-0.0366210900247097,-0.0288085974752903,0.9877929091453552,0.9888912330893298,-0.0209808349609375,-0.0629425048828125,-0.0209808349609375,0.06958555735380058
1785337810.212248,-0.0434570237994194,-0.0263671875,0.9931640028953552,0.9944639149518139,0.0400543212890625,-0.3681182861328125,0.1621246337890625,0.40422743365650515
1785337810.222923,-0.0400390587747097,-0.0229492224752903,0.9848632216453552,0.985943892110222,0.1010894775390625,0.4863739013671875,0.1010894775390625,0.5069494421235513
1785337810.233598,-0.0454101525247097,-0.0185546912252903,0.9941405653953552,0.9953501003583511,0.28228759765625,0.423431396484375,-0.0820159912109375,0.5154678051377772
1785337810.244273,-0.03759765625,-0.0361328125,0.9780272841453552,0.9794164244219068,-0.08392333984375,0.423431396484375,0.1010894775390625,0.4433467683071099
1785337810.255003,-0.0522460900247097,-0.0332031287252903,0.9790038466453552,0.9809590375884308,-0.3261566162109375,0.1811981201171875,0.2193450927734375,0.4328084642840981
1785337810.265734,-0.0478515587747097,-0.0234375037252903,0.9946288466453552,0.9960550340403446,-0.1430511474609375,-0.1239776611328125,0.1621246337890625,0.2492358082842251
1785337810.276465,-0.0468749962747097,-0.0278320349752903,0.9858397841453552,0.9873459208658232,-0.1430511474609375,-0.1850128173828125,0.2841949462890625,0.36804910118360556
1785337810.286992,-0.0317382775247097,-0.0224609412252903,0.9882811903953552,0.9890457640727358,-0.38909912109375,-0.1220703125,0.2193450927734375,0.4630459555525394
1785337810.297519,-0.0463867150247097,-0.0219726599752903,0.9907225966453552,0.9920513034217981,-0.75531005859375,-0.431060791015625,0.2193450927734375,0.8968940628010079
1785337810.308046,-0.0498046800494194,-0.03173828125,0.9902343153953552,0.9919938629034138,-0.38909912109375,-0.1220703125,0.2841949462890625,0.49705739580658037
1785337810.316085,-0.0346679650247097,-0.014648433774709702,0.9882811903953552,0.9889975509071126,-0.446319580078125,-0.431060791015625,0.2841949462890625,0.6824817511174737
1785337810.324125,-0.0429687462747097,-0.0234375037252903,0.9794921278953552,0.9807142592754855,-0.9365081787109375,-0.3681182861328125,0.2193450927734375,1.0298887857927304
1785337810.332165,-0.0400390550494194,-0.02587890625,0.9794921278953552,0.9806516569745434,-0.57220458984375,-0.431060791015625,0.0362396240234375,0.7173177876915019
1785337810.340205,-0.0439453050494194,-0.015625,0.9794921278953552,0.9806019371130456,-0.38909912109375,-0.431060791015625,0.1010894775390625,0.5894324507999756
1785337810.350912,-0.0366210900247097,-0.0273437537252903,1.0009765625,1.0020193929144803,-0.4482269287109375,-0.6732940673828125,-0.0209808349609375,0.8091183326499216
1785337810.361619,-0.02880859375,-0.01171875,0.9902343153953552,0.9907225966747316,-0.2651214599609375,-0.5512237548828125,-0.1468658447265625,0.629052138400445
1785337810.372326,-0.0336913987994194,-0.029296875,0.9853515028953552,0.9863625101837368,-0.38909912109375,-0.553131103515625,0.1010894775390625,0.6837918003175106
1785337810.380249,-0.0581054612994194,-0.017578125,0.9848632216453552,0.9867323854323431,-0.20599365234375,-0.736236572265625,-0.0820159912109375,0.768898106358487
1785337810.388172,-0.0454101525247097,-0.0195312462747097,1.00146484375,1.0026840902301046,-0.3261566162109375,-0.7343292236328125,0.1010894775390625,0.8098374092671062
1785337810.396095,-0.0356445275247097,-0.0239257849752903,0.9838866591453552,0.9848227929802152,-0.2651214599609375,-0.7953643798828125,-0.0209808349609375,0.8386501539699661
1785337810.404018,-0.0307617150247097,-0.010742183774709702,0.9912108778953552,0.9917462790863356,-0.5092620849609375,-0.7343292236328125,0.1010894775390625,0.8993366234781339
1785337810.414691,-0.0405273362994194,-0.03173828125,0.9926757216453552,0.9940094928260781,-0.5092620849609375,-0.7343292236328125,-0.0209808349609375,0.8938833678369837
1785337810.425364,-0.04248046875,-0.0400390625,0.9775390028953552,0.979280459793181,-0.38909912109375,-0.553131103515625,-0.0209808349609375,0.6766035317288847
1785337810.436037,-0.0380859337747097,-0.0283203162252903,0.9975585341453552,0.998686941793484,-0.08392333984375,-0.431060791015625,-0.2689361572265625,0.5149594053761288
1785337810.446746,-0.0410156212747097,-0.0219726599752903,0.9863280653953552,0.9874250004742052,-0.3261566162109375,-0.4901885986328125,-0.4520416259765625,0.7422968625444296
1785337810.457458,-0.0366210900247097,-0.0234375037252903,0.9999999403953552,1.0009447045697304,-0.2651214599609375,-0.4901885986328125,-0.5702972412109375,0.7973789526280624
1785337810.46817,-0.03759765625,-0.02001953125,0.9907225966453552,0.9916378516831021,-0.0209808349609375,-0.1239776611328125,-0.6923675537109375,0.7036927492359777
1785337810.478784,-0.029785148799419403,-0.03076171875,0.9843749403953552,0.985305770666049,-0.0209808349609375,-0.3070831298828125,-0.7534027099609375,0.8138524973671623
1785337810.489399,-0.0537109300494194,-0.02490234375,0.9975585341453552,0.9993137744358609,0.2841949462890625,-0.4901885986328125,-0.8754730224609375,1.0428349067722718
1785337810.500014,-0.0507812462747097,-0.0322265662252903,0.9838866591453552,0.9857232089121643,0.1010894775390625,-0.4901885986328125,-0.6351470947265625,0.8086505899573153
1785337810.508037,-0.0483398362994194,-0.02880859375,0.9843749403953552,0.9859820982784963,0.1621246337890625,-0.3681182861328125,-0.8754730224609375,0.9634565286111699
1785337810.51606,-0.0449218712747097,-0.0292968712747097,0.9912108778953552,0.9926607102345641,0.1621246337890625,-0.1239776611328125,-0.6923675537109375,0.7218224759404961
1785337810.524083,-0.0390624962747097,-0.0234375037252903,0.9931640028953552,0.9942081934098159,-0.0209808349609375,-0.1850128173828125,-0.6923675537109375,0.7169677590123924
1785337810.532106,-0.0356445275247097,-0.0292968712747097,0.9824218153953552,0.9835046834528304,0.09918212890625,0.240325927734375,-0.6351470947265625,0.6862983885857208
1785337810.543045,-0.0449218675494194,-0.0322265625,0.9985350966453552,1.0000644302979897,-0.02288818359375,0.057220458984375,-0.3871917724609375,0.39206570691154075
1785337810.553984,-0.0410156212747097,-0.0336914025247097,0.9882811903953552,0.9897055638329476,0.2841949462890625,-0.3070831298828125,-0.8144378662109375,0.9156286660394006
1785337810.564923,-0.0356445275247097,-0.0356445275247097,0.9902343153953552,0.9915165475530034,0.3452301025390625,0.2422332763671875,-0.6351470947265625,0.7624123659925164
1785337810.575294,-0.0390624925494194,-0.0224609375,0.9838866591453552,0.9849179306326801,0.40435791015625,-0.247955322265625,-0.6351470947265625,0.7927162123265632
1785337810.585666,-0.0449218675494194,-0.0302734375,0.9946288466453552,0.9961029052167569,0.1621246337890625,0.2422332763671875,-0.4520416259765625,0.5378689326186764
1785337810.596038,-0.052734375,-0.0302734375,0.9877929091453552,0.9896626832828199,0.09918212890625,0.057220458984375,-0.2689361572265625,0.29229767752164726
1785337810.604042,-0.04296875,-0.0263671875,0.9936522841453552,0.9949303512510332,0.1621246337890625,0.1811981201171875,-0.4520416259765625,0.5132823659846252
1785337810.612049,-0.0346679612994194,-0.0263671875,0.9946288466453552,0.995582060252387,0.5283355712890625,0.3032684326171875,-0.3261566162109375,0.6910053229965702
1785337810.620056,-0.0483398362994194,-0.0302734375,0.9853515028953552,0.987000914411763,0.5283355712890625,0.1201629638671875,-0.2689361572265625,0.6049002152739552
1785337810.628063,-0.0419921837747097,-0.0292968712747097,0.9960936903953552,0.9974087879150121,0.7724761962890625,0.3032684326171875,-0.5092620849609375,0.9736729878321905
1785337810.638725,-0.0458984337747097,-0.0283203162252903,0.9946288466453552,0.996089980430052,0.4673004150390625,-0.3070831298828125,-0.9403228759765625,1.0940186642096825
1785337810.649387,-0.0351562462747097,-0.0224609412252903,0.9882811903953552,0.989161345192034,0.3452301025390625,-0.3070831298828125,-0.6923675537109375,0.8323801425967728
1785337810.660049,-0.04296875,-0.03125,0.9931640028953552,0.9945841405450259,0.6504058837890625,-0.3681182861328125,-0.6923675537109375,1.0187795226075456
1785337810.670715,-0.0380859375,-0.0224609375,0.9990233778953552,1.0000013709640996,0.95367431640625,-0.247955322265625,-0.8144378662109375,1.2783917950030041
1785337810.68138,-0.0512695275247097,-0.0332031287252903,0.9882811903953552,0.9901670179818228,0.7114410400390625,-0.4901885986328125,-0.9975433349609375,1.3196688678628639
1785337810.692045,-0.0429687462747097,-0.0336914025247097,0.9804686903953552,0.9819879208045714,1.0166168212890625,-0.1850128173828125,-1.1806488037109375,1.5689713514363068
1785337810.700028,-0.0449218675494194,-0.03564453125,1.005859375,1.0074927240767302,0.8335113525390625,-0.3681182861328125,-0.9975433349609375,1.3510532752344913
1785337810.708011,-0.0390624962747097,-0.0336914025247097,0.9858397841453552,0.9871884669216179,0.9555816650390625,-0.3681182861328125,-0.7534027099609375,1.271323339878833
1785337810.715994,-0.0390624925494194,-0.03173828125,0.9873046278953552,0.9885866806125112,1.0166168212890625,-0.6732940673828125,-0.6923675537109375,1.40221520885078
1785337810.723977,-0.0551757737994194,-0.02685546875,0.9990233778953552,1.0009062352676161,0.9555816650390625,-0.7953643798828125,-0.8144378662109375,1.4862872714463455
1785337810.734814,-0.0346679650247097,-0.013671878725290298,0.9853515028953552,0.9860559681503727,0.4673004150390625,-0.6122589111328125,-0.4520416259765625,0.8930690252006009
1785337810.745651,-0.0385742112994194,-0.01513671875,0.9799804091453552,0.9808561017501939,0.3452301025390625,-0.0629425048828125,-0.3261566162109375,0.4790863397324362
1785337810.756488,-0.0595703087747097,-0.013183597475290298,0.9746093153953552,0.9765171511987425,-0.08392333984375,-0.247955322265625,-0.5092620849609375,0.5726018162642699
1785337810.767,-0.0400390587747097,-0.0283203162252903,0.9970702528953552,0.9982756411670439,-0.3871917724609375,-0.1850128173828125,-0.2040863037109375,0.4751825234788853
1785337810.777515,-0.0380859375,-0.02490234375,0.9829100966453552,0.9839628669044775,-0.38909912109375,-0.1220703125,0.0362396240234375,0.40940517532041104
1785337810.78803,-0.0366210900247097,-0.0322265662252903,0.9848632216453552,0.9860705964356401,-0.5092620849609375,-0.2460479736328125,-0.0820159912109375,0.5715016179521165
1785337810.798692,-0.0346679650247097,-0.0229492224752903,1.0029296875,1.003791060271022,-0.2040863037109375,-0.3070831298828125,0.2193450927734375,0.4290262669636968
1785337810.809356,-0.0380859375,-0.025390625,0.9877929091453552,0.9888528979737019,-0.1430511474609375,-0.3681182861328125,-0.0209808349609375,0.39549323484847143
1785337810.82002,-0.0458984300494194,-0.03125,0.9887694716453552,0.9903273683175864,-0.08392333984375,-0.30517578125,0.0362396240234375,0.3185729034011485
1785337810.828021,-0.03271484375,-0.0263671875,0.9741210341453552,0.97502680924304,-0.3871917724609375,-0.3070831298828125,-0.1468658447265625,0.5155454331747237
1785337810.836024,-0.0336913987994194,-0.03662109375,0.9902343153953552,0.9914838446727287,-0.3261566162109375,-0.3070831298828125,0.1621246337890625,0.47640590239629765
1785337810.844027,-0.0434570237994194,-0.0205078125,0.9975585341453552,0.9987152308527533,-0.0209808349609375,-0.1239776611328125,0.1621246337890625,0.20517078928750607
1785337810.85203,-0.0341796800494194,-0.033203125,0.9970702528953552,0.9982082885083924,-0.20599365234375,0.057220458984375,-0.0209808349609375,0.21482029971108033
1785337810.862691,-0.0405273362994194,-0.03076171875,0.9985350966453552,0.9998305294201258,0.3452301025390625,0.3032684326171875,0.2193450927734375,0.5091834989912822
1785337810.873352,-0.0434570237994194,-0.0205078125,0.9916991591453552,0.9928626821170403,0.484466552734375,0.095367431640625,0.2346038818359375,0.546664219707627
1785337810.884013,-0.0546874962747097,-0.0327148474752903,0.9863280653953552,0.9883845588032383,0.667572021484375,-0.026702880859375,0.6618499755859375,0.94043119785449
1785337810.894693,-0.0473632775247097,-0.0229492224752903,0.9863280653953552,0.9877312384736281,0.90789794921875,-0.087738037109375,0.9059906005859375,1.285610990036055
1785337810.905374,-0.0415039025247097,-0.0327148474752903,0.9780272841453552,0.9794540334813326,0.90789794921875,0.095367431640625,0.8449554443359375,1.243914521229768
1785337810.916055,-0.0512695275247097,-0.0166015662252903,0.9873046278953552,0.988774294122438,0.7266998291015625,0.3376007080078125,0.7839202880859375,1.1209807749182659
1785337810.924048,-0.0473632775247097,-0.0249023400247097,0.9985350966453552,0.9999678723984775,1.0318756103515625,0.1544952392578125,0.7839202880859375,1.3050544326825904
1785337810.932043,-0.0444335862994194,-0.03515625,0.9819335341453552,0.9835668614713887,0.9098052978515625,0.1544952392578125,0.8449554443359375,1.2512250644328704
1785337810.940038,-0.0532226487994194,-0.0185546875,0.9882811903953552,0.9898871845128158,1.21307373046875,0.278472900390625,0.7839202880859375,1.470926935601519
1785337810.948033,-0.0488281175494194,-0.02978515625,0.9873046278953552,0.9889599430006468,0.84686279296875,0.034332275390625,0.7839202880859375,1.1545069568092992
1785337810.956022,-0.0478515625,-0.01806640625,0.9833983778953552,0.9847276459588699,0.54168701171875,0.095367431640625,0.7839202880859375,0.9576276853533725
1785337810.964011,-0.05224609375,-0.025390625,0.9926757216453552,0.994373886671483,0.5435943603515625,-0.1506805419921875,0.7839202880859375,0.9657797225112065
1785337810.972,-0.04248046875,-0.02587890625,0.9926757216453552,0.9939212224105303,0.2994537353515625,-0.1506805419921875,0.5397796630859375,0.635404792264137
1785337810.988009,-0.0400390587747097,-0.0283203162252903,0.9926757216453552,0.9938864396312045,0.4215240478515625,-0.7610321044921875,0.7839202880859375,1.1710608033136936
1785337810.996027,-0.0385742112994194,-0.02294921875,0.9829100966453552,0.9839343954278603,0.1773834228515625,-0.4558563232421875,1.1501312255859375,1.2498286691423879
1785337811.004045,-0.0322265587747097,-0.0200195275247097,0.9863280653953552,0.9870574376191674,0.1163482666015625,-0.1506805419921875,0.8449554443359375,0.8661358137089062
1785337811.012063,-0.0395507775247097,-0.0244140587747097,0.9887694716453552,0.9898612924680402,0.05340576171875,-0.270843505859375,1.2111663818359375,1.2422287971788906
1785337811.022743,-0.04248046875,-0.01611328125,0.9912108778953552,0.9922515973864402,-0.0057220458984375,0.3376007080078125,1.0280609130859375,1.082088823004716
1785337811.033423,-0.0283203125,-0.015625,0.9877929091453552,0.9883223219592592,0.11444091796875,0.095367431640625,0.9670257568359375,0.97843266764115
1785337811.044103,-0.0512695275247097,-0.0229492224752903,0.9868163466453552,0.9884137459947192,0.35858154296875,0.034332275390625,1.0890960693359375,1.147122345843867
1785337811.052209,-0.0312499962747097,-0.0239257849752903,0.9941405653953552,0.9949193279952148,0.1163482666015625,-0.1506805419921875,1.2722015380859375,1.2863663157842997
1785337811.060314,-0.0385742112994194,-0.03515625,0.9877929091453552,0.9891707451442742,0.3604888916015625,-0.3337860107421875,1.2722015380859375,1.3637676104980394
1785337811.068419,-0.0512695275247097,-0.0224609412252903,0.9936522841453552,0.9952275720259235,0.23651123046875,-0.270843505859375,1.3332366943359375,1.3808743063464746
1785337811.076524,-0.0483398362994194,-0.02294921875,0.9941405653953552,0.9955796654107026,0.2994537353515625,-0.0896453857421875,1.0280609130859375,1.0745315611074255
1785337811.088407,-0.0351562462747097,-0.0244140587747097,0.9990233778953552,0.9999398569411206,0.1163482666015625,-0.0896453857421875,1.2111663818359375,1.2200398431262849
1785337811.100291,-0.0410156212747097,-0.0258789025247097,0.9814452528953552,0.9826427546241114,-0.003814697265625,0.278472900390625,1.2111663818359375,1.2427733955378797
1785337811.112175,-0.0400390587747097,-0.0229492224752903,1.001953125,1.003015382602406,0.2994537353515625,0.3986358642578125,1.2111663818359375,1.3097736813580172
1785337811.124059,-0.0405273362994194,-0.03076171875,0.9804686903953552,0.9817879614120165,-0.12969970703125,1.010894775390625,1.1501312255859375,1.5367277237636683
1785337811.134761,-0.0507812462747097,-0.0170898474752903,0.9877929091453552,0.9892449793745659,-0.12969970703125,0.888824462890625,1.2722015380859375,1.5573463626775597
1785337811.145463,-0.0385742112994194,-0.017578125,1.0009765625,1.0018737639693955,-0.0057220458984375,1.4400482177734375,1.3942718505859375,2.004436480574541
1785337811.156165,-0.0498046800494194,-0.0361328125,0.9936522841453552,0.9955555976846632,0.1163482666015625,1.3751983642578125,1.2111663818359375,1.8362002790240795
1785337811.16412,-0.037109375,-0.03125,0.9902343153953552,0.9914220431276473,0.1773834228515625,1.6803741455078125,1.2111663818359375,2.078953138501011
1785337811.172077,-0.0410156212747097,-0.0336914025247097,0.9936522841453552,0.9950689692578671,0.1163482666015625,2.3517608642578125,1.4553070068359375,2.7680741619294844
1785337811.180034,-0.04248046875,-0.03076171875,0.9799804091453552,0.9813829404846874,-0.06866455078125,2.231597900390625,1.0280609130859375,2.4579774715356786
1785337811.187991,-0.0405273400247097,-0.0244140587747097,0.9882811903953552,0.9894130698775885,0.179290771484375,2.048492431640625,1.3942718505859375,2.484443683516436
1785337811.198678,-0.0444335900247097,-0.0239257849752903,0.9936522841453552,0.9949329871385557,0.23651123046875,1.743316650390625,0.9670257568359375,2.007543105403007
1785337811.209365,-0.0283203125,-0.0361328125,0.9838866591453552,0.984957145404543,-0.0667572021484375,1.8634796142578125,0.9059906005859375,2.073121261562671
1785337811.220052,-0.0458984337747097,-0.0307617150247097,0.9941405653953552,0.9956748531015682,0.2384185791015625,1.8024444580078125,0.6008148193359375,1.9148440903106343
1785337811.22805,-0.0424804650247097,-0.0244140587747097,0.9824218153953552,0.9836428516180433,-0.1888275146484375,1.2569427490234375,0.3566741943359375,1.3201429413196482
1785337811.236047,-0.0478515587747097,-0.014160159975290298,0.9819335341453552,0.9832007665206953,-0.1888275146484375,1.0700225830078125,0.1125335693359375,1.0923680527471056
1785337811.244044,-0.0415039025247097,-0.0239257849752903,0.9877929091453552,0.9889539162515655,0.1773834228515625,1.0089874267578125,0.0514984130859375,1.0257546454236794
1785337811.252041,-0.0366210900247097,-0.0351562462747097,0.9941405653953552,0.9954358490888916,-0.06866455078125,0.766754150390625,0.1735687255859375,0.7891469129235484
1785337811.262693,-0.0493163987994194,-0.02490234375,0.9746093153953552,0.9761739351008044,0.35858154296875,0.400543212890625,0.0514984130859375,0.5400626583100927
1785337811.273345,-0.0502929612994194,-0.03173828125,0.9980468153953552,0.9998170563527006,-0.0057220458984375,0.3376007080078125,-0.0095367431640625,0.33778385000887384
1785337811.283997,-0.0439453050494194,-0.03955078125,0.9970702528953552,0.9988215773310964,-0.0667572021484375,-0.3337860107421875,-0.0705718994140625,0.3476348917942208
1785337811.294681,-0.0488281175494194,-0.03955078125,0.9995116591453552,1.001484900599308,0.23651123046875,-0.576019287109375,0.6618499755859375,0.9087250252100142
1785337811.305366,-0.0473632775247097,-0.0190429724752903,0.9838866591453552,0.9852100653681862,0.179290771484375,-1.064300537109375,0.7228851318359375,1.2990164463393938
1785337811.316051,-0.0468749962747097,-0.0327148474752903,0.9892577528953552,0.990907880776338,0.4215240478515625,-1.1272430419921875,0.7839202880859375,1.4362765808540172
1785337811.324047,-0.0625,-0.02685546875,0.9926757216453552,0.9950037962469837,0.4215240478515625,-1.1272430419921875,0.8449554443359375,1.4704792081324742
1785337811.332045,-0.0454101487994194,-0.02099609375,0.9897460341453552,0.9910096516549185,0.54168701171875,-1.369476318359375,1.1501312255859375,1.8686069788159703
1785337811.340043,-0.0419921837747097,-0.0273437537252903,0.9765624403953552,0.9778472397858932,0.4825592041015625,-1.6727447509765625,0.7839202880859375,1.9093112384981958
1785337811.348041,-0.0400390587747097,-0.0190429724752903,0.9907225966453552,0.991714184900052,0.2384185791015625,-1.6155242919921875,0.6618499755859375,1.7620464088839354
1785337811.358674,-0.0439453050494194,-0.029296875,0.9892577528953552,0.9906666434195813,0.54168701171875,-1.674652099609375,0.6618499755859375,1.880406834590319
1785337811.369307,-0.0517578087747097,-0.013671878725290298,0.9941405653953552,0.9955808630149713,0.35858154296875,-1.796722412109375,0.7228851318359375,1.9696078449690033
1785337811.37994,-0.0395507737994194,-0.021484375,0.9985350966453552,0.9995489889494272,0.41961669921875,-1.491546630859375,0.2956390380859375,1.5774003826332648
1785337811.390643,-0.0380859337747097,-0.0336914025247097,1.00244140625,1.003730253564199,0.90789794921875,-1.247406005859375,0.1735687255859375,1.552554840303935
1785337811.401347,-0.0405273400247097,-0.0283203162252903,0.9907225966453552,0.9919555277855424,1.155853271484375,-0.698089599609375,0.4787445068359375,1.4326626180331135
1785337811.412051,-0.0366210900247097,-0.0288085974752903,0.9819335341453552,0.9830384046426054,0.84686279296875,-0.576019287109375,-0.0095367431640625,1.0242391120763754
1785337811.420078,-0.0380859375,-0.02587890625,0.9956054091453552,0.9966696479493294,0.72479248046875,-0.392913818359375,-0.2536773681640625,0.8625877436646272
1785337811.428108,-0.0351562462747097,-0.0351562462747097,0.9829100966453552,0.984166744709268,0.84686279296875,-0.270843505859375,-0.3757476806640625,0.9652559838226601
1785337811.436138,-0.0434570237994194,-0.01611328125,0.9882811903953552,0.9893674049812866,0.7877349853515625,-0.3337860107421875,-0.1926422119140625,0.8769552610738776
1785337811.444168,-0.0434570237994194,-0.033203125,0.9858397841453552,0.9873555795310165,1.1539459228515625,-0.3337860107421875,-0.7419586181640625,1.4119160332331568
1785337811.454774,-0.0380859337747097,-0.0292968712747097,0.9868163466453552,0.9879854993998972,1.155853271484375,-0.087738037109375,-0.8029937744140625,1.4101396207839423
1785337811.46538,-0.02880859375,-0.017578125,0.9921874403953552,0.9927612212564786,1.21307373046875,0.095367431640625,-1.1081695556640625,1.6458075788717783
1785337811.475986,-0.0434570237994194,-0.02587890625,0.9936522841453552,0.9949387380605307,0.9098052978515625,0.1544952392578125,-1.1692047119140625,1.4895147254438759
1785337811.486663,-0.04296875,-0.0205078125,0.9868163466453552,0.9879642634511552,0.84686279296875,0.339508056640625,-0.8640289306640625,1.2565780133613706
1785337811.497339,-0.0522460900247097,-0.0234375037252903,0.9877929091453552,0.9894512630046954,1.2760162353515625,0.0934600830078125,-0.9250640869140625,1.5788273448654067
1785337811.508015,-0.0444335900247097,-0.0180664099752903,0.9916991591453552,0.9928584800169075,0.9708404541015625,-0.1506805419921875,-0.9250640869140625,1.349436689123775
1785337811.516011,-0.0346679650247097,-0.0288085974752903,0.9785155653953552,0.9795532220397417,0.9708404541015625,-0.3337860107421875,-0.6809234619140625,1.2319095134271605
1785337811.524008,-0.0439453050494194,-0.01513671875,0.9775390028953552,0.9786433529494023,0.7266998291015625,-0.3337860107421875,-0.7419586181640625,1.0908750311797173
1785337811.532005,-0.0439453050494194,-0.0224609375,1.00390625,1.005118621028547,0.35858154296875,-0.148773193359375,-0.9860992431640625,1.0597669099329967
1785337811.540002,-0.0439453050494194,-0.02294921875,0.9882811903953552,0.9895239096486664,-0.0057220458984375,0.0324249267578125,-0.7419586181640625,0.7426888370996554
1785337811.550968,-0.0502929650247097,-0.0175781287252903,0.9833983778953552,0.98484046555149,-0.37384033203125,0.583648681640625,-0.7419586181640625,1.0153349046014324
1785337811.561934,-0.0585937425494194,-0.02197265625,0.9877929091453552,0.9897731334232468,-0.308990478515625,0.400543212890625,-0.9250640869140625,1.0543498215033793
1785337811.5729,-0.0390624925494194,-0.0400390625,0.9882811903953552,0.9898629784668748,-0.492095947265625,0.278472900390625,-0.4978179931640625,0.7533447629638865
1785337811.581576,-0.0478515625,-0.02685546875,0.9970702528953552,0.9985790291430525,-0.6160736083984375,0.1544952392578125,-0.8640289306640625,1.072362561330301
1785337811.590253,-0.0532226487994194,-0.04052734375,0.9912108778953552,0.9934657117358091,-0.3108978271484375,-0.1506805419921875,-0.9860992431640625,1.0448702321481917
1785337811.59893,-0.0361328087747097,-0.0263671912252903,0.9912108778953552,0.9922196395461751,-0.37384033203125,-0.392913818359375,-1.2912750244140625,1.4005459832460043
1785337811.607607,-0.0351562462747097,-0.0346679650247097,0.9921874403953552,0.9934151933252123,-0.43487548828125,-0.270843505859375,-1.4133453369140625,1.5033356033669854
1785337811.617068,-0.0366210900247097,-0.0302734337747097,0.9916991591453552,0.9928367475454936,-0.7381439208984375,-0.1506805419921875,-1.6574859619140625,1.8206649300836668
1785337811.626529,-0.0458984337747097,-0.0268554724752903,0.9809569716453552,0.9823973039684447,-0.61798095703125,-0.148773193359375,-1.6574859619140625,1.7751883393763577
1785337811.63599,-0.0498046800494194,-0.0302734375,0.9970702528953552,0.9987722845482343,-0.61798095703125,-0.698089599609375,-1.5964508056640625,1.8487522081775782
1785337811.644005,-0.0405273400247097,-0.0346679650247097,0.9848632216453552,0.9863061889890486,-0.3108978271484375,-0.6389617919921875,-1.5354156494140625,1.6918719948675474
1785337811.65202,-0.046875,-0.0263671875,0.9887694716453552,0.9902310650850614,-0.37384033203125,-0.698089599609375,-1.2302398681640625,1.463070680506018
1785337811.660035,-0.0537109300494194,-0.02685546875,0.9990233778953552,1.000826553299822,-0.2498626708984375,-0.6389617919921875,-1.0471343994140625,1.251876182523902
1785337811.66805,-0.0439453050494194,-0.03515625,0.9985350966453552,1.000119738322616,-0.1888275146484375,-0.8220672607421875,-0.8640289306640625,1.2074752189991118
1785337811.676079,-0.0434570237994194,-0.01708984375,0.9936522841453552,0.9947489318738595,-0.003814697265625,-1.186370849609375,-0.8029937744140625,1.4325813577126574
1785337811.684108,-0.0400390587747097,-0.0229492224752903,0.9941405653953552,0.9952111619170987,0.54168701171875,-1.064300537109375,-0.3757476806640625,1.2519372074830732
1785337811.692137,-0.0502929650247097,-0.0336914025247097,0.9936522841453552,0.9954945277209415,0.60272216796875,-1.369476318359375,-0.5588531494140625,1.5972026298870519
1785337811.700166,-0.0361328087747097,-0.0244140587747097,0.9853515028953552,0.9863159789813506,0.6046295166015625,-1.4324188232421875,-0.1926422119140625,1.566688086166329
1785337811.710829,-0.0390624925494194,-0.02099609375,0.9999999403953552,1.000982814571582,0.60272216796875,-1.857757568359375,-0.1316070556640625,1.9575131191534967
1785337811.721492,-0.0410156212747097,-0.015624996274709702,0.9956054091453552,0.9965724019942682,0.60272216796875,-2.346038818359375,-0.4367828369140625,2.4612905955276188
1785337811.732155,-0.0395507737994194,-0.02490234375,0.9877929091453552,0.9888979835100383,0.78582763671875,-2.346038818359375,-0.1316070556640625,2.477648810663164
1785337811.740153,-0.0444335900247097,-0.0283203162252903,0.9936522841453552,0.9950483636592073,1.02996826171875,-2.346038818359375,-0.1926422119140625,2.569405335716445
1785337811.748151,-0.0356445275247097,-0.0249023400247097,0.9853515028953552,0.9863104192592215,0.72479248046875,-2.468109130859375,-0.5588531494140625,2.632338060391461
1785337811.756149,-0.0434570237994194,-0.02392578125,0.9956054091453552,0.9968405522677216,0.9708404541015625,-2.2258758544921875,-0.1316070556640625,2.4319487914082436
1785337811.764147,-0.0449218712747097,-0.0278320349752903,0.9956054091453552,0.9970068843338934,1.02996826171875,-2.223968505859375,-0.3147125244140625,2.4710148741408653
1785337811.772118,-0.0468749962747097,-0.0234375037252903,0.9956054091453552,0.9969838075797005,0.7877349853515625,-2.1038055419921875,-0.1926422119140625,2.254691816518393
1785337811.780089,-0.0361328087747097,-0.0253906212747097,0.9746093153953552,0.9756093384004012,0.7266998291015625,-1.7986297607421875,-0.4367828369140625,1.9884518863845901
1785337811.78806,-0.0449218712747097,-0.0229492224752903,0.9902343153953552,0.9915183511753828,1.21307373046875,-1.735687255859375,-0.1316070556640625,2.121668810820054
1785337811.796031,-0.0463867150247097,-0.0268554724752903,0.9838866591453552,0.9853455747994523,0.90789794921875,-1.369476318359375,-0.1926422119140625,1.654344309554061
1785337811.806701,-0.03759765625,-0.03125,0.9799804091453552,0.9811991380775826,0.667572021484375,-0.881195068359375,-0.2536773681640625,1.1342439594233085
1785337811.817371,-0.037109375,-0.0263671875,0.9960936903953552,0.9971333784078179,0.4215240478515625,-0.8220672607421875,-0.0705718994140625,0.9265298144626748
1785337811.828041,-0.03271484375,-0.03125,0.9848632216453552,0.9859018150157017,0.35858154296875,-0.392913818359375,0.0514984130859375,0.5344287400261735
1785337811.838702,-0.0424804650247097,-0.0249023400247097,0.9892577528953552,0.9904825178219904,0.484466552734375,-0.209808349609375,-0.1316070556640625,0.5441027489222071
1785337811.849365,-0.0322265587747097,-0.0292968712747097,0.9902343153953552,0.9911916349240718,0.41961669921875,0.095367431640625,-0.1316070556640625,0.44999282036664967
1785337811.860028,-0.0234375,-0.017578125,0.9946288466453552,0.9950602240386434,-0.0057220458984375,0.2155303955078125,-0.1926422119140625,0.2891316568765179
1785337811.8707,-0.0200195275247097,-0.009765621274709702,0.9814452528953552,0.9816979847549966,-0.12969970703125,0.888824462890625,-0.3757476806640625,0.9736617787307985
1785337811.881371,-0.0366210900247097,-0.0200195275247097,0.9858397841453552,0.9867228413899574,-0.3108978271484375,0.6465911865234375,-0.3147125244140625,0.783442144921039
1785337811.892042,-0.0263671837747097,-0.0302734337747097,0.9916991591453552,0.9925114263434581,-0.37384033203125,0.583648681640625,-0.3147125244140625,0.7612137350686381
1785337811.900085,-0.0341796800494194,-0.0302734375,0.9853515028953552,0.9864087975096746,-0.1888275146484375,0.6465911865234375,-0.4978179931640625,0.8375910380943598
1785337811.90813,-0.0454101525247097,-0.0424804724752903,0.9833983778953552,0.9853623912760509,-0.0057220458984375,0.7038116455078125,-0.3757476806640625,0.797853303362279
1785337811.916175,-0.0537109300494194,-0.04443359375,0.9902343153953552,0.9926848480997489,-0.4329681396484375,0.8258819580078125,-0.3757476806640625,1.005350057461514
1785337811.934815,-0.0585937425494194,-0.0380859375,0.9965819716453552,0.9990292245523877,-0.1888275146484375,0.9517669677734375,-0.0705718994140625,0.9728805600996754
1785337811.945408,-0.0371093712747097,-0.0278320349752903,0.9931640028953552,0.9942466817919963,-0.1888275146484375,0.6465911865234375,-0.2536773681640625,0.719783439582169
1785337811.956001,-0.04736328125,-0.03515625,0.9873046278953552,0.9890650487143983,0.179290771484375,0.583648681640625,0.0514984130859375,0.6127340784309878
1785337811.964027,-0.0415039025247097,-0.010253902524709702,0.9956054091453552,0.9965228783932946,-0.0057220458984375,0.6465911865234375,0.4177093505859375,0.7698012768669432
1785337811.972055,-0.0512695275247097,-0.0297851525247097,0.9858397841453552,0.9876212835734596,-0.06866455078125,0.400543212890625,0.4177093505859375,0.5827785063758452
1785337811.980083,-0.0473632775247097,-0.0292968712747097,1.0029296875,1.004474760655148,0.2994537353515625,0.4634857177734375,0.1735687255859375,0.5784614530783263
1785337811.988111,-0.029296867549419403,-0.02294921875,0.9882811903953552,0.9889816400614846,0.6046295166015625,0.1544952392578125,0.3566741943359375,0.7187921202992963
1785337811.99873,-0.0312499962747097,-0.0205078087747097,0.9951171278953552,0.995818874453889,0.7877349853515625,0.1544952392578125,0.2346038818359375,0.8363218085597467
1785337812.009349,-0.0263671837747097,-0.0175781287252903,0.9863280653953552,0.9868370035503514,0.7266998291015625,-0.1506805419921875,0.2956390380859375,0.7988740252328135
1785337812.019968,-0.0415039025247097,-0.0200195275247097,0.9921874403953552,0.9932569014536873,0.7877349853515625,-0.3337860107421875,0.1735687255859375,0.8729636937556662
1785337812.028021,-0.0493163987994194,-0.02734375,0.9868163466453552,0.9884261681385675,0.7877349853515625,-0.3337860107421875,-0.3147125244140625,0.9115829535138763
1785337812.036073,-0.0395507775247097,-0.0336914025247097,1.0009765625,1.0023240260919657,1.09100341796875,-0.576019287109375,-0.2536773681640625,1.2595391555089237
1785337812.044125,-0.0488281175494194,-0.04150390625,0.9741210341453552,0.9762266890747482,0.72479248046875,-0.759124755859375,-0.3147125244140625,1.0957365138233146
1785337812.052177,-0.0312499962747097,-0.0229492224752903,0.9877929091453552,0.9885535192579276,0.9098052978515625,-0.4558563232421875,-0.4367828369140625,1.1073978120175931
1785337812.062797,-0.0473632775247097,-0.0288085974752903,0.9877929091453552,0.9893472831641172,0.7877349853515625,-0.9441375732421875,-0.4367828369140625,1.3048760136415911
1785337812.073417,-0.0439453050494194,-0.025390625,0.9926757216453552,0.9939723145127856,0.72479248046875,-0.576019287109375,-0.6198883056640625,1.1141740754321554
1785337812.084037,-0.0361328087747097,-0.0205078087747097,0.9902343153953552,0.9911055188410554,0.7266998291015625,-0.6389617919921875,-0.5588531494140625,1.1174442517871412
1785337812.0947,-0.0351562462747097,-0.0283203162252903,0.9931640028953552,0.9941894882819641,0.4825592041015625,-0.2727508544921875,-0.5588531494140625,0.7871297584892648
1785337812.105364,-0.0410156212747097,-0.0258789025247097,0.9887694716453552,0.9899581136807096,0.3604888916015625,-0.3337860107421875,-0.8640289306640625,0.9939372892490703
1785337812.116028,-0.0395507775247097,-0.013183597475290298,0.9931640028953552,0.9940386350098896,0.5435943603515625,-0.3337860107421875,-0.6198883056640625,0.8894770604530902
1785337812.124059,-0.0551757737994194,-0.01611328125,0.9926757216453552,0.9943385199172026,0.4215240478515625,0.1544952392578125,-0.0095367431640625,0.449045934555333
1785337812.132089,-0.0346679612994194,-0.02099609375,0.9877929091453552,0.9886240614365305,0.4825592041015625,-0.0247955322265625,-0.5588531494140625,0.7387794302033243
1785337812.140119,-0.0390624925494194,-0.0244140625,0.9960936903953552,0.997158244621868,0.41961669921875,0.095367431640625,-0.3757476806640625,0.5712787767853716
1785337812.148149,-0.0458984337747097,-0.0219726599752903,0.9916991591453552,0.993003870213488,-0.003814697265625,0.095367431640625,-0.1316070556640625,0.16257280225647
1785337812.158779,-0.0317382775247097,-0.0200195275247097,0.9975585341453552,0.9982640576464615,0.11444091796875,0.095367431640625,-0.3147125244140625,0.34818909194047326
1785337812.169409,-0.0351562425494194,-0.0205078125,0.9897460341453552,0.9905825275413389,0.1163482666015625,0.2155303955078125,-0.3147125244140625,0.3987909772700659
1785337812.180039,-0.0410156212747097,-0.0214843787252903,0.9956054091453552,0.9966814889608677,0.05340576171875,0.034332275390625,-0.0705718994140625,0.09492772779944843
1785337812.190717,-0.0458984337747097,-0.0190429724752903,0.9931640028953552,0.9944063745123476,-0.0057220458984375,-0.1506805419921875,-0.0095367431640625,0.15109042661433086
1785337812.201394,-0.0390624925494194,-0.02685546875,0.9877929091453552,0.9889296870272424,0.1773834228515625,0.0324249267578125,-0.1926422119140625,0.26386980954426803
1785337812.212071,-0.0522460900247097,-0.0239257849752903,0.9912108778953552,0.992875169176687,0.35858154296875,0.034332275390625,-0.1316070556640625,0.3835099023387934
1785337812.220057,-0.0415039025247097,-0.0229492224752903,1.0029296875,1.004050396546831,0.1773834228515625,0.0324249267578125,0.1125335693359375,0.21255601333594865
1785337812.228043,-0.0400390550494194,-0.0205078125,0.9824218153953552,0.9834512289216436,-0.12969970703125,-0.026702880859375,0.1125335693359375,0.17377819793538057
1785337812.236029,-0.0439453050494194,-0.017578125,0.9838866591453552,0.9850244354119396,0.1163482666015625,0.0324249267578125,0.1735687255859375,0.21145779133899098
1785337812.244015,-0.0419921837747097,-0.0351562462747097,0.9912108778953552,0.992722675075158,0.11444091796875,0.095367431640625,0.2346038818359375,0.27790403396811275
1785337812.254696,-0.0395507737994194,-0.01171875,0.9882811903953552,0.9891417007178273,0.1773834228515625,0.3376007080078125,0.5397796630859375,0.6609093745976681
1785337812.265377,-0.0302734337747097,-0.0292968712747097,0.9819335341453552,0.9828368394286948,0.23651123046875,-0.087738037109375,0.4177093505859375,0.48797195294460716
1785337812.276058,-0.0488281175494194,-0.01318359375,0.9980468153953552,0.9993274928312516,0.4215240478515625,-0.3337860107421875,0.6008148193359375,0.8062717104165477
1785337812.284049,-0.0302734337747097,-0.0273437537252903,0.9848632216453552,0.9857077289998132,0.35858154296875,-0.270843505859375,0.4177093505859375,0.6135291592018854
1785337812.292039,-0.04296875,-0.03173828125,0.9892577528953552,0.9906990126354392,0.35858154296875,0.217437744140625,0.6618499755859375,0.783521081859269
1785337812.300029,-0.0458984337747097,-0.0253906212747097,0.9838866591453552,0.9852838717425022,0.5435943603515625,-0.1506805419921875,0.4787445068359375,0.7398619852152621
1785337812.308019,-0.0415039025247097,-0.0322265662252903,0.9921874403953552,0.9935778994994505,0.5435943603515625,-0.1506805419921875,0.7839202880859375,0.9657797225112065
1785337812.31869,-0.0380859375,-0.01513671875,0.9882811903953552,0.9891306133059632,0.54168701171875,-0.209808349609375,0.3566741943359375,0.6816603576091168
1785337812.329361,-0.04296875,-0.015625,0.9858397841453552,0.9868994549118584,0.484466552734375,-0.209808349609375,0.7839202880859375,0.9451234852424724
1785337812.340032,-0.0375976525247097,-0.0297851525247097,0.9926757216453552,0.9938339031902744,0.9098052978515625,-0.2727508544921875,1.1501312255859375,1.4916234594202384
1785337812.350703,-0.0405273400247097,-0.0244140587747097,0.9877929091453552,0.9889253474925078,0.6656646728515625,-0.2727508544921875,1.0890960693359375,1.3052328273345661
1785337812.361372,-0.0307617150247097,-0.0229492224752903,0.9912108778953552,0.9919536049541645,0.23651123046875,0.217437744140625,1.0890960693359375,1.1354941580465288
1785337812.372041,-0.037109375,-0.0166015625,0.9873046278953552,0.9881412580466002,0.1163482666015625,0.7038116455078125,1.0890960693359375,1.3019285693679943
1785337812.382694,-0.029296867549419403,-0.03125,0.9960936903953552,0.9970142972864762,-0.37384033203125,0.766754150390625,0.7839202880859375,1.1585333569074407
1785337812.393348,-0.0351562462747097,-0.0200195275247097,0.9941405653953552,0.9949634198798654,-0.308990478515625,1.438140869140625,0.7228851318359375,1.6389896854877788
1785337812.404002,-0.0351562462747097,-0.0224609412252903,0.9770507216453552,0.9779409840069918,-0.55694580078125,1.255035400390625,0.9059906005859375,1.645029315724067
1785337812.412115,-0.0434570237994194,-0.01953125,0.9882811903953552,0.989428973667805,-0.43487548828125,1.071929931640625,0.2346038818359375,1.1803344653221903
1785337812.420229,-0.02392578125,-0.02587890625,0.9882811903953552,0.9889094357353354,-0.4940032958984375,0.8869171142578125,0.2956390380859375,1.0573852962673083
1785337812.428343,-0.0415039025247097,-0.0273437537252903,0.9941405653953552,0.9953821972273598,-0.5550384521484375,0.8258819580078125,0.2346038818359375,1.0223442049029485
1785337812.436457,-0.0351562425494194,-0.0263671875,0.9946288466453552,0.9955991826764038,-0.492095947265625,1.071929931640625,0.1125335693359375,1.184844295209212
1785337812.447524,-0.0468749962747097,-0.0278320349752903,0.9902343153953552,0.9917337782051833,-0.8602142333984375,1.1348724365234375,0.2346038818359375,1.443240435926875
1785337812.458591,-0.0498046837747097,-0.0390624962747097,0.9951171278953552,0.9971281178323131,-0.797271728515625,1.132965087890625,0.0514984130859375,1.3863275897202918
1785337812.469658,-0.0449218712747097,-0.0234375037252903,0.9941405653953552,0.9954309392741875,-0.8602142333984375,1.0089874267578125,0.1125335693359375,1.3306719952430426
1785337812.47727,-0.0512695275247097,-0.0336914025247097,0.9931640028953552,0.9950569891738935,-0.74005126953125,0.766754150390625,0.6618499755859375,1.2544453750001114
1785337812.484882,-0.04248046875,-0.0263671875,1.00439453125,1.0056382019428196,-0.6771087646484375,0.6465911865234375,0.9059906005859375,1.3028336079498362
1785337812.492494,-0.0551757775247097,-0.0239257849752903,0.9848632216453552,0.9866977120485322,-0.43487548828125,0.522613525390625,0.7228851318359375,0.9923731662326092
1785337812.500106,-0.0458984337747097,-0.0268554724752903,1.0009765625,1.0023881290693535,-0.61798095703125,0.034332275390625,1.0280609130859375,1.1999951705743857
1785337812.510752,-0.0415039025247097,-0.0283203162252903,0.9960936903953552,0.9973601427174232,-0.1888275146484375,0.0324249267578125,1.0890960693359375,1.105819811002925
1785337812.521398,-0.0498046800494194,-0.03125,0.9946288466453552,0.9963651997304475,0.0553131103515625,-0.1506805419921875,1.3942718505859375,1.4034807299169298
1785337812.532044,-0.04736328125,-0.025390625,0.9946288466453552,0.996079568522378,-0.1888275146484375,0.2803802490234375,1.2722015380859375,1.3163455731072202
1785337812.542728,-0.0463867150247097,-0.0288085974752903,0.9999999403953552,1.0014896621583225,-0.1277923583984375,0.1544952392578125,1.3942718505859375,1.4086140916357106
1785337812.55341,-0.04248046875,-0.01611328125,0.9926757216453552,0.9937149070040099,-0.12969970703125,-0.148773193359375,1.0890960693359375,1.1068359071286615
1785337812.564092,-0.0405273362994194,-0.0263671875,0.9804686903953552,0.9816600971872949,0.179290771484375,-0.026702880859375,1.0280609130859375,1.0439192811710798
1785337812.57207,-0.0336913987994194,-0.0224609375,0.9780272841453552,0.9788651452570879,-0.0057220458984375,0.0324249267578125,0.8449554443359375,0.8455967245664182
1785337812.580048,-0.02880859375,-0.0302734375,0.9926757216453552,0.9935549830965802,0.05340576171875,0.095367431640625,0.7839202880859375,0.7915037210747834
1785337812.588026,-0.0395507737994194,-0.02734375,0.9921874403953552,0.9933518315533937,0.05340576171875,0.217437744140625,0.4787445068359375,0.5285145700804367
1785337812.596004,-0.0390624962747097,-0.0336914025247097,0.9897460341453552,0.9910894012780846,0.2384185791015625,0.1544952392578125,-0.1926422119140625,0.34325387051755046
1785337812.606695,-0.0390624962747097,-0.0288085974752903,0.9995116591453552,1.0006894476665604,-0.0057220458984375,-0.1506805419921875,-0.0095367431640625,0.15109042661433086
1785337812.617386,-0.0405273362994194,-0.02099609375,0.9804686903953552,0.9815305159728188,0.23651123046875,-0.087738037109375,-0.0095367431640625,0.25244103225075265
1785337812.628077,-0.0356445275247097,-0.0239257849752903,0.9882811903953552,0.9892131655100451,0.23651123046875,-0.392913818359375,-0.0095367431640625,0.45870445851960434
1785337812.638748,-0.0385742112994194,-0.0263671875,0.9799804091453552,0.9810936757836788,0.1773834228515625,0.0324249267578125,-0.0705718994140625,0.1936405111661666
1785337812.64942,-0.0507812462747097,-0.0283203162252903,0.9873046278953552,0.9890152696232243,0.1163482666015625,-0.0247955322265625,-0.0705718994140625,0.1383189450021049
1785337812.660092,-0.0605468712747097,-0.0283203162252903,0.9897460341453552,0.9920005927612722,-0.0057220458984375,-0.2727508544921875,0.1125335693359375,0.29510942828545567
1785337812.670744,-0.0273437462747097,-0.0224609412252903,0.9843749403953552,0.9850107601541319,-0.12969970703125,-0.026702880859375,0.1125335693359375,0.17377819793538057
1785337812.681395,-0.0390624962747097,-0.0190429724752903,0.9868163466453552,0.9877727549504451,-0.1888275146484375,-0.3948211669921875,0.2346038818359375,0.4965667785563883
1785337812.692046,-0.0527343712747097,-0.013183597475290298,0.9990233778953552,1.000501089823282,-0.12969970703125,-0.148773193359375,0.2956390380859375,0.35546858919842195
1785337812.700034,-0.0512695275247097,-0.0268554724752903,0.9902343153953552,0.991924281505895,-0.2498626708984375,-0.1506805419921875,0.6008148193359375,0.6679179793786326
1785337812.70802,-0.0366210900247097,-0.0307617150247097,0.9887694716453552,0.9899254797224356,-0.74005126953125,-0.026702880859375,0.3566741943359375,0.8219521922144833
1785337812.716006,-0.0380859375,-0.0146484375,0.9838866591453552,0.9847324882426972,-0.6771087646484375,0.1544952392578125,0.4177093505859375,0.810448122759247
1785337812.723992,-0.0361328087747097,-0.0249023400247097,0.9863280653953552,0.987303782528559,-0.4940032958984375,0.2155303955078125,0.6618499755859375,0.8535443737318988
1785337812.731999,-0.0322265587747097,-0.0175781287252903,0.9804686903953552,0.9811556423654331,-0.0057220458984375,0.3376007080078125,0.7228851318359375,0.797853303362279
1785337812.740006,-0.0385742112994194,-0.02490234375,0.9990233778953552,1.000077900007325,-0.2498626708984375,0.3376007080078125,0.4177093505859375,0.5923568974214809
1785337812.748013,-0.0385742112994194,-0.02099609375,0.9960936903953552,0.9970614052181384,-0.4940032958984375,0.7038116455078125,0.5397796630859375,1.0152596581131854
1785337812.75602,-0.0390624925494194,-0.0341796875,0.9970702528953552,0.9984203616566414,0.05340576171875,0.583648681640625,0.4177093505859375,0.719707621560676
1785337812.766715,-0.0341796800494194,-0.033203125,0.9785155653953552,0.9796751552218919,-0.308990478515625,0.949859619140625,0.2346038818359375,1.0260347914470438
1785337812.77741,-0.0356445275247097,-0.0351562462747097,0.9907225966453552,0.9919867728444282,-0.43487548828125,0.949859619140625,0.6618499755859375,1.2366872589967663
1785337812.788105,-0.0410156212747097,-0.0341796837747097,0.9829100966453552,0.9843590757741156,-0.37384033203125,1.071929931640625,0.1125335693359375,1.140812945415591
1785337812.798772,-0.0341796800494194,-0.03466796875,0.9843749403953552,0.9855780749711769,-0.4940032958984375,0.8869171142578125,-0.0095367431640625,1.0152596581131854
1785337812.809438,-0.0385742112994194,-0.03125,0.9843749403953552,0.9856259714291884,-0.1888275146484375,1.1920928955078125,0.4787445068359375,1.298436600159627
1785337812.820104,-0.0449218675494194,-0.0166015625,0.9951171278953552,0.9962688815235924,0.11444091796875,0.766754150390625,0.4787445068359375,0.9111558339122701
1785337812.83073,-0.02880859375,-0.021484375,0.9912108778953552,0.9918621466217339,-0.308990478515625,1.255035400390625,-0.1926422119140625,1.3067899578195854
1785337812.841355,-0.0532226487994194,-0.0224609375,0.9946288466453552,0.9963050168686669,-0.25177001953125,0.949859619140625,-0.1316070556640625,0.9914342418482947
1785337812.85198,-0.0556640587747097,-0.0185546912252903,0.9809569716453552,0.9827102035826057,-0.308990478515625,0.888824462890625,-0.2536773681640625,0.9745954282494702
1785337812.862656,-0.0419921875,-0.021484375,0.9902343153953552,0.9913571110183674,-0.37384033203125,0.583648681640625,-0.6198883056640625,0.9298730499015105
1785337812.873332,-0.0380859375,-0.01123046875,0.9916991591453552,0.9924937704153126,-0.3108978271484375,0.3376007080078125,-0.1926422119140625,0.49773760033188025
1785337812.884008,-0.0493163987994194,-0.03759765625,0.9868163466453552,0.9887629609529892,-0.43487548828125,0.705718994140625,-0.5588531494140625,0.9997363810568902
1785337812.892014,-0.0473632775247097,-0.0332031287252903,0.9936522841453552,0.9953344109405203,-0.61798095703125,-0.026702880859375,-0.4978179931640625,0.7940001646204767
1785337812.90002,-0.046875,-0.03662109375,0.9799804091453552,0.9817840762821243,-0.61798095703125,0.034332275390625,-0.8029937744140625,1.0138432670459965
1785337812.908026,-0.04736328125,-0.021484375,0.9887694716453552,0.9901363173006746,-0.308990478515625,-0.026702880859375,-0.7419586181640625,0.8041708467281253
1785337812.916032,-0.0449218712747097,-0.0175781287252903,0.9897460341453552,0.9909208733469909,-0.3108978271484375,-0.3337860107421875,-0.6809234619140625,0.8195897271670962
1785337812.926725,-0.0571289025247097,-0.0341796837747097,0.9721679091453552,0.9744446653651856,-0.0667572021484375,-0.2727508544921875,-0.6809234619140625,0.7365502791051929
1785337812.937418,-0.0488281175494194,-0.02734375,0.9887694716453552,0.9903519242094283,-0.1888275146484375,-0.2079010009765625,-0.5588531494140625,0.625456232765634
1785337812.948111,-0.0366210900247097,-0.0249023400247097,0.9858397841453552,0.9868339833918696,0.2384185791015625,-0.4558563232421875,-0.6809234619140625,0.8534079723588979
1785337812.958762,-0.0488281175494194,-0.03466796875,0.9799804091453552,0.9818083598286219,-0.1888275146484375,-0.2727508544921875,-0.8640289306640625,0.9255240958176116
1785337812.969412,-0.0473632775247097,-0.0327148474752903,0.9926757216453552,0.9943433157855193,-0.0057220458984375,-0.4558563232421875,-0.6809234619140625,0.8194476738841726
1785337812.980062,-0.0468749962747097,-0.0253906212747097,0.9956054091453552,0.9970316342242908,-0.308990478515625,-0.514984130859375,-0.6809234619140625,0.9079320083769117
1785337812.988035,-0.0537109300494194,-0.0244140625,0.9716796278953552,0.9734691621830572,-0.0057220458984375,-0.2727508544921875,-0.6198883056640625,0.6772645583038761
1785337812.996011,-0.0366210900247097,-0.0322265662252903,0.9833983778953552,0.9846075489516047,0.05340576171875,-0.087738037109375,-0.8029937744140625,0.8095363736660066
1785337813.003987,-0.0351562462747097,-0.0288085974752903,0.9985350966453552,0.9995690252169533,-0.1277923583984375,-0.3337860107421875,-0.9860992431640625,1.0488735410910865
1785337813.011963,-0.0356445275247097,-0.0283203162252903,0.9907225966453552,0.9917680354585318,-0.0057220458984375,-0.3337860107421875,-0.7419586181640625,0.8136021348573101
1785337813.022664,-0.0390624925494194,-0.03515625,0.9931640028953552,0.9945534560220285,0.35858154296875,-0.453948974609375,-0.9860992431640625,1.1432594245732197
1785337813.033365,-0.0444335862994194,-0.03271484375,0.9897460341453552,0.9912829145604566,0.35858154296875,-0.576019287109375,-0.7419586181640625,1.0054260455885193
1785337813.044066,-0.0410156212747097,-0.0336914025247097,0.9936522841453552,0.9950689692578671,0.2994537353515625,-0.3337860107421875,-0.7419586181640625,0.8669418848176114
1785337813.054715,-0.0458984337747097,-0.0249023400247097,0.9853515028953552,0.9867341977553088,-0.0057220458984375,-0.5130767822265625,-0.3757476806640625,0.6359770796134476
1785337813.065364,-0.0439453050494194,-0.0341796875,0.9848632216453552,0.9864355053540764,0.35858154296875,-0.759124755859375,-0.0705718994140625,0.8425149915006342
1785337813.076013,-0.0458984337747097,-0.0332031287252903,0.9912108778953552,0.9928283428862213,0.1163482666015625,-0.0896453857421875,0.1735687255859375,0.22737483771864542
1785337813.086685,-0.0502929612994194,-0.021484375,0.9951171278953552,0.9966188130655101,-0.003814697265625,0.095367431640625,0.6008148193359375,0.6083485399560296
1785337813.097356,-0.0312499962747097,-0.0302734337747097,0.9863280653953552,0.9872872406985848,-0.06866455078125,0.095367431640625,0.7228851318359375,0.7323746864694197
1785337813.108027,-0.0434570237994194,-0.02587890625,0.9887694716453552,0.9900622701446785,-0.308990478515625,0.095367431640625,0.6618499755859375,0.7366243635762737
1785337813.116123,-0.0395507737994194,-0.03125,0.9926757216453552,0.993954684355509,-0.06866455078125,-0.087738037109375,1.2111663818359375,1.216279897136902
1785337813.124217,-0.0390624925494194,-0.0361328125,0.9877929091453552,0.989225095628481,0.1163482666015625,-0.1506805419921875,0.8449554443359375,0.8661358137089062
1785337813.132311,-0.0512695275247097,-0.0180664099752903,0.9902343153953552,0.9917252437084124,-0.0667572021484375,-0.1506805419921875,1.2111663818359375,1.2223277605713219
1785337813.140405,-0.0458984337747097,-0.0292968712747097,0.9853515028953552,0.9868548815036553,-0.0057220458984375,-0.1506805419921875,0.8449554443359375,0.8583047654867499
1785337813.150984,-0.029296867549419403,-0.02978515625,0.9936522841453552,0.9945302025420479,-0.12969970703125,-0.087738037109375,0.8449554443359375,0.8593425859764775
1785337813.161563,-0.0307617150247097,-0.0302734337747097,0.9921874403953552,0.9931257124765523,0.05340576171875,0.095367431640625,0.9059906005859375,0.9125601847289618
1785337813.172142,-0.029296867549419403,-0.02099609375,1.0087890625,1.0094327689453102,0.1773834228515625,0.1544952392578125,1.0890960693359375,1.114209991832264
1785337813.180134,-0.04296875,-0.0263671875,0.9985350966453552,0.9998069220033293,0.4215240478515625,0.5207061767578125,0.7228851318359375,0.9855863022893355
1785337813.188129,-0.0478515625,-0.0302734375,0.9926757216453552,0.9942893650220164,0.23651123046875,0.583648681640625,0.7839202880859375,1.0055418259781246
1785337813.196124,-0.0361328087747097,-0.0332031287252903,0.9956054091453552,0.9968140038876802,0.6046295166015625,0.7038116455078125,0.6008148193359375,1.1053986302831793
1785337813.204119,-0.04248046875,-0.02734375,0.9931640028953552,0.9944480919265758,0.84686279296875,0.278472900390625,0.6008148193359375,1.0750359033541503
1785337813.212589,-0.0361328087747097,-0.0283203162252903,1.0078125,1.0088575991374105,0.667572021484375,0.400543212890625,0.5397796630859375,0.9473380357309885
1785337813.221059,-0.04296875,-0.01611328125,0.9868163466453552,0.9878828135541634,0.667572021484375,0.461578369140625,0.8449554443359375,1.1716043264004259
1785337813.229529,-0.0307617150247097,-0.0234375037252903,0.9838866591453552,0.9846464125442914,0.23651123046875,1.071929931640625,0.6618499755859375,1.2818021417785286
1785337813.237999,-0.0458984337747097,-0.015624996274709702,0.9794921278953552,0.9806914067842784,-0.43487548828125,1.132965087890625,0.3566741943359375,1.2648885569851824
1785337813.248026,-0.0312499962747097,-0.0180664099752903,0.9824218153953552,0.983084727173233,-0.4940032958984375,1.1348724365234375,0.3566741943359375,1.28809595312009
1785337813.258053,-0.0522460900247097,-0.0200195275247097,0.9941405653953552,0.9957137636739684,-0.6771087646484375,1.1348724365234375,0.1735687255859375,1.332868271377897
1785337813.26808,-0.0341796800494194,-0.021484375,0.9887694716453552,0.9895932987623027,-0.61798095703125,1.071929931640625,0.2956390380859375,1.2721386254810099
1785337813.278745,-0.0419921837747097,-0.0400390587747097,0.9873046278953552,0.9890080373734682,-0.61798095703125,0.888824462890625,-0.0095367431640625,1.0825896445820296
1785337813.289412,-0.0498046837747097,-0.0297851525247097,0.9897460341453552,0.9914458502325166,-0.74005126953125,0.644683837890625,-0.0705718994140625,0.9840089051218536
1785337813.300079,-0.0522460900247097,-0.0336914025247097,0.9877929091453552,0.9897472383820003,-0.61798095703125,0.339508056640625,-0.4367828369140625,0.8294247587333344
1785337813.310741,-0.04296875,-0.03125,0.9887694716453552,0.9901959119459126,-0.43487548828125,0.217437744140625,-0.3757476806640625,0.6144771618288525
1785337813.321402,-0.0371093712747097,-0.0288085974752903,0.9882811903953552,0.989397165962263,-0.6771087646484375,0.2803802490234375,-0.4367828369140625,0.8531521610058047
1785337813.332063,-0.05224609375,-0.03173828125,0.9965819716453552,0.9984551061602026,-0.3108978271484375,0.2155303955078125,-0.4978179931640625,0.6252468029756477
1785337813.342775,-0.0488281212747097,-0.0336914025247097,0.9965819716453552,0.9983460934164281,-0.1888275146484375,0.2155303955078125,-0.6198883056640625,0.6829133862907668
1785337813.353487,-0.0458984337747097,-0.0292968712747097,0.9892577528953552,0.9907552041513716,-0.1888275146484375,0.1544952392578125,-0.6198883056640625,0.6661727409168712
1785337813.364199,-0.06591796875,-0.0297851525247097,0.9951171278953552,0.9977426682996708,-0.0667572021484375,0.0324249267578125,-0.6198883056640625,0.6243151539190755
1785337813.37216,-0.0449218712747097,-0.0327148474752903,0.9877929091453552,0.9893548742094502,-0.003814697265625,-0.392913818359375,-0.2536773681640625,0.4677050648556391
1785337813.380121,-0.0532226487994194,-0.03466796875,0.9829100966453552,0.9849602918340713,-0.12969970703125,-0.759124755859375,-0.0705718994140625,0.773351667709753
1785337813.388082,-0.0498046800494194,-0.03076171875,0.9858397841453552,0.9875762600928799,-0.1888275146484375,-0.3948211669921875,0.3566741943359375,0.5645848608478347
1785337813.396043,-0.052734375,-0.03662109375,0.9882811903953552,0.9903644430730272,-0.0057220458984375,-0.3337860107421875,0.3566741943359375,0.4885307806900581
1785337813.406723,-0.0512695275247097,-0.0244140587747097,0.9853515028953552,0.9869864208673781,0.2994537353515625,-0.4558563232421875,0.7839202880859375,0.9549913848452396
1785337813.417403,-0.0537109300494194,-0.0185546875,0.9858397841453552,0.9874761872768157,0.1773834228515625,-0.2727508544921875,0.7228851318359375,0.7927299799794476
1785337813.428083,-0.0488281175494194,-0.03271484375,0.9931640028953552,0.9949015944866768,-0.3108978271484375,-0.2727508544921875,1.0280609130859375,1.1081334434836492
1785337813.438804,-0.0366210900247097,-0.0307617150247097,0.9873046278953552,0.9884623491107009,-0.06866455078125,-0.209808349609375,0.8449554443359375,0.8733178499336551
1785337813.449525,-0.0366210900247097,-0.0219726599752903,0.9965819716453552,0.997496630685804,-0.06866455078125,-0.209808349609375,1.0280609130859375,1.0514958892524935
1785337813.460246,-0.0449218712747097,-0.0297851525247097,0.9975585341453552,0.9990135929385404,-0.2498626708984375,-0.1506805419921875,0.8449554443359375,0.8939159261119033
1785337813.470836,-0.033203125,-0.03564453125,0.9916991591453552,0.9928948596741763,-0.06866455078125,-0.576019287109375,0.6008148193359375,0.8351595576832361
1785337813.481425,-0.0532226487994194,-0.029296875,1.00048828125,1.0023311619163453,0.1163482666015625,-0.6389617919921875,0.3566741943359375,0.7409625980251944
1785337813.492014,-0.04296875,-0.0205078125,0.9946288466453552,0.9957677572753434,0.11444091796875,-0.698089599609375,0.1125335693359375,0.7163027411756805
1785337813.500032,-0.02783203125,-0.03662109375,0.9897460341453552,0.990814280567961,-0.12969970703125,-0.514984130859375,-0.0095367431640625,0.5311512200034518
1785337813.50805,-0.0468749962747097,-0.0253906212747097,0.9956054091453552,0.9970316342242908,0.11444091796875,-0.392913818359375,0.1735687255859375,0.44452682131093124
1785337813.516068,-0.04296875,-0.025390625,0.9868163466453552,0.9880776787889397,0.23651123046875,0.217437744140625,0.0514984130859375,0.32537489341554293
1785337813.524086,-0.0395507737994194,-0.03271484375,0.9946288466453552,0.9959523418762513,0.2384185791015625,-0.1506805419921875,-0.3757476806640625,0.4698237585736695
1785337813.534735,-0.0502929650247097,-0.0273437537252903,0.9956054091453552,0.9972498152009135,0.0553131103515625,0.1544952392578125,-0.3147125244140625,0.35492575583234975
1785337813.545384,-0.0419921837747097,-0.0273437537252903,1.00244140625,1.0036930792480516,0.23651123046875,0.278472900390625,-0.1926422119140625,0.41303237185594993
1785337813.556033,-0.0292968712747097,-0.0239257849752903,0.9799804091453552,0.980710126470543,0.35858154296875,0.278472900390625,-0.3147125244140625,0.5524236166502011
1785337813.564021,-0.0395507775247097,-0.0292968712747097,0.9921874403953552,0.9934075133335677,0.4215240478515625,0.5207061767578125,-0.6809234619140625,0.9552351576527826
1785337813.572008,-0.0283203125,-0.03076171875,0.9843749403953552,0.9852625775492089,0.6046295166015625,0.6465911865234375,-1.0471343994140625,1.371184694077306
1785337813.579995,-0.02783203125,-0.04736328125,0.9887694716453552,0.9902943857419886,0.4215240478515625,0.7038116455078125,-0.9250640869140625,1.236437188120662
1785337813.587982,-0.0341796837747097,-0.0341796837747097,0.9931640028953552,0.9943395990369706,0.72479248046875,0.705718994140625,-1.2912750244140625,1.6403519826886048
1785337813.598665,-0.0361328087747097,-0.0317382849752903,0.9882811903953552,0.9894506606659995,0.6656646728515625,1.1348724365234375,-1.1692047119140625,1.760137654339929
1785337813.609348,-0.03173828125,-0.03662109375,0.9956054091453552,0.9967841058743064,0.4215240478515625,1.1348724365234375,-1.7795562744140625,2.152310038982365
1785337813.620031,-0.0356445275247097,-0.0371093787252903,1.0009765625,1.0022982176010058,0.7877349853515625,1.1348724365234375,-1.9626617431640625,2.400104783630762
1785337813.630666,-0.0444335900247097,-0.0439453087747097,0.9892577528953552,0.9912297593138315,0.4215240478515625,1.1920928955078125,-2.0236968994140625,2.386234928739301
1785337813.641303,-0.0595703050494194,-0.03564453125,0.9882811903953552,0.990716339393357,0.54168701171875,0.888824462890625,-2.1457672119140625,2.384900558141376
1785337813.65194,-0.05126953125,-0.0361328125,0.9780272841453552,0.9800364858037145,0.4825592041015625,0.4634857177734375,-2.3288726806640625,2.4230828212808797
1785337813.659966,-0.0600585900247097,-0.0400390587747097,0.9912108778953552,0.9938355824387661,0.7877349853515625,0.5207061767578125,-1.4133453369140625,1.6997665636896406
1785337813.667993,-0.0292968712747097,-0.0336914025247097,0.9907225966453552,0.9917281284577362,0.84686279296875,0.278472900390625,-1.5354156494140625,1.7754506365518603
1785337813.67602,-0.06591796875,-0.0268554724752903,0.9956054091453552,0.9981465452154243,0.7877349853515625,0.5207061767578125,-1.1692047119140625,1.502897530779331
1785337813.684047,-0.0532226487994194,-0.0185546875,0.9892577528953552,0.9908621641969263,0.90789794921875,0.400543212890625,-0.9860992431640625,1.3989657854847963
1785337813.694717,-0.0517578087747097,-0.0336914025247097,0.9799804091453552,0.9819244287020968,1.0929107666015625,0.5207061767578125,-0.8029937744140625,1.4527174081751397
1785337813.705387,-0.0605468712747097,-0.0307617150247097,0.9936522841453552,0.9959704154841645,0.7266998291015625,0.1544952392578125,-0.4367828369140625,0.8618240349353604
1785337813.716057,-0.0454101525247097,-0.0283203162252903,0.9912108778953552,0.9926545858059079,0.54168701171875,-0.270843505859375,-0.6809234619140625,0.9112835915981469
1785337813.724033,-0.0454101525247097,-0.0322265662252903,1.00048828125,1.0020366432628947,0.7877349853515625,-0.0896453857421875,-0.8029937744140625,1.12843329624725
1785337813.73201,-0.0400390550494194,-0.025390625,1.001953125,1.0030742118429756,0.6046295166015625,-0.5130767822265625,-0.8029937744140625,1.128549351403626
1785337813.739987,-0.0449218675494194,-0.0302734375,0.9926757216453552,0.9941526761752043,0.54168701171875,-0.698089599609375,-0.6809234619140625,1.1155315633063003
1785337813.747964,-0.04736328125,-0.025390625,0.9912108778953552,0.9926665949384708,0.60272216796875,-0.881195068359375,-0.4978179931640625,1.1779649886901258
1785337813.759222,-0.0439453050494194,-0.0263671875,0.9799804091453552,0.9813195303881629,0.84686279296875,-1.003265380859375,-0.8640289306640625,1.5717073543030273
1785337813.77048,-0.0463867150247097,-0.0380859412252903,0.9838866591453552,0.9857155899619364,0.54168701171875,-1.003265380859375,-0.6809234619140625,1.328014685190163
1785337813.781738,-0.0449218712747097,-0.0341796837747097,0.9931640028953552,0.9947667877190542,0.54168701171875,-1.186370849609375,-0.5588531494140625,1.4188789427141681
1785337813.791831,-0.0522460900247097,-0.0288085974752903,1.00830078125,1.0100643814533428,0.4825592041015625,-1.0013580322265625,-0.8640289306640625,1.4078804236128402
1785337813.801925,-0.0390624925494194,-0.0263671875,0.9907225966453552,0.9918429161941666,0.54168701171875,-1.064300537109375,-0.6809234619140625,1.374706227868749
1785337813.812019,-0.0444335862994194,-0.0224609375,0.9877929091453552,0.9890468485681813,0.6046295166015625,-1.0013580322265625,-0.4367828369140625,1.2486288510494978
1785337813.822702,-0.0468749962747097,-0.0205078087747097,0.9848632216453552,0.9861913611699111,0.23651123046875,-0.576019287109375,-0.3147125244140625,0.6976960328702655
1785337813.833386,-0.03759765625,-0.021484375,0.9907225966453552,0.9916685059173499,0.179290771484375,-0.514984130859375,-0.4367828369140625,0.6986652148197624
1785337813.84407,-0.0429687462747097,-0.0336914025247097,0.9916991591453552,0.9932012112407571,0.2994537353515625,-0.6389617919921875,-0.4978179931640625,0.86357829150562
1785337813.852074,-0.0483398362994194,-0.03662109375,0.9970702528953552,0.9989128758253687,0.35858154296875,-0.698089599609375,-0.5588531494140625,0.9634452006474699
1785337813.860077,-0.0454101487994194,-0.02685546875,0.9912108778953552,0.9926138737061095,0.7266998291015625,-0.4558563232421875,-0.1316070556640625,0.8678813548848077
1785337813.86808,-0.0356445237994194,-0.03125,0.9926757216453552,0.9938069143052961,0.4215240478515625,-0.4558563232421875,-0.3757476806640625,0.7257229704794209
1785337813.876083,-0.0434570237994194,-0.02978515625,0.9882811903953552,0.9896844849443688,0.23651123046875,-0.392913818359375,-0.0095367431640625,0.45870445851960434
1785337813.886708,-0.0385742112994194,-0.017578125,0.9960936903953552,0.9969952859975445,0.4825592041015625,-0.2727508544921875,-0.0705718994140625,0.5587815378806466
1785337813.897333,-0.04296875,-0.02490234375,0.9936522841453552,0.9948926082688963,0.35858154296875,-0.514984130859375,-0.0705718994140625,0.631482201634966
1785337813.907958,-0.0327148400247097,-0.0341796837747097,0.9936522841453552,0.9947780522951153,0.35858154296875,-0.148773193359375,-0.1926422119140625,0.4333880568628282
1785337813.918655,-0.0483398362994194,-0.021484375,0.9946288466453552,0.9960345680354998,0.2994537353515625,-0.2727508544921875,-0.0705718994140625,0.4111519928555991
1785337813.929352,-0.0463867150247097,-0.0224609412252903,0.9907225966453552,0.9920622383274271,0.23651123046875,-0.087738037109375,0.0514984130859375,0.2574638068622813
1785337813.940049,-0.04736328125,-0.02587890625,0.9829100966453552,0.9843908046537434,0.2384185791015625,0.0324249267578125,-0.0705718994140625,0.2507492526867549
1785337813.948033,-0.03759765625,-0.0224609375,0.9926757216453552,0.9936413667984032,0.179290771484375,-0.514984130859375,0.2956390380859375,0.6202872533083577
1785337813.956016,-0.0356445275247097,-0.0195312462747097,0.9941405653953552,0.9949710878654212,0.35858154296875,-0.087738037109375,0.1735687255859375,0.40792743057458397
1785337813.963999,-0.0322265625,-0.03173828125,0.9941405653953552,0.9951689975033723,0.667572021484375,-0.026702880859375,0.4177093505859375,0.7879381633617263
1785337813.971982,-0.04150390625,-0.0263671875,0.9882811903953552,0.9895036705843638,0.9708404541015625,-0.1506805419921875,0.2956390380859375,1.0259816050473642
1785337813.980051,-0.0449218712747097,-0.0336914025247097,0.9926757216453552,0.9942626280148673,0.7877349853515625,0.0934600830078125,0.0514984130859375,0.7949297332550994
1785337813.98812,-0.0434570237994194,-0.0234375,0.9858397841453552,0.9870754324404563,0.7877349853515625,0.0934600830078125,0.1735687255859375,0.8120266601314147
1785337813.996189,-0.0419921875,-0.03125,0.9838866591453552,0.9852780644849674,0.90789794921875,-0.026702880859375,-0.0095367431640625,0.9083406186623932
1785337814.004258,-0.0395507737994194,-0.03662109375,0.9931640028953552,0.9946256103995634,0.9098052978515625,-0.1506805419921875,0.2346038818359375,0.9515720083663245
1785337814.014934,-0.0410156212747097,-0.0278320349752903,0.9916991591453552,0.9929371206723117,0.54168701171875,-0.270843505859375,0.2346038818359375,0.6494767160595344
1785337814.02561,-0.0468749962747097,-0.0253906212747097,0.9990233778953552,1.000444730360411,0.9098052978515625,-0.3337860107421875,0.0514984130859375,0.9704694057600806
1785337814.036286,-0.0322265587747097,-0.0380859412252903,0.9990233778953552,1.0002683637859,0.972747802734375,-0.209808349609375,0.1735687255859375,1.0101405515035473
1785337814.044211,-0.0444335900247097,-0.0239257849752903,0.9907225966453552,0.9920070819368595,0.54168701171875,-0.392913818359375,0.3566741943359375,0.7583024253078209
1785337814.052136,-0.0483398362994194,-0.02197265625,0.9814452528953552,0.9828806244030671,0.23651123046875,-0.087738037109375,0.1735687255859375,0.3062052053691686
1785337814.060061,-0.0385742112994194,-0.0205078125,0.9882811903953552,0.9892463047392028,0.1163482666015625,0.3986358642578125,0.3566741943359375,0.5474157033908978
1785337814.067986,-0.0400390587747097,-0.0224609412252903,0.9956054091453552,0.9966633086593389,-0.25177001953125,0.400543212890625,0.2956390380859375,0.557875836515518
1785337814.076374,-0.0424804650247097,-0.0190429724752903,0.9975585341453552,0.9986442077915638,-0.0667572021484375,0.3376007080078125,0.1125335693359375,0.3620698362381902
1785337814.084762,-0.03271484375,-0.02587890625,0.9838866591453552,0.9847704995756583,-0.1888275146484375,0.5817413330078125,0.2956390380859375,0.6793241123781717
1785337814.09315,-0.0395507737994194,-0.021484375,1.00390625,1.0049147231811941,-0.12969970703125,0.400543212890625,0.2346038818359375,0.48197080904265055
1785337814.101538,-0.0454101525247097,-0.0273437537252903,0.9848632216453552,0.9862886637135068,-0.0057220458984375,0.5207061767578125,-0.0095367431640625,0.5208249358404217
1785337814.111723,-0.0532226487994194,-0.02734375,0.9956054091453552,0.9974018556874551,-0.1888275146484375,0.3986358642578125,0.1125335693359375,0.4552254241454065
1785337814.121908,-0.0253906212747097,-0.0292968712747097,0.9902343153953552,0.9909929312067319,-0.0667572021484375,-0.2727508544921875,0.0514984130859375,0.28548491941830423
1785337814.132093,-0.0478515625,-0.03076171875,0.9916991591453552,0.9933293902949566,-0.003814697265625,0.095367431640625,-0.0095367431640625,0.095918967900697
1785337814.142821,-0.0537109300494194,-0.0400390625,0.9916991591453552,0.9939593617358091,-0.25177001953125,-0.087738037109375,-0.0705718994140625,0.27580155706137816
1785337814.15355,-0.0502929650247097,-0.0351562462747097,0.9970702528953552,0.9989566723296422,-0.1277923583984375,0.1544952392578125,-0.2536773681640625,0.3233448204889151
1785337814.164279,-0.0493163987994194,-0.02197265625,0.9975585341453552,0.999018485244119,-0.25177001953125,-0.087738037109375,-0.0705718994140625,0.27580155706137816
1785337814.17489,-0.0507812462747097,-0.0219726599752903,0.9985350966453552,1.0000669337560117,0.05340576171875,-0.453948974609375,0.1125335693359375,0.47072885099720535
1785337814.185503,-0.07177734375,-0.0297851525247097,0.9965819716453552,0.9996073071938147,0.1773834228515625,-0.3337860107421875,0.4177093505859375,0.5633463244192205
1785337814.196116,-0.0551757775247097,-0.0302734337747097,0.9965819716453552,0.9985672102700507,0.484466552734375,-0.698089599609375,0.6008148193359375,1.0406802472108239
1785337814.206826,-0.0439453050494194,-0.0224609375,0.9863280653953552,0.9875620163492567,0.4825592041015625,-0.5779266357421875,0.6008148193359375,0.9632450513223993
1785337814.217537,-0.0419921837747097,-0.014160159975290298,1.0009765625,1.0019570511269489,0.23651123046875,-0.759124755859375,0.7228851318359375,1.074602657230038
1785337814.228248,-0.052734375,-0.02734375,0.9999999403953552,1.001762684352645,0.4215240478515625,-0.6389617919921875,0.7839202880859375,1.095666789044814
1785337814.236205,-0.0322265625,-0.021484375,0.9853515028953552,0.9861124246037276,0.179290771484375,-0.514984130859375,0.8449554443359375,1.0056358877294456
1785337814.244162,-0.0351562425494194,-0.0302734375,0.9931640028953552,0.9942470412605637,0.54168701171875,-0.209808349609375,0.8449554443359375,1.0253750850998578
1785337814.252119,-0.0366210900247097,-0.0170898474752903,0.9946288466453552,0.9954495013311304,0.6046295166015625,-0.4558563232421875,0.7228851318359375,1.046873800233431
1785337814.260076,-0.0468749962747097,-0.0288085974752903,0.9868163466453552,0.9883489781300597,0.3604888916015625,-0.3337860107421875,0.7228851318359375,0.8740298940910245
1785337814.270733,-0.0434570237994194,-0.025390625,0.9809569716453552,0.9822473094771093,0.35858154296875,-0.209808349609375,0.6008148193359375,0.7304647244441955
1785337814.28139,-0.0463867150247097,-0.0341796837747097,0.9887694716453552,0.9904468921509915,0.1773834228515625,-0.3337860107421875,0.2956390380859375,0.47987542186498605
1785337814.292047,-0.0458984337747097,-0.0161132775247097,0.9980468153953552,0.9992315795932242,0.23651123046875,-0.392913818359375,0.5397796630859375,0.7082943706374873
1785337814.302747,-0.04736328125,-0.0205078125,0.9960936903953552,0.9974299428179102,0.1163482666015625,-0.1506805419921875,0.6618499755859375,0.6886849316337288
1785337814.313446,-0.0439453050494194,-0.02099609375,0.9809569716453552,0.9821652641018576,0.35858154296875,-0.576019287109375,0.5397796630859375,0.8670300033799351
1785337814.324145,-0.03271484375,-0.03125,0.9946288466453552,0.9956572533159473,-0.0667572021484375,-0.2727508544921875,0.2956390380859375,0.40774010534320043
1785337814.334769,-0.04248046875,-0.0322265625,1.0029296875,1.0043461054958265,0.23651123046875,-0.026702880859375,-0.0095367431640625,0.23820486026571633
1785337814.345395,-0.030273430049419403,-0.03076171875,0.9916991591453552,0.9926378927670532,0.23651123046875,-0.087738037109375,0.2346038818359375,0.3444916641460846
1785337814.356021,-0.0356445275247097,-0.0292968712747097,0.9843749403953552,0.9854556622635571,0.54168701171875,-0.087738037109375,0.0514984130859375,0.551157752708755
1785337814.364015,-0.0517578087747097,-0.0292968712747097,0.9941405653953552,0.9959179891940113,0.23651123046875,-0.026702880859375,-0.0095367431640625,0.23820486026571633
1785337814.372009,-0.0546874925494194,-0.03076171875,0.9887694716453552,0.9907583324098929,0.1163482666015625,-0.0896453857421875,0.4787445068359375,0.5007689259045921
1785337814.380003,-0.0371093712747097,-0.0283203162252903,0.9931640028953552,0.9942604700955529,0.35858154296875,-0.514984130859375,0.1735687255859375,0.6510879207114518
1785337814.387997,-0.0483398362994194,-0.01611328125,0.9863280653953552,0.9876433719681615,0.23651123046875,-0.087738037109375,0.3566741943359375,0.4368661193075498
1785337814.398688,-0.0444335862994194,-0.02099609375,0.9833983778953552,0.9846255883285802,-0.0057220458984375,-0.3337860107421875,0.3566741943359375,0.4885307806900581
1785337814.409379,-0.04296875,-0.02783203125,0.9926757216453552,0.9939949817701246,0.1773834228515625,-0.1506805419921875,0.4787445068359375,0.5323211504939294
1785337814.42007,-0.0488281175494194,-0.03076171875,0.9985350966453552,1.0002013835405463,0.2384185791015625,-0.1506805419921875,0.5397796630859375,0.6090239151930207
1785337814.430764,-0.0410156212747097,-0.0292968712747097,0.9999999403953552,1.0012694285983925,0.1773834228515625,0.0324249267578125,1.0890960693359375,1.1039232323041195
1785337814.441459,-0.0434570237994194,-0.0166015625,0.9916991591453552,0.9927896791589592,0.2994537353515625,0.0934600830078125,0.7228851318359375,0.7880166499264413
1785337814.452154,-0.0405273400247097,-0.0224609412252903,0.9965819716453552,0.9976585514988322,0.35858154296875,0.095367431640625,0.7839202880859375,0.8672984999689081
1785337814.46013,-0.0410156212747097,-0.0273437537252903,0.9838866591453552,0.9851207642215994,0.4825592041015625,0.3376007080078125,0.6008148193359375,0.841318055579568
1785337814.468106,-0.0415039025247097,-0.0268554724752903,0.9775390028953552,0.9787881755049439,-0.0057220458984375,0.5207061767578125,0.4177093505859375,0.667569296695053
1785337814.476082,-0.0576171837747097,-0.0234375037252903,0.9907225966453552,0.9926733198543803,0.1773834228515625,0.3376007080078125,0.6008148193359375,0.7116302156904158
1785337814.484058,-0.0361328087747097,-0.0332031287252903,0.9887694716453552,0.9899864118688362,0.05340576171875,0.461578369140625,0.2956390380859375,0.5507351514872256
1785337814.494723,-0.0380859375,-0.03564453125,0.9921874403953552,0.9935577427213643,0.2994537353515625,0.7038116455078125,0.2346038818359375,0.8000389698889104
1785337814.505388,-0.0517578087747097,-0.0180664099752903,0.9809569716453552,0.9824875806635832,-0.12969970703125,0.400543212890625,-0.0095367431640625,0.42112685602667743
1785337814.516053,-0.04296875,-0.01708984375,1.0009765625,1.0020441382046392,0.1773834228515625,0.6465911865234375,0.1125335693359375,0.6798594306323986
1785337814.526702,-0.0502929612994194,-0.0263671875,0.9926757216453552,0.9942985964372331,-0.0057220458984375,0.3376007080078125,-0.4978179931640625,0.6015228459290093
1785337814.537354,-0.0493163987994194,-0.0224609375,0.9936522841453552,0.9951288673790968,0.05340576171875,0.522613525390625,-0.4978179931640625,0.7237401651310171
1785337814.548006,-0.0493164025247097,-0.013183597475290298,0.9956054091453552,0.9969132587742325,0.35858154296875,0.339508056640625,-0.1926422119140625,0.5300542097681009
1785337814.556121,-0.0346679612994194,-0.03564453125,0.9965819716453552,0.9978216405536782,0.11444091796875,0.095367431640625,-0.3757476806640625,0.4042004332601361
1785337814.564237,-0.0400390550494194,-0.037109375,0.9990233778953552,1.0005138385967416,0.2384185791015625,-0.1506805419921875,-0.4978179931640625,0.5721632624642743
1785337814.572353,-0.0429687462747097,-0.0283203162252903,0.9873046278953552,0.9886449219669854,0.1163482666015625,-0.2727508544921875,-0.3147125244140625,0.43240481124806945
1785337814.580469,-0.0507812462747097,-0.012695316225290298,0.9868163466453552,0.9882036268066207,0.35858154296875,-0.148773193359375,-0.3147125244140625,0.49975810052791275
1785337814.590995,-0.0473632775247097,-0.0283203162252903,0.9902343153953552,0.9917708000115203,0.179290771484375,-0.392913818359375,-0.2536773681640625,0.5008778858323171
1785337814.601521,-0.0380859375,-0.025390625,0.9912108778953552,0.9922672154874539,0.0553131103515625,-0.6389617919921875,-0.3147125244140625,0.7144058264220019
1785337814.612047,-0.0424804650247097,-0.0190429724752903,0.9965819716453552,0.9976687079977771,0.23651123046875,-0.514984130859375,-0.0705718994140625,0.5710749601950138
1785337814.622757,-0.0507812462747097,-0.0258789025247097,0.9814452528953552,0.9830987931026688,0.11444091796875,-0.698089599609375,-0.3147125244140625,0.7742543418098342
1785337814.633468,-0.0415039025247097,-0.0175781287252903,0.9877929091453552,0.9888207096800246,-0.1888275146484375,-0.5779266357421875,0.0514984130859375,0.6101697412515298
1785337814.644179,-0.0488281175494194,-0.0263671875,0.9946288466453552,0.9961756653417858,0.2384185791015625,-0.4558563232421875,-0.3147125244140625,0.6030691331213741
1785337814.652148,-0.0356445237994194,-0.02099609375,0.9838866591453552,0.9847559728551305,0.41961669921875,-0.392913818359375,-0.1316070556640625,0.5897286325264752
1785337814.660117,-0.0351562462747097,-0.0288085974752903,0.9868163466453552,0.987862540512144,0.23651123046875,-0.209808349609375,-0.2536773681640625,0.40535085151297906
1785337814.668086,-0.0458984337747097,-0.0375976599752903,0.9936522841453552,0.9954220773349719,0.2994537353515625,-0.4558563232421875,-0.3757476806640625,0.6623170287561023
1785337814.676055,-0.04296875,-0.02001953125,0.9902343153953552,0.9913682940736708,0.11444091796875,-0.392913818359375,-0.1316070556640625,0.42988185523913164
1785337814.686695,-0.0346679650247097,-0.0341796837747097,0.9877929091453552,0.9889918856794213,0.2994537353515625,-0.2079010009765625,-0.2536773681640625,0.44412562743181755
1785337814.697335,-0.0454101487994194,-0.02685546875,0.9853515028953552,0.9867628296981513,0.23651123046875,-0.026702880859375,-0.4978179931640625,0.5517910476819343
1785337814.707975,-0.0336913987994194,-0.0302734375,0.9848632216453552,0.9859042330372642,0.2994537353515625,-0.2727508544921875,-0.4367828369140625,0.5956885216830341
1785337814.715989,-0.0434570237994194,-0.03271484375,0.9858397841453552,0.9873392800465556,0.23651123046875,-0.087738037109375,-0.1926422119140625,0.3174059657674865
1785337814.724003,-0.0341796800494194,-0.02685546875,0.9956054091453552,0.996553860787039,0.23651123046875,-0.026702880859375,-0.4367828369140625,0.4974232127743223
1785337814.732017,-0.0473632775247097,-0.0244140587747097,0.9985350966453552,0.9999558318027284,0.484466552734375,-0.209808349609375,-0.3147125244140625,0.614631074147094
1785337814.740031,-0.0473632775247097,-0.0239257849752903,0.9887694716453552,0.9901923001631558,0.4215240478515625,0.1544952392578125,-0.4367828369140625,0.6263629526825414
1785337814.750792,-0.0439453050494194,-0.0234375,0.9726561903953552,0.9739304754224205,0.05340576171875,0.217437744140625,-0.4367828369140625,0.4908264403884741
1785337814.761553,-0.0483398362994194,-0.03369140625,1.00390625,1.0056339341020766,0.4215240478515625,-0.1506805419921875,-0.3757476806640625,0.584442869899743
1785337814.772314,-0.0449218712747097,-0.0278320349752903,0.9848632216453552,0.986279961288556,0.2384185791015625,0.0324249267578125,-0.2536773681640625,0.349638387272769
1785337814.78294,-0.0507812462747097,-0.0234375037252903,0.9960936903953552,0.9976626141133702,0.23651123046875,0.278472900390625,-0.0095367431640625,0.36548005124765215
1785337814.793569,-0.0400390587747097,-0.0297851525247097,1.00048828125,1.0017320412450945,-0.0667572021484375,0.3376007080078125,-0.1316070556640625,0.3684442687661558
1785337814.804198,-0.0507812462747097,-0.0219726599752903,0.9926757216453552,0.9942165866166834,0.23651123046875,0.217437744140625,-0.4367828369140625,0.5422139626913923
1785337814.812505,-0.0463867150247097,-0.0229492224752903,0.9843749403953552,0.9857344558355273,0.1773834228515625,0.3376007080078125,-0.0705718994140625,0.38783954122397196
1785337814.820812,-0.0429687462747097,-0.0234375037252903,0.9916991591453552,0.9929062654585769,0.35858154296875,-0.026702880859375,-0.2536773681640625,0.44005223999280446
1785337814.829119,-0.0458984337747097,-0.0190429724752903,0.9882811903953552,0.9895296924867523,0.6046295166015625,-0.0896453857421875,0.1735687255859375,0.635404792264137
1785337814.837426,-0.0439453050494194,-0.02001953125,0.9931640028953552,0.9943373210910276,0.23651123046875,-0.209808349609375,0.2346038818359375,0.39369542425095877
1785337814.847609,-0.04736328125,-0.02734375,0.9907225966453552,0.9922309330889378,0.60272216796875,-0.392913818359375,0.2346038818359375,0.7567656584380561
1785337814.857792,-0.029296867549419403,-0.02783203125,0.9838866591453552,0.9847161451179307,0.54168701171875,-0.514984130859375,-0.1926422119140625,0.771844864926183
1785337814.867975,-0.0517578087747097,-0.0341796837747097,0.9921874403953552,0.994124257037512,0.54168701171875,-0.392913818359375,-0.0095367431640625,0.6692511014505023
1785337814.878717,-0.0478515625,-0.02734375,0.9990233778953552,1.0005424340222655,0.23651123046875,-0.576019287109375,-0.0095367431640625,0.6227573610404071
1785337814.88946,-0.0463867150247097,-0.0390624962747097,0.9931640028953552,0.9950137399016762,0.54168701171875,-0.514984130859375,0.0514984130859375,0.7491899360323422
1785337814.900203,-0.0336913987994194,-0.0166015625,1.00341796875,1.0041206811140178,0.41961669921875,-0.576019287109375,0.2346038818359375,0.7502768654021807
1785337814.908181,-0.0361328087747097,-0.0273437537252903,0.9843749403953552,0.9854173146520707,0.6046295166015625,-0.4558563232421875,0.1125335693359375,0.7655361807342689
1785337814.916159,-0.0380859375,-0.0302734375,0.9985350966453552,0.9997196401421097,0.667572021484375,-0.209808349609375,0.2956390380859375,0.7596541241084148
1785337814.924137,-0.0234375,-0.0244140625,0.9858397841453552,0.9864205202943441,0.05340576171875,0.034332275390625,0.2956390380859375,0.3023794327639299
1785337814.932115,-0.0400390587747097,-0.0332031287252903,0.9877929091453552,0.9891614657590321,-0.1888275146484375,0.8869171142578125,0.1735687255859375,0.9232572232878755
1785337814.942749,-0.0458984337747097,-0.0224609412252903,0.9892577528953552,0.9905766309414255,-0.308990478515625,1.255035400390625,-0.3147125244140625,1.3302755147224365
1785337814.953383,-0.0390624925494194,-0.015625,0.9926757216453552,0.993566861008005,-0.4329681396484375,0.8258819580078125,-0.3757476806640625,1.005350057461514
1785337814.964017,-0.0380859375,-0.0224609375,0.9819335341453552,0.9829285313937226,-0.3108978271484375,1.1348724365234375,-0.6809234619140625,1.3595034634348289
1785337814.972038,-0.0405273400247097,-0.0297851525247097,0.9956054091453552,0.9968749928250226,-0.37384033203125,0.766754150390625,-0.5588531494140625,1.0197967266100145
1785337814.980059,-0.0468749962747097,-0.0297851525247097,0.9931640028953552,0.99471561626115,-0.25177001953125,0.583648681640625,-0.7419586181640625,0.9770038471692579
1785337814.98808,-0.0390624925494194,-0.03125,0.9931640028953552,0.9944230374801755,-0.61798095703125,0.095367431640625,-0.9250640869140625,1.1165746617083594
1785337814.996101,-0.0551757737994194,-0.0361328125,0.9853515028953552,0.9875563429048796,-0.61798095703125,0.217437744140625,-1.2302398681640625,1.3937968894536081
1785337815.005677,-0.0498046837747097,-0.0239257849752903,0.9946288466453552,0.9961623824917563,-0.4940032958984375,0.4634857177734375,-1.2302398681640625,1.4044032185091315
1785337815.015257,-0.04248046875,-0.02685546875,0.9921874403953552,0.9934594724020143,-0.4940032958984375,-0.0896453857421875,-1.2302398681640625,1.3287459067721392
1785337815.024837,-0.0590820237994194,-0.0224609375,0.9907225966453552,0.9927368446639468,-0.4940032958984375,-0.0247955322265625,-1.2302398681640625,1.3259503037434124
1785337815.034417,-0.0610351525247097,-0.0322265662252903,0.9907225966453552,0.9931239121671086,-0.4940032958984375,-0.6389617919921875,-1.0471343994140625,1.3224227306049439
1785337815.043997,-0.0512695275247097,-0.0341796837747097,0.9941405653953552,0.9960483316587316,-0.308990478515625,-0.514984130859375,-1.1081695556640625,1.2604457683498274
1785337815.052011,-0.0605468712747097,-0.0380859412252903,0.9843749403953552,0.9869703571123764,-0.1888275146484375,-0.7610321044921875,-0.7419586181640625,1.0795037218203738
1785337815.060025,-0.0585937425494194,-0.0283203125,0.9892577528953552,0.9913960704126343,-0.12969970703125,-0.881195068359375,-0.5588531494140625,1.0514958892524935
1785337815.068039,-0.0488281175494194,-0.0283203125,1.0009765625,1.0025668575401014,-0.06866455078125,-1.369476318359375,-0.5588531494140625,1.4807082932472404
1785337815.076053,-0.0498046837747097,-0.0249023400247097,0.9887694716453552,0.9903361556170914,0.179290771484375,-1.003265380859375,-0.1316070556640625,1.027622023056597
1785337815.086703,-0.0483398362994194,-0.02587890625,0.9975585341453552,0.9990643055421311,0.35858154296875,-1.186370849609375,0.2346038818359375,1.2613863393636424
1785337815.097353,-0.0375976525247097,-0.0229492224752903,0.9936522841453552,0.9946281275305213,0.1773834228515625,-0.9441375732421875,0.1125335693359375,0.9672251238143421
1785337815.108003,-0.0512695275247097,-0.0307617150247097,1.00439453125,1.0061725607313965,-0.12969970703125,-0.881195068359375,0.2956390380859375,0.9384717381707635
1785337815.11869,-0.0415039025247097,-0.0317382849752903,0.9946288466453552,0.9960002184924573,0.1163482666015625,-0.6389617919921875,0.4787445068359375,0.8068490525449236
1785337815.129376,-0.0380859375,-0.0302734375,0.9975585341453552,0.9987442358780101,0.05340576171875,-0.576019287109375,-0.2536773681640625,0.6316665272320497
1785337815.140062,-0.0395507737994194,-0.03271484375,0.9912108778953552,0.99253893080715,0.1163482666015625,-0.5130767822265625,-0.4978179931640625,0.7242979068857277
1785337815.148108,-0.0415039025247097,-0.0473632849752903,0.9687499403953552,0.9707946753585103,0.1773834228515625,-0.4558563232421875,-0.1316070556640625,0.5065474146049761
1785337815.156153,-0.03759765625,-0.02587890625,0.9775390028953552,0.9786040076179101,-0.003814697265625,-0.209808349609375,-0.2536773681640625,0.32922075056059785
1785337815.164198,-0.0444335900247097,-0.0332031287252903,0.9926757216453552,0.9942242604280781,0.05340576171875,-0.087738037109375,-0.5588531494140625,0.5682138516004185
1785337815.172243,-0.0449218675494194,-0.037109375,0.9956054091453552,0.9973089845261138,-0.06866455078125,-0.087738037109375,-0.3757476806640625,0.39191721474594504
1785337815.182811,-0.0351562462747097,-0.0278320349752903,0.9951171278953552,0.9961268403439868,0.179290771484375,0.095367431640625,-0.4978179931640625,0.5376456845126596
1785337815.193379,-0.0419921875,-0.02587890625,0.9980468153953552,0.9992649835356694,0.23651123046875,0.095367431640625,-0.7419586181640625,0.7845604503309459
1785337815.203947,-0.0458984337747097,-0.0332031287252903,0.9819335341453552,0.9835662557546935,0.1163482666015625,0.0324249267578125,-0.4367828369140625,0.453174956985858
1785337815.214636,-0.0493164025247097,-0.0292968712747097,0.9892577528953552,0.990919429564298,0.4215240478515625,0.2155303955078125,-0.3757476806640625,0.6044188893717194
1785337815.225326,-0.0463867150247097,-0.0175781287252903,0.9892577528953552,0.9905006913696901,0.2384185791015625,0.3376007080078125,-0.4367828369140625,0.6013292804536303
1785337815.236016,-0.03759765625,-0.0400390625,0.9921874403953552,0.9937065095689264,0.2994537353515625,0.6465911865234375,-0.4978179931640625,0.8692384347368016
1785337815.244034,-0.0361328087747097,-0.0263671912252903,0.9980468153953552,0.9990486746719957,0.54168701171875,0.583648681640625,-0.2536773681640625,0.8357169433272692
1785337815.252053,-0.0366210900247097,-0.0244140587747097,0.9916991591453552,0.9926753612083143,0.4825592041015625,0.3376007080078125,-0.5588531494140625,0.8118832835577576
1785337815.260072,-0.0444335862994194,-0.03173828125,0.9873046278953552,0.9888134760164415,0.41961669921875,0.400543212890625,-0.4367828369140625,0.7261489422141163
1785337815.268091,-0.0400390550494194,-0.037109375,0.9892577528953552,0.9907629046879525,-0.0057220458984375,0.1544952392578125,-0.0705718994140625,0.16994679682036112
1785337815.278782,-0.0385742150247097,-0.0239257849752903,0.9902343153953552,0.9912741359674246,0.23651123046875,-0.087738037109375,0.1125335693359375,0.27622333268776283
1785337815.289473,-0.0483398362994194,-0.02734375,0.9873046278953552,0.9888654350826016,-0.0667572021484375,0.1544952392578125,-0.0095367431640625,0.16857120887682264
1785337815.300164,-0.0336913987994194,-0.02783203125,0.9829100966453552,0.983881085499637,-0.0057220458984375,0.0324249267578125,-0.0705718994140625,0.07787496819531861
1785337815.310817,-0.0361328087747097,-0.0166015662252903,0.9814452528953552,0.9822504651573906,0.2994537353515625,0.2803802490234375,0.1125335693359375,0.4253815086318806
1785337815.32147,-0.0395507737994194,-0.03759765625,0.9907225966453552,0.9922243249222129,-0.0057220458984375,0.3376007080078125,-0.0705718994140625,0.3449454635787354
1785337815.332123,-0.0385742112994194,-0.01611328125,0.9931640028953552,0.9940434317760662,-0.0057220458984375,0.2155303955078125,-0.0705718994140625,0.22686226258222514
1785337815.342737,-0.0395507737994194,-0.03076171875,0.9936522841453552,0.9949147746595528,0.23651123046875,0.095367431640625,-0.0705718994140625,0.2645995127404433
1785337815.353354,-0.0395507737994194,-0.02978515625,0.9868163466453552,0.9880576507711762,0.2994537353515625,0.5817413330078125,-0.3147125244140625,0.7260437253835214
1785337815.363971,-0.0434570237994194,-0.021484375,0.9999999403953552,1.0011742965524824,0.179290771484375,0.095367431640625,-0.1316070556640625,0.24199286117105873
1785337815.371997,-0.0356445275247097,-0.0346679650247097,0.9824218153953552,0.9836793296121047,0.0553131103515625,0.1544952392578125,-0.4978179931640625,0.5241670281961538
1785337815.380023,-0.0336914025247097,-0.014160159975290298,0.9946288466453552,0.9953000368299387,0.484466552734375,0.278472900390625,-0.3757476806640625,0.6733805138959088
1785337815.388049,-0.0444335862994194,-0.02978515625,0.9960936903953552,0.9975290167056308,0.4215240478515625,0.2155303955078125,-0.1926422119140625,0.511123171178986
1785337815.396075,-0.037109375,-0.03173828125,0.9990233778953552,1.0002160435581107,0.3604888916015625,0.1544952392578125,-0.3147125244140625,0.5028568314585412
1785337815.406844,-0.0371093712747097,-0.0327148474752903,0.9990233778953552,1.000247507501609,0.179290771484375,0.461578369140625,-0.6809234619140625,0.8419361808254906
1785337815.417613,-0.04296875,-0.03662109375,0.9912108778953552,0.9928174164679473,0.4215240478515625,0.6465911865234375,-0.6809234619140625,1.029281033727905
1785337815.428382,-0.0415039025247097,-0.0283203162252903,0.9858397841453552,0.9871193920897521,0.2994537353515625,0.4634857177734375,-0.3147125244140625,0.6352444594162424
1785337815.43631,-0.0405273362994194,-0.01123046875,0.9916991591453552,0.9925904546516028,0.4825592041015625,0.5207061767578125,-0.4367828369140625,0.8335331754642812
1785337815.444241,-0.0522460900247097,-0.0249023400247097,0.9794921278953552,0.9812005957349125,0.4825592041015625,0.2155303955078125,-0.5588531494140625,0.7691772094003462
1785337815.452172,-0.0444335862994194,-0.01513671875,0.9926757216453552,0.9937849627510326,0.35858154296875,0.217437744140625,-0.4978179931640625,0.6509090949224077
1785337815.460103,-0.0439453050494194,-0.0263671875,0.9853515028953552,0.9866833345459332,0.41961669921875,0.278472900390625,-0.4978179931640625,0.7081299914797426
1785337815.470738,-0.0571289025247097,-0.0185546912252903,0.9941405653953552,0.9959535389940337,0.23651123046875,0.095367431640625,-0.3147125244140625,0.40506355325879834
1785337815.481373,-0.0458984337747097,-0.0249023400247097,0.9882811903953552,0.9896597920755081,-0.0057220458984375,0.1544952392578125,-0.2536773681640625,0.29707528992031274
1785337815.492008,-0.0405273400247097,-0.0390624962747097,0.9946288466453552,0.996220300176502,-0.0057220458984375,0.2155303955078125,-0.0095367431640625,0.21581715100333246
1785337815.502691,-0.0322265625,-0.02685546875,0.9868163466453552,0.9877075830117102,0.1163482666015625,0.1544952392578125,-0.1316070556640625,0.23393613486394238
1785337815.513376,-0.04248046875,-0.025390625,0.9770507216453552,0.9783033204128563,0.05340576171875,0.095367431640625,-0.1926422119140625,0.2214907316653041
1785337815.524061,-0.0346679650247097,-0.0283203162252903,0.9853515028953552,0.9863678281291367,0.179290771484375,0.278472900390625,-0.1316070556640625,0.3563884875974433
1785337815.532056,-0.0395507775247097,-0.0341796837747097,0.9711913466453552,0.972597114217684,-0.0667572021484375,0.1544952392578125,-0.0095367431640625,0.16857120887682264
1785337815.540052,-0.0366210900247097,-0.0278320349752903,0.9916991591453552,0.9927653039138044,0.2994537353515625,0.2803802490234375,-0.0095367431640625,0.4103371456846501
1785337815.548048,-0.0346679612994194,-0.0302734375,0.9931640028953552,0.9942298955502442,0.2994537353515625,0.2803802490234375,0.1125335693359375,0.4253815086318806
1785337815.556044,-0.0532226487994194,-0.02587890625,0.9946288466453552,0.9963879318382937,0.35858154296875,0.522613525390625,-0.1316070556640625,0.647322204917791
1785337815.56671,-0.0458984337747097,-0.0375976599752903,0.9941405653953552,0.9959094908791589,0.35858154296875,0.217437744140625,-0.3147125244140625,0.524312758339796
1785337815.577376,-0.0454101525247097,-0.0341796837747097,0.9965819716453552,0.998201361922433,0.2994537353515625,0.1544952392578125,-0.4367828369140625,0.5516525765298562
1785337815.588042,-0.0380859375,-0.0322265625,0.9799804091453552,0.9812495565729027,0.4215240478515625,0.1544952392578125,-0.3757476806640625,0.5854379739946132
1785337815.5987,-0.0439453050494194,-0.025390625,0.9956054091453552,0.9968981915889241,0.4825592041015625,0.3986358642578125,-0.2536773681640625,0.6753711163903531
1785337815.609359,-0.0395507737994194,-0.03076171875,0.9965819716453552,0.9978407554600737,0.54168701171875,-0.026702880859375,-0.4978179931640625,0.7361797449189116
1785337815.620018,-0.0532226487994194,-0.0283203125,0.9960936903953552,0.997916494748314,0.41961669921875,-0.026702880859375,-0.7419586181640625,0.8528152256950822
1785337815.630683,-0.0498046837747097,-0.0332031287252903,0.9926757216453552,0.9944787793749919,0.41961669921875,-0.026702880859375,-0.7419586181640625,0.8528152256950822
1785337815.641348,-0.0458984337747097,-0.0166015662252903,0.9912108778953552,0.9924118513410574,0.7877349853515625,0.0324249267578125,-0.6198883056640625,1.0029153974893088
1785337815.652013,-0.0537109300494194,-0.0234375,0.9999999403953552,1.0017155590304752,0.4825592041015625,0.2155303955078125,-0.1316070556640625,0.544644061705855
1785337815.660003,-0.04296875,-0.02099609375,0.9965819716453552,0.9977288086638898,0.41961669921875,-0.392913818359375,-0.1926422119140625,0.6062758981949764
1785337815.667996,-0.0405273400247097,-0.0375976599752903,0.9960936903953552,0.9976265280006009,0.4215240478515625,-0.2727508544921875,-0.4978179931640625,0.707034868914737
1785337815.675989,-0.029296867549419403,-0.037109375,0.9887694716453552,0.9898992273049483,0.35858154296875,-0.270843505859375,-0.4367828369140625,0.6266707063895227
1785337815.683982,-0.0444335862994194,-0.02685546875,0.9980468153953552,0.9993963205425666,0.2994537353515625,-0.5779266357421875,-0.2536773681640625,0.6985871048301221
1785337815.694674,-0.0512695275247097,-0.0288085974752903,0.9868163466453552,0.98856714579617,0.1163482666015625,-0.5779266357421875,-0.1926422119140625,0.6201992722122576
1785337815.705366,-0.0439453087747097,-0.014160159975290298,0.9887694716453552,0.9898468408555261,-0.06866455078125,-0.576019287109375,-0.4367828369140625,0.7261489422141163
1785337815.716058,-0.0468749962747097,-0.0278320349752903,1.0068359375,1.0083107122748045,0.1773834228515625,-0.1506805419921875,-0.3757476806640625,0.4419907509914861
1785337815.726739,-0.0517578125,-0.02587890625,0.9990233778953552,1.0006979057262622,0.11444091796875,-0.209808349609375,-0.2536773681640625,0.34852327668318683
1785337815.737421,-0.0434570237994194,-0.03125,0.9829100966453552,0.9843664630130817,0.0553131103515625,-0.1506805419921875,-0.0095367431640625,0.16079525920250512
1785337815.748103,-0.0517578125,-0.0263671875,0.9882811903953552,0.9899867731544223,0.05340576171875,-0.392913818359375,-0.1316070556640625,0.41779643505308595
1785337815.756078,-0.04296875,-0.03271484375,0.9843749403953552,0.9858552620727389,0.05340576171875,-0.270843505859375,-0.0705718994140625,0.2849364368378775
1785337815.764054,-0.0415039025247097,-0.0341796837747097,0.9833983778953552,0.9848670947670735,0.23651123046875,-0.026702880859375,-0.1316070556640625,0.2719761443299684
1785337815.77203,-0.0532226487994194,-0.02587890625,0.9853515028953552,0.9871271206851009,0.4825592041015625,-0.1506805419921875,-0.1926422119140625,0.5409981820758138
1785337815.780006,-0.0488281212747097,-0.0336914025247097,0.9946288466453552,0.9963964264339618,-0.0057220458984375,-0.0896453857421875,-0.1926422119140625,0.21255601333594865
1785337815.788245,-0.0410156212747097,-0.0356445275247097,0.9916991591453552,0.9931868080983631,0.2994537353515625,0.2155303955078125,-0.0095367431640625,0.3690756568427875
1785337815.796484,-0.0415039025247097,-0.0190429724752903,0.9829100966453552,0.9839702570773452,0.23651123046875,0.217437744140625,-0.4978179931640625,0.5924858555549666
1785337815.804723,-0.0473632775247097,-0.0234375037252903,0.9921874403953552,0.9935937366534887,0.23651123046875,-0.026702880859375,-0.5588531494140625,0.6074269080260181
1785337815.812962,-0.0439453050494194,-0.03076171875,0.9999999403953552,1.0014376435740044,0.179290771484375,-0.026702880859375,-0.9250640869140625,0.9426567718336301
1785337815.823364,-0.0415039025247097,-0.0288085974752903,0.9965819716453552,0.997861781722207,0.23651123046875,0.278472900390625,-0.7419586181640625,0.8270352528506474
1785337815.833766,-0.0458984337747097,-0.0200195275247097,0.9897460341453552,0.9910119372700525,0.41961669921875,0.400543212890625,-0.8640289306640625,1.0407012216195706
1785337815.844168,-0.0493163987994194,-0.0107421875,0.9892577528953552,0.9905444984685928,0.2994537353515625,0.2155303955078125,-0.8029937744140625,0.8836995489143921
1785337815.854941,-0.04248046875,-0.0361328125,0.9829100966453552,0.9844909488927572,0.1163482666015625,0.3376007080078125,-0.6809234619140625,0.7688744489015071
1785337815.865715,-0.0434570237994194,-0.02783203125,0.9912108778953552,0.9925533433217003,-0.25177001953125,0.583648681640625,-0.9250640869140625,1.1223980983651718
1785337815.876489,-0.0483398362994194,-0.03125,1.00341796875,1.005067620751873,-0.43487548828125,0.949859619140625,-1.1081695556640625,1.5229542837795607
1785337815.886998,-0.0581054612994194,-0.02978515625,0.9853515028953552,0.9875125236794673,-0.61798095703125,0.949859619140625,-0.9860992431640625,1.502173584076078
1785337815.897508,-0.04736328125,-0.01513671875,0.9838866591453552,0.9851423037863574,-0.5550384521484375,0.6465911865234375,-1.3523101806640625,1.5984025370915769
1785337815.908018,-0.0434570237994194,-0.03515625,0.9775390028953552,0.9791358317481855,-0.55694580078125,0.400543212890625,-1.2912750244140625,1.4621951576571952
