timestamp,accel_x,accel_y,accel_z,accel_rms,gyro_x,gyro_y,gyro_z,gyro_rms
1785250183.635017,-0.1083984375,-0.18701171875,1.11669921875,1.1374272501391598,11.087417602539062,-28.532028198242188,-189.1765594482422,191.63710002729817
1785250183.645677,-0.12744140625,-0.1767578125,1.09130859375,1.1128517794833979,14.444351196289062,-28.898239135742188,-187.1623992919922,189.9302798801797
1785250183.656337,-0.1303710788488388,-0.17041015625,1.095703125,1.1165131336836684,17.314910888671875,-29.693603515625,-185.2092742919922,188.37194990919477
1785250183.667018,-0.13134765625,-0.17724609375,1.05126953125,1.0741675902235166,20.242691040039062,-29.508590698242188,-182.5237274169922,185.9984799285503
1785250183.677702,-0.13330078125,-0.16015625,1.033203125,1.054005607293286,22.380828857421875,-29.876708984375,-179.6550750732422,183.49241194026123
1785250183.688386,-0.13916015625,-0.18310546875,1.015625,1.0413391870080957,23.235321044921875,-30.731201171875,-176.6643524169922,180.81642703151186
1785250183.699031,-0.13134765625,-0.1591796875,1.005859375,1.0268122817683651,24.820327758789062,-33.47587585449219,-168.6687469482422,173.74069509291496
1785250183.709677,-0.123046875,-0.1259765625,0.9790038466453552,0.9947156173967433,24.759292602539062,-34.26933288574219,-163.8469696044922,169.2135904565214
1785250183.720323,-0.1406249850988388,-0.1025390625,0.9853515028953552,1.000603432949619,24.332046508789062,-35.36796569824219,-158.1707000732422,163.89298900989465
1785250183.728329,-0.1215820163488388,-0.0869140625,0.9873046278953552,0.9985522866747084,23.660659790039062,-36.03935241699219,-152.5554656982422,158.53022380209927
1785250183.736336,-0.1171874925494194,-0.06982421875,0.9643554091453552,0.9739556894859096,23.908615112304688,-35.55107116699219,-146.9402313232422,153.05859047775394
1785250183.744343,-0.119140625,-0.0581054650247097,0.9487304091453552,0.9579457828229327,23.845672607421875,-35.182952880859375,-140.1042938232422,146.40925320220202
1785250183.75235,-0.1103515625,-0.0419921912252903,0.9233397841453552,0.9308582966572753,22.869110107421875,-34.149169921875,-134.2449188232422,140.3953711249675
1785250183.763013,-0.0947265550494194,-0.03662109375,0.9213866591453552,0.926966882035176,20.914077758789062,-31.949996948242188,-127.95829772949219,133.5347404660028
1785250183.773676,-0.08642578125,-0.0219726599752903,0.9326171278953552,0.9368708132367258,18.716812133789062,-28.409957885742188,-121.91581726074219,126.57373843683325
1785250183.784339,-0.1083984300494194,-0.02587890625,0.9316405653953552,0.9382825163649018,17.194747924804688,-24.747848510742188,-115.93437194824219,119.7868689011512
1785250183.794991,-0.1005859375,-0.012207034975290298,0.9125975966453552,0.9182052689505328,13.345718383789062,-20.536422729492188,-103.05595397949219,105.92630697011494
1785250183.805643,-0.10009765625,-0.012207034975290298,0.9013671278953552,0.9069902159008953,9.990692138671875,-18.768310546875,-96.64726257324219,98.9583587833533
1785250183.816295,-0.08837890625,0.010253902524709702,0.8984374403953552,0.9028321039324477,7.4253082275390625,-16.386032104492188,-90.29960632324219,92.07418830777672
1785250183.824306,-0.0834960862994194,0.00439453125,0.9316405653953552,0.9353849749821751,4.9839019775390625,-14.432907104492188,-83.70780944824219,85.08904423621082
1785250183.832317,-0.0771484300494194,0.019531242549419403,0.9433593153953552,0.9467101708748078,2.4814605712890625,-12.601852416992188,-77.78739929199219,78.84062290163834
1785250183.840328,-0.0791015550494194,0.017578125,0.9462890028953552,0.9497520326329592,1.5048980712890625,-10.831832885742188,-71.43974304199219,72.27191852839861
1785250183.848339,-0.07568359375,0.015624996274709702,0.9360350966453552,0.9392198086834515,-0.0820159912109375,-9.183883666992188,-65.39726257324219,66.039021781862
1785250183.859034,-0.0747070237994194,0.00244140625,0.9428710341453552,0.9458292059879395,-1.972198486328125,-7.839202880859375,-59.65995788574219,60.205093169974255
1785250183.869729,-0.0537109300494194,0.02392578125,0.9296874403953552,0.9315449768229463,-3.498077392578125,-6.500244140625,-54.34989929199219,54.84889490574891
1785250183.880424,-0.0507812462747097,0.011230465024709702,0.9438475966453552,0.9452793999718269,-6.1855316162109375,-5.2165985107421875,-48.97880554199219,49.64269426328216
1785250183.891057,-0.0517578125,0.02294921875,0.9609374403953552,0.9626039175847964,-9.357452392578125,-3.021240234375,-38.90800476074219,40.13131747519771
1785250183.901691,-0.0346679650247097,0.0200195275247097,0.9731444716453552,0.9739675620754444,-9.357452392578125,-1.796722412109375,-34.33036804199219,35.628139112282874
1785250183.912325,-0.0351562462747097,0.0063476525247097015,0.9814452528953552,0.982095228975037,-9.357452392578125,-0.213623046875,-29.996871948242188,31.4232378466122
1785250183.92035,-0.029785148799419403,-0.00244140625,1.00927734375,1.009719699798185,-8.625030517578125,0.885009765625,-26.334762573242188,27.72533342456756
1785250183.928376,-0.0317382775247097,-0.0039062537252902985,1.01953125,1.0200326204612107,-7.2841644287109375,1.6193389892578125,-23.038864135742188,24.217154474706888
1785250183.936402,-0.015624996274709702,-0.0229492224752903,1.01318359375,1.0135639111397812,-6.549835205078125,1.739501953125,-20.048141479492188,21.162565653538838
1785250183.944428,-0.01904296875,-0.0166015625,0.9995116591453552,0.999830887352334,-5.268096923828125,1.922607421875,-17.606735229492188,18.478268044893642
1785250183.955139,-0.0078125,-0.0078125,1.01904296875,1.019102861575471,-4.3544769287109375,1.7414093017578125,-14.860153198242188,15.58262265326835
1785250183.96585,-0.0087890625,-0.01025390625,1.0615234375,1.0616093436734764,-2.7065277099609375,1.8024444580078125,-12.845993041992188,13.251174872587757
1785250183.976561,0.00244140625,-0.0322265625,1.06201171875,1.0625033659040206,-0.873565673828125,1.251220703125,-10.526657104492188,10.636690276113866
1785250183.987155,-0.0024414025247097015,-0.0351562462747097,1.04931640625,1.049908016220388,3.826141357421875,0.396728515625,-7.0476531982421875,8.02908256308138
1785250183.997749,0.00634765625,-0.0361328125,1.041015625,1.0416618474213064,5.4721832275390625,0.5817413330078125,-5.8269500732421875,8.014771326141918
1785250184.008343,0.0,-0.03125,1.02734375,1.0278189252801597,6.511688232421875,-0.091552734375,-4.5452117919921875,7.941625512040837
1785250184.016344,0.0239257849752903,-0.0302734337747097,1.025390625,1.0261163958426385,7.305145263671875,-0.579833984375,-3.8127899169921875,8.26067320040571
1785250184.024343,0.0205078125,-0.02001953125,1.0068359375,1.0072437426196843,7.7304840087890625,-1.1272430419921875,-3.0193328857421875,8.375406316160873
1785250184.032342,0.025390625,-0.013671875,0.9995116591453552,0.9999275777632133,8.159637451171875,-1.068115234375,-3.0803680419921875,8.78687775962528
1785250184.040341,0.0527343787252903,-0.0039062537252902985,1.01171875,1.0130997002364925,7.976531982421875,-1.251220703125,-3.4465789794921875,8.778924898665274
1785250184.051011,0.0498046875,-0.01171875,1.0087890625,1.0100857432011225,8.218765258789062,-1.1882781982421875,-3.7517547607421875,9.112396569522609
1785250184.061681,0.0380859412252903,0.0048828087747097015,0.9936522841453552,0.9943939071252541,8.953094482421875,-0.579833984375,-4.1790008544921875,9.897381290142137
1785250184.072351,0.0512695349752903,0.00048827752470970154,0.9687499403953552,0.9701057935336372,9.256362915039062,0.0324249267578125,-5.3386688232421875,10.685630098175952
1785250184.080356,0.0473632849752903,0.0175781212747097,0.9702147841453552,0.9715292061926997,7.488250732421875,0.339508056640625,-5.9490203857421875,9.569744421985195
1785250184.088361,0.05126953125,0.0185546875,0.9819335341453552,0.9834461382007684,6.999969482421875,0.946044921875,-6.3762664794921875,9.515847201722963
1785250184.096366,0.0478515662252903,0.0351562462747097,0.9667968153953552,0.9686185091670207,7.0629119873046875,1.9855499267578125,-7.1086883544921875,10.215702833058186
1785250184.104371,0.03076171875,0.0185546875,0.9575194716453552,0.9581931425076454,6.2656402587890625,3.1452178955078125,-7.0476531982421875,9.940827886321854
1785250184.115066,0.0288085974752903,0.0273437462747097,0.9545897841453552,0.9554157585802658,5.474090576171875,3.326416015625,-6.9866180419921875,9.478583375685998
1785250184.125761,0.0380859412252903,0.012695308774709702,0.9584960341453552,0.9593364150579688,4.3125152587890625,3.6945343017578125,-6.8035125732421875,8.862006256961124
1785250184.136456,0.0229492224752903,0.014648433774709702,0.9775390028953552,0.9779180669186543,3.8242340087890625,3.3893585205078125,-6.4983367919921875,8.266855387429798
1785250184.147129,0.02490234375,0.029296867549419403,0.9467772841453552,0.9475577338326705,3.3359527587890625,2.9621124267578125,-6.0710906982421875,7.533978570709385
1785250184.157803,0.0107421875,0.0361328125,0.9355468153953552,0.9363059428027979,2.4814605712890625,2.4127960205078125,-5.7048797607421875,6.67269692762727
1785250184.168477,0.015136722475290298,0.0249023400247097,0.9448241591453552,0.9452734729223748,1.0166168212890625,2.0465850830078125,-5.0945281982421875,5.583568556577663
1785250184.176441,0.0214843787252903,0.0356445275247097,0.9624022841453552,0.9633017530347739,-1.178741455078125,0.885009765625,-4.2400360107421875,4.488939638217675
1785250184.184406,0.008789066225290298,0.0449218712747097,0.9853515028953552,0.9864141150967323,-0.8106231689453125,1.1310577392578125,-3.5686492919921875,3.830360205098507
1785250184.192371,0.009765621274709702,0.0249023400247097,0.9667968153953552,0.9671667778393692,-0.690460205078125,1.190185546875,-3.0803680419921875,3.373713711166591
1785250184.211019,0.0180664099752903,0.0219726525247097,1.00830078125,1.0087019669345982,-0.507354736328125,1.373291015625,-2.6531219482421875,3.0302463784839917
1785250184.221701,0.0,0.01513671875,1.01025390625,1.0103672972478377,0.164031982421875,1.739501953125,-1.9207000732421875,2.596509639407388
1785250184.232383,0.0190429724752903,0.0297851525247097,1.0146484375,1.0152641241730185,1.0776519775390625,2.4127960205078125,-1.3103485107421875,2.949564652771059
1785250184.24039,0.0039062537252902985,0.0200195275247097,1.0263671875,1.0265698436429638,3.4580230712890625,3.6334991455078125,0.8258819580078125,5.083534263731903
1785250184.248397,0.01171875,0.0126953125,1.02099609375,1.021142264091441,4.009246826171875,4.669189453125,1.5583038330078125,6.3485195989545335
1785250184.256404,-0.0009765587747097015,0.0073242150247097015,0.9980468153953552,0.9980741673410743,4.070281982421875,4.917144775390625,2.7179718017578125,6.937786309315824
1785250184.264411,0.008300784975290298,0.010253902524709702,1.00927734375,1.0093635629223239,4.6176910400390625,5.5866241455078125,3.3283233642578125,7.975661496170232
1785250184.275042,0.01513671875,0.01220703125,1.03271484375,1.0328979041357582,5.046844482421875,5.767822265625,3.9997100830078125,8.645003971410654
1785250184.285673,0.0161132849752903,0.010742183774709702,1.0302734375,1.0304554277032127,6.6318511962890625,5.4035186767578125,4.3659210205078125,9.604203805475139
1785250184.296304,0.0224609375,0.0185546875,1.0048828125,1.0053050467393028,7.2422027587890625,4.8542022705078125,4.1217803955078125,9.643746891701776
1785250184.307,0.03369140625,0.017578125,1.01416015625,1.0148718755875752,7.671356201171875,4.486083984375,3.5724639892578125,9.577951473810456
1785250184.317697,0.0234375037252903,0.0258789025247097,1.00634765625,1.006953146584599,8.159637451171875,4.058837890625,2.8400421142578125,9.545663285895738
1785250184.328394,0.0375976599752903,0.0341796837747097,0.9980468153953552,0.9993394220880947,8.218765258789062,3.2062530517578125,2.1686553955078125,9.084669902393234
1785250184.336392,0.02587890625,0.0458984375,1.005859375,1.0072385351191784,8.342742919921875,2.044677734375,0.8258819580078125,8.629261119813114
1785250184.344392,0.02490234375,0.0336913987994194,0.9902343153953552,0.9911201927434495,8.159637451171875,2.105712890625,0.0324249267578125,8.427025660824
1785250184.352392,0.0419921912252903,0.0341796837747097,0.9663085341453552,0.9678242495768463,7.4863433837890625,1.8024444580078125,-0.5779266357421875,7.72192608618508
1785250184.360392,0.03515625,0.037109375,0.9716796278953552,0.9730233126157919,7.061004638671875,1.678466796875,-1.0051727294921875,7.327032790405154
1785250184.37106,0.0302734375,0.037109375,0.9536132216453552,0.9548150413707308,6.145477294921875,1.556396484375,-1.2493133544921875,6.461427478250272
1785250184.381728,0.015625,0.04638671875,0.9677733778953552,0.9690104123611767,4.863739013671875,1.678466796875,-1.7375946044921875,5.430694521963654
1785250184.392396,0.01513671875,0.0483398362994194,0.9770507216453552,0.9783629043947244,4.192352294921875,2.227783203125,-0.8220672607421875,4.818156322292456
1785250184.403061,0.0322265625,0.04296875,0.9633788466453552,0.9648749488772438,3.3359527587890625,2.9621124267578125,-0.6999969482421875,4.515826232836444
1785250184.413724,0.02099609375,0.041015625,0.9604491591453552,0.9615537971168953,2.1762847900390625,3.1452178955078125,-0.6999969482421875,3.8882652719595066
1785250184.424387,0.0205078125,0.041015625,0.9570311903953552,0.9581291934062057,1.5048980712890625,3.1452178955078125,-0.2727508544921875,3.49735712271686
1785250184.432375,0.02978515625,0.0493163987994194,0.9575194716453552,0.9592511669544012,-0.507354736328125,4.547119140625,0.0934600830078125,4.576290647962457
1785250184.440362,0.0429687537252903,0.0527343712747097,0.9916991591453552,0.9940294009535373,-0.690460205078125,5.035400390625,0.3376007080078125,5.09371834976673
1785250184.448349,0.044921875,0.0576171875,0.9755858778953552,0.9783176990619032,-0.263214111328125,5.645751953125,0.0934600830078125,5.652657036450455
1785250184.456336,0.0566406287252903,0.0415039025247097,1.01220703125,1.0146397433863485,0.2231597900390625,7.1735382080078125,-0.5168914794921875,7.195597787203634
1785250184.467216,0.0595703125,0.0400390625,1.00048828125,1.0030595942294782,0.7114410400390625,8.150100708007812,-1.2493133544921875,8.275933407286082
1785250184.478096,0.0517578162252903,0.0351562462747097,0.9863280653953552,0.9883106221118354,1.0776519775390625,9.675979614257812,-1.6155242919921875,9.868932769972824
1785250184.488976,0.0600585974752903,0.0498046837747097,0.9648436903953552,0.9679932275343283,1.3256072998046875,11.445999145507812,-2.6531219482421875,11.824008932020707
1785250184.496821,0.01611328125,0.052734375,0.9863280653953552,0.9878682122256118,1.079559326171875,13.214111328125,-3.0803680419921875,13.611276714729332
1785250184.504667,0.0219726599752903,0.0366210900247097,1.00048828125,1.0013993723482988,1.2607574462890625,13.582229614257812,-3.2634735107421875,14.025574141122037
1785250184.512513,-0.00048827752470970154,0.0351562462747097,0.9858397841453552,0.9864665630779533,1.079559326171875,13.214111328125,-3.9958953857421875,13.847215115849172
1785250184.520359,-0.010742183774709702,0.0292968712747097,0.9916991591453552,0.9921899633781532,0.8373260498046875,13.093948364257812,-3.8738250732421875,13.680611074714871
1785250184.531243,-0.010742183774709702,0.012207027524709702,0.9887694716453552,0.9889031671964013,0.7114410400390625,12.117385864257812,-3.6907196044921875,12.686946036605889
1785250184.542127,-0.013671875,0.01806640625,0.9848632216453552,0.9851237894551496,0.286102294921875,10.406494140625,-2.9582977294921875,10.822592123809372
1785250184.553011,-0.0356445275247097,0.0209960900247097,1.00048828125,1.001343182459123,-0.019073486328125,8.701324462890625,-2.5920867919921875,9.07922491976049
1785250184.563474,-0.0341796800494194,0.01904296875,0.9877929091453552,0.9885675073281228,-0.019073486328125,6.011962890625,-1.3713836669921875,6.166421552101815
1785250184.573936,-0.0434570275247097,0.009765621274709702,1.009765625,1.0107474946947952,0.408172607421875,4.302978515625,-0.6389617919921875,4.369267805365765
1785250184.584398,-0.0317382775247097,0.0209960900247097,1.017578125,1.0182894453617188,0.7724761962890625,2.7790069580078125,-0.3337860107421875,2.9036205412305924
1785250184.595035,-0.0288085900247097,0.0195312462747097,1.0185546875,1.0191491823420542,1.201629638671875,1.861572265625,0.5207061767578125,2.276071178850221
1785250184.605671,-0.0390624925494194,0.02392578125,1.0107421875,1.011779665206255,1.689910888671875,0.701904296875,1.0089874267578125,2.0896229518692375
1785250184.616307,-0.0395507775247097,0.009765621274709702,0.9912108778953552,0.9920476983591923,1.7490386962890625,-0.0286102294921875,1.4362335205078125,2.2633430212361545
1785250184.624335,-0.0346679650247097,0.0068359337747097015,0.9892577528953552,0.9898886298231202,0.652313232421875,-1.556396484375,1.9855499267578125,2.605818696957923
1785250184.632364,-0.024414055049419403,0.02734375,0.9790038466453552,0.9796898787342966,-0.385284423828125,-2.349853515625,2.0465850830078125,3.1398672160029055
1785250184.640393,-0.0209960900247097,0.0424804650247097,0.9614257216453552,0.9625927716050715,-1.483917236328125,-2.590179443359375,2.3517608642578125,3.800239344531846
1785250184.648422,-0.015624996274709702,0.0419921837747097,0.9672850966453552,0.9683222305611743,-2.338409423828125,-3.749847412109375,2.2296905517578125,4.949851937598702
1785250184.656413,-0.0166015587747097,0.0444335900247097,0.9604491591453552,0.9616197496824064,-3.681182861328125,-4.364013671875,1.6803741455078125,5.951418306230789
1785250184.664404,-0.00390625,0.033203125,0.9672850966453552,0.9678626785298844,-4.5948028564453125,-4.9114227294921875,1.3141632080078125,6.8528323673246145
1785250184.672395,0.0014648474752902985,0.0498046837747097,0.9863280653953552,0.9875857962175077,-5.0258636474609375,-5.7659149169921875,1.2531280517578125,7.750832867954561
1785250184.680386,0.005859375,0.0322265625,0.9702147841453552,0.9707675370448763,-5.3882598876953125,-5.9490203857421875,0.6427764892578125,8.052164291820246
1785250184.691039,0.01513671875,0.03515625,0.9750975966453552,0.975848556463618,-5.6972503662109375,-5.5828094482421875,0.5817413330078125,7.997802576283226
1785250184.701692,0.0229492224752903,0.0361328087747097,0.9780272841453552,0.9789635413103541,-5.390167236328125,-5.035400390625,0.0324249267578125,7.376327765586805
1785250184.712345,0.0024414099752902985,0.0263671837747097,0.9785155653953552,0.978873791958835,-5.3310394287109375,-4.4841766357421875,-0.5779266357421875,6.990123080984128
1785250184.723052,0.011718753725290298,0.0209960900247097,0.9941405653953552,0.9944313092163763,-5.451202392578125,-4.486083984375,-0.5168914794921875,7.078681645708258
1785250184.733761,0.0161132849752903,0.0249023400247097,0.9946288466453552,0.9950710060445288,-5.512237548828125,-3.875732421875,-0.6999969482421875,6.774663115479036
1785250184.74447,0.012695316225290298,0.015136715024709702,0.9926757216453552,0.9928722876281351,-5.573272705078125,-3.387451171875,-0.8220672607421875,6.573582635685834
1785250184.752453,0.012207034975290298,0.010742183774709702,1.00830078125,1.0084318874790195,-4.2324066162109375,-2.8972625732421875,-0.6389617919921875,5.168720185392311
1785250184.760437,0.00634765625,0.017578125,1.0048828125,1.005056590484483,-2.948760986328125,-2.410888671875,-0.3337860107421875,3.82347860509683
1785250184.768421,0.0048828125,-0.00390625,1.02392578125,1.0239448745686437,-1.605987548828125,-1.922607421875,-0.1506805419921875,2.509645379605426
1785250184.776405,0.008300784975290298,-0.009277347475290298,1.01953125,1.0196072488629853,-0.873565673828125,-1.678466796875,-0.1506805419921875,1.898176072032747
1785250184.787123,0.0229492224752903,-0.014160159975290298,1.0185546875,1.0189115900660708,0.0400543212890625,-1.2493133544921875,0.0934600830078125,1.253444451693922
1785250184.797841,0.007812503725290298,-0.0039062537252902985,1.0166015625,1.0166390858658079,0.774383544921875,-0.885009765625,0.0324249267578125,1.176419795724569
1785250184.808559,0.013183597475290298,0.012207027524709702,1.00537109375,1.0055316280015516,0.7724761962890625,-0.5168914794921875,-0.2117156982421875,0.9532679645760774
1785250184.81655,0.02294921875,0.00341796875,1.00341796875,1.0036861905804957,1.0776519775390625,-0.1506805419921875,-0.3337860107421875,1.138179033103358
1785250184.824541,0.0180664099752903,0.0058593712747097015,1.0029296875,1.0031095082143213,0.7114410400390625,-0.2117156982421875,-0.6999969482421875,1.0202782061194955
1785250184.832532,0.0058593787252902985,-3.725290298461914e-09,1.00390625,1.0039233492195054,0.652313232421875,-0.274658203125,-0.5168914794921875,0.8764282533716901
1785250184.840523,0.013671878725290298,0.0058593712747097015,1.00048828125,1.0005988473999923,0.8373260498046875,-0.3337860107421875,-0.8220672607421875,1.219968276568235
1785250184.851114,0.00732421875,0.013671875,0.9946288466453552,0.9947497710104702,1.1425018310546875,-0.5168914794921875,-1.0051727294921875,1.6071277023465529
1785250184.861705,-0.001953125,0.01318359375,1.001953125,1.0020417588796868,1.445770263671875,-0.701904296875,-0.7610321044921875,1.7782269712714514
1785250184.872296,0.005859375,-0.01171875,0.9931640028953552,0.9932504206010075,2.1762847900390625,-1.0051727294921875,-0.5168914794921875,2.452297801051447
1785250184.880316,0.0073242224752902985,0.0253906212747097,0.9897460341453552,0.9900987526454328,2.239227294921875,-0.762939453125,-0.8831024169921875,2.525091160008932
1785250184.888337,0.0068359375,0.0185546875,0.9814452528953552,0.9816444320121998,2.6645660400390625,-1.3713836669921875,-0.5168914794921875,3.041016630239633
1785250184.896358,0.01611328125,0.02783203125,0.9755858778953552,0.9761158050892289,2.7256011962890625,-1.7986297607421875,-0.4558563232421875,3.297237614258298
1785250184.904379,0.0039062537252902985,0.0278320275247097,0.9760741591453552,0.9764786965037254,2.300262451171875,-1.922607421875,-0.3948211669921875,3.023823803865753
1785250184.915035,0.0029296912252902985,0.0317382775247097,0.9775390028953552,0.9780584867647518,2.3021697998046875,-1.7986297607421875,-0.6999969482421875,3.004172187293636
1785250184.925691,-0.00927734375,0.02880859375,0.9921874403953552,0.9926489414990552,2.1762847900390625,-1.4934539794921875,-0.0896453857421875,2.6409575103362197
1785250184.936347,0.012207034975290298,0.0463867150247097,0.9941405653953552,0.9952970424944847,1.6880035400390625,-1.4934539794921875,-0.3337860107421875,2.2784147649215765
1785250184.944366,0.011718753725290298,0.0385742150247097,0.9892577528953552,0.9900788862091819,2.422332763671875,-1.125335693359375,0.3986358642578125,2.7005530901982695
1785250184.952388,0.014160159975290298,0.0346679650247097,0.9750975966453552,0.9758164278761801,2.117156982421875,-1.125335693359375,0.7038116455078125,2.4988167086280537
1785250184.96041,0.009765625,0.0302734375,0.9858397841453552,0.9863528417627576,1.750946044921875,-1.434326171875,0.7648468017578125,2.3891618299546606
1785250184.976457,0.005859375,0.04296875,0.9726561903953552,0.9736224681396576,1.5048980712890625,-1.1272430419921875,0.8258819580078125,2.053649456273431
1785250184.984483,0.0073242224752902985,0.0244140587747097,0.9858397841453552,0.9861692402952361,0.8945465087890625,-1.3713836669921875,0.6427764892578125,1.7589963711225325
1785250184.992509,0.01123046875,0.03759765625,0.9765624403953552,0.9773504525884099,0.4062652587890625,-1.1882781982421875,0.5817413330078125,1.384008495438648
1785250185.000535,0.0205078125,0.033203125,0.9721679091453552,0.9729509039285346,-0.1430511474609375,-1.2493133544921875,0.6427764892578125,1.4122354986492203
1785250185.011156,0.015625,0.041015625,0.9799804091453552,0.9809628048136374,-0.995635986328125,-1.125335693359375,1.1920928955078125,1.9180085796315938
1785250185.021777,0.0190429724752903,0.0385742150247097,0.9912108778953552,0.9921439458685156,-1.178741455078125,-0.701904296875,0.8258819580078125,1.6013063630842481
1785250185.032398,-0.005371086299419403,0.0185546875,0.9858397841453552,0.9860290081939876,-1.483917236328125,-0.762939453125,0.3986358642578125,1.7155166935005173
1785250185.043137,0.0039062537252902985,0.0341796837747097,0.9833983778953552,0.9839999386424378,-1.850128173828125,-0.762939453125,0.7648468017578125,2.1424382135516584
1785250185.053876,0.0170898474752903,0.0356445275247097,0.9833983778953552,0.984192544615333,-2.2182464599609375,-0.8831024169921875,0.7038116455078125,2.489144043316716
1785250185.064615,0.013671878725290298,0.0458984337747097,0.9746093153953552,0.9757852756350925,-2.5844573974609375,-0.6999969482421875,0.8258819580078125,2.802052243517554
1785250185.072617,0.0146484375,0.02880859375,0.9877929091453552,0.9883214776341188,-2.8896331787109375,-0.3337860107421875,0.6427764892578125,2.979019070703788
1785250185.08062,0.007812503725290298,0.0346679650247097,0.9794921278953552,0.9801365882479763,-3.0727386474609375,-0.8831024169921875,0.4596710205078125,3.2299984708343454
1785250185.088623,0.03564453125,0.03173828125,0.9843749403953552,0.9855312650459627,-3.314971923828125,-0.637054443359375,0.1544952392578125,3.3791635057401397
1785250185.096626,0.0073242224752902985,0.0209960900247097,0.9892577528953552,0.9895076461022224,-3.498077392578125,-0.762939453125,-0.2117156982421875,3.586564594494713
1785250185.10725,0.008789066225290298,0.0307617150247097,1.005859375,1.0063680306288374,-3.2558441162109375,-0.6389617919921875,-0.5168914794921875,3.3579710961029536
1785250185.117874,0.0224609412252903,0.0258789025247097,0.9887694716453552,0.9893630676018002,-3.986358642578125,-0.946044921875,-0.5779266357421875,4.137638869906733
1785250185.128498,0.0180664099752903,0.0229492150247097,1.00537109375,1.0057952563955135,-3.498077392578125,-1.125335693359375,-0.6389617919921875,3.7297718480948223
1785250185.139123,0.00634765625,0.033203125,0.9985350966453552,0.9991071411426218,-3.131866455078125,-1.251220703125,-1.1882781982421875,3.5757720588412707
1785250185.149747,0.0229492224752903,0.011230465024709702,0.9926757216453552,0.9930044705342561,-2.704620361328125,-1.251220703125,-0.6389617919921875,3.0477527325006477
1785250185.160371,0.0205078125,0.005859375,0.9956054091453552,0.9958338382322706,-1.911163330078125,-1.251220703125,-1.0051727294921875,2.4956904331825096
1785250185.168354,0.01708984375,0.00830078125,1.0146484375,1.0148262991517076,-1.4247894287109375,-0.8220672607421875,-0.7610321044921875,1.8124539611858865
1785250185.176337,0.0,0.01513671875,1.01806640625,1.0181789271976251,-0.2651214599609375,-0.8831024169921875,-0.3337860107421875,0.980597964711556
1785250185.18432,0.0029296912252902985,0.0009765587747097015,0.9980468153953552,0.9980515930945285,0.6542205810546875,-0.8220672607421875,-0.3948211669921875,1.1223559612550598
1785250185.192303,0.0039062537252902985,0.010253902524709702,1.017578125,1.0176372840131538,0.5283355712890625,-0.6389617919921875,-0.2727508544921875,0.8728136548779619
1785250185.200324,0.014160159975290298,-0.00048827752470970154,0.9941405653953552,0.9942415261444593,0.957489013671875,0.034332275390625,-0.0896453857421875,0.9622890478544912
1785250185.208345,0.0244140625,0.0068359375,0.9946288466453552,0.9949519179680631,0.8373260498046875,-0.5168914794921875,0.0324249267578125,0.9845522287458365
1785250185.216366,0.0107421875,0.02587890625,0.9780272841453552,0.9784285773186109,1.0776519775390625,-0.1506805419921875,0.7648468017578125,1.3300485106145814
1785250185.224387,0.0034179724752902985,0.0244140587747097,0.9868163466453552,0.9871242225820328,0.896453857421875,0.091552734375,0.9479522705078125,1.3079086087410754
1785250185.235035,0.009277351200580597,0.0185546875,0.9936522841453552,0.9938688079725629,1.140594482421875,0.274658203125,0.7038116455078125,1.3681168569341924
1785250185.245683,0.0,0.0205078125,0.9785155653953552,0.9787304440419369,0.591278076171875,0.034332275390625,0.8869171142578125,1.0664944613350869
1785250185.256331,0.00244140625,0.01904296875,0.9770507216453552,0.9772393298424907,0.0400543212890625,-0.0286102294921875,1.0089874267578125,1.0101873693730659
1785250185.264349,0.0166015625,0.02197265625,0.9741210341453552,0.9745102352795164,-0.080108642578125,-0.091552734375,1.0089874267578125,1.0162947038839674
1785250185.272369,-0.00341796875,0.017578125,0.9877929091453552,0.9879552137352865,-0.2651214599609375,-0.0286102294921875,0.7038116455078125,0.7526345501741395
1785250185.280389,0.01025390625,0.0234375,0.9882811903953552,0.9886122446585892,-0.385284423828125,0.091552734375,0.5817413330078125,0.7037392762563535
1785250185.288409,-0.0014648400247097015,0.0312499962747097,0.9755858778953552,0.9760873491508423,-0.385284423828125,-0.213623046875,0.8258819580078125,0.9360341350418514
1785250185.299077,0.01611328125,0.02197265625,0.9848632216453552,0.9852400726751782,-0.385284423828125,-0.091552734375,0.3376007080078125,0.5203846927643874
1785250185.309745,0.0166015662252903,0.0244140587747097,0.9765624403953552,0.9770086275248133,-0.873565673828125,-0.396728515625,0.7038116455078125,1.1898997159228237
1785250185.320413,0.0043945349752902985,0.0195312462747097,0.9770507216453552,0.9772557977246294,-1.239776611328125,-0.579833984375,0.3376007080078125,1.4096906516962553
1785250185.331077,0.0170898474752903,0.0263671837747097,0.9809569716453552,0.9814600712645238,-2.4013519287109375,-0.8831024169921875,0.1544952392578125,2.5632459389170035
1785250185.341743,0.0234375037252903,0.0312499962747097,0.9741210341453552,0.9749039275807944,-2.8285980224609375,-0.8220672607421875,0.0934600830078125,2.9471165808243684
1785250185.352409,0.0258789099752903,0.0341796837747097,0.9785155653953552,0.979454276873321,-2.826690673828125,-1.125335693359375,0.0934600830078125,3.0438947707454265
1785250185.363112,0.0244140625,0.015625,0.9965819716453552,0.9970034168854676,-2.338409423828125,-1.190185546875,-0.2117156982421875,2.632398869153477
1785250185.373815,0.0175781287252903,0.0170898400247097,1.00244140625,1.0027411561345383,-2.155303955078125,-1.125335693359375,-0.2727508544921875,2.4466525274648734
1785250185.384518,0.021484375,0.00341796875,0.9985350966453552,0.9987720461206678,-1.6078948974609375,-0.6999969482421875,-0.3337860107421875,1.7851428037545003
1785250185.392486,0.0332031287252903,0.013183590024709702,1.001953125,1.0025898062020946,-2.033233642578125,-0.453948974609375,-0.9441375732421875,2.28724823184281
1785250185.400455,0.0283203162252903,-0.0068359412252902985,1.00439453125,1.0048169708003758,-1.4247894287109375,-0.3337860107421875,-1.0662078857421875,1.8105903105762078
1785250185.408424,0.01025390625,-0.00732421875,1.00439453125,1.004473574156428,-0.690460205078125,-0.396728515625,-1.1882781982421875,1.4304313637236292
1785250185.416393,0.02001953125,-0.00439453125,1.005859375,1.0060681765227284,-0.7534027099609375,-0.4558563232421875,-1.3103485107421875,1.5787443904637124
1785250185.42707,-0.001953125,-0.00146484375,0.9843749403953552,0.9843779679283953,0.3452301025390625,0.1544952392578125,-1.3713836669921875,1.4225841854686139
1785250185.437747,0.0205078125,0.01416015625,1.00439453125,1.0047036651687236,0.8373260498046875,0.0324249267578125,-1.6765594482421875,1.8743046372046674
1785250185.448424,0.007812503725290298,0.0024414025247097015,0.9833983778953552,0.9834324406424476,0.8945465087890625,-0.6389617919921875,-1.3103485107421875,1.7104089708654
1785250185.456696,0.0053710974752902985,0.0200195275247097,0.9829100966453552,0.9831286224384799,1.1997222900390625,-0.8831024169921875,-0.8831024169921875,1.731783280613212
1785250185.46497,-0.0029296837747097015,0.0166015587747097,0.9926757216453552,0.992818857166249,1.9931793212890625,-0.5168914794921875,-0.8220672607421875,2.2171457303411777
1785250185.473244,0.007812503725290298,0.0175781212747097,0.9975585341453552,0.9977439824966302,2.422332763671875,-0.274658203125,-0.5168914794921875,2.4920493470382366
1785250185.481518,0.0190429724752903,0.0053710900247097015,1.00244140625,1.0026366522191505,2.727508544921875,-0.762939453125,-0.1506805419921875,2.836209459382642
1785250185.492064,0.0019531287252902985,0.0195312462747097,0.9926757216453552,0.992869766201483,3.093719482421875,-0.946044921875,0.0934600830078125,3.2364851331711653
1785250185.50261,-0.0014648400247097015,0.0405273400247097,0.9916991591453552,0.9925280012651436,3.582000732421875,-0.762939453125,-0.2117156982421875,3.6684641736137618
1785250185.513156,0.00732421875,0.02783203125,0.9921874403953552,0.992604746624801,3.948211669921875,-0.579833984375,0.0934600830078125,3.991656000591646
1785250185.523602,0.013183597475290298,0.0249023400247097,0.9916991591453552,0.992099368022529,3.3359527587890625,-0.3948211669921875,0.2765655517578125,3.370601291638709
1785250185.534048,0.02294921875,0.033203125,0.9946288466453552,0.9954474655802136,3.215789794921875,-0.396728515625,0.2155303955078125,3.2473298064134855
1785250185.544494,0.02099609375,0.03759765625,0.9570311903953552,0.9579995402388263,2.4814605712890625,0.0324249267578125,0.2155303955078125,2.49101410957972
1785250185.555133,0.00146484375,0.03271484375,0.9648436903953552,0.9653992716304104,1.934051513671875,0.396728515625,0.0934600830078125,1.976533217470001
1785250185.56577,0.0180664099752903,0.0356445275247097,0.9897460341453552,0.9905524416295756,1.0166168212890625,0.2765655517578125,-0.0896453857421875,1.0573715340086693
1785250185.576407,0.0170898474752903,0.0268554650247097,0.9755858778953552,0.976105057889402,0.5283355712890625,0.5207061767578125,-0.3948211669921875,0.8403315728378598
1785250185.584393,0.0195312462747097,0.014648433774709702,0.9882811903953552,0.9885827013873729,0.4062652587890625,0.6427764892578125,-0.5779266357421875,0.9550980431043851
1785250185.59238,0.0302734412252903,0.014648433774709702,0.9951171278953552,0.9956852695939485,0.591278076171875,0.274658203125,-1.0051727294921875,1.1980897746079555
1785250185.600367,0.0322265662252903,0.0205078087747097,1.001953125,1.0026809993655403,0.4062652587890625,0.1544952392578125,-1.1272430419921875,1.2081378709286756
1785250185.608354,0.0185546912252903,0.014648433774709702,0.9863280653953552,0.9866113245676141,0.2231597900390625,0.5817413330078125,-1.6155242919921875,1.7315143685331762
1785250185.616352,0.0180664099752903,0.0219726525247097,0.9970702528953552,0.9974759555183145,1.079559326171875,0.701904296875,-2.1648406982421875,2.5188595096713877
1785250185.62435,0.0278320349752903,0.014648433774709702,0.9833983778953552,0.9839011985103655,0.957489013671875,0.827789306640625,-2.7141571044921875,2.9947736367472455
1785250185.632348,0.02685546875,0.0126953125,0.9838866591453552,0.9843349761160899,1.6307830810546875,0.6427764892578125,-2.7141571044921875,3.2309849675388826
1785250185.640346,0.0322265625,0.00927734375,0.9936522841453552,0.9942180254978803,1.628875732421875,0.885009765625,-3.0803680419921875,3.5951558674209525
1785250185.651,0.0146484375,0.025390625,0.9780272841453552,0.9784664680467192,1.750946044921875,0.579833984375,-3.2024383544921875,3.695623210770597
1785250185.661654,0.014160159975290298,0.0322265587747097,0.9716796278953552,0.9723170061702313,1.1997222900390625,0.4596710205078125,-3.2024383544921875,3.4505423392032006
1785250185.672308,0.010742191225290298,0.0195312462747097,0.9833983778953552,0.9836509715852366,0.286102294921875,0.274658203125,-3.3855438232421875,3.40869456402253
1785250185.682995,-0.0019531212747097015,-0.0048828087747097015,0.9790038466453552,0.9790179713624496,-0.2651214599609375,0.5817413330078125,-3.7517547607421875,3.805834488231614
1785250185.693683,-0.0024414025247097015,0.0170898400247097,1.0048828125,1.0050310890396714,-0.8754730224609375,0.8258819580078125,-3.2634735107421875,3.4783319819901672
1785250185.704371,0.007812503725290298,0.0053710900247097015,0.9999999403953552,1.0000448812994471,-0.873565673828125,1.861572265625,-2.7751922607421875,3.4540208989984866
1785250185.715051,0.0014648474752902985,0.0063476525247097015,0.9897460341453552,0.989767472984013,0.286102294921875,1.316070556640625,-2.1648406982421875,2.5495943759707447
1785250185.72573,-0.00732421875,0.01904296875,1.00146484375,1.0016726571621706,0.957489013671875,1.316070556640625,-1.7375946044921875,2.3807691889217373
1785250185.736409,-0.004882805049419403,0.01904296875,0.9931640028953552,0.993358552130644,1.3256072998046875,0.9479522705078125,-0.9441375732421875,1.8834128537482264
1785250185.744391,-0.0219726525247097,0.0161132775247097,0.9814452528953552,0.9818234156926527,1.0776519775390625,0.4596710205078125,-0.6389617919921875,1.3345049282091144
1785250185.752375,-0.0024414025247097015,0.0263671837747097,0.9667968153953552,0.967159382462424,0.957489013671875,0.091552734375,0.3376007080078125,1.0193828292262215
1785250185.760359,0.0029296912252902985,0.0253906212747097,0.9780272841453552,0.9783611987768784,0.041961669921875,0.213623046875,0.7648468017578125,0.795227148717865
1785250185.768343,-0.0014648400247097015,0.0488281212747097,0.9848632216453552,0.986073981267726,-0.1430511474609375,-0.3337860107421875,1.2531280517578125,1.3046864166762087
1785250185.779018,0.0068359412252902985,0.0263671837747097,0.9980468153953552,0.9984184514488177,-0.812530517578125,-0.885009765625,1.4362335205078125,1.8724889459427145
1785250185.789693,0.012207034975290298,0.0214843712747097,0.9946288466453552,0.9949357428955033,-0.8106231689453125,-1.1272430419921875,1.6803741455078125,2.1797807382032377
1785250185.800368,0.017578125,0.0126953125,0.9941405653953552,0.9943770035567923,-1.056671142578125,-0.946044921875,1.3751983642578125,1.9755316850964952
1785250185.811017,0.0327148474752903,0.0356445275247097,0.9799804091453552,0.9811739885955442,-1.4820098876953125,-0.8220672607421875,0.6427764892578125,1.8125422763492816
1785250185.821669,0.0239257849752903,0.0161132775247097,0.9873046278953552,0.9877259281616829,-1.5468597412109375,-0.8220672607421875,0.3986358642578125,1.7965189095681418
1785250185.832321,0.0205078162252903,0.0249023400247097,0.9921874403953552,0.99271174766058,-1.7299652099609375,-1.1272430419921875,-0.0896453857421875,2.066759008346125
1785250185.843002,0.0209960974752903,0.0253906212747097,1.00390625,1.0044467524697216,-1.8520355224609375,-1.0051727294921875,-0.2117156982421875,2.1178364737283446
1785250185.853684,0.0224609412252903,0.014648433774709702,0.9926757216453552,0.9930378436076365,-1.667022705078125,-1.007080078125,-0.3948211669921875,1.9872238768964403
1785250185.864366,0.015625,0.01220703125,0.9824218153953552,0.9826218884197746,-1.6078948974609375,-1.2493133544921875,-0.5168914794921875,2.100782392482635
1785250185.872363,0.00537109375,0.01318359375,0.9829100966453552,0.9830131809287289,-1.850128173828125,-1.373291015625,-0.7610321044921875,2.426535047605277
1785250185.880361,0.0292968712747097,0.0195312462747097,0.9873046278953552,0.9879322874120048,-1.9130706787109375,-0.8831024169921875,-0.9441375732421875,2.308918590563257
1785250185.888359,0.0219726599752903,0.0200195275247097,0.9980468153953552,0.998489371495517,-1.667022705078125,-0.579833984375,-0.7610321044921875,1.9220671197307302
1785250185.896357,0.0209960974752903,0.015136715024709702,0.9882811903953552,0.9886200825090453,-1.7871856689453125,-0.5168914794921875,-0.6389617919921875,1.9670997911852348
1785250185.90704,0.0205078125,0.013671875,0.9897460341453552,0.9900528787120461,-1.4247894287109375,0.3986358642578125,-0.6389617919921875,1.6115854429923597
1785250185.917723,0.0185546912252903,0.010253902524709702,0.9882811903953552,0.9885085383408241,-1.5468597412109375,0.4596710205078125,-0.4558563232421875,1.6768653772780175
1785250185.928406,0.01171875,0.0068359375,0.9931640028953552,0.9932566615886307,-1.544952392578125,0.579833984375,-0.5168914794921875,1.7292374464892561
1785250185.939063,0.0043945349752902985,0.0073242150247097015,1.01025390625,1.0102900133905912,-1.361846923828125,0.946044921875,-0.4558563232421875,1.7197188798130605
1785250185.94972,0.0034179724752902985,0.013183590024709702,1.00732421875,1.0074162849895167,-0.9365081787109375,0.6427764892578125,-0.2117156982421875,1.1554361604248211
1785250185.960377,0.00537109375,0.00927734375,0.9853515028953552,0.9854098142464698,-0.202178955078125,1.068115234375,-0.0286102294921875,1.0874580585071036
1785250185.968364,0.01025390625,0.00830078125,0.9868163466453552,0.9869045280923733,0.896453857421875,0.701904296875,0.6427764892578125,1.3074634892037125
1785250185.97635,0.007812503725290298,0.009277347475290298,0.9926757216453552,0.9927498137671755,0.957489013671875,0.762939453125,0.4596710205078125,1.3077305791070681
1785250185.984336,0.0034179724752902985,0.013671878725290298,0.9819335341453552,0.9820346573736124,1.0166168212890625,1.3141632080078125,0.7648468017578125,1.8290777262785793
1785250186.003002,0.0048828125,-0.01123046875,0.9858397841453552,0.9859158408758911,1.079559326171875,1.190185546875,0.8258819580078125,1.8066740113472695
1785250186.013683,0.00537109375,0.01904296875,0.9868163466453552,0.9870146834335195,0.5893707275390625,1.4362335205078125,0.7038116455078125,1.7045455148697566
1785250186.024364,0.00146484375,0.02392578125,0.9838866591453552,0.9841786153030573,0.957489013671875,1.373291015625,1.0700225830078125,1.9868723544922042
1785250186.032364,0.00634765625,0.00927734375,0.9853515028953552,0.9854156209970791,0.3452301025390625,0.5817413330078125,0.7038116455078125,0.9761954899410532
1785250186.040364,0.00244140625,0.01806640625,0.9755858778953552,0.9757561993900518,0.102996826171875,0.274658203125,1.2531280517578125,1.2870024820674062
1785250186.048364,0.0034179724752902985,0.0263671837747097,0.9873046278953552,0.987662563419125,-0.019073486328125,-0.030517578125,1.1920928955078125,1.1926359846891779
1785250186.056364,0.0166015625,0.00927734375,0.9741210341453552,0.9743066612463005,-0.019073486328125,0.213623046875,1.0089874267578125,1.0315300438631052
1785250186.06706,0.017578125,0.017578125,0.9970702528953552,0.9973801031531755,-0.1430511474609375,0.2765655517578125,0.5817413330078125,0.659829609625622
1785250186.077756,0.0043945349752902985,0.0297851525247097,0.9887694716453552,0.9892277469351556,-0.0820159912109375,0.5207061767578125,0.4596710205078125,0.6993990223204095
1785250186.088452,0.0146484375,0.0126953125,0.9941405653953552,0.9943295285996794,0.102996826171875,0.034332275390625,0.3376007080078125,0.3546283820880013
1785250186.096507,0.00634765625,0.01806640625,0.9965819716453552,0.9967659273787411,0.164031982421875,0.091552734375,-0.1506805419921875,0.24081740004378627
1785250186.104562,0.0063476599752902985,0.0200195275247097,0.9902343153953552,0.9904570024266487,0.164031982421875,-0.453948974609375,-0.3948211669921875,0.623586334609111
1785250186.112617,0.0146484375,0.029296867549419403,0.9887694716453552,0.9893118574176873,-0.263214111328125,-0.274658203125,-0.1506805419921875,0.4091740738135393
1785250186.120672,0.004394538700580597,0.0029296875,0.9936522841453552,0.9936663206663091,-0.202178955078125,-0.579833984375,0.1544952392578125,0.6332081476623614
1785250186.131257,-0.001953125,0.01806640625,0.9819335341453552,0.9821016623604927,-0.507354736328125,-0.701904296875,0.3376007080078125,0.9295443553126154
1785250186.141842,0.0048828125,0.01416015625,0.9916991591453552,0.9918122675852216,-0.690460205078125,-0.946044921875,0.1544952392578125,1.1813572990231744
1785250186.152427,0.009765625,0.01318359375,0.9829100966453552,0.9830470144724449,-0.812530517578125,-0.579833984375,0.3986358642578125,1.0748599181774974
1785250186.160417,0.00634765625,0.0234375,0.9921874403953552,0.9924845218059598,-0.2651214599609375,-0.6389617919921875,0.2155303955078125,0.7245791271803519
1785250186.168406,0.00634765625,0.013671875,0.9897460341453552,0.9898608109286591,-0.6313323974609375,-0.5168914794921875,0.2765655517578125,0.8615369417932703
1785250186.176395,-0.0029296837747097015,0.00048827752470970154,0.9931640028953552,0.9931684439756864,-0.324249267578125,-0.579833984375,0.3376007080078125,0.7451974738339594
1785250186.184384,0.015625,0.00732421875,1.0048828125,1.0050309704995204,-0.324249267578125,-0.396728515625,0.3986358642578125,0.6491853779218533
1785250186.195051,-0.00048827752470970154,-0.0048828087747097015,1.00244140625,1.0024534169730528,-0.0820159912109375,-0.2117156982421875,0.5817413330078125,0.6244782928382668
1785250186.205718,0.0166015625,-0.01025390625,0.9833983778953552,0.9835919500067297,-0.385284423828125,0.034332275390625,0.3376007080078125,0.5134170141565667
1785250186.216385,0.0146484375,0.0234375,0.9921874403953552,0.9925723197861847,0.164031982421875,-0.091552734375,0.3986358642578125,0.44068009564917127
1785250186.227036,-0.0019531212747097015,0.0170898400247097,0.9965819716453552,0.9967304066412981,0.0400543212890625,-0.3337860107421875,0.3986358642578125,0.521467162814385
1785250186.237689,0.00634765625,0.01806640625,0.9829100966453552,0.9830966106451795,0.408172607421875,-0.091552734375,0.2155303955078125,0.4705742576988944
1785250186.248342,0.01513671875,0.01416015625,0.9897460341453552,0.9899630510205922,-0.080108642578125,-0.091552734375,0.3376007080078125,0.3588502972475087
1785250186.256347,0.01171875,-0.0009765625,0.9916991591453552,0.9917688768183258,0.0400543212890625,-0.0286102294921875,-0.0286102294921875,0.05693363783492775
1785250186.264353,0.0166015625,0.0029296875,0.9765624403953552,0.9767079373780172,-0.202178955078125,-0.148773193359375,-0.0896453857421875,0.2665447206824665
1785250186.272359,0.012695316225290298,0.0166015587747097,0.9746093153953552,0.9748333706142878,-0.2651214599609375,0.1544952392578125,-0.1506805419921875,0.34185200485035494
1785250186.280365,0.013183597475290298,0.0253906212747097,0.9848632216453552,0.9852786693320699,-0.2651214599609375,-0.3337860107421875,-0.3337860107421875,0.5414015057849271
1785250186.291017,-0.00048827752470970154,0.0161132775247097,0.9931640028953552,0.9932948267129225,-0.080108642578125,0.091552734375,-0.2727508544921875,0.29865084365102257
1785250186.301669,-0.0073242150247097015,0.011230465024709702,0.9853515028953552,0.9854427186440289,-0.019073486328125,-0.030517578125,-0.2727508544921875,0.2751147925531143
1785250186.312321,0.0,0.014648430049419403,0.9833983778953552,0.983507471324,-0.202178955078125,-0.213623046875,-0.0286102294921875,0.29551595771503875
1785250186.323004,0.009765621274709702,0.0249023400247097,0.9775390028953552,0.9779049013473818,-0.019073486328125,0.034332275390625,0.0934600830078125,0.10137697041258478
1785250186.333686,0.01025390625,0.013671875,0.9794921278953552,0.9796412054259306,-0.324249267578125,0.213623046875,0.2765655517578125,0.4767188879205566
1785250186.344368,-0.010742183774709702,0.0175781212747097,0.9780272841453552,0.9782442197082165,-0.6313323974609375,-0.0896453857421875,0.2765655517578125,0.6950578362177813
1785250186.352475,-0.0063476525247097015,0.0180664025247097,0.9824218153953552,0.9826084219858207,-0.4482269287109375,0.0324249267578125,0.8258819580078125,0.9402338879553893
1785250186.360585,0.0029296912252902985,0.0253906212747097,0.9941405653953552,0.9944690696567631,-0.812530517578125,0.034332275390625,0.5207061767578125,0.9656704767378009
1785250186.368695,0.01025390625,0.0068359375,0.9833983778953552,0.9834755931298466,-1.1196136474609375,-0.0896453857421875,0.9479522705078125,1.469756619963512
1785250186.376805,0.0014648474752902985,-0.0039062537252902985,0.9956054091453552,0.9956141498169773,-1.361846923828125,0.274658203125,1.0700225830078125,1.753571356013405
1785250186.387597,0.01513671875,0.0078125,0.9926757216453552,0.9928218590235075,-1.056671142578125,0.091552734375,0.7038116455078125,1.2729048036209598
1785250186.398389,0.019042976200580597,0.00830078125,1.00244140625,1.0026566266057457,-0.873565673828125,0.034332275390625,0.7648468017578125,1.1615878450566872
1785250186.409181,0.0014648474752902985,0.015624996274709702,1.0048828125,1.0050053498089553,-1.1196136474609375,-0.0896453857421875,0.7038116455078125,1.3254892859310725
1785250186.419585,0.0146484375,0.00390625,0.9946288466453552,0.9947443782647497,-0.8106231689453125,-0.0286102294921875,0.2765655517578125,0.8569813134961809
1785250186.42999,0.011718753725290298,0.010742183774709702,0.9936522841453552,0.9937794450925242,-0.4482269287109375,-0.0286102294921875,0.2155303955078125,0.498175949079228
1785250186.440395,0.02294921875,0.0185546875,0.9877929091453552,0.9882336638808162,-0.9365081787109375,-0.2117156982421875,0.2765655517578125,0.9991794684108344
1785250186.451041,0.011718753725290298,0.0058593712747097015,0.9902343153953552,0.9903209887744058,-0.4482269287109375,-0.0896453857421875,-0.1506805419921875,0.4812985565546242
1785250186.461689,0.025390625,-0.005859375,0.9946288466453552,0.9949701295477924,-0.9365081787109375,-0.0286102294921875,-0.5168914794921875,1.0700667809046758
1785250186.472337,0.021484375,0.00390625,0.9921874403953552,0.9924277072091899,-0.8106231689453125,-0.1506805419921875,-0.8220672607421875,1.1643062865716065
1785250186.480372,0.0166015625,0.01708984375,0.9985350966453552,0.9988193099201625,-0.5054473876953125,0.1544952392578125,-0.5168914794921875,0.7392716971810612
1785250186.488409,0.0078125,0.0185546875,0.9887694716453552,0.9889744079814743,-0.690460205078125,0.034332275390625,-0.5779266357421875,0.9010622599078862
1785250186.496446,0.014160159975290298,-0.0048828087747097015,0.9882811903953552,0.9883946900106843,-0.4482269287109375,-0.1506805419921875,-0.2117156982421875,0.518107655066856
1785250186.504483,-0.0063476525247097015,0.0180664025247097,0.9902343153953552,0.9904194500206804,-0.4482269287109375,0.0324249267578125,-0.2727508544921875,0.5256917196638233
1785250186.515191,0.0043945349752902985,0.0053710900247097015,0.9916991591453552,0.9917234406805695,-0.6313323974609375,0.2765655517578125,-0.4558563232421875,0.8263619593996109
1785250186.525899,-0.0058593712747097015,0.009765621274709702,0.9853515028953552,0.985417314567159,-0.446319580078125,0.213623046875,-0.3337860107421875,0.5968660441710988
1785250186.536607,-0.0048828087747097015,0.0019531212747097015,0.9926757216453552,0.9926896518289947,-0.2651214599609375,0.0324249267578125,-0.0896453857421875,0.2817393469005245
1785250186.547215,0.0048828125,0.0107421875,0.9921874403953552,0.9922576043187988,-0.202178955078125,0.091552734375,-0.0286102294921875,0.22377841334592
1785250186.557825,0.001953125,-0.00537109375,0.9794921278953552,0.9795088013664338,-0.385284423828125,-0.091552734375,0.0934600830078125,0.40689160415513215
1785250186.568435,0.021484375,0.00927734375,0.9921874403953552,0.9924633818708289,-0.5702972412109375,0.4596710205078125,0.1544952392578125,0.7486021435855155
1785250186.576451,0.01025390625,0.01416015625,0.9995116591453552,0.9996645484290763,-0.6313323974609375,0.3376007080078125,0.0934600830078125,0.7220038928198231
1785250186.584467,0.01025390625,-0.00341796875,0.9970702528953552,0.9971288353630976,-0.6313323974609375,0.3986358642578125,0.2155303955078125,0.7771386618513471
1785250186.592483,0.0048828125,0.01220703125,0.9882811903953552,0.9883686380896093,-0.0820159912109375,0.4596710205078125,0.1544952392578125,0.4918260351611483
1785250186.600499,0.00732421875,0.01416015625,0.9902343153953552,0.9903626374171383,-0.0820159912109375,0.3376007080078125,0.0324249267578125,0.34893013159791514
1785250186.611133,0.012695316225290298,-0.0024414099752902985,0.9951171278953552,0.9952011001638956,-0.324249267578125,0.034332275390625,0.0934600830078125,0.3391918038135288
1785250186.621767,0.0170898474752903,0.011230465024709702,0.9814452528953552,0.9816582759098136,-0.0820159912109375,-0.2117156982421875,-0.1506805419921875,0.2724973127051879
1785250186.632401,0.0029296912252902985,0.012695308774709702,0.9873046278953552,0.9873905925312164,0.1659393310546875,-0.1506805419921875,-0.0896453857421875,0.24140584605763413
1785250186.643058,-0.0058593712747097015,0.0019531212747097015,0.9946288466453552,0.9946480229174128,-0.3871917724609375,-0.0286102294921875,0.0934600830078125,0.3993379533789209
1785250186.653717,0.0073242224752902985,-0.0029296912252902985,0.9863280653953552,0.9863596098341046,-0.324249267578125,0.034332275390625,-0.1506805419921875,0.35919481955271515
1785250186.664376,0.0166015662252903,0.010742183774709702,0.9956054091453552,0.9958017559900527,-0.446319580078125,-0.274658203125,-0.4558563232421875,0.6945813728749521
1785250186.672393,0.00048828125,-0.001953125,0.9931640028953552,0.9931660434000802,-0.5702972412109375,0.3376007080078125,-0.6999969482421875,0.9639548272240552
1785250186.680413,-0.0009765587747097015,-0.0039062537252902985,0.9985350966453552,0.9985432147472415,-0.3223419189453125,0.1544952392578125,-0.8831024169921875,0.9527029812906637
1785250186.688433,0.0078125,-0.005859375,0.9926757216453552,0.9927237560246895,-0.385284423828125,-0.091552734375,-0.8831024169921875,0.9678304961683906
1785250186.696453,0.00146484375,-0.00146484375,0.9858397841453552,0.9858419607311226,-0.324249267578125,-0.274658203125,-1.2493133544921875,1.3196054614093284
1785250186.707084,-0.0014648400247097015,0.0024414025247097015,0.9892577528953552,0.9892618500003694,-0.507354736328125,-0.091552734375,-0.9441375732421875,1.0757260287144528
1785250186.717715,0.014160163700580597,-0.001953125,0.9951171278953552,0.9952197863607785,-0.0820159912109375,-0.2117156982421875,-0.8220672607421875,0.8528450860975006
1785250186.728346,-0.0014648400247097015,0.009277347475290298,0.9907225966453552,0.9907671161459641,-0.3223419189453125,-0.6999969482421875,-0.8831024169921875,1.1720793143619443
1785250186.736354,-0.0019531212747097015,-0.008300784975290298,0.9916991591453552,0.991735821659944,0.1010894775390625,-0.5168914794921875,-0.5779266357421875,0.7819175662056879
1785250186.744364,-0.0087890625,0.00341796875,0.9790038466453552,0.9790492642744834,-0.1430511474609375,-0.6999969482421875,-0.6389617919921875,0.9585048408663016
1785250186.752374,-0.0039062462747097015,0.0009765587747097015,0.9931640028953552,0.9931721648707863,-0.202178955078125,-0.885009765625,-0.5779266357421875,1.0761588225853946
1785250186.760384,0.008300784975290298,0.0024414025247097015,0.9790038466453552,0.9790420804152883,-0.5054473876953125,-1.0051727294921875,-0.2727508544921875,1.15768834600207
1785250186.771046,0.0039062537252902985,0.0053710900247097015,0.9863280653953552,0.9863504245514187,-0.019073486328125,-0.946044921875,-0.3337860107421875,1.0033832234263078
1785250186.781708,0.0048828125,0.001953125,0.9926757216453552,0.9926896518546482,-0.202178955078125,-1.007080078125,-0.1506805419921875,1.0381672501903525
1785250186.79237,0.017578125,0.00390625,0.9838866591453552,0.9840514251357937,-0.019073486328125,-1.556396484375,-0.4558563232421875,1.6218935852562752
1785250186.800368,0.0185546912252903,0.0024414025247097015,0.9907225966453552,0.990899339245147,-0.0820159912109375,-1.3713836669921875,-0.6389617919921875,1.5151541032294764
1785250186.808366,0.0166015625,-0.00634765625,0.9965819716453552,0.996740453089897,0.1010894775390625,-0.8220672607421875,-0.4558563232421875,0.9454198279564323
1785250186.816364,0.0190429724752903,0.0009765587747097015,0.9863280653953552,0.9865123623423475,0.408172607421875,-0.274658203125,-1.3713836669921875,1.4569609356761646
1785250186.824362,0.01123046875,-0.001953125,0.9882811903953552,0.9883469276599541,0.0400543212890625,-0.6999969482421875,-1.4324188232421875,1.5948115128067128
1785250186.835019,0.0024414099752902985,0.011718746274709702,0.9965819716453552,0.9966538595246908,0.1659393310546875,-0.3337860107421875,-1.3103485107421875,1.362337029579072
1785250186.845676,0.017578125,0.0029296875,0.9951171278953552,0.9952766810179289,-0.3223419189453125,-0.6389617919921875,-1.7375946044921875,1.8792050164619014
1785250186.856333,0.01025390625,0.00537109375,0.9833983778953552,0.9834665021690728,-0.507354736328125,-0.701904296875,-1.8596649169921875,2.0514463370845775
1785250186.864327,0.005859375,0.01220703125,0.9868163466453552,0.9869092389342674,-0.6313323974609375,-0.6999969482421875,-2.2869110107421875,2.473567928051705
1785250186.872322,-0.0014648400247097015,0.0073242150247097015,1.00146484375,1.0014926975017033,-0.873565673828125,-0.885009765625,-1.6765594482421875,2.087393315892468
1785250186.880317,0.008789066225290298,-0.0019531287252902985,0.9946288466453552,0.9946695958839797,-1.544952392578125,-1.068115234375,-1.9817352294921875,2.730388721234998
1785250186.888312,0.009765625,-0.00244140625,0.9790038466453552,0.9790555957873487,-1.4247894287109375,-1.1882781982421875,-1.3713836669921875,2.3071027620539746
1785250186.899,-0.0014648400247097015,0.0058593712747097015,0.9970702528953552,0.9970885453142266,-0.873565673828125,-1.373291015625,-1.3103485107421875,2.089511526575386
1785250186.909688,0.011230472475290298,0.014648433774709702,1.00537109375,1.0055405194581377,-0.8106231689453125,-1.4934539794921875,-1.3713836669921875,2.183622648944852
1785250186.920376,0.0185546912252903,-0.0009765587747097015,0.9970702528953552,0.9972433601896349,-0.507354736328125,-1.190185546875,-1.2493133544921875,1.7985367169388693
1785250186.931052,0.008789066225290298,-0.0043945349752902985,0.9941405653953552,0.9941891285803512,0.3452301025390625,-1.1882781982421875,-0.7610321044921875,1.4527073911096615
1785250186.941731,0.01953125,-0.00146484375,0.9838866591453552,0.9840815888624189,0.2231597900390625,-0.8831024169921875,-0.5779266357421875,1.0787350773419788
1785250186.95241,0.005859375,-0.0048828125,0.9941405653953552,0.9941698234697618,0.469207763671875,-0.518798828125,-0.3337860107421875,0.7750620946227593
1785250186.960512,0.01220703125,-0.0107421875,0.9912108778953552,0.9913442442775892,0.2231597900390625,-0.6389617919921875,-0.8220672607421875,1.0648319326073528
1785250186.968616,0.02099609375,-0.001953125,0.9775390028953552,0.9777664101571856,-0.1430511474609375,-0.5168914794921875,-0.3337860107421875,0.6317068412869193
1785250186.97672,0.021484375,0.00439453125,0.9902343153953552,0.9904771020374755,-0.2651214599609375,-0.8220672607421875,-0.1506805419921875,0.8768059052327614
1785250186.984824,0.03369140625,0.01171875,0.9946288466453552,0.995268296760092,-0.324249267578125,-0.946044921875,-0.5168914794921875,1.125751030779918
1785250186.995337,0.0185546912252903,0.010742183774709702,0.9863280653953552,0.9865610592686392,-0.0820159912109375,-0.4558563232421875,-0.2117156982421875,0.5092692285386732
1785250187.00585,0.0288085974752903,0.0068359337747097015,0.9863280653953552,0.9867723738865056,0.164031982421875,-0.213623046875,-0.3948211669921875,0.47793833422156207
1785250187.016363,0.014160159975290298,0.0068359337747097015,0.9970702528953552,0.9971942284880643,0.5283355712890625,0.1544952392578125,-0.3948211669921875,0.6774149457664347
1785250187.027019,0.008789066225290298,-0.0024414099752902985,0.9892577528953552,0.9892998078597548,1.018524169921875,0.213623046875,-0.8831024169921875,1.3648795440509196
1785250187.037676,0.008789066225290298,0.0068359337747097015,0.9936522841453552,0.9937146670261874,0.4062652587890625,0.2765655517578125,-0.5779266357421875,0.7586429734851107
1785250187.048333,0.0019531287252902985,0.011230465024709702,0.9799804091453552,0.980046703155103,0.652313232421875,0.091552734375,-0.3337860107421875,0.7384494277412625
1785250187.056347,0.01611328125,0.0068359375,0.9721679091453552,0.9723254658015479,0.225067138671875,0.213623046875,-0.5168914794921875,0.6028820984551838
1785250187.064363,0.013183597475290298,-0.0009765587747097015,0.9746093153953552,0.9746989681767566,-0.324249267578125,0.396728515625,-0.3337860107421875,0.6115097739220119
1785250187.072379,0.009765625,0.00048828125,0.9731444716453552,0.9731935925313818,-0.812530517578125,1.010894775390625,-0.3337860107421875,1.339226340046753
1785250187.080395,0.02490234375,0.00634765625,0.9877929091453552,0.9881271430448388,-0.873565673828125,1.190185546875,-0.3337860107421875,1.5136286610156775
1785250187.091063,0.004394538700580597,0.01806640625,0.9868163466453552,0.9869914938902294,-1.2989044189453125,1.4362335205078125,-0.2727508544921875,1.955584936435169
1785250187.101731,0.014160159975290298,-0.0073242224752902985,0.9902343153953552,0.9903626374979526,-1.4247894287109375,2.0465850830078125,-0.0286102294921875,2.493863260763936
1785250187.112399,0.013183597475290298,0.010742183774709702,0.9819335341453552,0.9820807844743871,-1.850128173828125,1.556396484375,0.1544952392578125,2.422645879017563
1785250187.120593,-0.0009765587747097015,-0.0048828087747097015,0.9936522841453552,0.993664761011405,-1.850128173828125,1.678466796875,0.6427764892578125,2.5794159538443995
1785250187.128789,-0.013671875,-0.0048828125,0.9995116591453552,0.9996170860841798,-2.277374267578125,1.556396484375,0.5207061767578125,2.807122814148964
1785250187.136985,0.00244140625,-0.00244140625,0.9829100966453552,0.9829161607259983,-2.338409423828125,1.251220703125,0.8869171142578125,2.7964859822534796
1785250187.145181,-0.00048827752470970154,-0.0034179724752902985,0.9780272841453552,0.9780333785119618,-2.216339111328125,1.068115234375,1.3141632080078125,2.78927484260481
1785250187.1556,0.01171875,-0.0029296875,0.9941405653953552,0.9942139487731032,-2.2754669189453125,0.8258819580078125,0.8869171142578125,2.5780715031474006
1785250187.166019,0.0058593787252902985,-0.0043945349752902985,0.9916991591453552,0.9917262054147303,-2.0351409912109375,0.6427764892578125,1.1310577392578125,2.4154196485879282
1785250187.176438,0.013671878725290298,0.0063476525247097015,1.0009765625,1.0010900517110186,-1.5468597412109375,0.1544952392578125,0.3986358642578125,1.6048533858907705
1785250187.187077,0.01025390625,0.00048828125,1.00244140625,1.002493967052391,-0.9365081787109375,-0.0896453857421875,0.5817413330078125,1.1061224355861559
1785250187.197715,0.0126953125,-0.00146484375,1.001953125,1.002034620870931,-0.690460205078125,-0.091552734375,0.2765655517578125,0.7494035644345235
1785250187.208353,0.0209960974752903,-0.0190429724752903,0.9956054091453552,0.9960088361201304,-0.507354736328125,-0.396728515625,-0.1506805419921875,0.6614430960556293
1785250187.219033,0.01171875,0.0029296875,0.9985350966453552,0.9986081570881339,0.1659393310546875,-0.1506805419921875,-0.3337860107421875,0.40206167225081313
1785250187.229712,0.00244140625,0.01318359375,0.9980468153953552,0.9981368710399655,0.408172607421875,-0.579833984375,-0.3337860107421875,0.7837253523096873
1785250187.240391,0.009765625,-0.00439453125,0.9887694716453552,0.98882746088202,0.286102294921875,-0.274658203125,-0.2727508544921875,0.4813363484400858
1785250187.248385,-0.0019531212747097015,0.0200195275247097,0.9912108778953552,0.9914149487591496,0.3452301025390625,-0.5168914794921875,-0.2727508544921875,0.6787883719517981
1785250187.256377,0.00146484375,-0.00537109375,0.9814452528953552,0.981461042958971,0.3452301025390625,-0.3337860107421875,0.0324249267578125,0.4812985565546242
1785250187.264369,0.012207034975290298,-0.013183597475290298,0.9926757216453552,0.9928383087338064,0.2231597900390625,-0.3337860107421875,0.1544952392578125,0.4302117755371079
1785250187.272361,0.009765625,0.0009765625,0.9863280653953552,0.9863768923147486,-0.0171661376953125,-0.3337860107421875,-0.0286102294921875,0.33544943356958257
1785250187.280371,0.008789069950580597,0.00830078125,0.9907225966453552,0.9907963535579205,-0.019073486328125,-0.453948974609375,0.2765655517578125,0.531904102116834
1785250187.288381,0.01025390625,-0.00341796875,0.9873046278953552,0.987363789779302,-0.446319580078125,-0.274658203125,0.2765655517578125,0.5925595333163334
1785250187.296391,0.0126953125,-0.0068359375,0.9916991591453552,0.9918039742058816,-0.3223419189453125,-0.1506805419921875,0.4596710205078125,0.5812971576905391
1785250187.304401,-0.0009765587747097015,0.0019531212747097015,0.9750975966453552,0.9751000417051073,-0.690460205078125,-0.030517578125,0.2765655517578125,0.7444159601931203
1785250187.315061,0.0107421875,0.00146484375,0.9799804091453552,0.980040378080513,-0.751495361328125,-0.091552734375,0.1544952392578125,0.7726551366700135
1785250187.325721,0.0175781287252903,-3.725290298461914e-09,0.9838866591453552,0.9840436721272544,-0.9365081787109375,0.1544952392578125,0.3376007080078125,1.0074177811579377
1785250187.336381,0.008789066225290298,-0.0068359412252902985,0.9882811903953552,0.9883439123436784,-1.2416839599609375,-0.0286102294921875,0.2765655517578125,1.2724331440492165
1785250187.347073,0.01123046875,-0.01123046875,0.9941405653953552,0.9942674240974035,-0.7534027099609375,-0.1506805419921875,-0.3948211669921875,0.8638310153129585
1785250187.357767,0.0205078162252903,-0.009277347475290298,0.9897460341453552,0.9900019453561524,-0.690460205078125,0.034332275390625,-0.5168914794921875,0.8631864233765767
1785250187.368461,0.01513671875,0.00341796875,0.9926757216453552,0.992797003978668,-0.5054473876953125,0.1544952392578125,-0.8831024169921875,1.029182063377898
1785250187.379185,0.013183597475290298,-0.0048828087747097015,1.00244140625,1.0025399852516599,-0.263214111328125,0.213623046875,-0.8220672607421875,0.889219351871391
1785250187.389909,0.011230472475290298,-0.0043945349752902985,0.9941405653953552,0.9942137090255112,-0.0820159912109375,0.1544952392578125,-0.9441375732421875,0.9602037070201761
1785250187.400633,0.004394538700580597,-0.01171875,0.9790038466453552,0.9790838436101147,0.286102294921875,0.213623046875,-1.2493133544921875,1.2993356714214552
1785250187.411215,0.0146484375,0.00048828125,0.9897460341453552,0.9898545485303532,-0.1430511474609375,0.0934600830078125,-0.9441375732421875,0.9594759898576749
1785250187.421797,-0.0029296875,-0.0107421875,0.9897460341453552,0.9898086632110226,-0.019073486328125,0.274658203125,-0.6389617919921875,0.695753618783568
1785250187.432379,-0.0029296837747097015,-0.0039062537252902985,0.9746093153953552,0.9746215468173218,-0.0820159912109375,0.1544952392578125,-0.4558563232421875,0.4882626231932228
1785250187.443028,-0.001953125,-0.00146484375,1.00634765625,1.006350617679716,0.1010894775390625,0.3376007080078125,-0.2117156982421875,0.41111659830110714
1785250187.453679,0.00146484375,-0.00830078125,0.9946288466453552,0.9946645622096134,0.469207763671875,0.396728515625,-0.0286102294921875,0.6151162376588457
1785250187.46433,-0.0004882737994194031,-0.0107421875,0.9970702528953552,0.997128237596547,0.774383544921875,0.396728515625,-0.1506805419921875,0.8830447415000243
1785250187.472355,-0.0019531212747097015,0.009765621274709702,0.9990233778953552,0.9990730161620023,1.0166168212890625,-0.0896453857421875,-0.2117156982421875,1.042290551331499
1785250187.480379,0.008789066225290298,0.012695308774709702,0.9746093153953552,0.9747316226558984,1.3256072998046875,-0.2117156982421875,0.1544952392578125,1.3512686739249824
1785250187.488403,0.00732421875,0.00244140625,0.9995116591453552,0.999541475583818,1.079559326171875,0.034332275390625,0.2155303955078125,1.1013992896519975
1785250187.496427,0.0229492224752903,-0.010253902524709702,0.9975585341453552,0.9978751617188577,0.835418701171875,0.091552734375,-0.2117156982421875,0.8666774753744434
1785250187.507068,0.0175781287252903,-0.0039062537252902985,0.9931640028953552,0.9933272301083739,0.7114410400390625,0.3376007080078125,-0.1506805419921875,0.8017650636154575
1785250187.517709,0.0224609412252903,0.010253902524709702,0.9853515028953552,0.9856608040577891,0.7724761962890625,0.1544952392578125,-0.6389617919921875,1.0143275725387801
1785250187.52835,0.02099609375,-0.0126953125,0.9819335341453552,0.9822400278910542,0.591278076171875,-0.091552734375,-1.2493133544921875,1.3851987309572498
1785250187.536352,0.0322265662252903,-0.0029296912252902985,0.9863280653953552,0.9868587473635184,0.4062652587890625,0.5207061767578125,-1.7986297607421875,1.916052034585747
1785250187.544354,0.005859375,0.00439453125,0.9887694716453552,0.9887965980110028,0.8373260498046875,0.7648468017578125,-2.3479461669921875,2.6074809197641278
1785250187.552356,0.02099609375,-0.00146484375,0.9985350966453552,0.9987568878123042,0.4062652587890625,0.5207061767578125,-2.5920867919921875,2.6749019272177126
1785250187.560358,0.025390625,-0.01123046875,0.9843749403953552,0.9847663837401206,1.0166168212890625,0.5817413330078125,-2.9582977294921875,3.1817382350181194
1785250187.57102,0.0166015625,0.001953125,0.9936522841453552,0.99379288001172,0.591278076171875,1.373291015625,-3.3245086669921875,3.64525662386944
1785250187.581682,0.0073242224752902985,0.0048828087747097015,0.9833983778953552,0.9834377741899147,0.3452301025390625,2.0465850830078125,-3.2634735107421875,3.86755138052556
1785250187.592344,-0.019531242549419403,-0.009765625,0.9770507216453552,0.9772947096627886,0.3452301025390625,2.3517608642578125,-3.2634735107421875,4.037353383303191
1785250187.603009,-0.0087890625,-0.0068359375,0.9736327528953552,0.9736964183829171,-0.3223419189453125,2.2907257080078125,-2.7141571044921875,3.5662273300930574
1785250187.613676,-0.01904296875,-0.0068359375,0.9868163466453552,0.9870237417138472,-0.690460205078125,2.166748046875,-2.1648406982421875,3.1397559844992533
1785250187.624343,-0.02197265625,0.00830078125,0.9931640028953552,0.9934417130557616,-0.690460205078125,1.739501953125,-1.9207000732421875,2.6817328560232765
1785250187.632372,-0.0166015587747097,0.009277347475290298,0.9980468153953552,0.9982279933215346,-0.6313323974609375,1.6193389892578125,-1.6765594482421875,2.414889426392943
1785250187.6404,-0.0073242150247097015,-0.00048827752470970154,0.9951171278953552,0.9951442009936902,-0.5702972412109375,0.9479522705078125,-0.7610321044921875,1.3427666642278289
1785250187.648428,-0.0053710900247097015,-0.010253902524709702,0.9912108778953552,0.9912784652069874,-0.3871917724609375,0.6427764892578125,-0.5779266357421875,0.9471421646745141
1785250187.656456,-0.015136715024709702,-0.013671878725290298,0.9873046278953552,0.9875153004754934,0.0400543212890625,0.0934600830078125,-0.1506805419921875,0.1817794309178407
1785250187.667079,-0.01904296875,-0.0087890625,0.9853515028953552,0.9855746884618017,-0.324249267578125,-0.213623046875,0.3376007080078125,0.5145353551783252
1785250187.677702,-0.0068359337747097015,-0.0029296912252902985,0.9936522841453552,0.9936801169735306,-0.1430511474609375,-1.0051727294921875,-0.1506805419921875,1.0264211965074204
1785250187.688325,0.0039062537252902985,-0.0043945349752902985,0.9936522841453552,0.9936696797945971,-0.2651214599609375,-0.8831024169921875,0.2765655517578125,0.9626254577188189
1785250187.699023,-0.0014648400247097015,-0.013183597475290298,1.00341796875,1.0035056417425188,-0.385284423828125,-1.373291015625,-0.0286102294921875,1.4266011517142798
1785250187.709723,0.02099609375,-0.00732421875,0.9877929091453552,0.9880431728881591,-0.019073486328125,-1.556396484375,0.0324249267578125,1.5568510495005032
1785250187.720423,0.0034179724752902985,-0.0053710900247097015,0.9843749403953552,0.984395527429018,0.286102294921875,-1.861572265625,-0.2727508544921875,1.9030761550526498
1785250187.731082,0.00048828125,-0.00244140625,1.00048828125,1.0004913791740715,0.3452301025390625,-1.9207000732421875,-0.3948211669921875,1.9910189223000239
1785250187.741743,0.00537109375,-0.00390625,0.9892577528953552,0.9892800458417735,1.0166168212890625,-1.9817352294921875,-0.2727508544921875,2.243920076509979
1785250187.752404,0.00146484375,-0.005859375,0.9941405653953552,0.9941589117476135,0.7114410400390625,-2.0427703857421875,-0.4558563232421875,2.2106252938381563
1785250187.76038,0.003906257450580597,-0.00146484375,0.9887694716453552,0.9887782727549776,0.164031982421875,-1.861572265625,-0.3948211669921875,1.91003705338575
1785250187.768357,0.009765625,-0.00244140625,0.9912108778953552,0.9912619897656719,0.530242919921875,-1.434326171875,-0.7610321044921875,1.7081039153168276
1785250187.776334,0.0068359375,-0.0009765625,0.9897460341453552,0.989770122716522,0.102996826171875,-1.613616943359375,-1.0051727294921875,1.9038750490020888
1785250187.784311,0.00244140625,-0.005859375,0.9926757216453552,0.9926960164541786,0.469207763671875,-1.556396484375,-0.8831024169921875,1.8499718432890446
1785250187.795019,0.011718753725290298,-0.0043945349752902985,0.9951171278953552,0.9951958296522467,0.4062652587890625,-1.6765594482421875,-1.2493133544921875,2.1299499763378513
1785250187.805727,0.011718753725290298,0.0048828087747097015,0.9897460341453552,0.9898274511837217,0.6542205810546875,-1.7986297607421875,-0.9441375732421875,2.13412027358129
1785250187.816435,0.0,-0.01416015625,0.9951171278953552,0.995217869742965,0.713348388671875,-1.739501953125,-0.6999969482421875,2.0061726486259417
1785250187.827113,0.01171875,0.0029296875,0.9877929091453552,0.9878667640569017,0.774383544921875,-1.739501953125,-0.7610321044921875,2.0505381692714884
1785250187.83779,0.0146484375,-0.001953125,0.9931640028953552,0.9932739441189334,0.8945465087890625,-1.6155242919921875,-0.5168914794921875,1.9176310896455506
1785250187.848467,0.0043945349752902985,-0.0053710900247097015,0.9863280653953552,0.9863524791534954,0.530242919921875,-0.946044921875,-0.4558563232421875,1.176419795724569
1785250187.856541,0.009277347475290298,-0.00048827752470970154,0.9956054091453552,0.9956487524778046,0.0400543212890625,-0.0286102294921875,-0.8220672607421875,0.8235396013973383
1785250187.864615,0.0009765625,-0.00146484375,0.9814452528953552,0.9814468319131485,-0.4482269287109375,0.1544952392578125,-0.7610321044921875,0.8966303712471357
1785250187.872689,-0.0068359375,0.01806640625,0.9931640028953552,0.9933518317914449,-0.812530517578125,0.034332275390625,-0.6389617919921875,1.0342420987153544
1785250187.880763,0.001953125,-0.0068359375,0.9853515028953552,0.9853771506367015,-0.2651214599609375,-0.2117156982421875,-0.5779266357421875,0.6701582810905786
1785250187.891288,0.013671878725290298,0.011230465024709702,1.00244140625,1.0025975346952674,-0.019073486328125,-0.091552734375,-0.5168914794921875,0.5252832594171177
1785250187.901813,0.00634765625,-0.005859375,0.9941405653953552,0.9941780971133167,-0.019073486328125,-0.274658203125,-0.6389617919921875,0.695753618783568
1785250187.912338,0.0029296875,-0.01123046875,0.9799804091453552,0.9800491359140572,0.286102294921875,-0.274658203125,0.0324249267578125,0.3979233941082967
1785250187.920332,0.0156250037252903,-0.009277347475290298,0.9809569716453552,0.9811252673013874,0.0400543212890625,-0.5168914794921875,-0.2727508544921875,0.5858107022338943
1785250187.928325,0.02001953125,0.00146484375,0.9804686903953552,0.9806741458018889,0.286102294921875,-0.274658203125,-0.2727508544921875,0.4813363484400858
1785250187.936318,0.0048828125,-0.0078125,0.9931640028953552,0.993206732589588,0.102996826171875,-0.213623046875,-0.3948211669921875,0.46057236810593694
1785250187.944311,0.012695316225290298,0.00048827752470970154,0.9892577528953552,0.9893393306305824,-0.2651214599609375,0.0934600830078125,-0.3337860107421875,0.43639119676596355
1785250187.955002,0.0107421875,-0.021484375,0.9868163466453552,0.9871086439535983,-0.2651214599609375,0.2765655517578125,-0.3337860107421875,0.5081249786402022
1785250187.965693,0.0029296912252902985,-0.012695316225290298,0.9985350966453552,0.9986200946192123,-0.202178955078125,0.091552734375,-0.2117156982421875,0.3067275173997253
1785250187.976384,0.005859375,-0.01171875,0.9956054091453552,0.9956916149573839,-0.0820159912109375,0.1544952392578125,-0.2117156982421875,0.2746250874370699
1785250187.987044,0.01025390625,-0.0146484375,0.9931640028953552,0.9933249498334874,0.3452301025390625,0.2155303955078125,-0.0286102294921875,0.4079898532052989
1785250187.997702,0.00634765625,-0.01220703125,0.9838866591453552,0.9839828567592095,0.5893707275390625,0.1544952392578125,0.3376007080078125,0.6965636162480989
1785250188.00836,-0.0019531212747097015,-0.009765621274709702,0.9931640028953552,0.9932139339984714,0.7114410400390625,-0.0286102294921875,0.2155303955078125,0.7439222070023267
1785250188.016366,0.0068359375,0.00390625,0.9956054091453552,0.9956365398829317,0.8945465087890625,-0.1506805419921875,0.4596710205078125,1.0169638780293297
1785250188.024372,0.0029296912252902985,-0.0053710900247097015,0.9873046278953552,0.9873235842226776,0.957489013671875,-0.274658203125,0.7648468017578125,1.2558713986731875
1785250188.032378,0.0224609412252903,0.0053710900247097015,0.9716796278953552,0.9719540327379868,0.652313232421875,-0.213623046875,0.3986358642578125,0.793761873373499
1785250188.040384,0.008789066225290298,0.009765621274709702,1.00244140625,1.0025274998764229,0.164031982421875,0.213623046875,0.8869171142578125,0.9269106024729755
1785250188.05105,0.0043945349752902985,-0.0034179724752902985,1.0009765625,1.000992044497761,0.1010894775390625,-0.1506805419921875,0.5207061767578125,0.551415116511978
1785250188.061716,-0.0043945275247097015,0.00048827752470970154,0.9960936903953552,0.9961035038250514,0.0400543212890625,-0.0286102294921875,0.5817413330078125,0.5838200685273072
1785250188.072382,0.013671878725290298,0.009277347475290298,1.00048828125,1.0006247000562376,-0.1430511474609375,-0.0286102294921875,0.5817413330078125,0.5997542451297807
1785250188.083028,0.01708984375,-0.00048828125,0.9892577528953552,0.9894054794883371,0.225067138671875,-0.579833984375,0.9479522705078125,1.133788416551805
1785250188.093672,0.0073242224752902985,-0.009277347475290298,0.9907225966453552,0.9907931049996058,0.1010894775390625,-0.1506805419921875,0.7648468017578125,0.786075275252526
1785250188.104316,0.013183597475290298,-0.012695316225290298,0.9975585341453552,0.9977264190862546,0.5893707275390625,-0.3337860107421875,0.2765655517578125,0.7316142835307488
1785250188.112339,0.009277347475290298,-0.0073242224752902985,0.9858397841453552,0.9859106416987319,0.713348388671875,0.396728515625,0.0324249267578125,0.8168909441327072
1785250188.120364,0.00634765625,-0.005859375,0.9853515028953552,0.9853893693730382,0.164031982421875,0.213623046875,-0.3948211669921875,0.47793833422156207
1785250188.128389,0.00048828125,0.00390625,0.9799804091453552,0.9799883160101142,0.469207763671875,0.213623046875,-0.3337860107421875,0.6141692214799633
1785250188.136414,0.008789066225290298,-0.012695316225290298,1.001953125,1.0020720949295208,0.3452301025390625,0.2765655517578125,-0.4558563232421875,0.6351986425978259
1785250188.147088,0.005859375,-0.01025390625,0.9868163466453552,0.9868870132265701,0.2231597900390625,0.0324249267578125,-0.8220672607421875,0.8524354808134699
1785250188.157762,-0.010742183774709702,-0.0039062537252902985,0.9873046278953552,0.9873707923541195,0.4062652587890625,-0.0286102294921875,-0.9441375732421875,1.0282342937960134
1785250188.168436,-0.01318359375,-0.017578125,0.9965819716453552,0.9968241689642282,0.4711151123046875,-0.3337860107421875,-0.6999969482421875,0.9073909177181673
1785250188.179125,-0.00927734375,-0.00927734375,0.9848632216453552,0.9849506097078063,0.5283355712890625,-0.5779266357421875,-0.7610321044921875,1.091928356742067
1785250188.189814,-0.00390625,-0.015625,0.9868163466453552,0.9869477703609996,0.4062652587890625,-0.8831024169921875,-0.5779266357421875,1.1308936889454597
1785250188.200503,0.00634765625,-0.00830078125,0.9892577528953552,0.9893129420829367,0.4062652587890625,-0.6389617919921875,-0.5168914794921875,0.9167881073052998
1785250188.211152,0.0024414099752902985,0.00048827752470970154,0.9912108778953552,0.9912140048222127,1.0166168212890625,-0.5168914794921875,-0.3948211669921875,1.2068845499071454
1785250188.2218,0.012695316225290298,0.00048827752470970154,0.9863280653953552,0.9864098854206325,0.7114410400390625,-0.6389617919921875,-0.2727508544921875,0.9943910466732637
1785250188.232448,0.007812503725290298,-0.010253902524709702,0.9848632216453552,0.9849475839257193,0.7114410400390625,-0.6389617919921875,-0.2727508544921875,0.9943910466732637
1785250188.240413,0.01171875,-0.00048828125,0.9897460341453552,0.9898155280791469,0.4062652587890625,-0.1506805419921875,-0.3337860107421875,0.5469636068343002
1785250188.248379,-0.0009765587747097015,-0.010253902524709702,0.9750975966453552,0.975151997981635,0.1010894775390625,-0.5168914794921875,-0.2117156982421875,0.5676437447227971
1785250188.256345,0.009277347475290298,-0.013671878725290298,0.9897460341453552,0.9898839333732592,0.3452301025390625,-0.2727508544921875,-0.3337860107421875,0.5522589549229
1785250188.264311,0.0014648474752902985,-0.014160159975290298,1.00048828125,1.0005895546262866,0.164031982421875,-0.091552734375,-0.2727508544921875,0.331181857979884
1785250188.274997,0.013183597475290298,0.0043945349752902985,0.9877929091453552,0.987890657177141,0.286102294921875,-0.030517578125,-0.3337860107421875,0.44068009564917127
1785250188.285683,0.014160159975290298,-0.007812503725290298,0.9887694716453552,0.9889017208008177,0.0400543212890625,0.1544952392578125,-0.7610321044921875,0.7775879317961821
1785250188.296369,-0.01220703125,-0.001953125,0.9907225966453552,0.99079972235206,0.408172607421875,0.091552734375,-0.5168914794921875,0.6649538195940632
1785250188.307037,0.01025390625,-0.0009765625,0.9858397841453552,0.9858935927733078,0.3452301025390625,-0.2727508544921875,-1.0662078857421875,1.1534193114146198
1785250188.317706,0.0048828125,0.00146484375,0.9804686903953552,0.980481942960045,0.1659393310546875,-0.1506805419921875,-1.0662078857421875,1.089513534998424
1785250188.328375,0.0029296912252902985,-0.0039062537252902985,0.9916991591453552,0.991711179809145,0.1659393310546875,-0.6389617919921875,-1.2493133544921875,1.4130081000932964
1785250188.339022,0.008789066225290298,-0.0068359412252902985,0.9853515028953552,0.9854144113192598,0.0400543212890625,-0.3948211669921875,-1.2493133544921875,1.3108287303349444
1785250188.349671,-0.00439453125,-0.00634765625,1.001953125,1.0019828687867078,-0.4482269287109375,-0.3337860107421875,-1.1882781982421875,1.3131357724951838
1785250188.36032,0.0009765625,-0.0185546875,0.9838866591453552,0.984062085514297,0.0400543212890625,-0.4558563232421875,-1.1272430419921875,1.2165879383807872
1785250188.368327,-0.001953125,-0.01123046875,0.9912108778953552,0.9912764208754746,-0.019073486328125,-0.579833984375,-0.7610321044921875,0.956943630202273
1785250188.376335,-0.009765617549419403,-0.0078125,0.9956054091453552,0.9956839524476939,0.286102294921875,-0.396728515625,-0.8220672607421875,0.9565786007713862
1785250188.384343,0.0078125,-0.0068359375,0.9887694716453552,0.9888239647457928,0.8373260498046875,-0.5168914794921875,-0.4558563232421875,1.0844799226786221
1785250188.392351,0.0034179724752902985,-0.0043945349752902985,0.9916991591453552,0.9917147859758346,0.957489013671875,-0.701904296875,-0.0896453857421875,1.1905843726753655
1785250188.403004,0.0146484375,-0.00244140625,0.9892577528953552,0.989369212604292,1.0166168212890625,-0.7610321044921875,-0.2727508544921875,1.298873609718014
1785250188.413657,0.009277347475290298,-0.0029296912252902985,1.00244140625,1.0024886160108404,0.7114410400390625,-0.5168914794921875,-0.3337860107421875,0.9406052604523691
1785250188.42431,0.02001953125,-0.00390625,0.9858397841453552,0.9860507696991534,0.8373260498046875,-0.6389617919921875,-0.5168914794921875,1.1732705940570622
1785250188.432333,0.0048828125,-0.01123046875,1.00439453125,1.0044691830470271,0.164031982421875,-0.091552734375,-0.5168914794921875,0.5499683590902409
1785250188.440354,0.0,-0.001953125,0.9819335341453552,0.9819354765851233,0.2841949462890625,-0.3337860107421875,-0.6999969482421875,0.8259392205312704
1785250188.448375,0.00537109375,-0.00830078125,0.9995116591453552,0.9995605576376713,0.102996826171875,-0.396728515625,-0.5779266357421875,0.7085203297095846
1785250188.456396,-0.00439453125,-0.00634765625,0.9951171278953552,0.9951470760020733,-0.0820159912109375,-0.3337860107421875,-0.5168914794921875,0.6207386932946252
1785250188.467061,0.02587890625,-0.00732421875,1.00048828125,1.0008497204313809,0.164031982421875,-0.274658203125,-0.4558563232421875,0.5569098735351976
1785250188.477726,0.004394538700580597,-0.00146484375,0.9902343153953552,0.9902451500129201,0.0400543212890625,-0.6389617919921875,-0.3337860107421875,0.7220038928198231
1785250188.488391,0.0009765625,-0.0107421875,0.9921874403953552,0.9922460708639204,0.2231597900390625,-0.2117156982421875,-0.2117156982421875,0.3734265197527252
1785250188.499039,0.01220703125,-0.00244140625,0.9936522841453552,0.9937302621253404,0.102996826171875,-0.091552734375,-0.2727508544921875,0.3055867765451201
1785250188.509688,0.015625,-0.02197265625,0.9868163466453552,0.9871846029260012,0.102996826171875,-0.091552734375,-0.1506805419921875,0.2041932298291942
1785250188.520337,0.0063476599752902985,-3.725290298461914e-09,0.9907225966453552,0.9907429314867087,0.102996826171875,0.213623046875,0.0934600830078125,0.2549077077560918
1785250188.528348,0.01123046875,-0.00634765625,0.9882811903953552,0.9883653815555629,-0.202178955078125,-0.030517578125,0.3986358642578125,0.4480158532057444
1785250188.536361,0.005859375,0.00146484375,0.9970702528953552,0.9970885453415911,0.0400543212890625,0.2765655517578125,0.4596710205078125,0.5379500907776896
1785250188.544374,0.004394538700580597,-0.0009765625,0.9907225966453552,0.9907328243014978,-0.0820159912109375,0.4596710205078125,0.5817413330078125,0.7459537843852747
1785250188.552387,0.009277351200580597,-0.0068359375,0.9843749403953552,0.9844423916944871,-0.0820159912109375,0.3376007080078125,0.4596710205078125,0.5761929433413625
1785250188.563246,0.0073242224752902985,-0.014160159975290298,0.9882811903953552,0.9884097660660045,-0.0820159912109375,-0.0286102294921875,0.0934600830078125,0.12759292755374577
1785250188.574105,0.005859375,-0.00048828125,0.9868163466453552,0.9868338627653874,-0.202178955078125,-0.030517578125,0.8258819580078125,0.8508164672912226
1785250188.584964,0.0009765625,-0.00390625,0.9956054091453552,0.9956135511245662,0.2231597900390625,-0.1506805419921875,0.4596710205078125,0.5327310435107303
1785250188.592826,0.0078125,-0.005859375,0.9916991591453552,0.9917472408236109,0.164031982421875,0.274658203125,0.7038116455078125,0.7731070120969792
1785250188.600687,-0.0048828087747097015,0.0014648400247097015,0.9848632216453552,0.9848764150529224,0.0400543212890625,-0.2117156982421875,0.5207061767578125,0.5635271138550857
1785250188.608548,0.0166015662252903,-0.0043945349752902985,0.9897460341453552,0.9898950126378253,0.102996826171875,0.091552734375,0.9479522705078125,0.9579163619721378
1785250188.616409,0.00537109375,0.00732421875,0.9833983778953552,0.9834403197325118,0.1010894775390625,0.1544952392578125,1.1310577392578125,1.1460276920552326
1785250188.627233,0.001953125,-0.0078125,0.9809569716453552,0.98099002547077,0.102996826171875,0.213623046875,1.0089874267578125,1.036483854053207
1785250188.638057,0.0039062537252902985,0.0063476525247097015,0.9902343153953552,0.9902623646777902,0.1010894775390625,0.3376007080078125,1.1920928955078125,1.2430924310109435
1785250188.648881,-0.00048827752470970154,-0.013671878725290298,0.9873046278953552,0.9873994059884814,-0.019073486328125,-0.030517578125,1.0089874267578125,1.0096290149409717
1785250188.659367,0.009765625,-0.001953125,0.9824218153953552,0.9824722924813767,0.469207763671875,-0.091552734375,1.1310577392578125,1.2279370660569275
1785250188.669854,0.00634765625,-0.0107421875,0.9897460341453552,0.9898246811625845,0.1010894775390625,-0.0286102294921875,1.3141632080078125,1.3183560084370616
1785250188.680341,0.008789066225290298,-0.010742183774709702,0.9858397841453552,0.98593748392133,0.2231597900390625,0.2765655517578125,1.3751983642578125,1.4203729571372248
1785250188.691014,0.0,-0.00146484375,0.9877929091453552,0.9877939952870011,0.0400543212890625,-0.0286102294921875,1.4362335205078125,1.4370767618035538
1785250188.701687,0.0048828125,-0.00439453125,0.9926757216453552,0.9926974574899163,0.0400543212890625,-0.0286102294921875,1.6803741455078125,1.6810949297337834
1785250188.71236,-0.0024414025247097015,-0.0175781287252903,0.9873046278953552,0.9874641154590663,0.3452301025390625,0.3376007080078125,1.3751983642578125,1.457507668180127
1785250188.720358,0.0034179724752902985,0.0014648400247097015,0.9848632216453552,0.9848702420328314,0.102996826171875,0.396728515625,1.4972686767578125,1.5523579972775565
1785250188.728355,0.0009765625,-0.0107421875,0.9868163466453552,0.9868752962117795,0.4062652587890625,0.6427764892578125,1.6803741455078125,1.84441599009894
1785250188.736352,0.0,-0.00732421875,0.9877929091453552,0.9878200623282268,0.2231597900390625,0.3376007080078125,1.4362335205078125,1.4921599295544428
1785250188.744349,0.0019531287252902985,-0.0034179724752902985,0.9819335341453552,0.9819414253033869,0.3452301025390625,0.3376007080078125,1.1310577392578125,1.2298169259208875
1785250188.756351,-0.0029296837747097015,-3.725290298461914e-09,0.9946288466453552,0.9946331613344135,0.286102294921875,0.339508056640625,1.0700225830078125,1.1584768326687283
1785250188.768352,-0.014648430049419403,-0.00146484375,0.9848632216453552,0.9849732420831505,0.0400543212890625,0.1544952392578125,1.1310577392578125,1.1422629894828291
1785250188.780353,-0.020019523799419403,-0.00244140625,0.9868163466453552,0.9870224130201497,0.102996826171875,0.274658203125,1.3751983642578125,1.4061351342608208
1785250188.792354,-0.01806640625,-0.00634765625,0.9775390028953552,0.9777265415014075,0.1010894775390625,0.4596710205078125,1.8024444580078125,1.86288017697513
1785250188.800363,-0.0170898400247097,-0.0029296912252902985,1.00244140625,1.002591351791558,-0.2651214599609375,0.0324249267578125,2.5959014892578125,2.6096063508387615
1785250188.808372,-0.015624992549419403,-0.0068359375,1.00390625,1.0040511088698303,0.3452301025390625,-0.5779266357421875,3.3893585205078125,3.4555656845932363
1785250188.816381,-0.0058593712747097015,-0.013183597475290298,0.9868163466453552,0.9869218010970329,-0.0171661376953125,-1.0051727294921875,3.9997100830078125,4.124117801483429
1785250188.82439,-0.00244140625,-0.01171875,0.9843749403953552,0.9844477197111074,0.408172607421875,-1.434326171875,4.3048858642578125,4.555868605333334
1785250188.83505,0.0,-0.0068359375,0.9780272841453552,0.9780511738013729,0.6542205810546875,-1.4934539794921875,4.3048858642578125,4.603308773243798
1785250188.84571,0.007812503725290298,-0.0048828087747097015,0.9926757216453552,0.9927184723677276,0.7114410400390625,-1.5544891357421875,4.1217803955078125,4.462248139154175
1785250188.85637,0.012695316225290298,0.0014648400247097015,0.9858397841453552,0.9859226119803312,0.5893707275390625,-1.9817352294921875,4.1217803955078125,4.611258613771615
1785250188.867065,0.0317382849752903,-0.0034179724752902985,0.9863280653953552,0.9868444932488394,0.408172607421875,-1.922607421875,3.7555694580078125,4.238788285585811
1785250188.87776,0.0327148474752903,-0.0175781287252903,0.9794921278953552,0.9801959398323303,0.469207763671875,-1.613616943359375,3.0841827392578125,3.5122782826140413
1785250188.888455,0.02001953125,-0.01171875,0.9750975966453552,0.9753734842185223,0.469207763671875,-0.820159912109375,2.7179718017578125,2.877531741279639
1785250188.896416,0.0195312462747097,0.009765621274709702,0.9902343153953552,0.9904750558830001,-0.2651214599609375,-0.6999969482421875,1.6193389892578125,1.7839685754549346
1785250188.904378,0.023925788700580597,-0.00146484375,0.9848632216453552,0.9851548885742916,-0.3871917724609375,-0.5168914794921875,1.0700225830078125,1.2498170259601107
1785250188.91234,0.0175781287252903,-0.0073242224752902985,0.9794921278953552,0.9796772241168625,-0.5054473876953125,-0.5168914794921875,0.8258819580078125,1.0976041508041303
1785250188.920302,0.0283203162252903,-0.012207034975290298,0.9882811903953552,0.9887622380042882,-0.9365081787109375,-0.5779266357421875,0.4596710205078125,1.1926207327509672
1785250188.931002,0.008300784975290298,-0.0053710900247097015,0.9985350966453552,0.998584042968747,-0.9365081787109375,-0.3948211669921875,0.2155303955078125,1.038934393542395
1785250188.941702,0.01318359375,-0.00146484375,0.9995116591453552,0.9995996747092697,-0.6313323974609375,-0.5168914794921875,-0.0896453857421875,0.8208493728085947
1785250188.952402,0.007812503725290298,-0.0053710900247097015,0.9951171278953552,0.9951622893042179,-0.507354736328125,-0.274658203125,-0.2117156982421875,0.6145482030732918
1785250188.963093,0.0107421875,-0.01611328125,1.0068359375,1.007022163344199,-0.690460205078125,-0.148773193359375,-0.0896453857421875,0.7119726490840347
1785250188.973783,0.011230472475290298,-0.0190429724752903,0.9868163466453552,0.9870639595888399,-0.5702972412109375,0.3376007080078125,-0.3337860107421875,0.7420419680498983
1785250188.984473,0.00244140625,-0.00634765625,0.9819335341453552,0.9819570859683906,-0.4482269287109375,0.3986358642578125,-0.4558563232421875,0.7534075386761794
1785250188.992447,-0.0058593712747097015,-0.0073242224752902985,0.9863280653953552,0.9863726623610097,0.286102294921875,-0.030517578125,-0.5168914794921875,0.5915764086792183
1785250189.00042,0.00244140625,-0.01123046875,0.9921874403953552,0.9922540001285501,0.4062652587890625,-0.4558563232421875,-0.3948211669921875,0.7271452412303215
1785250189.008393,-0.0039062462747097015,-0.014160159975290298,0.9804686903953552,0.9805787177662318,0.8373260498046875,-0.8220672607421875,-0.6389617919921875,1.336106906834761
1785250189.016366,0.0039062537252902985,-0.0009765587747097015,0.9926757216453552,0.9926838876648163,0.408172607421875,-0.579833984375,-0.3337860107421875,0.7837253523096873
1785250189.027067,-0.0029296875,-0.00244140625,0.9921874403953552,0.9921947693933948,0.591278076171875,-0.579833984375,-0.5779266357421875,1.0098595987056738
1785250189.037768,-0.0126953125,-0.00732421875,0.9970702528953552,0.9971779702483294,0.5283355712890625,-0.4558563232421875,-0.5168914794921875,0.8684009816328216
1785250189.048469,0.00537109375,-0.00927734375,1.00146484375,1.0015222169389648,0.774383544921875,-0.453948974609375,-0.0896453857421875,0.9020952507244111
1785250189.059091,-0.01416015625,0.0107421875,0.9951171278953552,0.9952758425923993,0.896453857421875,-0.091552734375,0.0324249267578125,0.9016999487264864
1785250189.069713,-0.005371086299419403,0.00927734375,0.9926757216453552,0.9927336027450759,0.835418701171875,0.091552734375,-0.0896453857421875,0.8451879108364645
1785250189.080335,-0.0024414025247097015,0.0053710900247097015,0.9887694716453552,0.9887870736979606,0.469207763671875,-0.030517578125,0.2155303955078125,0.5172432691223073
1785250189.088348,-0.0068359337747097015,-0.0058593712747097015,0.9902343153953552,0.9902752453781801,0.4062652587890625,0.2765655517578125,-0.0896453857421875,0.49957608039508133
1785250189.096359,0.01171875,0.00732421875,0.9907225966453552,0.9908189727622173,0.286102294921875,0.091552734375,-0.3337860107421875,0.44905403605611494
1785250189.10437,0.01025390625,0.00341796875,0.9936522841453552,0.9937110681133835,0.1659393310546875,-0.1506805419921875,-0.3337860107421875,0.40206167225081313
1785250189.112381,0.014160159975290298,0.0043945349752902985,0.9956054091453552,0.9957157992056092,0.0400543212890625,-0.5779266357421875,-0.8220672607421875,1.0056829153059996
1785250189.124381,0.009277347475290298,-0.008789066225290298,0.9975585341453552,0.9976403890718938,0.0400543212890625,-0.0896453857421875,-0.7610321044921875,0.7673398907306989
1785250189.136382,0.0068359412252902985,-0.0043945349752902985,0.9887694716453552,0.9888028671519513,-0.0820159912109375,0.0324249267578125,-1.3103485107421875,1.3133130694140795
1785250189.148383,-0.00048827752470970154,-0.015136715024709702,0.9853515028953552,0.9854678801537956,0.041961669921875,0.213623046875,-1.3103485107421875,1.3283105086925495
1785250189.160384,0.008300784975290298,-0.010253902524709702,0.9907225966453552,0.9908104304315268,-0.019073486328125,0.579833984375,-1.6155242919921875,1.7165342948318147
1785250189.16841,0.0019531287252902985,-0.009765621274709702,0.9838866591453552,0.9839370610536565,-0.1430511474609375,0.4596710205078125,-2.1648406982421875,2.217723230398759
1785250189.176434,-0.0009765587747097015,-0.009277347475290298,0.9838866591453552,0.9839308821697925,0.1010894775390625,0.6427764892578125,-1.7986297607421875,1.9127074302776204
1785250189.184458,0.0,-0.00341796875,0.9907225966453552,0.9907284925821459,0.102996826171875,0.274658203125,-1.7986297607421875,1.8223925183595415
1785250189.192482,-0.01708984375,-0.0068359375,0.9975585341453552,0.9977283306828233,0.1659393310546875,-0.0286102294921875,-1.2493133544921875,1.2606102746427996
1785250189.20049,-0.0073242150247097015,-0.015136715024709702,0.9897460341453552,0.9898888707192975,-0.0820159912109375,0.1544952392578125,-1.0662078857421875,1.08046039140103
1785250189.208498,-0.01904296875,-0.00341796875,0.9780272841453552,0.9782186287849608,-0.019073486328125,-0.213623046875,-0.6999969482421875,0.7321163374664189
1785250189.216506,-0.0053710900247097015,-0.008789066225290298,0.9999999403953552,1.0000529871381216,0.1659393310546875,-0.6389617919921875,-0.2117156982421875,0.6932759696534431
1785250189.232462,-0.00244140625,-0.005859375,0.9975585341453552,0.9975787296179174,0.2231597900390625,-0.6389617919921875,-0.0896453857421875,0.6827215821262804
1785250189.240408,-0.00927734375,-0.015625,0.9912108778953552,0.9913774327621829,0.1659393310546875,-0.5168914794921875,0.2155303955078125,0.584094182945057
1785250189.248354,0.00146484375,-0.00341796875,0.9921874403953552,0.992194408952134,0.5283355712890625,-0.6999969482421875,0.5817413330078125,1.052405426614393
1785250189.2563,0.012695316225290298,-0.009277347475290298,0.9877929091453552,0.9879180490243517,0.3452301025390625,-0.8220672607421875,0.8869171142578125,1.2576169418573768
1785250189.266993,-0.00244140625,-0.015625,0.9868163466453552,0.9869430597030223,0.0400543212890625,-0.8220672607421875,0.7648468017578125,1.1235611064811943
1785250189.277686,0.015625,-0.013671875,0.9892577528953552,0.9894755997267357,0.2231597900390625,-0.6999969482421875,0.7038116455078125,1.0174216686266657
1785250189.288379,0.01025390625,-0.0048828125,0.9960936903953552,0.9961584334315158,0.1659393310546875,-0.8220672607421875,0.5207061767578125,0.9871501229746057
1785250189.296358,0.017578125,-0.0107421875,0.9970702528953552,0.9972830462208853,0.1659393310546875,-0.6389617919921875,0.0934600830078125,0.6667404445003857
1785250189.304338,0.012695316225290298,-0.013183597475290298,0.9848632216453552,0.9850332703244691,-0.019073486328125,-0.701904296875,-0.2117156982421875,0.733387330634007
1785250189.312318,0.013183597475290298,-0.0209960900247097,0.9960936903953552,0.9964021693493817,0.0400543212890625,-0.5779266357421875,-0.0896453857421875,0.5862080178051782
1785250189.320298,0.013671878725290298,0.0029296837747097015,0.9970702528953552,0.9971682869624898,-0.080108642578125,-0.579833984375,-0.5779266357421875,0.8225716019606929
1785250189.330998,0.013183597475290298,-0.015136715024709702,0.9965819716453552,0.9967841058086115,-0.080108642578125,-0.274658203125,-0.8831024169921875,0.9282911192384676
1785250189.341698,0.008300784975290298,0.0058593712747097015,0.9848632216453552,0.984915631215491,0.0400543212890625,-0.1506805419921875,-0.8220672607421875,0.8367219105372767
1785250189.352398,0.001953125,0.00390625,0.9814452528953552,0.9814549698876438,-0.263214111328125,-0.274658203125,-0.9441375732421875,1.0178971235609988
1785250189.363145,-0.010742183774709702,-0.0029296912252902985,0.9814452528953552,0.9815084115960254,-0.2651214599609375,-0.0286102294921875,-0.7610321044921875,0.8063980393274914
1785250189.373891,-0.0073242150247097015,-0.0175781287252903,0.9868163466453552,0.987000069271374,-0.202178955078125,-0.030517578125,-0.5779266357421875,0.6130308709611458
1785250189.384637,-0.00732421875,-0.00732421875,0.9892577528953552,0.9893119781060792,-0.1430511474609375,-0.2727508544921875,-0.1506805419921875,0.3428721119472517
1785250189.392587,-0.010253898799419403,-0.02099609375,0.9848632216453552,0.9851403675329803,0.0400543212890625,-0.3948211669921875,0.2765655517578125,0.48371128473305597
1785250189.40054,0.008300784975290298,-0.0195312462747097,1.0068359375,1.0070595700621454,-0.019073486328125,-0.148773193359375,0.3376007080078125,0.3694204907560373
1785250189.408493,0.00732421875,-0.0107421875,0.9853515028953552,0.9854372750361731,-0.019073486328125,-0.213623046875,0.5817413330078125,0.6200174050513213
1785250189.416446,-0.001953125,-0.01123046875,0.9902343153953552,0.9902999230092459,0.1659393310546875,-0.8220672607421875,0.7648468017578125,1.1350423220894432
1785250189.427176,0.0043945349752902985,-0.015136715024709702,0.9697265028953552,0.9698545883260251,0.1659393310546875,-0.5168914794921875,0.4596710205078125,0.7113438762351114
1785250189.437906,0.01123046875,-0.0146484375,0.9887694716453552,0.9889417415638654,0.469207763671875,-0.091552734375,0.3986358642578125,0.622453517087079
1785250189.448636,0.015625,-0.01171875,0.9941405653953552,0.9943324059343329,0.3452301025390625,-0.8220672607421875,0.8869171142578125,1.2576169418573768
1785250189.459206,-0.0019531212747097015,-0.0058593712747097015,0.9746093153953552,0.974628885560987,0.286102294921875,-0.579833984375,0.2765655517578125,0.7032428293376723
1785250189.469775,0.01025390625,-0.01123046875,0.9936522841453552,0.9937686490370937,0.3452301025390625,-0.0896453857421875,0.3376007080078125,0.4911154211907558
1785250189.480344,0.00634765625,-0.017578125,0.9965819716453552,0.9967571968272552,-0.0820159912109375,-0.1506805419921875,0.2765655517578125,0.32545315018981646
1785250189.488346,-0.0063476525247097015,-0.008300784975290298,0.9912108778953552,0.9912659583491512,-0.019073486328125,-0.453948974609375,0.3986358642578125,0.6044369460102396
1785250189.496348,-0.0087890625,-0.00244140625,0.9824218153953552,0.9824641629335962,-0.385284423828125,-0.091552734375,0.3376007080078125,0.5203846927643874
1785250189.50435,0.0039062537252902985,-0.012695316225290298,0.9926757216453552,0.9927645834820827,-0.2651214599609375,-0.3948211669921875,0.1544952392578125,0.5000419196329648
1785250189.512352,0.007812503725290298,-0.015136715024709702,0.9956054091453552,0.9957511165324833,-0.202178955078125,-0.091552734375,0.4596710205078125,0.5104465497412198
1785250189.523022,0.0009765662252902985,-0.0043945349752902985,0.9902343153953552,0.9902445480818106,-0.0820159912109375,-0.1506805419921875,0.3376007080078125,0.378689168840024
1785250189.533692,-0.0034179650247097015,-3.725290298461914e-09,0.9819335341453552,0.9819394828420424,-0.019073486328125,-0.148773193359375,0.2765655517578125,0.31462003331345323
1785250189.544362,0.00244140625,-0.01220703125,0.9882811903953552,0.9883595921352089,0.0400543212890625,0.0934600830078125,0.3376007080078125,0.3525810173805886
1785250189.555013,0.01513671875,-0.01025390625,0.9951171278953552,0.9952850652343785,-0.019073486328125,-0.091552734375,0.0324249267578125,0.09898018451941774
1785250189.565666,0.00048828125,-0.0126953125,1.00244140625,1.002521911153332,0.164031982421875,0.396728515625,0.1544952392578125,0.45625517566444646
1785250189.576319,-0.00830078125,-0.01611328125,0.9902343153953552,0.99040019193683,-0.019073486328125,-0.213623046875,0.0934600830078125,0.233951685509412
1785250189.584413,0.00634765625,-0.001953125,1.0029296875,1.0029516765557458,0.2231597900390625,-0.0286102294921875,0.0324249267578125,0.22731082903619793
1785250189.592508,0.0048828125,-0.01611328125,0.9921874403953552,0.9923302860282147,0.1010894775390625,-0.1506805419921875,-0.1506805419921875,0.23585659613256396
1785250189.600603,-0.0014648400247097015,-0.011230465024709702,1.013671875,1.013735142562881,0.3452301025390625,-0.1506805419921875,0.1544952392578125,0.4071329369966519
1785250189.608698,0.00048828125,-0.015625,0.9877929091453552,0.9879166009342201,0.225067138671875,-0.274658203125,0.1544952392578125,0.38724814319390544
1785250189.619257,0.013671878725290298,0.0068359337747097015,0.9912108778953552,0.991328731913149,0.1659393310546875,-0.5168914794921875,0.2765655517578125,0.6092628066619551
1785250189.629816,-0.009765617549419403,-0.01171875,1.0029296875,1.0030456891171666,0.286102294921875,-0.091552734375,0.0934600830078125,0.3145969062895089
1785250189.640375,0.0034179724752902985,-0.0009765587747097015,0.9853515028953552,0.9853579149025077,0.4062652587890625,0.1544952392578125,0.1544952392578125,0.4612906008207856
1785250189.648383,-0.0029296875,-0.02099609375,0.9873046278953552,0.9875322006320565,0.286102294921875,-0.213623046875,0.0934600830078125,0.36908551371132026
1785250189.656391,0.005859375,-0.0185546875,0.9941405653953552,0.9943309672680469,0.2231597900390625,0.1544952392578125,0.1544952392578125,0.3123105022200437
1785250189.664399,0.001953125,-0.01220703125,0.9809569716453552,0.9810348650934024,-0.0820159912109375,0.1544952392578125,0.1544952392578125,0.2333756215224076
1785250189.672407,0.011718753725290298,-0.0180664099752903,0.9907225966453552,0.990956602411016,-0.019073486328125,-0.030517578125,0.0324249267578125,0.04844064750366323
1785250189.683059,0.0,-0.01220703125,0.9912108778953552,0.9912860414986279,0.286102294921875,0.034332275390625,-0.1506805419921875,0.3251735752304
1785250189.693711,0.01025390625,-0.0009765625,0.9858397841453552,0.9858935927733078,0.164031982421875,0.213623046875,-0.0896453857421875,0.2838619252352706
1785250189.704363,0.0029296912252902985,-0.0175781287252903,0.9863280653953552,0.9864890401249791,0.0400543212890625,0.1544952392578125,-0.1506805419921875,0.21949431277897738
1785250189.715026,0.0009765625,-0.005859375,0.9809569716453552,0.9809749569532004,0.102996826171875,-0.091552734375,0.1544952392578125,0.20702422159338618
1785250189.725689,-0.00048827752470970154,-0.014648433774709702,1.00146484375,1.0015720884161086,0.164031982421875,-0.091552734375,-0.2727508544921875,0.331181857979884
1785250189.736352,-0.004882805049419403,-0.02001953125,0.9970702528953552,0.9972831657184573,-0.019073486328125,-0.213623046875,0.0934600830078125,0.233951685509412
1785250189.747034,-0.0029296875,-0.01611328125,0.9804686903953552,0.9806054628376655,-0.3223419189453125,-0.3337860107421875,-0.0286102294921875,0.46490424703171485
1785250189.757717,-0.00390625,-0.0185546875,0.9926757216453552,0.9928567991213093,-0.4482269287109375,0.0934600830078125,0.2765655517578125,0.5349118349378431
1785250189.7684,0.01513671875,-0.01220703125,0.9868163466453552,0.9870079198633317,-0.568389892578125,0.091552734375,0.3986358642578125,0.7002567567893114
1785250189.776458,0.00537109375,0.00146484375,0.9936522841453552,0.9936678802308974,-0.5054473876953125,0.1544952392578125,0.5817413330078125,0.7859827092316032
1785250189.784516,-0.0073242150247097015,-0.012695316225290298,0.9892577528953552,0.989366320855605,-0.3223419189453125,0.3376007080078125,0.9479522705078125,1.0566418777985471
1785250189.792574,-0.00927734375,-0.013671875,0.9916991591453552,0.9918367867359407,-0.324249267578125,0.274658203125,1.0089874267578125,1.0948197766866272
1785250189.800632,-0.0053710900247097015,-0.013183597475290298,0.9824218153953552,0.98252495093771,0.0400543212890625,0.5207061767578125,1.4362335205078125,1.52823623716948
1785250189.81019,0.01123046875,-0.01953125,0.9965819716453552,0.9968366061514048,0.102996826171875,0.762939453125,1.3141632080078125,1.5230593857816375
1785250189.819748,0.011230472475290298,-0.0185546912252903,0.9960936903953552,0.9963297848222354,0.1659393310546875,1.4362335205078125,0.9479522705078125,1.7288481987097823
1785250189.829306,0.014160163700580597,-0.0107421875,0.9931640028953552,0.993323029772006,0.713348388671875,2.166748046875,1.3141632080078125,2.6326199800842454
1785250189.838864,0.0126953125,-0.005859375,0.9916991591453552,0.991797724077076,1.0166168212890625,3.3893585205078125,1.2531280517578125,3.7538767768760226
1785250189.848422,0.0009765625,-0.02783203125,0.9897460341453552,0.9901377620029831,1.3256072998046875,5.0983428955078125,1.6803741455078125,5.529375395319219
1785250189.858001,0.0068359412252902985,-0.009277347475290298,0.9970702528953552,0.9971368454116117,1.628875732421875,7.171630859375,2.7179718017578125,7.840465295501493
1785250189.86758,-0.0073242150247097015,-0.014160159975290298,0.9912108778953552,0.9913390735335387,1.6880035400390625,9.431838989257812,3.8166046142578125,10.31384571593168
1785250189.877159,-0.00048827752470970154,-0.010253902524709702,0.9863280653953552,0.9863814847808486,1.6307830810546875,10.957717895507812,4.4269561767578125,11.930170825512958
1785250189.886738,0.008300784975290298,-0.0185546912252903,0.9975585341453552,0.9977656080682986,1.6880035400390625,12.117385864257812,5.2814483642578125,13.325692963550562
1785250189.896317,0.00146484375,-0.02001953125,0.9965819716453552,0.996784105815911,1.8138885498046875,12.910842895507812,6.1359405517578125,14.409365787511367
1785250189.905957,0.0190429724752903,-0.0224609412252903,0.9819335341453552,0.9823749763509899,1.079559326171875,12.664794921875,6.4411163330078125,14.249577480305003
1785250189.9156,0.0205078125,-0.0146484375,0.9775390028953552,0.9778638193922362,0.652313232421875,11.566162109375,6.1359405517578125,13.109209928452614
1785250189.925243,0.008300784975290298,-0.0190429724752903,0.9804686903953552,0.9806887328186674,-0.202178955078125,11.016845703125,5.6476593017578125,12.381753557758763
1785250189.934886,0.02001953125,-0.0048828125,0.9760741591453552,0.9762916509121095,-0.507354736328125,10.349273681640625,4.7321319580078125,11.391134598185237
1785250189.944529,0.029296875,-0.01513671875,0.9819335341453552,0.9824870953953898,-1.2416839599609375,9.004592895507812,3.8166046142578125,9.858546700798657
1785250189.954094,0.0048828125,-0.02490234375,0.9843749403953552,0.9847019812412853,-1.7871856689453125,6.5021514892578125,0.8869171142578125,6.801369610020066
1785250189.963661,0.00146484375,-0.017578125,0.9936522841453552,0.9938088337467168,-1.728057861328125,5.157470703125,-0.3337860107421875,5.449504668009543
1785250189.973228,-0.015136711299419403,-0.005859375,0.9848632216453552,0.9849969632714716,-1.667022705078125,3.692626953125,-1.3713836669921875,4.277283212073307
1785250189.982795,-0.0166015587747097,-0.0048828087747097015,0.9916991591453552,0.9918501277032156,-1.4247894287109375,2.4127960205078125,-2.0427703857421875,3.4676390241214645
1785250189.992362,-0.0322265587747097,-0.014648433774709702,0.9858397841453552,0.9864751429743541,-1.4247894287109375,1.6193389892578125,-2.2258758544921875,3.0994849568772356
1785250190.000351,-0.0366210900247097,-0.008300784975290298,0.9956054091453552,0.9963132730147151,-1.056671142578125,1.190185546875,-2.1648406982421875,2.6869370644496358
1785250190.008341,-0.0502929650247097,-0.0034179724752902985,0.9975585341453552,0.9988313641015927,-0.8754730224609375,0.8258819580078125,-1.7986297607421875,2.1641633574772507
1785250190.016331,-0.0483398362994194,-0.00244140625,0.9907225966453552,0.9919042109708212,-0.2651214599609375,0.3376007080078125,-1.2493133544921875,1.321002454309498
1785250190.024321,-0.0600585900247097,-0.0273437537252903,0.9965819716453552,0.9987644073113985,0.0400543212890625,0.5817413330078125,-0.2117156982421875,0.620363493498619
1785250190.035003,-0.0488281175494194,-0.0224609375,0.9848632216453552,0.9863286694233656,0.1010894775390625,0.3376007080078125,0.9479522705078125,1.0113391259500513
1785250190.045685,-0.0546874925494194,-0.02587890625,0.9858397841453552,0.9876945477392287,-0.202178955078125,0.522613525390625,1.6803741455078125,1.7713436977867427
1785250190.056367,-0.0346679650247097,-0.014648433774709702,0.9887694716453552,0.989485478654862,0.164031982421875,0.396728515625,2.7790069580078125,2.811970782035813
1785250190.067073,-0.0405273362994194,0.0087890625,0.9887694716453552,0.9896387121899537,0.7114410400390625,0.5207061767578125,4.1217803955078125,4.21501564703598
1785250190.07778,-0.0488281175494194,-0.015625,0.9775390028953552,0.9788824382274233,0.469207763671875,0.396728515625,4.4269561767578125,4.469394861895078
1785250190.088487,-0.0317382775247097,-0.0175781287252903,0.9975585341453552,0.9982180813409203,0.469207763671875,-0.030517578125,4.5490264892578125,4.573262429386032
1785250190.099106,-0.014648433774709702,-0.0039062537252902985,0.9990233778953552,0.9991384013296977,0.3452301025390625,-0.2117156982421875,4.2438507080078125,4.263129858735214
1785250190.109725,-0.015624996274709702,-0.0278320349752903,0.9877929091453552,0.988308450857977,0.041961669921875,-0.762939453125,3.4503936767578125,3.5339855567740512
1785250190.120344,-0.01416015625,-0.00830078125,0.9858397841453552,0.9859764160456097,0.286102294921875,-0.579833984375,3.0231475830078125,3.091517957450956
1785250190.128384,-0.017578125,-0.00634765625,0.9760741591453552,0.9762530652293472,0.102996826171875,-1.125335693359375,2.1076202392578125,2.391453917991995
1785250190.136425,-0.0014648400247097015,-0.007812503725290298,0.9912108778953552,0.9912427479829734,0.164031982421875,-1.739501953125,1.4362335205078125,2.2617560128389633
1785250190.144466,-0.0214843712747097,-0.0258789025247097,0.9882811903953552,0.9888533799781509,0.1010894775390625,-1.9817352294921875,1.3751983642578125,2.414262650031462
1785250190.152507,-0.008789058774709702,-3.725290298461914e-09,0.9873046278953552,0.987343747545773,0.286102294921875,-2.101898193359375,0.6427764892578125,2.2165270477820855
1785250190.163131,-0.014648433774709702,-0.0039062537252902985,0.9926757216453552,0.9927914805105578,0.1659393310546875,-1.4934539794921875,0.3986358642578125,1.5546225274080205
1785250190.173755,-0.0185546837747097,-0.013671878725290298,0.9916991591453552,0.9919669444126972,-0.080108642578125,-1.251220703125,0.0934600830078125,1.2572610825362234
1785250190.184379,-0.0209960900247097,-0.0068359412252902985,0.9921874403953552,0.9924331124902313,-0.1430511474609375,-1.0051727294921875,-0.3948211669921875,1.0893666053307023
1785250190.192374,-0.015136715024709702,-0.013183597475290298,0.9873046278953552,0.9875086610494692,-0.324249267578125,-0.885009765625,-0.5779266357421875,1.1056125311685152
1785250190.200372,-0.0166015587747097,-0.0048828087747097015,0.9804686903953552,0.9806213879071083,0.102996826171875,-0.579833984375,-0.5168914794921875,0.7835767972632227
1785250190.20837,-0.0253906212747097,-0.0048828087747097015,0.9941405653953552,0.9944767414247769,-0.0820159912109375,-0.6389617919921875,-0.5779266357421875,0.8654467001153007
1785250190.216368,-0.0209960900247097,-0.0048828087747097015,0.9931640028953552,0.9933979133584795,-0.019073486328125,-0.518798828125,-0.8220672607421875,0.9722708486469941
1785250190.227051,-0.0234375,-0.01806640625,0.9956054091453552,0.9960451004650995,-0.080108642578125,-0.762939453125,-0.6999969482421875,1.0385036019671572
1785250190.237734,-0.02880859375,-0.0244140625,1.00537109375,1.0060800254799207,0.286102294921875,-0.274658203125,-0.5779266357421875,0.7009214278388843
1785250190.248417,-0.0253906212747097,-0.0185546912252903,0.9931640028953552,0.9936617617994097,0.5283355712890625,-0.4558563232421875,-0.4558563232421875,0.8335157171698153
1785250190.259072,-0.0288085900247097,-0.014160159975290298,0.9829100966453552,0.9834341376407061,0.8373260498046875,-0.6389617919921875,-0.4558563232421875,1.1476898852683486
1785250190.269725,-0.01318359375,-0.01611328125,1.0048828125,1.005098458776411,0.8945465087890625,-1.0051727294921875,-0.0896453857421875,1.348562926854487
1785250190.280378,-0.0341796800494194,-0.021484375,0.9809569716453552,0.9817873543273246,0.957489013671875,-0.579833984375,-0.6389617919921875,1.288900629359919
1785250190.288359,-0.0214843712747097,-0.015136715024709702,0.9838866591453552,0.984237601595782,0.7114410400390625,-0.6999969482421875,-0.5779266357421875,1.1533183763820474
1785250190.296341,-0.0214843712747097,-0.012695316225290298,0.9794921278953552,0.9798099702861267,0.957489013671875,-0.331878662109375,-1.0662078857421875,1.4709615607773965
1785250190.304323,-0.02685546875,-0.01611328125,0.9863280653953552,0.9868251651741397,0.713348388671875,-0.274658203125,-0.9441375732421875,1.2147834413475767
1785250190.312305,-0.0063476525247097015,-0.008300784975290298,0.9960936903953552,0.9961485008618034,0.3452301025390625,-0.3948211669921875,-1.1882781982421875,1.298873609718014
1785250190.322998,-0.0307617150247097,-0.0175781287252903,0.9926757216453552,0.9933077881829333,0.5283355712890625,-0.3337860107421875,-1.4324188232421875,1.5628100530886846
1785250190.333691,-0.0161132775247097,-0.0224609412252903,0.9799804091453552,0.9803702024755812,0.7114410400390625,-0.6389617919921875,-1.5544891357421875,1.8250635600488612
1785250190.344384,-0.015136711299419403,-0.01123046875,0.9916991591453552,0.9918782514537312,0.469207763671875,-0.762939453125,-1.5544891357421875,1.7940649396733468
1785250190.355031,-0.0263671837747097,-0.0175781287252903,0.9892577528953552,0.98976518460353,0.774383544921875,-0.762939453125,-1.9207000732421875,2.206996886072336
1785250190.365676,-0.0273437462747097,-0.008300784975290298,0.9838866591453552,0.9843015501032953,0.5283355712890625,-0.6389617919921875,-2.1038055419921875,2.26128468044876
1785250190.376321,-0.01708984375,-0.01708984375,0.9824218153953552,0.9827190589804923,0.225067138671875,-0.946044921875,-1.7375946044921875,1.991203460391675
1785250190.384334,-0.011718746274709702,-0.0190429724752903,0.9877929091453552,0.9880459479056577,0.5893707275390625,-1.3103485107421875,-1.7986297607421875,2.302051278818891
1785250190.392348,-0.0200195275247097,-0.014648433774709702,0.9921874403953552,0.9924974936858285,0.286102294921875,-1.373291015625,-2.4089813232421875,2.787646633360403
1785250190.400362,-0.0161132775247097,-0.0029296912252902985,0.9926757216453552,0.9928108123642644,0.713348388671875,-1.251220703125,-1.6765594482421875,2.2102648608344495
1785250190.408376,-0.0209960900247097,-0.014160159975290298,0.9936522841453552,0.9939749532629749,0.5283355712890625,-1.1882781982421875,-1.6765594482421875,2.121790549464576
1785250190.419038,-0.0170898400247097,-0.013671878725290298,1.00048828125,1.0007276271886014,0.5893707275390625,-1.4934539794921875,-1.1272430419921875,1.9617439993691266
1785250190.4297,-0.0166015625,-0.00634765625,0.9877929091453552,0.9879528004794326,0.591278076171875,-1.861572265625,-1.3103485107421875,2.3520361993621566
1785250190.440362,-0.015136715024709702,-0.014648433774709702,0.9907225966453552,0.9909464971720252,0.835418701171875,-2.044677734375,-0.8220672607421875,2.3567829821391593
1785250190.45126,-0.011230465024709702,-0.015136715024709702,0.9858397841453552,0.9860199407162976,0.225067138671875,-2.227783203125,-1.1272430419921875,2.5068606049710125
1785250190.462159,-0.01904296875,-0.0224609375,0.9960936903953552,0.9965288598016768,0.408172607421875,-1.922607421875,-1.0662078857421875,2.2360284952829272
1785250190.473058,-0.0019531212747097015,-0.009277347475290298,0.9951171278953552,0.9951622893224963,0.469207763671875,-2.044677734375,-0.8220672607421875,2.253143924413842
1785250190.480889,-0.0205078087747097,-0.0073242224752902985,0.9985350966453552,0.9987725234947928,0.2841949462890625,-1.9817352294921875,-0.8220672607421875,2.164217149107469
1785250190.48872,-0.015136711299419403,-0.0224609375,0.9868163466453552,0.9871879839973877,0.1659393310546875,-1.6765594482421875,-0.6999969482421875,1.8243856973319543
1785250190.496551,-0.0058593712747097015,-0.0073242224752902985,0.9887694716453552,0.9888139584999988,0.102996826171875,-2.101898193359375,-0.9441375732421875,2.30650820910235
1785250190.504382,-0.0068359375,-0.01611328125,0.9858397841453552,0.9859951561128006,-0.1430511474609375,-1.8596649169921875,-0.7610321044921875,2.014444612877023
1785250190.51506,-0.011718746274709702,-0.010253902524709702,0.9882811903953552,0.988403856133968,-0.202178955078125,-1.373291015625,-0.6389617919921875,1.528095780734537
1785250190.525738,-0.01904296875,-0.01611328125,0.9692382216453552,0.9695591796222167,0.1010894775390625,-1.4934539794921875,-0.7610321044921875,1.6792241468600848
1785250190.536416,-0.0078125,-0.01708984375,0.9819335341453552,0.9821133149463136,-0.1430511474609375,-1.6765594482421875,-0.5168914794921875,1.7602533953529707
