timestamp,accel_x,accel_y,accel_z,accel_rms,gyro_x,gyro_y,gyro_z,gyro_rms
1782294092.610107,-0.012695308774709702,-0.0283203162252903,0.9965819716453552,0.9970651119082089,-0.60272216796875,-0.659942626953125,-0.3757476806640625,0.9695280306185912
1782294092.619703,-0.011230465024709702,-0.014648433774709702,0.9907225966453552,0.990894526910124,-0.6046295166015625,-0.4177093505859375,0.1087188720703125,0.742884746819455
1782294092.629299,-0.0009765587747097015,-0.0278320349752903,0.9887694716453552,0.9891615863425658,-0.6656646728515625,-0.2346038818359375,-0.0743865966796875,0.709705434543554
1782294092.638895,-0.009765617549419403,-0.03173828125,1.00830078125,1.008847437054873,-0.1773834228515625,-0.1125335693359375,-0.0095367431640625,0.21028464613518452
1782294092.648491,0.00146484375,-0.02294921875,0.9960936903953552,0.9963590981437792,-0.728607177734375,-0.354766845703125,-0.0743865966796875,0.8137943843636318
1782294092.658078,-0.0078124962747097015,-0.0332031287252903,0.9970702528953552,0.9976535330784922,-0.2994537353515625,-0.5397796630859375,0.4787445068359375,0.7811727895432334
1782294092.667665,-0.010253902524709702,-0.0375976599752903,0.9912108778953552,0.9919766786627016,-0.4825592041015625,-0.6008148193359375,0.2956390380859375,0.8253752319019435
1782294092.677252,-0.0004882737994194031,-0.021484375,0.9809569716453552,0.9811923343565573,0.125885009765625,-0.476837158203125,0.1087188720703125,0.5050153505302235
1782294092.686839,0.01171875,-0.04541015625,0.9833983778953552,0.9845160136023323,0.125885009765625,-0.476837158203125,0.5397796630859375,0.7311516913801758
1782294092.696426,-0.0087890625,-0.017578125,0.9833983778953552,0.9835947375547311,0.431060791015625,-0.293731689453125,0.2307891845703125,0.5703992975579766
1782294092.706027,-0.01416015625,-0.0361328125,0.9931640028953552,0.9939219420111972,0.1888275146484375,-0.6618499755859375,0.4787445068359375,0.8383898396909382
1782294092.715629,-0.011718746274709702,-0.0253906212747097,0.9980468153953552,0.9984385100664822,0.308990478515625,-0.354766845703125,0.5970001220703125,0.7600945838350829
1782294092.725231,-0.0024414025247097015,-0.0346679650247097,0.9931640028953552,0.9937718877551162,0.6160736083984375,-0.1125335693359375,0.2956390380859375,0.6925409273342161
1782294092.734833,-0.00439453125,-0.02685546875,0.9999999403953552,1.0003701359483916,0.6771087646484375,0.0133514404296875,0.5397796630859375,0.8660350020677275
1782294092.744435,-0.0024414025247097015,-0.0239257849752903,0.9833983778953552,0.9836924180251606,0.003814697265625,-0.171661376953125,0.4787445068359375,0.5086044465773537
1782294092.754035,0.00146484375,-0.02685546875,0.9980468153953552,0.9984091384246262,-0.057220458984375,-0.049591064453125,-0.1316070556640625,0.15183501473816963
1782294092.763632,0.0039062537252902985,-0.0356445275247097,0.9956054091453552,0.9962509331890818,-0.057220458984375,0.133514404296875,0.2307891845703125,0.2726974968637624
1782294092.773229,-0.0048828087747097015,-0.0180664099752903,0.9951171278953552,0.9952930901104591,0.3719329833984375,-0.3566741943359375,-0.0095367431640625,0.51540428259283
1782294092.782826,0.00146484375,-0.02294921875,0.9995116591453552,0.9997761595356973,0.0667572021484375,-0.5397796630859375,-0.1316070556640625,0.5595882645485153
1782294092.792423,-0.010253898799419403,-0.0361328125,0.9921874403953552,0.9928981012460621,-0.2384185791015625,-0.6008148193359375,-0.0743865966796875,0.6506575380029572
1782294092.802018,-0.0078125,-0.0419921875,0.9926757216453552,0.9935942166253847,-0.1163482666015625,-0.2918243408203125,-0.2574920654296875,0.4062025711337197
1782294092.811613,-0.005371086299419403,-0.02587890625,0.9921874403953552,0.9925394114265784,-0.5435943603515625,-0.1125335693359375,0.1087188720703125,0.5656663557060395
1782294092.821208,-0.01708984375,-0.03173828125,0.9882811903953552,0.9889383664037733,-0.1163482666015625,0.1316070556640625,-0.0095367431640625,0.17592124860837363
1782294092.830803,0.003906257450580597,-0.02587890625,0.9863280653953552,0.9866752399966823,0.0667572021484375,0.5588531494140625,0.2956390380859375,0.6357482264930687
1782294092.840398,-0.012207027524709702,-0.0302734337747097,0.9921874403953552,0.9927242362266508,0.247955322265625,0.804901123046875,0.0514984130859375,0.8438007740410887
1782294092.848393,-0.00830078125,-0.02587890625,0.9921874403953552,0.9925595889599491,0.1888275146484375,0.5588531494140625,0.0514984130859375,0.5921357609946322
1782294092.856388,0.0039062537252902985,-0.0234375037252903,0.9873046278953552,0.9875905040362757,0.0057220458984375,0.4367828369140625,0.2956390380859375,0.5274603580102857
1782294092.864383,-0.0058593712747097015,-0.0244140587747097,1.00048828125,1.0008032670890763,-0.1163482666015625,0.2536773681640625,0.1735687255859375,0.32865670350893506
1782294092.872378,-0.0224609375,-0.02197265625,0.9912108778953552,0.9917087756968476,0.247955322265625,0.377655029296875,0.5397796630859375,0.7038943441129796
1782294092.883146,-0.00439453125,-0.03076171875,0.9916991591453552,0.9921858785000751,-0.057220458984375,0.377655029296875,0.1087188720703125,0.39713636854844586
1782294092.893914,-0.0014648400247097015,-0.0268554724752903,0.9975585341453552,0.9979210345535356,0.0057220458984375,0.1316070556640625,0.1087188720703125,0.17080091350478324
1782294092.904682,-0.009765617549419403,-0.021484375,0.9926757216453552,0.9929562095074429,-0.41961669921875,0.316619873046875,0.2307891845703125,0.5740992649238352
1782294092.912616,0.0029296912252902985,-0.0332031287252903,0.9819335341453552,0.9824991075451475,-0.545501708984375,-0.049591064453125,0.1087188720703125,0.5584363717763275
1782294092.92055,-0.00390625,-0.0224609375,0.9907225966453552,0.9909848717342544,-0.3604888916015625,-0.2346038818359375,0.0514984130859375,0.4331781491384156
1782294092.928484,-0.010742183774709702,-0.0297851525247097,0.9887694716453552,0.9892763101788119,-0.2994537353515625,-0.2918243408203125,-0.2574920654296875,0.4910561569418105
1782294092.944403,-0.00390625,-0.029296875,1.0048828125,1.0053173790061218,-0.4825592041015625,0.1316070556640625,0.2956390380859375,0.5810217236937665
1782294092.952388,-0.0170898400247097,-0.0195312462747097,0.9926757216453552,0.9930149145693836,-0.2994537353515625,0.1316070556640625,0.0514984130859375,0.331126929238528
1782294092.960373,-0.013183590024709702,-0.0385742150247097,0.9956054091453552,0.996439615747087,-0.1163482666015625,-0.3566741943359375,-0.0095367431640625,0.37529235206243633
1782294092.968359,-0.013183590024709702,-0.0341796837747097,1.00048828125,1.0011587580136618,-0.0553131103515625,-0.4177093505859375,0.2307891845703125,0.4804209502699893
1782294092.976398,-0.012207027524709702,-0.0292968712747097,0.9848632216453552,0.9853744889823077,0.1888275146484375,-0.3566741943359375,0.1087188720703125,0.4179618455526018
1782294092.984438,-0.010742183774709702,-0.0351562462747097,0.9985350966453552,0.9992115368614028,-0.1773834228515625,-0.1125335693359375,0.4138946533203125,0.46415241782970834
1782294092.992478,-0.004882805049419403,-0.0205078125,0.9936522841453552,0.9938758845781336,0.003814697265625,0.011444091796875,0.1735687255859375,0.1739874180905336
1782294093.000518,-0.0019531212747097015,-0.0356445275247097,0.9931640028953552,0.9938053550229535,-0.0553131103515625,-0.1125335693359375,0.2956390380859375,0.32113203708852966
1782294093.011135,-0.0175781212747097,-0.0288085974752903,0.9980468153953552,0.9986172296515077,-0.1773834228515625,0.0705718994140625,-0.0095367431640625,0.19114450334660965
1782294093.021752,-0.0078125,-0.03173828125,0.9931640028953552,0.9937017109274188,-0.057220458984375,0.133514404296875,-0.0743865966796875,0.16319817047601493
1782294093.032369,-0.006347648799419403,-0.0361328125,0.9936522841453552,0.9943292888031221,-0.0553131103515625,-0.1125335693359375,0.1735687255859375,0.214124839534737
1782294093.043053,-0.00390625,-0.037109375,1.00244140625,1.0031356525746808,-0.1773834228515625,-0.1125335693359375,-0.2574920654296875,0.3323113700872556
1782294093.053738,0.00048828125,-0.0322265625,0.9887694716453552,0.9892946263914408,0.0667572021484375,-0.0514984130859375,-0.1316070556640625,0.15629788127041536
1782294093.064423,0.00634765625,-0.041015625,0.9936522841453552,0.9945186956620226,-0.1773834228515625,0.0705718994140625,-0.0743865966796875,0.2048868894171398
1782294093.07509,-0.00732421875,-0.02099609375,0.9868163466453552,0.9870668579886281,-0.240325927734375,-0.232696533203125,-0.0095367431640625,0.3346568056626346
1782294093.085759,0.00146484375,-0.02197265625,0.9907225966453552,0.990967308690659,-0.240325927734375,-0.232696533203125,-0.2574920654296875,0.4221449891511062
1782294093.096428,0.0009765625,-0.0263671875,1.0048828125,1.0052291525363193,0.06866455078125,0.011444091796875,-0.0743865966796875,0.10187813080653108
1782294093.104414,-0.0029296875,-0.03173828125,0.9912108778953552,0.9917232003052225,0.125885009765625,-0.537872314453125,-0.1316070556640625,0.5678680123403822
1782294093.112401,-0.00927734375,-0.02734375,0.9995116591453552,0.9999286507239499,-0.2994537353515625,-0.3566741943359375,0.1735687255859375,0.49700615994444197
1782294093.120388,-0.00732421875,-0.02685546875,0.9941405653953552,0.9945302027322632,-0.1163482666015625,-0.2346038818359375,0.1735687255859375,0.31416874926574934
1782294093.128375,-0.005371086299419403,-0.02099609375,0.9926757216453552,0.9929122684632924,-0.41961669921875,-0.293731689453125,0.2956390380859375,0.5914041938408996
1782294093.139091,-0.010742180049419403,-0.0263671875,0.9921874403953552,0.9925958592937817,-0.179290771484375,-0.476837158203125,0.6618499755859375,0.8352031168319479
1782294093.149807,-0.024414055049419403,-0.0400390625,0.9936522841453552,0.9947582793810347,-0.1163482666015625,-0.7801055908203125,0.7190704345703125,1.0673162332895696
1782294093.160523,-0.009765617549419403,-0.0302734375,0.9887694716453552,0.9892810098056177,-0.057220458984375,-0.354766845703125,0.9021759033203125,0.9711102183935402
1782294093.168485,-0.0078125,-0.02734375,1.00146484375,1.0018685288437423,0.125885009765625,-0.659942626953125,0.4787445068359375,0.8249652170722521
1782294093.17645,-0.00439453125,-0.03466796875,0.9853515028953552,0.9859709753437438,0.003814697265625,-0.476837158203125,0.9670257568359375,1.0782054728773074
1782294093.184415,-0.0058593712747097015,-0.0249023400247097,1.00146484375,1.001791541208875,-0.3604888916015625,-0.2346038818359375,0.9021759033203125,0.9994561435462966
1782294093.19238,-0.0063476525247097015,-0.0332031287252903,0.9965819716453552,0.9971551367055511,0.0057220458984375,-0.2918243408203125,0.9021759033203125,0.9482170364617457
1782294093.203062,-0.0048828087747097015,-0.0385742150247097,0.9902343153953552,0.9909973820716232,-0.1163482666015625,-0.4177093505859375,1.0852813720703125,1.1686974275966102
1782294093.213744,0.0043945349752902985,-0.0302734337747097,0.9956054091453552,0.9960752599325269,0.0057220458984375,0.0705718994140625,0.9021759033203125,0.9049499960373469
1782294093.224426,-0.0014648400247097015,-0.0312500037252903,0.9999999403953552,1.000489174993834,0.0057220458984375,-0.2918243408203125,0.9670257568359375,1.0101153409826975
1782294093.232456,-0.00390625,-0.02978515625,0.9863280653953552,0.9867854209038779,-0.667572021484375,-0.171661376953125,0.5397796630859375,0.8754896440777274
1782294093.240485,0.00146484375,-0.029296875,0.9951171278953552,0.9955493713938441,-0.4215240478515625,-0.0514984130859375,0.3566741943359375,0.5545728900448762
1782294093.248514,0.00146484375,-0.041015625,0.9829100966453552,0.9837665807236664,-0.362396240234375,-0.171661376953125,0.0514984130859375,0.4042904275688748
1782294093.256543,-0.014648430049419403,-0.0322265625,0.9907225966453552,0.9913548261531763,-0.545501708984375,-0.171661376953125,0.3566741943359375,0.6739853290298734
1782294093.267181,-0.00439453125,-0.0234375,1.00732421875,1.007606426136443,-0.4825592041015625,-0.1125335693359375,-0.0743865966796875,0.5010594330578022
1782294093.277819,0.0029296875,-0.02099609375,0.9892577528953552,0.9894848764307488,-0.484466552734375,0.011444091796875,-0.1316070556640625,0.5021545828287818
1782294093.288457,-0.01416015625,-0.03662109375,0.9921874403953552,0.9929640131499012,-0.362396240234375,0.377655029296875,-0.2574920654296875,0.5833151119664918
1782294093.299116,-0.0087890625,-0.0400390625,0.9877929091453552,0.9886431133140775,-0.41961669921875,0.133514404296875,-0.3757476806640625,0.5788700976405765
1782294093.309774,-0.00390625,-0.02978515625,0.9902343153953552,0.9906898675712835,-0.1773834228515625,-0.0514984130859375,-0.1926422119140625,0.2668857191084766
1782294093.320432,-0.00927734375,-0.01953125,0.9931640028953552,0.9933993534730851,-0.728607177734375,0.255584716796875,-0.1316070556640625,0.7832703134976797
1782294093.331103,-0.013671875,-0.03271484375,0.9809569716453552,0.9815975557157978,-0.6046295166015625,-0.2346038818359375,-0.0095367431640625,0.6486191356940582
1782294093.341773,-0.011230465024709702,-0.0419921912252903,0.9956054091453552,0.9965538611575707,-0.240325927734375,-0.415802001953125,0.1087188720703125,0.4924100420522063
1782294093.352443,-0.00439453125,-0.02880859375,1.00244140625,1.0028649061280575,-0.545501708984375,-0.537872314453125,0.2307891845703125,0.8000889880973646
1782294093.36043,-0.011718746274709702,-0.0297851525247097,1.0048828125,1.0053924364063425,-0.484466552734375,-0.476837158203125,0.2956390380859375,0.7412718509439971
1782294093.36842,-0.00390625,-0.02783203125,0.9951171278953552,0.9955139270664496,-0.2994537353515625,-0.5397796630859375,0.2307891845703125,0.6590131045827553
1782294093.37641,-0.010742183774709702,-0.0302734337747097,0.9985350966453552,0.9990516575919937,-0.5435943603515625,-0.9059906005859375,0.6618499755859375,1.2467394223089274
1782294093.3844,-0.0214843712747097,-0.0332031287252903,0.9809569716453552,0.9817538419511502,0.0057220458984375,-1.0280609130859375,0.7190704345703125,1.2545932698279125
1782294093.395189,-0.01171875,-0.03125,0.9985350966453552,0.99909270382388,-0.2994537353515625,-0.9632110595703125,0.9021759033203125,1.3532809927825002
1782294093.405978,-0.0073242150247097015,-0.0234375037252903,0.9912108778953552,0.9915149848412186,-0.240325927734375,-0.843048095703125,0.9670257568359375,1.3052300401056403
1782294093.416767,-0.0014648400247097015,-0.0332031287252903,1.00146484375,1.0020161808976231,-0.4825592041015625,-0.6008148193359375,1.2111663818359375,1.4355367766401406
1782294093.427305,-0.0195312462747097,-0.0292968712747097,0.9965819716453552,0.9972037918379942,-0.728607177734375,-0.049591064453125,1.0280609130859375,1.2610459682877293
1782294093.437843,-0.00927734375,-0.025390625,0.9809569716453552,0.9813293703770272,-0.545501708984375,-0.171661376953125,0.8449554443359375,1.020288903083464
1782294093.448381,-0.0078124962747097015,-0.0180664099752903,0.9868163466453552,0.987012630250456,-0.8487701416015625,-0.2346038818359375,0.8449554443359375,1.2204095368194108
1782294093.459059,-0.0078125,-0.0322265625,0.9926757216453552,0.993229417018517,-1.155853271484375,-0.476837158203125,0.7839202880859375,1.475771485941202
1782294093.469739,0.00048828125,-0.03076171875,0.9863280653953552,0.9868077697026799,-1.57928466796875,-0.843048095703125,0.4787445068359375,1.8531234327414392
1782294093.480419,0.0048828125,-0.04736328125,1.00244140625,1.003571569562009,-1.5811920166015625,-0.5397796630859375,0.5397796630859375,1.7558167224191858
1782294093.488422,-0.0166015587747097,-0.0356445275247097,0.9951171278953552,0.995893690273671,-1.6422271728515625,-1.0280609130859375,0.6618499755859375,2.0474043856674315
1782294093.496427,-0.010742183774709702,-0.0341796837747097,0.9931640028953552,0.9938100331262076,-1.827239990234375,-1.331329345703125,0.3566741943359375,2.288768290925759
1782294093.504432,-0.01318359375,-0.03515625,1.0009765625,1.0016805118063064,-1.888275146484375,-1.209259033203125,0.9021759033203125,2.4169840294767706
1782294093.512437,-0.0234375,-0.041015625,0.9946288466453552,0.9957500391561429,-1.3370513916015625,-1.2111663818359375,0.5970001220703125,1.9002735524195453
1782294093.523144,-0.010742183774709702,-0.0297851525247097,0.9858397841453552,0.9863481281104205,-1.4591217041015625,-1.3332366943359375,1.1501312255859375,2.286778971954193
1782294093.533849,-0.0185546875,-0.0419921875,1.00537109375,1.006418728158081,-1.57928466796875,-1.453399658203125,1.2722015380859375,2.4949964694272317
1782294093.544555,-0.01318359375,-0.03955078125,0.9985350966453552,0.9994050283414624,-1.3370513916015625,-1.8825531005859375,1.3904571533203125,2.6953819201606715
1782294093.552524,-0.01904296875,-0.0400390625,0.9882811903953552,0.9892752258466563,-0.8487701416015625,-2.0656585693359375,1.9435882568359375,2.960555925912545
1782294093.560493,-0.012207027524709702,-0.0400390587747097,0.9951171278953552,0.9959971064110851,-0.728607177734375,-2.002716064453125,2.3097991943359375,3.1427555381256767
1782294093.568462,-0.00830078125,-0.03515625,0.9887694716453552,0.98942909444854,-1.033782958984375,-2.002716064453125,2.6760101318359375,3.498658180902172
1782294093.576431,-0.00439453125,-0.0341796875,0.9951171278953552,0.995713644163424,-0.90789794921875,-2.490997314453125,2.3097991943359375,3.516321746507739
1782294093.586024,0.008300784975290298,-0.0283203162252903,1.00146484375,1.0018995840948923,-0.2994537353515625,-2.0656585693359375,2.2487640380859375,3.0681521415463684
1782294093.595617,0.0039062537252902985,-0.0302734337747097,0.9858397841453552,0.9863122323151217,-0.362396240234375,-2.674102783203125,2.4318695068359375,3.632650000805084
1782294093.60521,0.0014648474752902985,-0.0488281212747097,0.9892577528953552,0.9904631405907598,-0.240325927734375,-2.490997314453125,2.3670196533203125,3.444648924253193
1782294093.614803,0.00537109375,-0.037109375,0.9926757216453552,0.9933836331977132,-0.2994537353515625,-2.1877288818359375,2.1877288818359375,3.1083738289424336
1782294093.624396,0.012207034975290298,-0.0234375037252903,0.9936522841453552,0.9940036167293571,0.0057220458984375,-2.2449493408203125,1.6384124755859375,2.779249129677737
1782294093.632483,0.0,-0.0322265625,0.9848632216453552,0.9853903372167978,-0.179290771484375,-1.941680908203125,1.3332366943359375,2.3621579145230305
1782294093.64057,0.009765625,-0.0302734375,0.9926757216453552,0.9931852479743313,-0.2384185791015625,-1.5773773193359375,1.2722015380859375,2.040455679480557
1782294093.648657,0.0068359375,-0.03271484375,0.9931640028953552,0.9937261834581074,-0.057220458984375,-1.453399658203125,1.0852813720703125,1.814794865530031
1782294093.656744,0.0107421875,-0.025390625,0.9833983778953552,0.9837847569856892,-0.057220458984375,-1.636505126953125,0.5970001220703125,1.7429378523694452
1782294093.66729,0.001953125,-0.03466796875,0.9951171278953552,0.9957227430290108,-0.057220458984375,-1.636505126953125,1.0852813720703125,1.9644996482649384
1782294093.677836,0.014160159975290298,-0.0273437537252903,0.9941405653953552,0.9946173408718106,-0.2994537353515625,-1.5163421630859375,1.0280609130859375,1.8563069078639003
1782294093.688382,0.01123046875,-0.0361328125,0.9902343153953552,0.9909569632199032,-0.179290771484375,-1.270294189453125,0.9670257568359375,1.6065277224131402
1782294093.696392,0.01513671875,-0.04833984375,0.9960936903953552,0.997380820345834,-0.1163482666015625,-0.2918243408203125,0.8449554443359375,0.9014699484449494
1782294093.704404,0.007812503725290298,-0.0288085974752903,0.9858397841453552,0.9862915646535316,0.308990478515625,0.133514404296875,0.6618499755859375,0.7425271726685633
1782294093.712416,0.00732421875,-0.025390625,0.9912108778953552,0.9915630753896947,0.3719329833984375,0.4367828369140625,-0.0095367431640625,0.5737633137736642
1782294093.720428,0.00732421875,-0.0400390625,0.9965819716453552,0.9974128517894284,0.1888275146484375,0.8029937744140625,0.0514984130859375,0.8265028243063771
1782294093.731083,0.003906257450580597,-0.03125,0.9956054091453552,0.9961033842261356,0.1277923583984375,0.5588531494140625,-0.0743865966796875,0.5780839863208785
1782294093.741738,-0.0161132775247097,-0.0278320349752903,0.9951171278953552,0.9956366596877371,0.308990478515625,0.499725341796875,0.1735687255859375,0.6126390744548089
1782294093.752393,0.0,-0.04296875,0.9912108778953552,0.9921417831815387,0.1277923583984375,0.5588531494140625,-0.2574920654296875,0.6284503904321308
1782294093.763204,-0.0004882737994194031,-0.03662109375,0.9897460341453552,0.9904234220903745,0.06866455078125,0.682830810546875,-0.1926422119140625,0.7127999426046804
1782294093.774014,-0.0004882737994194031,-0.03662109375,0.9892577528953552,0.9899354749590082,-0.057220458984375,0.926971435546875,-0.4367828369140625,1.0263184056952859
1782294093.784824,-0.00048827752470970154,-0.0341796837747097,0.9960936903953552,0.9966800535996083,0.06866455078125,0.682830810546875,-0.6809234619140625,0.9667623789489974
1782294093.79273,-0.0053710900247097015,-0.0200195275247097,0.9892577528953552,0.9894748767674366,0.125885009765625,0.804901123046875,-0.6198883056640625,1.0237061907915153
1782294093.800635,-0.0058593712747097015,-0.0278320349752903,0.9882811903953552,0.9886903790832907,0.0667572021484375,0.4367828369140625,-0.8029937744140625,0.9165341086992487
1782294093.80854,-0.00341796875,-0.04150390625,1.00146484375,1.0023303297873394,-0.057220458984375,0.865936279296875,-0.7457733154296875,1.1442454538847364
1782294093.816445,0.0068359375,-0.04052734375,0.9941405653953552,0.9949897785392225,0.431060791015625,0.988006591796875,-0.9250640869140625,1.4204625992553417
1782294093.824456,-0.0019531212747097015,-0.0283203162252903,0.9892577528953552,0.9896649719260462,0.247955322265625,0.438690185546875,-0.6198883056640625,0.7988694713368785
1782294093.832467,-0.0029296837747097015,-0.0327148474752903,0.9941405653953552,0.994683018884382,0.5550384521484375,0.8678436279296875,-0.8029937744140625,1.3061467175050578
1782294093.840478,0.00146484375,-0.03466796875,1.0029296875,1.0035297563566865,0.6160736083984375,0.5588531494140625,-0.9860992431640625,1.2900601733810035
1782294093.848489,-0.013671875,-0.0341796875,0.9965819716453552,0.9972616494241403,0.431060791015625,0.499725341796875,-0.4978179931640625,0.8266568678133113
1782294093.859136,0.00146484375,-0.03173828125,0.9873046278953552,0.9878157178985876,0.431060791015625,0.133514404296875,-0.8640289306640625,0.9747745866251587
1782294093.869783,-0.011230465024709702,-0.0297851525247097,1.00146484375,1.0019706143010398,0.3108978271484375,0.0705718994140625,-0.6198883056640625,0.697064820093218
1782294093.88043,0.00048828125,-0.02978515625,0.9936522841453552,0.9940987152887272,0.308990478515625,-0.293731689453125,-0.7457733154296875,0.8590292539892284
1782294093.891104,-0.012207027524709702,-0.0297851525247097,0.9824218153953552,0.9829490272626626,0.3719329833984375,0.1316070556640625,-0.3757476806640625,0.5448310570852659
1782294093.901778,0.005859375,-0.03759765625,0.9873046278953552,0.9880376229144666,0.4940032958984375,-0.4177093505859375,-0.3147125244140625,0.7194194402075306
1782294093.912452,-0.00341796875,-0.03125,0.9873046278953552,0.9878049773482425,0.5550384521484375,-0.4177093505859375,-0.4978179931640625,0.8546177737726695
1782294093.920539,0.0009765625,-0.03173828125,0.9941405653953552,0.9946475435729065,0.3108978271484375,-0.4177093505859375,-0.0095367431640625,0.5207969949632224
1782294093.928629,-0.0019531212747097015,-0.0317382849752903,0.9941405653953552,0.99464898189285,0.1888275146484375,-0.1125335693359375,-0.0095367431640625,0.22002405319866605
1782294093.936719,-0.00390625,-0.03759765625,0.9868163466453552,0.9875400470619111,-0.0553131103515625,-0.4177093505859375,-0.0743865966796875,0.42787148480504783
1782294093.944809,-0.00439453125,-0.0390625,0.9941405653953552,0.9949174109320601,0.0667572021484375,-0.1125335693359375,0.0514984130859375,0.14061441894963497
1782294093.955341,-0.0048828087747097015,-0.0292968712747097,0.9858397841453552,0.9862870923274712,-0.1773834228515625,-0.2346038818359375,-0.1926422119140625,0.35158908101101394
1782294093.965873,-0.0078125,-0.03662109375,0.9916991591453552,0.9924058453643353,-0.545501708984375,-0.537872314453125,-0.0743865966796875,0.7696831211125924
1782294093.976405,0.0019531287252902985,-0.0278320349752903,1.00537109375,1.005758158321748,-0.7877349853515625,-0.7801055908203125,-0.3757476806640625,1.170588509895923
1782294093.987055,-0.00927734375,-0.0361328125,0.9868163466453552,0.9875212155962533,-1.2760162353515625,-0.5397796630859375,-0.1316070556640625,1.3917255241830215
1782294093.997706,0.0039062537252902985,-0.0366210974752903,0.9946288466453552,0.9953104571828484,-1.6422271728515625,-0.3566741943359375,-0.0743865966796875,1.682159306939391
1782294094.008357,-0.00439453125,-0.02978515625,0.9829100966453552,0.983371102649008,-1.9474029541015625,-0.8449554443359375,-0.0095367431640625,2.1228327579031308
1782294094.019066,-0.004882805049419403,-0.037109375,0.9965819716453552,0.9972846001551336,-1.8253326416015625,-0.9059906005859375,0.2307891845703125,2.0508344322643004
1782294094.029775,-0.0068359337747097015,-0.0239257849752903,0.9999999403953552,1.0003094790953297,-2.315521240234375,-0.843048095703125,0.4138946533203125,2.4987351779835225
1782294094.040484,-0.012695308774709702,-0.0346679650247097,0.9916991591453552,0.992386145063223,-2.1915435791015625,-0.9059906005859375,0.4787445068359375,2.419272314204612
1782294094.048472,0.0009765625,-0.0283203125,0.9873046278953552,0.9877112037625168,-2.986907958984375,-1.148223876953125,0.9021759033203125,3.324749402222864
1782294094.056463,-0.001953125,-0.04638671875,0.9951171278953552,0.9961995987774528,-3.292083740234375,-1.148223876953125,1.0280609130859375,3.634988674719071
1782294094.064454,-0.011718746274709702,-0.0297851525247097,0.9907225966453552,0.991239500740808,-3.1070709228515625,-1.5163421630859375,1.2111663818359375,3.6633464591369673
1782294094.072445,-0.00830078125,-0.02294921875,0.9956054091453552,0.9959044634552482,-3.353118896484375,-1.392364501953125,1.2722015380859375,3.847152452628826
1782294094.083088,0.0029296875,-0.03564453125,0.9858397841453552,0.9864883150248869,-3.292083740234375,-1.270294189453125,1.4553070068359375,3.816985874301829
1782294094.093731,-0.0014648400247097015,-0.0415039099752903,1.00048828125,1.001349849562137,-3.2291412353515625,-1.5773773193359375,1.3332366943359375,3.833143932665073
1782294094.104374,0.0048828125,-0.03857421875,0.9951171278953552,0.9958764534021194,-2.986907958984375,-1.514434814453125,1.3332366943359375,3.6045321535250165
1782294094.112398,0.0073242224752902985,-0.0434570275247097,0.9995116591453552,1.0004827406025811,-2.803802490234375,-1.636505126953125,1.2722015380859375,3.486825804122794
1782294094.120424,0.0063476599752902985,-0.0434570275247097,0.9897460341453552,0.9907199493978629,-2.6187896728515625,-1.2111663818359375,1.3904571533203125,3.2028665988990515
1782294094.12845,0.0043945349752902985,-0.0478515662252903,1.0009765625,1.0021293145109462,-2.6187896728515625,-1.3332366943359375,1.3332366943359375,3.226933454052257
1782294094.136477,0.0034179724752902985,-0.0527343787252903,0.9975585341453552,0.9989572694973564,-2.620697021484375,-1.636505126953125,1.4553070068359375,3.4152774986970993
1782294094.147106,0.01513671875,-0.0546875,1.0009765625,1.0025836232380234,-2.25067138671875,-1.148223876953125,1.4553070068359375,2.915794616694657
1782294094.157736,0.008300784975290298,-0.0556640587747097,0.9882811903953552,0.9898823676375595,-2.06756591796875,-1.148223876953125,1.4553070068359375,2.7768985182928456
1782294094.168366,0.008789066225290298,-0.0405273400247097,0.9887694716453552,0.9896387123755951,-2.193450927734375,-0.965118408203125,1.3904571533203125,2.770568824167873
1782294094.17638,0.0068359412252902985,-0.0380859412252903,0.9824218153953552,0.9831835496875226,-2.4356842041015625,-0.7228851318359375,1.2111663818359375,2.814612666145891
1782294094.184394,0.01171875,-0.03173828125,0.9873046278953552,0.9878841409101841,-1.9474029541015625,-0.6008148193359375,1.5163421630859375,2.5402067373206667
1782294094.192408,0.009277347475290298,-0.0346679650247097,0.9936522841453552,0.9943001552662121,-2.1915435791015625,-0.6008148193359375,1.5735626220703125,2.764044325225585
1782294094.200422,0.0048828125,-0.04931640625,0.9868163466453552,0.9880599434193308,-2.0694732666015625,-1.0280609130859375,1.6384124755859375,2.8326708743426714
1782294094.211082,0.0034179724752902985,-0.0400390587747097,0.9975585341453552,0.9983675865179299,-1.522064208984375,-1.026153564453125,1.6994476318359375,2.5015580839676423
1782294094.221742,0.01220703125,-0.0458984375,0.9897460341453552,0.990884902641744,-1.27410888671875,-0.659942626953125,1.5735626220703125,2.129548555835786
1782294094.232402,0.0166015625,-0.0654296875,0.9936522841453552,0.995942527293152,-1.0929107666015625,-0.7801055908203125,1.3904571533203125,1.9329743329393567
1782294094.240418,0.0146484375,-0.04248046875,1.00048828125,1.0014968636321284,-0.850677490234375,-0.476837158203125,1.2111663818359375,1.554975843003435
1782294094.248433,0.01025390625,-0.0615234375,0.9960936903953552,0.9980445461003421,-0.4825592041015625,0.1964569091796875,1.2722015380859375,1.3747565079445139
1782294094.256448,0.01611328125,-0.04736328125,0.9819335341453552,0.9832071926723257,-0.545501708984375,-0.232696533203125,1.1501312255859375,1.2940330857970508
1782294094.264463,0.01171875,-0.04248046875,0.9990233778953552,0.999994814440669,-0.4825592041015625,-0.2346038818359375,1.2111663818359375,1.3246985964079452
1782294094.275111,0.0043945349752902985,-0.0346679650247097,0.9985350966453552,0.9991463951639682,-0.5435943603515625,0.7419586181640625,1.0852813720703125,1.4226148727736434
1782294094.285759,0.0,-0.0419921875,0.9951171278953552,0.9960027319449158,-0.6046295166015625,1.0471343994140625,1.0280609130859375,1.5871283954983542
1782294094.296407,0.0034179724752902985,-0.0463867224752903,0.9926757216453552,0.9937648106579183,-0.8487701416015625,1.2302398681640625,1.0280609130859375,1.8140590198529258
1782294094.304405,0.007812503725290298,-0.0454101525247097,0.9985350966453552,0.9995976472557966,-0.9708404541015625,1.5354156494140625,0.7190704345703125,1.9537386451772083
1782294094.312404,0.0009765625,-0.04248046875,0.9965819716453552,0.9974874285463851,-0.850677490234375,1.659393310546875,0.7190704345703125,1.9985746524341568
1782294094.320403,-0.00341796875,-0.0498046875,1.0078125,1.0090481775235505,-1.1539459228515625,1.3561248779296875,0.6618499755859375,1.899660829618977
1782294094.328402,-0.0009765587747097015,-0.0419921912252903,0.9755858778953552,0.9764896839904622,-0.8487701416015625,0.7419586181640625,0.7190704345703125,1.3371520609920922
1782294094.339104,0.01171875,-0.03662109375,1.00146484375,1.0022027074779936,-1.033782958984375,0.499725341796875,0.7839202880859375,1.3903106277351234
1782294094.349806,-0.0195312462747097,-0.0439453087747097,0.9838866591453552,0.9850612254010186,-1.09100341796875,0.316619873046875,0.5397796630859375,1.2577355392565173
1782294094.360508,0.0034179724752902985,-0.0351562462747097,1.00146484375,1.0020875597746843,-1.216888427734375,0.011444091796875,0.5397796630859375,1.3312815244988803
1782294094.371179,0.0029296912252902985,-0.0468750037252903,0.9960936903953552,0.9972003254664327,-0.545501708984375,0.011444091796875,0.5397796630859375,0.7675058087227075
1782294094.381851,-0.00439453125,-0.04150390625,1.00927734375,1.0101399124606312,-0.1163482666015625,0.1964569091796875,0.9021759033203125,0.930620006682344
1782294094.392523,-0.015136711299419403,-0.05615234375,0.9951171278953552,0.9968150801268412,-0.240325927734375,0.011444091796875,1.0280609130859375,1.0558393626842744
1782294094.400528,-0.0185546875,-0.04931640625,1.0029296875,1.0043128707840427,0.1888275146484375,0.0133514404296875,0.9670257568359375,0.9853795743945432
1782294094.408532,0.0048828125,-0.03466796875,1.00244140625,1.0030525823104384,-0.179290771484375,-0.293731689453125,1.0852813720703125,1.1385337687970742
1782294094.416536,-0.0073242150247097015,-0.0424804724752903,0.9897460341453552,0.9906843325570011,0.0057220458984375,-0.0514984130859375,1.5735626220703125,1.5744154959655443
1782294094.424541,0.00048828125,-0.048828125,0.9868163466453552,0.9880237477996572,0.431060791015625,-0.476837158203125,1.2722015380859375,1.4253714724598894
1782294094.435526,0.00146484375,-0.05078125,0.9975585341453552,0.9988512953212827,0.308990478515625,-0.293731689453125,1.2111663818359375,1.2840083433108438
1782294094.446512,0.001953125,-0.04541015625,0.9921874403953552,0.993227976783881,0.6160736083984375,-0.2346038818359375,1.0852813720703125,1.269811532826971
1782294094.457498,0.01025390625,-0.04638671875,0.9970702528953552,0.9982013621903063,0.5550384521484375,-0.0514984130859375,0.8449554443359375,1.0122595876684226
1782294094.4678,0.0029296875,-0.041015625,0.9887694716453552,0.9896241370443747,0.125885009765625,-0.171661376953125,0.4787445068359375,0.5239379417895972
1782294094.478101,-0.0014648400247097015,-0.0405273400247097,0.9829100966453552,0.9837463438982419,0.308990478515625,-0.476837158203125,0.9670257568359375,1.12160046613786
1782294094.488402,0.01171875,-0.044921875,0.9912108778953552,0.9922974898754702,0.3108978271484375,-0.4177093505859375,0.5397796630859375,0.7500004301156857
1782294094.496468,0.0034179724752902985,-0.0439453087747097,0.9809569716453552,0.981946766845725,0.1888275146484375,-0.3566741943359375,0.0514984130859375,0.40684689717861416
1782294094.504534,-0.00390625,-0.03564453125,0.9985350966453552,0.9991787280710311,0.3108978271484375,-0.2346038818359375,0.0514984130859375,0.392872150767244
1782294094.5126,0.00634765625,-0.03564453125,0.9887694716453552,0.9894321065165287,0.1888275146484375,-0.2918243408203125,-0.0743865966796875,0.35545835473245285
1782294094.520666,0.0058593787252902985,-0.0483398400247097,0.9873046278953552,0.9885046791574872,0.6771087646484375,-0.4177093505859375,-0.1316070556640625,0.8063980393274914
1782294094.53124,0.013183597475290298,-0.0444335900247097,0.9838866591453552,0.9849777201587266,0.125885009765625,-0.782012939453125,-0.1316070556640625,0.8029394063417066
1782294094.541814,0.00537109375,-0.03955078125,0.9858397841453552,0.9866474511948619,-0.1163482666015625,-0.4177093505859375,0.0514984130859375,0.43665788354097507
1782294094.552388,-0.00439453125,-0.05078125,0.9858397841453552,0.9871565870013888,0.0057220458984375,-0.1125335693359375,0.0514984130859375,0.12388959838146194
1782294094.56044,0.005859375,-0.05029296875,1.0009765625,1.0022563512671774,0.125885009765625,0.499725341796875,-0.0743865966796875,0.5206782295077081
1782294094.568492,0.0068359375,-0.04150390625,0.9941405653953552,0.9950300337377306,-0.2994537353515625,0.6847381591796875,-0.1926422119140625,0.7717835888796375
1782294094.576544,-0.0029296875,-0.06103515625,0.9794921278953552,0.9813963022022655,-0.240325927734375,0.743865966796875,-0.4367828369140625,0.8954732685696062
1782294094.584596,0.009765625,-0.04541015625,1.0009765625,1.0020536554479538,-0.60272216796875,1.171112060546875,-0.4367828369140625,1.3876443048353544
1782294094.595227,-0.00439453125,-0.04931640625,0.9921874403953552,0.9934220335328832,-0.728607177734375,0.804901123046875,-0.4978179931640625,1.1943856126251966
1782294094.605858,0.001953125,-0.0458984375,0.9926757216453552,0.9937381796058425,-1.033782958984375,0.926971435546875,-0.6198883056640625,1.5206067078983265
1782294094.616489,0.0043945349752902985,-0.0434570275247097,0.9956054091453552,0.9965630717111801,-1.1539459228515625,0.6198883056640625,-0.9250640869140625,1.6036197396087872
1782294094.62452,0.00048828125,-0.0478515625,0.9951171278953552,0.9962670870218343,-1.216888427734375,0.255584716796875,-1.1692047119140625,1.706804221747774
1782294094.632552,0.008789069950580597,-0.05078125,1.001953125,1.003277652397094,-1.7032623291015625,0.5588531494140625,-1.1081695556640625,2.1074769674772678
1782294094.640584,-0.008789058774709702,-0.0434570275247097,0.9990233778953552,1.000006735165756,-1.4591217041015625,0.3795623779296875,-1.2340545654296875,1.948331187600748
1782294094.648616,-0.0004882737994194031,-0.046875,0.9956054091453552,0.9967084000628235,-1.705169677734375,0.316619873046875,-1.2340545654296875,2.128554073621534
1782294094.659226,0.0048828125,-0.0517578125,0.9892577528953552,0.9906228417900846,-1.5811920166015625,0.3795623779296875,-1.1692047119140625,2.002816878914845
1782294094.669836,0.008300784975290298,-0.0517578162252903,0.9897460341453552,0.9911331831182304,-1.705169677734375,0.194549560546875,-1.4743804931640625,2.262576186561778
1782294094.680446,-0.0034179650247097015,-0.0483398400247097,0.9814452528953552,0.982640934955059,-1.5811920166015625,0.2536773681640625,-1.0509490966796875,1.9154671504087488
1782294094.688449,-0.0073242150247097015,-0.0375976599752903,0.9863280653953552,0.9870715681995352,-1.6422271728515625,0.0705718994140625,-0.9860992431640625,1.9168417247148188
1782294094.696453,0.0,-0.046875,0.9980468153953552,0.9991469918614629,-1.644134521484375,0.011444091796875,-1.1081695556640625,1.9827629853500885
1782294094.704457,-0.01416015625,-0.05419921875,1.00341796875,1.0049804402815563,-1.705169677734375,-0.171661376953125,-0.8029937744140625,1.8925829598593393
1782294094.723087,-0.0063476525247097015,-0.0468750037252903,0.9912108778953552,0.9923389356086464,-2.0694732666015625,-0.2346038818359375,-0.7457733154296875,2.2122243151538727
1782294094.733712,-0.00244140625,-0.04052734375,0.9814452528953552,0.9822846891236451,-2.6187896728515625,0.1964569091796875,-0.7457733154296875,2.7299876383979136
1782294094.744337,-0.0068359337747097015,-0.0473632849752903,0.9892577528953552,0.9904145154518842,-2.6187896728515625,-0.2918243408203125,-0.7457733154296875,2.738502991514925
1782294094.752393,0.0,-0.0390625,0.9980468153953552,0.9988109553999998,-2.55584716796875,0.011444091796875,-0.9250640869140625,2.7181297390207635
1782294094.760449,-0.00390625,-0.05517578125,0.9848632216453552,0.9864153237735505,-2.6187896728515625,-0.2918243408203125,-0.3147125244140625,2.6537265815362883
1782294094.768505,-0.0024414025247097015,-0.0498046837747097,1.00146484375,1.0027054902808692,-2.8018951416015625,-0.6008148193359375,-0.7457733154296875,2.9610424971065687
1782294094.776561,-0.0087890625,-0.044921875,0.9946288466453552,0.9956815580556939,-2.681732177734375,-0.354766845703125,-1.0509490966796875,2.90207529049781
1782294094.784518,-0.00341796875,-0.0458984375,0.9746093153953552,0.975695478482257,-2.9239654541015625,-0.6618499755859375,-1.1081695556640625,3.196194476414592
1782294094.792475,0.0,-0.06201171875,0.9946288466453552,0.9965600814007145,-2.5577545166015625,-1.0890960693359375,-1.1081695556640625,2.9927041583723852
1782294094.800432,-0.0014648400247097015,-0.0400390587747097,0.9980468153953552,0.9988506984052586,-2.6798248291015625,-0.9059906005859375,-1.3523101806640625,3.1354462055259305
1782294094.808389,0.005859375,-0.05517578125,0.9926757216453552,0.9942252196841846,-2.681732177734375,-0.965118408203125,-1.4743804931640625,3.2088843627608634
1782294094.819052,-0.00390625,-0.0537109375,1.0048828125,1.0063247937192552,-2.7408599853515625,-1.3332366943359375,-1.6574859619140625,3.469451434501911
1782294094.829715,0.005859375,-0.0517578125,0.9912108778953552,0.992578565096112,-2.5577545166015625,-1.3942718505859375,-1.3523101806640625,3.2116732376223607
1782294094.840378,-0.0004882737994194031,-0.05615234375,0.9916991591453552,0.993287746007936,-1.7642974853515625,-1.4514923095703125,-1.5392303466796875,2.7547786847039597
1782294094.851048,-0.0014648400247097015,-0.0600585900247097,0.9902343153953552,0.992055028402438,-1.27410888671875,-1.636505126953125,-1.2912750244140625,2.4431319396289455
1782294094.861717,0.0043945349752902985,-0.0732421875,0.9980468153953552,1.0007403138118522,-0.6656646728515625,-1.6994476318359375,-0.9860992431640625,2.07451763728441
1782294094.872387,0.0,-0.06689453125,0.9965819716453552,0.9988245614319368,-0.362396240234375,-1.636505126953125,-0.8029937744140625,1.8585690913247257
1782294094.88304,-0.012695308774709702,-0.0634765625,1.00390625,1.0059911548521507,-0.362396240234375,-1.514434814453125,-0.8029937744140625,1.7520396239558693
1782294094.893694,-0.00048827752470970154,-0.0771484375,0.9814452528953552,0.9844729068158556,-0.1163482666015625,-1.5163421630859375,-0.3147125244140625,1.55302107124031
1782294094.904348,0.00146484375,-0.07080078125,0.9877929091453552,0.9903280909631244,0.1888275146484375,-1.5773773193359375,-0.2574920654296875,1.6093716791353638
1782294094.912363,0.00634765625,-0.0703125,0.9960936903953552,0.9985923995512663,0.247955322265625,-0.904083251953125,0.0514984130859375,0.938882556474641
1782294094.920379,0.00537109375,-0.060546875,1.001953125,1.0037952168732438,0.4940032958984375,-0.9059906005859375,-0.3147125244140625,1.0788429903056602
1782294094.928395,0.00537109375,-0.07080078125,0.9912108778953552,0.9937507754622195,0.3719329833984375,-0.7228851318359375,-0.2574920654296875,0.8527597678879847
1782294094.936411,0.0224609412252903,-0.0576171912252903,0.9843749403953552,0.986315496118649,0.4329681396484375,-0.6008148193359375,-0.0743865966796875,0.7442937745607514
1782294094.947078,0.0068359412252902985,-0.0581054650247097,0.9956054091453552,0.9973229696932,0.1888275146484375,-0.6618499755859375,-0.1926422119140625,0.7147112999544323
1782294094.957745,0.009277351200580597,-0.05078125,0.9907225966453552,0.9920665643496794,0.06866455078125,-0.354766845703125,0.0514984130859375,0.3650019477954955
1782294094.968412,0.0068359412252902985,-0.0478515662252903,0.9887694716453552,0.9899502869035818,0.308990478515625,-0.171661376953125,-0.0743865966796875,0.36121476979263223
1782294094.979088,0.013671878725290298,-0.0454101525247097,0.9809569716453552,0.9821026333534711,-0.1773834228515625,0.2536773681640625,-0.0743865966796875,0.3183558568438282
1782294094.989764,0.008300784975290298,-0.0615234412252903,0.9985350966453552,1.0004630808200554,-0.362396240234375,0.377655029296875,-0.1316070556640625,0.5396987800521676
1782294095.00044,-0.0019531212747097015,-0.0341796837747097,0.9887694716453552,0.989361983059531,-0.7877349853515625,0.4367828369140625,-0.1316070556640625,0.9102890040366777
1782294095.008433,0.00146484375,-0.0546875,0.9897460341453552,0.991256818654944,-0.8487701416015625,0.0705718994140625,0.3566741943359375,0.9233675471698337
1782294095.016426,0.00732421875,-0.07177734375,1.01123046875,1.0138011107630767,-0.9098052978515625,0.0705718994140625,0.4138946533203125,1.0020153976026618
1782294095.024419,0.0039062537252902985,-0.0488281212747097,0.9936522841453552,0.9948589377558337,-0.8487701416015625,0.0705718994140625,0.6618499755859375,1.0786271535819738
1782294095.032413,0.009765625,-0.05078125,1.00244140625,1.003774315146428,-0.9098052978515625,0.4367828369140625,0.4787445068359375,1.117014426696026
1782294095.043107,0.008300784975290298,-0.0541992150247097,0.9965819716453552,0.9980892165277833,-0.484466552734375,0.499725341796875,0.4138946533203125,0.8097790081247316
1782294095.053802,0.01025390625,-0.060546875,0.9912108778953552,0.9931113085267583,-0.4215240478515625,0.4367828369140625,0.0514984130859375,0.6091911490576933
1782294095.064497,0.009277347475290298,-0.0693359375,1.00146484375,1.0039050625793224,-0.4825592041015625,0.4367828369140625,0.5397796630859375,0.8455795153425834
1782294095.07513,0.00634765625,-0.04296875,0.9887694716453552,0.9897230290713992,-0.545501708984375,0.499725341796875,0.7190704345703125,1.0316781579601342
1782294095.085764,-0.0029296875,-0.04736328125,0.9975585341453552,0.9986865837317752,-0.6046295166015625,0.6198883056640625,0.7190704345703125,1.1255668144175357
1782294095.096398,0.005859375,-0.0546875,0.9936522841453552,0.9951733098907558,-0.728607177734375,0.621795654296875,1.0280609130859375,1.4051361130380293
1782294095.104432,-0.0014648400247097015,-0.0551757775247097,0.9804686903953552,0.9820210613970238,-0.41961669921875,1.171112060546875,0.9670257568359375,1.575665080848625
1782294095.112467,-0.0029296875,-0.0517578125,0.9931640028953552,0.9945160586288981,-0.2994537353515625,1.2912750244140625,0.8449554443359375,1.5719457469023805
1782294095.120502,0.00341796875,-0.06103515625,0.9902343153953552,0.9921194344409073,-0.667572021484375,1.171112060546875,0.6618499755859375,1.5017327499958801
1782294095.128537,0.011230472475290298,-0.0537109337747097,0.9804686903953552,0.9820029739082018,-0.545501708984375,0.682830810546875,0.4787445068359375,0.9965070662883234
1782294095.136492,0.00537109375,-0.0537109375,0.9902343153953552,0.9917044483321168,-0.6046295166015625,0.4367828369140625,0.4138946533203125,0.8530327561211687
1782294095.144447,0.01025390625,-0.05419921875,0.9882811903953552,0.9898193821075412,-0.7877349853515625,0.1964569091796875,0.3566741943359375,0.8867571286527403
1782294095.152402,-0.0063476525247097015,-0.0585937462747097,1.00048828125,1.002222690181009,-0.6046295166015625,-0.1125335693359375,-0.1316070556640625,0.6289364623504421
1782294095.160357,0.01123046875,-0.06640625,0.9902343153953552,0.9925219961562137,-0.41961669921875,-0.293731689453125,0.0514984130859375,0.514789827213588
1782294095.171047,0.00244140625,-0.05078125,0.9868163466453552,0.9881250921935572,-0.240325927734375,-0.659942626953125,-0.0095367431640625,0.7024042795152639
1782294095.181737,-0.0048828087747097015,-0.06396484375,0.9877929091453552,0.989873817420855,-0.1773834228515625,-1.0890960693359375,0.3566741943359375,1.1596601260070623
1782294095.192427,-0.00048827752470970154,-0.0522460974752903,0.9902343153953552,0.9916117650082852,-0.1773834228515625,-0.4177093505859375,0.1735687255859375,0.4858724964133989
1782294095.200418,-0.0058593712747097015,-0.0576171912252903,0.9873046278953552,0.989001770079312,0.06866455078125,-0.843048095703125,0.4138946533203125,0.9416760038621553
1782294095.208409,-0.00927734375,-0.0712890625,0.9975585341453552,1.0001456036924896,0.2498626708984375,-0.6008148193359375,0.4138946533203125,0.7711799955194103
1782294095.2164,0.00048828125,-0.064453125,1.00341796875,1.0054859838661208,0.308990478515625,-0.659942626953125,0.7190704345703125,1.0237488347032413
1782294095.224391,-0.00244140625,-0.056640625,0.9931640028953552,0.9947808087774881,0.919342041015625,-0.537872314453125,0.7839202880859375,1.322508008711734
1782294095.235064,0.0078125,-0.06640625,0.9926757216453552,0.9949250793599683,0.7991790771484375,-0.7228851318359375,1.0852813720703125,1.5294069987233971
1782294095.245737,0.0063476599752902985,-0.0585937462747097,0.9980468153953552,0.999785459791488,0.7991790771484375,-0.7228851318359375,1.3904571533203125,1.759153548272838
1782294095.25641,-0.0053710900247097015,-0.0576171912252903,0.9916991591453552,0.9933860335148414,1.04522705078125,-0.293731689453125,0.9670257568359375,1.453931465873813
1782294095.264419,0.001953125,-0.056640625,0.9902343153953552,0.9918548152245691,1.407623291015625,-0.354766845703125,0.9670257568359375,1.7442481642828012
1782294095.27243,0.009765625,-0.05126953125,0.9921874403953552,0.9935591825072737,1.224517822265625,-0.476837158203125,1.0280609130859375,1.6684504228488397
1782294095.280441,0.00732421875,-0.0517578125,0.9921874403953552,0.9935635018524833,0.919342041015625,-0.476837158203125,1.1501312255859375,1.5476967725913942
1782294095.288452,0.01171875,-0.0556640625,0.9916991591453552,0.993329270285121,0.736236572265625,-0.537872314453125,0.7839202880859375,1.2024483086891251
1782294095.299077,0.015625,-0.05078125,0.9897460341453552,0.9911710690304782,0.797271728515625,-0.476837158203125,0.7190704345703125,1.1747672852129747
1782294095.309702,0.014160159975290298,-0.0600585900247097,0.9892577528953552,0.9911803297230276,0.8602142333984375,-0.0514984130859375,0.8449554443359375,1.2068845499071454
1782294095.320328,0.01171875,-0.046875,0.9907225966453552,0.9919001251286733,0.6771087646484375,0.1964569091796875,0.4787445068359375,0.8522135290839697
1782294095.331064,0.001953125,-0.06103515625,0.9824218153953552,0.9843179000508082,1.1653900146484375,-0.6618499755859375,0.8449554443359375,1.5843386567708095
1782294095.341802,0.011718753725290298,-0.0429687537252903,0.9951171278953552,0.9961133174575468,0.7991790771484375,-0.6008148193359375,0.7190704345703125,1.2315550878294652
1782294095.35254,-0.00048827752470970154,-0.0483398400247097,0.9868163466453552,0.9879997371229617,0.431060791015625,-0.171661376953125,0.5397796630859375,0.7117886754997071
1782294095.363159,0.01171875,-0.05078125,1.001953125,1.0033075944845582,0.247955322265625,0.011444091796875,0.4787445068359375,0.5392671989862634
1782294095.373779,-0.00048827752470970154,-0.0483398400247097,0.9980468153953552,0.9992169055161977,0.37384033203125,0.804901123046875,0.4787445068359375,1.0083742928897685
1782294095.384399,0.0043945349752902985,-0.0449218712747097,0.9858397841453552,0.9868725178361343,0.247955322265625,1.110076904296875,0.2956390380859375,1.1752255171385455
1782294095.392497,0.00537109375,-0.052734375,0.9916991591453552,0.9931147895406233,0.3108978271484375,1.2302398681640625,-0.1926422119140625,1.2834557312027135
1782294095.400594,0.00146484375,-0.04296875,0.9926757216453552,0.9936063343134952,-0.1163482666015625,0.8678436279296875,0.0514984130859375,0.8771211821805012
1782294095.408691,0.013671878725290298,-0.0532226525247097,0.9921874403953552,0.993707948991016,0.0057220458984375,0.5588531494140625,-0.4367828369140625,0.7093157484801651
1782294095.416788,0.01513671875,-0.06787109375,0.9965819716453552,0.9990051210228512,-0.1163482666015625,0.7419586181640625,-0.3757476806640625,0.8397772500690499
1782294095.427341,0.0048828125,-0.0498046875,0.9858397841453552,0.9871091270769627,-0.2994537353515625,0.3795623779296875,-0.4978179931640625,0.6939473270166383
1782294095.437894,0.0039062537252902985,-0.0468750037252903,0.9829100966453552,0.9840349500296185,-0.545501708984375,0.438690185546875,-0.6198883056640625,0.9350308577256087
1782294095.448447,0.00537109375,-0.05322265625,1.0009765625,1.0024048974644395,-0.2994537353515625,0.1964569091796875,-0.4367828369140625,0.5648425474440962
1782294095.459093,-0.00390625,-0.04296875,0.9975585341453552,0.9984911623604161,-0.240325927734375,0.255584716796875,-0.3757476806640625,0.5140684959477182
1782294095.469739,0.00146484375,-0.05517578125,0.9863280653953552,0.9878712290528072,-0.41961669921875,0.316619873046875,-0.3757476806640625,0.6461521785120595
1782294095.480385,-0.004882805049419403,-0.0498046875,0.9990233778953552,1.0002759910462558,-0.728607177734375,0.255584716796875,-0.6809234619140625,1.0294895472471888
1782294095.488397,-0.00048827752470970154,-0.0498046837747097,0.9951171278953552,0.9963628069993082,-0.41961669921875,0.133514404296875,-0.6198883056640625,0.7603721338378008
1782294095.496411,0.0014648474752902985,-0.0483398400247097,0.9809569716453552,0.9821483931317948,-0.2994537353515625,-0.0514984130859375,-0.6198883056640625,0.6903521837913136
1782294095.504425,-0.0014648400247097015,-0.0585937462747097,0.9882811903953552,0.9900177191081296,-0.240325927734375,0.194549560546875,-0.3757476806640625,0.48661319605492875
1782294095.512439,0.01611328125,-0.060546875,0.9843749403953552,0.9863668613570036,-0.4825592041015625,-0.0514984130859375,-0.7457733154296875,0.8897714931489384
1782294095.523258,-0.0053710900247097015,-0.06884765625,0.9848632216453552,0.9872813245113268,-0.1163482666015625,-0.0514984130859375,-0.3147125244140625,0.3394598337279832
1782294095.534077,0.0029296912252902985,-0.0585937462747097,0.9868163466453552,0.9885587044782249,-0.1773834228515625,-0.5397796630859375,-0.6198883056640625,0.8408855301899103
1782294095.544896,-0.00927734375,-0.0595703125,0.9926757216453552,0.9945047911310081,-0.179290771484375,-0.354766845703125,-0.5626678466796875,0.6889120417272176
1782294095.555389,0.007812503725290298,-0.0585937462747097,0.9848632216453552,0.9866356103783356,0.0667572021484375,-0.2346038818359375,-0.3147125244140625,0.3981701626619576
1782294095.565881,-0.0024414025247097015,-0.0546874962747097,0.9960936903953552,0.9975967736217484,-0.179290771484375,-0.293731689453125,-0.4367828369140625,0.5560600082285597
1782294095.576373,0.0039062537252902985,-0.0585937462747097,0.9946288466453552,0.9963608926988959,0.247955322265625,-0.049591064453125,-0.3757476806640625,0.4529099635003256
1782294095.58704,0.00634765625,-0.0546875,0.9794921278953552,0.9810381460499327,-0.0553131103515625,0.0705718994140625,-0.3757476806640625,0.38629813963840803
1782294095.597708,0.0166015662252903,-0.0532226525247097,0.9931640028953552,0.994727600597281,-0.1773834228515625,-0.1125335693359375,-0.4978179931640625,0.540325306873477
1782294095.608376,0.0,-0.0654296875,1.00244140625,1.0045744457086418,-0.1773834228515625,-0.0514984130859375,-0.6198883056640625,0.6468218276712439
1782294095.619034,0.0029296912252902985,-0.0600585900247097,0.9863280653953552,0.9881592330758114,-0.545501708984375,0.316619873046875,-0.4367828369140625,0.7672023886405657
1782294095.629695,0.01123046875,-0.052734375,0.9980468153953552,0.9995021177845476,-0.362396240234375,-0.354766845703125,-0.4367828369140625,0.6693054581944273
1782294095.640356,-0.0014648400247097015,-0.0600585900247097,0.9848632216453552,0.9866938458010783,-0.1163482666015625,-0.2918243408203125,-0.4978179931640625,0.5886604448697846
1782294095.648383,0.011718753725290298,-0.0537109337747097,0.9921874403953552,0.9937092685861956,-0.850677490234375,-0.476837158203125,-0.1926422119140625,0.9940507480233742
1782294095.65641,0.00634765625,-0.0458984375,0.9790038466453552,0.9800997352571889,-0.41961669921875,-0.476837158203125,0.1735687255859375,0.6584663637635543
1782294095.664437,0.0107421875,-0.05029296875,0.9975585341453552,0.9988832796399204,-0.667572021484375,-0.476837158203125,0.1087188720703125,0.8275541507697293
1782294095.672464,0.0009765625,-0.04931640625,0.9897460341453552,0.9909744061812041,-0.3604888916015625,-0.1125335693359375,0.4138946533203125,0.5602899510456626
1782294095.680483,-0.0078124962747097015,-0.0483398400247097,0.9877929091453552,0.9890058678235942,-0.362396240234375,0.133514404296875,0.5397796630859375,0.6637162162942295
1782294095.688502,0.012695316225290298,-0.0576171912252903,0.9960936903953552,0.997839441906457,-0.728607177734375,0.133514404296875,0.4138946533203125,0.8485300817578256
1782294095.696521,0.0107421875,-0.05126953125,0.9873046278953552,0.9886932728053053,-0.667572021484375,0.316619873046875,0.4138946533203125,0.8468821239842625
1782294095.70454,0.00048828125,-0.0625,1.00634765625,1.0082867120310806,-0.362396240234375,0.194549560546875,0.5397796630859375,0.678632928118111
1782294095.715174,-0.00048827752470970154,-0.0620117224752903,0.9897460341453552,0.9916868982928796,-0.2994537353515625,0.1316070556640625,0.5397796630859375,0.6311537383219207
1782294095.725808,0.0043945349752902985,-0.0571289099752903,0.9916991591453552,0.9933530321805125,0.0667572021484375,0.4367828369140625,0.8449554443359375,0.9535121779895238
1782294095.736442,0.013671878725290298,-0.0566406287252903,0.9887694716453552,0.9904848051071304,-0.240325927734375,0.560760498046875,0.5970001220703125,0.8535912566698041
1782294095.747152,0.009765625,-0.0615234375,0.9995116591453552,1.0014509761146362,-0.545501708984375,0.865936279296875,0.5397796630859375,1.1570565409644238
1782294095.75786,0.008789069950580597,-0.04638671875,0.9980468153953552,0.9991628601723535,-0.1163482666015625,0.7419586181640625,0.7190704345703125,1.0397604532209577
1782294095.768568,0.008300784975290298,-0.0600585900247097,0.9941405653953552,0.9959876510437058,-0.1773834228515625,0.8678436279296875,0.4787445068359375,1.0068831829295208
1782294095.776523,0.0107421875,-0.0595703125,0.9936522841453552,0.9954942885375659,0.0057220458984375,0.7419586181640625,0.5970001220703125,0.9523363264252588
1782294095.78448,0.00048828125,-0.0634765625,0.9941405653953552,0.9961651349901742,-0.1773834228515625,0.5588531494140625,0.7839202880859375,0.9789344918763931
1782294095.792437,-0.0087890625,-0.05517578125,0.9970702528953552,0.998634419427342,0.0667572021484375,0.3795623779296875,0.1087188720703125,0.4004296641391185
1782294095.800394,0.02001953125,-0.0546875,0.9858397841453552,0.9875583953830175,0.1888275146484375,0.5016326904296875,0.1735687255859375,0.5633979844635221
1782294095.811072,0.0019531287252902985,-0.0673828125,0.9897460341453552,0.9920390467308665,-0.11444091796875,0.804901123046875,0.0514984130859375,0.814625452670134
1782294095.82175,0.0019531287252902985,-0.0444335900247097,0.9951171278953552,0.9961105645785523,-0.240325927734375,0.499725341796875,-0.0095367431640625,0.5545925695910187
1782294095.832428,0.00537109375,-0.05859375,0.9902343153953552,0.9919808846815757,-0.179290771484375,0.988006591796875,0.0514984130859375,1.0054622283924488
1782294095.843154,0.00048828125,-0.06005859375,0.9887694716453552,0.9905919145438457,-0.2994537353515625,0.6198883056640625,0.1735687255859375,0.7099719386120781
1782294095.85388,0.0048828125,-0.04345703125,0.9931640028953552,0.9941262958347389,0.125885009765625,0.377655029296875,0.2956390380859375,0.4958556218066842
1782294095.864606,-0.00732421875,-0.05078125,0.9892577528953552,0.9905873415279584,-0.1163482666015625,0.4367828369140625,0.1735687255859375,0.48419238765743855
1782294095.87521,-0.00927734375,-0.056640625,0.9951171278953552,0.9967709504887003,0.06866455078125,0.133514404296875,0.4138946533203125,0.4402836594013931
1782294095.885812,0.00537109375,-0.0498046875,0.9892577528953552,0.9905252430951024,0.1888275146484375,0.2536773681640625,0.4138946533203125,0.5208808130984408
1782294095.896414,0.004394538700580597,-0.06103515625,1.0009765625,1.0028452926265192,-0.0553131103515625,-0.1125335693359375,0.2956390380859375,0.32113203708852966
1782294095.904417,0.009277351200580597,-0.060546875,1.00439453125,1.006260586390261,0.6160736083984375,-0.1125335693359375,0.5397796630859375,0.8267844821195701
1782294095.91242,0.00146484375,-0.04638671875,0.9970702528953552,0.9981497696500315,0.55694580078125,-0.354766845703125,0.5970001220703125,0.8902006996009275
1782294095.920424,-0.00830078125,-0.0654296875,0.9819335341453552,0.984146032078012,0.431060791015625,-0.354766845703125,0.4138946533203125,0.694968851394293
1782294095.928426,0.00048828125,-0.05029296875,0.9833983778953552,0.9846837008763187,0.431060791015625,-0.354766845703125,0.4138946533203125,0.694968851394293
1782294095.936477,-0.0029296875,-0.04248046875,0.9882811903953552,0.9891981017891854,0.0057220458984375,0.0705718994140625,0.3566741943359375,0.3636339033992327
1782294095.944528,0.0014648474752902985,-0.0532226525247097,1.001953125,1.0033667630618215,0.0057220458984375,0.5588531494140625,0.4138946533203125,0.6954555114933104
1782294095.952579,0.0068359375,-0.04541015625,0.9956054091453552,0.9966639067667914,0.125885009765625,0.682830810546875,0.2307891845703125,0.7316888677781176
1782294095.96063,0.0024414099752902985,-0.0493164025247097,0.9794921278953552,0.9807358954630025,0.0057220458984375,0.9250640869140625,0.0514984130859375,0.9265141085044425
1782294095.971216,-0.0034179650247097015,-0.0537109337747097,0.9907225966453552,0.9921833552300585,-0.240325927734375,0.621795654296875,0.0514984130859375,0.6686093581413864
1782294095.981802,-0.0078124962747097015,-0.0537109337747097,0.9819335341453552,0.9834324404778302,-0.1773834228515625,0.0705718994140625,0.1087188720703125,0.21969311512581763
1782294095.992388,0.00048828125,-0.05126953125,0.9848632216453552,0.9861969218177685,-0.362396240234375,-0.354766845703125,-0.0095367431640625,0.5072292373437606
1782294096.0004,-0.012695308774709702,-0.0527343787252903,0.9965819716453552,0.9980569682001981,-0.728607177734375,-0.171661376953125,-0.2574920654296875,0.7916048329455426
1782294096.008412,-0.00439453125,-0.05908203125,1.00048828125,1.002240888828685,-0.545501708984375,-0.171661376953125,-0.4367828369140625,0.7195964073458213
1782294096.016424,-0.0029296837747097015,-0.0532226525247097,0.9843749403953552,0.9858170505053891,-0.9708404541015625,-0.2918243408203125,-0.1316070556640625,1.0222587981112716
1782294096.024436,0.009277347475290298,-0.0483398400247097,0.9882811903953552,0.9895062003843392,-0.7877349853515625,-0.3566741943359375,-0.1316070556640625,0.8746789726251456
1782294096.032569,0.009277347475290298,-0.0590820275247097,0.9819335341453552,0.9837531299222357,-0.728607177734375,-0.476837158203125,-0.3757476806640625,0.9483819981493246
1782294096.040702,-0.0053710900247097015,-0.0493164025247097,0.9863280653953552,0.9875748117244469,-0.41961669921875,0.011444091796875,-0.2574920654296875,0.492454368707945
1782294096.048835,0.004394538700580597,-0.05078125,0.9946288466453552,0.9959340288899777,-0.4825592041015625,-0.3566741943359375,-0.1316070556640625,0.6143291328505325
1782294096.056968,0.0009765625,-0.05224609375,0.9921874403953552,0.993562541999615,-0.1163482666015625,-0.5397796630859375,0.1735687255859375,0.5788135332936531
1782294096.067464,0.0024414099752902985,-0.0590820275247097,0.9951171278953552,0.996872481659414,0.125885009765625,-0.293731689453125,0.3566741943359375,0.4788964626909126
1782294096.07796,-0.013671875,-0.0556640625,0.9956054091453552,0.997253999109309,0.0057220458984375,-0.3566741943359375,0.3566741943359375,0.5044459372615108
1782294096.088456,0.0058593787252902985,-0.06787109375,0.9892577528953552,0.9916005845850613,0.247955322265625,-0.232696533203125,0.4138946533203125,0.535666222989414
1782294096.099216,-0.0019531212747097015,-0.0576171912252903,1.001953125,1.003610292944762,0.308990478515625,0.011444091796875,0.4787445068359375,0.5699143671429553
1782294096.109976,-0.0009765587747097015,-0.0541992150247097,0.9907225966453552,0.9922045011387776,0.1888275146484375,-0.0514984130859375,0.4787445068359375,0.5172081009267554
1782294096.120736,0.005859375,-0.056640625,0.9877929091453552,0.9894328294703109,0.3719329833984375,-0.0514984130859375,0.5397796630859375,0.6575319880973095
1782294096.131285,0.0009765625,-0.05517578125,0.9956054091453552,0.9971336175409765,0.614166259765625,0.133514404296875,0.2307891845703125,0.669544575442051
1782294096.141834,0.0029296912252902985,-0.0502929650247097,0.9941405653953552,0.9954162090232652,0.247955322265625,0.438690185546875,-0.1316070556640625,0.5208179507616507
1782294096.152383,0.0009765625,-0.0537109375,0.9921874403953552,0.9936406469945419,0.247955322265625,0.255584716796875,-0.3147125244140625,0.47523611218326056
1782294096.160397,0.0039062537252902985,-0.0532226525247097,0.9882811903953552,0.9897209813120023,0.308990478515625,0.194549560546875,-0.0743865966796875,0.3726365697135529
1782294096.16841,-0.00341796875,-0.05029296875,1.0078125,1.0090723960015526,0.0057220458984375,0.0705718994140625,-0.5626678466796875,0.5671051405897576
1782294096.176423,-0.005371086299419403,-0.056640625,0.9985350966453552,1.0001546621402988,0.308990478515625,-0.476837158203125,-0.5626678466796875,0.7996523600563581
1782294096.192442,-0.0078124962747097015,-0.0493164025247097,0.9936522841453552,0.9949060279460082,0.308990478515625,-0.354766845703125,-0.3757476806640625,0.6020971268390858
1782294096.200445,0.005859375,-0.0556640625,0.9887694716453552,0.9903524060591914,0.247955322265625,-0.537872314453125,-0.2574920654296875,0.6458255432036254
1782294096.208448,-0.009765617549419403,-0.0654296875,1.00830078125,1.0104686421467168,0.308990478515625,-0.354766845703125,-0.0743865966796875,0.4763066201398489
1782294096.216451,0.0170898474752903,-0.0625,0.9990233778953552,1.001122381364124,0.5550384521484375,0.3795623779296875,-0.1316070556640625,0.6851683728862096
1782294096.227192,0.008789066225290298,-0.0537109337747097,0.9775390028953552,0.9790529169936164,0.3719329833984375,0.6847381591796875,-0.0095367431640625,0.7792890607769538
1782294096.237933,0.0039062537252902985,-0.0546874962747097,0.9946288466453552,0.9961388074189421,0.736236572265625,0.377655029296875,0.0514984130859375,0.8290474642896088
1782294096.248674,-0.00341796875,-0.0517578125,0.9882811903953552,0.9896414830404097,0.4940032958984375,0.6198883056640625,0.2307891845703125,0.8255691464512293
1782294096.259243,-0.00439453125,-0.060546875,0.9902343153953552,0.9920933602054197,0.736236572265625,0.316619873046875,0.2956390380859375,0.8542217950801972
1782294096.269811,0.00634765625,-0.05126953125,0.9736327528953552,0.9750023564510245,0.9822845458984375,0.4367828369140625,0.2956390380859375,1.1149280768614513
1782294096.280379,0.0107421875,-0.068359375,0.9916991591453552,0.9941104671978263,0.492095947265625,0.011444091796875,0.2307891845703125,0.5436478973259603
1782294096.288419,-0.0004882737994194031,-0.06005859375,1.0029296875,1.0047264459360958,0.4940032958984375,0.1964569091796875,0.2956390380859375,0.6083066778881633
1782294096.29646,-0.0058593712747097015,-0.0590820275247097,0.9946288466453552,0.9963992978656875,0.614166259765625,0.133514404296875,-0.0095367431640625,0.6285835189212519
1782294096.304501,0.0019531287252902985,-0.0585937462747097,0.9790038466453552,0.9807576528178227,0.4329681396484375,-0.1125335693359375,0.1735687255859375,0.47984509654641844
1782294096.312542,0.0048828125,-0.0615234375,1.00244140625,1.0043394586414516,0.37384033203125,0.011444091796875,0.0514984130859375,0.37754423269421084
1782294096.323199,-0.00439453125,-0.04833984375,0.9956054091453552,0.9967879328714668,0.4329681396484375,-0.4177093505859375,-0.0743865966796875,0.6061978862410698
1782294096.333856,-0.00341796875,-0.06103515625,0.9936522841453552,0.9955309310092377,0.125885009765625,-0.049591064453125,-0.1316070556640625,0.1887504343249285
1782294096.344513,0.00146484375,-0.05224609375,0.9946288466453552,0.9960011760326467,0.247955322265625,-0.354766845703125,-0.1316070556640625,0.4523955943094036
1782294096.355116,-0.00439453125,-0.0625,0.9833983778953552,0.9853922729310004,0.125885009765625,0.011444091796875,-0.4367828369140625,0.45470567353337843
1782294096.365721,-0.0068359337747097015,-0.0434570275247097,0.9873046278953552,0.9882842058312181,0.1277923583984375,0.0705718994140625,-0.0095367431640625,0.14629500785098767
1782294096.376326,-0.0014648400247097015,-0.0454101525247097,1.00244140625,1.0034704782269845,0.3719329833984375,-0.0514984130859375,0.1087188720703125,0.39090411079224174
1782294096.384346,-0.00390625,-0.05224609375,0.9931640028953552,0.9945449460674572,0.431060791015625,0.133514404296875,-0.1316070556640625,0.4700637390889978
1782294096.392367,0.00048828125,-0.056640625,0.9887694716453552,0.9903905627967204,0.0057220458984375,0.1964569091796875,-0.0743865966796875,0.21014619848878138
1782294096.400388,0.008300784975290298,-0.0439453087747097,0.9931640028953552,0.9941704229364479,0.5283355712890625,-0.0247955322265625,-0.0629425048828125,0.5326490901415879
1782294096.408409,-0.0014648400247097015,-0.0449218712747097,0.9980468153953552,0.9990583396358442,0.16021728515625,0.095367431640625,-0.1850128173828125,0.2626675999747482
1782294096.419061,0.01171875,-0.064453125,0.9990233778953552,1.0011689387936853,0.09918212890625,0.034332275390625,-0.1239776611328125,0.16243848154866566
1782294096.429713,0.0009765625,-0.05126953125,0.9999999403953552,1.0013138365665508,0.3452301025390625,0.3376007080078125,0.0553131103515625,0.48602222369277726
1782294096.440365,0.0024414099752902985,-0.0522460974752903,0.9848632216453552,0.9862510737807757,0.1621246337890625,-0.0896453857421875,-0.0019073486328125,0.18526826507772537
1782294096.451047,0.0024414099752902985,-0.0400390587747097,0.9902343153953552,0.9910464601100899,0.530242919921875,-0.392913818359375,-0.1239776611328125,0.6714977909457204
1782294096.461732,0.007812503725290298,-0.0527343787252903,0.9995116591453552,1.0009323187316417,0.3452301025390625,0.0934600830078125,0.1201629638671875,0.3773032582688703
1782294096.472417,0.0034179724752902985,-0.0561523474752903,0.9902343153953552,0.9918310178903135,0.4673004150390625,-0.2727508544921875,-0.0019073486328125,0.5410788708688462
1782294096.480415,-0.0058593712747097015,-0.0493164025247097,1.0078125,1.0090354180830146,0.1621246337890625,-0.2727508544921875,-0.1239776611328125,0.3406580190857373
1782294096.488413,-0.0068359375,-0.0556640625,0.9936522841453552,0.9952336809427169,0.4673004150390625,-0.4558563232421875,0.3032684326171875,0.7198238725949921
1782294096.496411,-0.00244140625,-0.0556640625,0.9960936903953552,0.997650784775875,0.225067138671875,-0.514984130859375,0.3032684326171875,0.6386200859423515
1782294096.504409,-0.00341796875,-0.0615234375,0.9868163466453552,0.9887382453807875,0.40435791015625,-0.270843505859375,0.7915496826171875,0.929199883891242
1782294096.515107,-0.0014648400247097015,-0.0541992150247097,0.9848632216453552,0.9863545336314224,0.40435791015625,-0.637054443359375,0.6694793701171875,1.0087350050049613
1782294096.525805,0.0068359412252902985,-0.06396484375,0.9843749403953552,0.9864746598908442,0.46539306640625,-0.576019287109375,1.0967254638671875,1.3233274985715753
1782294096.536503,0.008300784975290298,-0.0473632849752903,0.9999999403953552,1.0011553648588067,0.4673004150390625,-0.9441375732421875,1.0967254638671875,1.520714364434697
1782294096.547138,0.00537109375,-0.0654296875,0.9897460341453552,0.9919209165860339,0.46539306640625,-0.881195068359375,0.9746551513671875,1.393932609148122
1782294096.557771,0.0,-0.05078125,0.9926757216453552,0.9939737540275846,0.5283355712890625,-0.5779266357421875,0.9136199951171875,1.203261886568154
1782294096.568404,0.00634765625,-0.05078125,0.9931640028953552,0.9944816563107415,0.58746337890625,-0.698089599609375,0.6694793701171875,1.131655838871179
1782294096.576428,0.009277351200580597,-0.05126953125,0.9907225966453552,0.9920916780134832,0.6504058837890625,-0.0896453857421875,0.4863739013671875,0.8170824198227714
1782294096.584453,0.008300784975290298,-0.0576171912252903,0.9956054091453552,0.9973057577670891,0.7114410400390625,-0.1506805419921875,0.6084442138671875,0.9481863427488196
1782294096.592478,0.00244140625,-0.056640625,1.00390625,1.0055057830037233,0.28228759765625,-0.270843505859375,0.3643035888671875,0.5345648672689284
1782294096.600503,0.004394538700580597,-0.05029296875,0.9892577528953552,0.9905451006085725,0.46539306640625,0.095367431640625,0.1201629638671875,0.49002529645120213
1782294096.611186,-0.0063476525247097015,-0.0556640587747097,0.9990233778953552,1.000593068991233,0.0400543212890625,0.0324249267578125,0.1811981201171875,0.18838387208882734
1782294096.621869,0.01220703125,-0.056640625,0.9892577528953552,0.9909531137626526,0.1621246337890625,0.4634857177734375,0.1201629638671875,0.50551216142299
1782294096.632552,0.009765625,-0.04443359375,0.9858397841453552,0.986888945975656,0.40435791015625,0.217437744140625,0.3032684326171875,0.550232890969796
1782294096.640509,-0.0029296837747097015,-0.0541992150247097,0.9799804091453552,0.981482419743223,0.2231597900390625,0.2155303955078125,-0.0019073486328125,0.31025357573578366
1782294096.648466,0.008789066225290298,-0.0488281212747097,0.9960936903953552,0.9973284680373704,0.46539306640625,0.400543212890625,0.1201629638671875,0.6256714069997955
1782294096.656423,0.0107421875,-0.0556640625,0.9843749403953552,0.9860060373672406,0.1621246337890625,-0.0247955322265625,-0.0019073486328125,0.1640208928107734
1782294096.66438,-0.0058593712747097015,-0.0566406287252903,0.9931640028953552,0.9947950691983029,0.46539306640625,-0.209808349609375,-0.3070831298828125,0.5957434837943645
1782294096.675099,0.0019531287252902985,-0.0483398400247097,1.00439453125,1.0055590133106755,0.2841949462890625,0.1544952392578125,-0.1239776611328125,0.34641883163236714
1782294096.685818,0.0039062537252902985,-0.0581054650247097,0.9858397841453552,0.9875583951785659,0.28228759765625,0.278472900390625,-0.1239776611328125,0.4154562606369849
1782294096.696537,0.00048828125,-0.0517578125,1.00732421875,1.0086531570632504,0.58746337890625,0.522613525390625,-0.1850128173828125,0.8077548273288694
1782294096.70717,-0.015624992549419403,-0.0458984375,0.9819335341453552,0.983129834984321,0.225067138671875,0.278472900390625,-0.2498626708984375,0.43661622446997184
1782294096.717804,-0.0087890625,-0.04736328125,1.00439453125,1.0055490552107853,0.1621246337890625,0.5207061767578125,0.4253387451171875,0.6916157657925676
1782294096.728438,-0.0009765550494194031,-0.05126953125,0.9873046278953552,0.9886353962700026,0.2841949462890625,0.1544952392578125,0.3643035888671875,0.487188517220064
1782294096.736422,-0.010742183774709702,-0.0483398400247097,0.9980468153953552,0.9992745270278205,0.2841949462890625,-0.1506805419921875,0.3643035888671875,0.48599228192720845
1782294096.744407,-0.004882805049419403,-0.04541015625,1.00244140625,1.0034812888341653,0.2841949462890625,-0.1506805419921875,0.5435943603515625,0.6316377299032467
1782294096.752392,0.011718753725290298,-0.0581054650247097,0.9897460341453552,0.9915194331736874,0.4673004150390625,-0.1506805419921875,0.5435943603515625,0.7325087932828955
1782294096.760377,-0.0014648400247097015,-0.0488281212747097,0.9980468153953552,0.999241600867541,0.6504058837890625,-0.3337860107421875,0.3032684326171875,0.7914623534045702
1782294096.771069,0.0034179724752902985,-0.0546874962747097,0.9833983778953552,0.9849237404143806,0.530242919921875,-0.392913818359375,0.3643035888671875,0.7538275184991144
1782294096.781761,0.001953125,-0.06103515625,0.9907225966453552,0.9926028251518544,0.7114410400390625,-0.6389617919921875,0.7915496826171875,1.2413587012338942
1782294096.792453,0.009765625,-0.04345703125,0.9902343153953552,0.9912355322440837,0.58746337890625,-0.514984130859375,0.7266998291015625,1.0669650969966986
1782294096.803117,0.004394538700580597,-0.0517578125,0.9868163466453552,0.988182516103003,0.5283355712890625,-0.3337860107421875,0.4863739013671875,0.7919034971432204
1782294096.81378,0.0034179724752902985,-0.0498046837747097,0.9868163466453552,0.9880782818523168,0.46539306640625,0.095367431640625,0.3643035888671875,0.5986674854526962
1782294096.824443,0.0073242224752902985,-0.06396484375,0.9951171278953552,0.9971976953952161,0.1621246337890625,0.4634857177734375,0.1201629638671875,0.50551216142299
1782294096.835096,0.00634765625,-0.05419921875,0.9990233778953552,1.0005126474135269,-0.2040863037109375,0.8258819580078125,0.0553131103515625,0.8525208314768474
1782294096.845751,-0.00830078125,-0.04248046875,0.9995116591453552,1.0004484244388017,0.09918212890625,0.583648681640625,-0.2498626708984375,0.6425840276444136
1782294096.856406,0.012207034975290298,-0.0625,0.9921874403953552,0.9942289367048087,-0.1430511474609375,0.3986358642578125,-0.4901885986328125,0.6478109641647511
1782294096.864404,-0.0004882737994194031,-0.0458984375,0.9951171278953552,0.9961751870062541,-0.4482269287109375,0.2155303955078125,-0.6122589111328125,0.78881031006886
1782294096.872401,0.0073242224752902985,-0.0590820275247097,0.9965819716453552,0.9983586311640931,-0.4482269287109375,-0.3337860107421875,-0.6732940673828125,0.8750116466434689
1782294096.880398,-0.010253902524709702,-0.06298828125,0.9902343153953552,0.9922885998933593,-0.8144378662109375,-0.2727508544921875,-0.1850128173828125,0.8785964996176397
1782294096.888395,0.0126953125,-0.0615234375,0.9907225966453552,0.99271222810289,-0.9365081787109375,-0.1506805419921875,-0.3681182861328125,1.0174788779689217
1782294096.899074,0.0029296875,-0.0458984375,0.9907225966453552,0.9917895508309735,-0.57220458984375,-0.270843505859375,-0.4901885986328125,0.8006617010536048
1782294096.909753,-0.00244140625,-0.05078125,0.9970702528953552,0.9983655568101534,-0.69427490234375,-0.026702880859375,-0.2498626708984375,0.7383508909584348
1782294096.920432,-0.0068359337747097015,-0.0576171912252903,0.9985350966453552,1.0002193809099145,-0.6313323974609375,-0.4558563232421875,-0.0019073486328125,0.7787099726486544
1782294096.928423,-0.00439453125,-0.04736328125,1.0029296875,1.0040570453836384,-0.0209808349609375,-0.6389617919921875,0.3032684326171875,0.7075903541482255
1782294096.936416,-0.0063476525247097015,-0.0517578162252903,0.9892577528953552,0.990631145228411,0.0400543212890625,-0.9441375732421875,0.4253387451171875,1.0362978114226808
1782294096.944409,-0.0053710900247097015,-0.0581054650247097,0.9902343153953552,0.9919521626874449,0.4673004150390625,-0.4558563232421875,0.8525848388671875,1.0738135651973082
1782294096.952402,0.0048828125,-0.04638671875,0.9877929091453552,0.9888935235363541,0.5893707275390625,-0.6389617919921875,0.5435943603515625,1.0252438025717667
1782294096.963308,0.0009765625,-0.0595703125,0.9926757216453552,0.9944619973381541,0.58746337890625,-0.514984130859375,0.6084442138671875,0.9902152483078586
1782294096.974214,-0.0019531212747097015,-0.06494140625,0.9863280653953552,0.9884656056307601,0.58746337890625,-0.576019287109375,0.6084442138671875,1.0232867643365668
1782294096.98512,-0.00048827752470970154,-0.0541992150247097,0.9946288466453552,0.9961045808063054,0.40435791015625,-0.209808349609375,0.4863739013671875,0.6663966048854678
1782294096.995572,0.0029296912252902985,-0.0551757775247097,0.9936522841453552,0.9951873247300799,0.7114410400390625,-0.3337860107421875,0.3643035888671875,0.8661862151296102
1782294097.006024,0.008789066225290298,-0.0419921912252903,0.9765624403953552,0.9775043691973686,0.89263916015625,-0.209808349609375,0.4253387451171875,1.0108102007341087
1782294097.016476,0.01025390625,-0.048828125,0.9887694716453552,0.9900274725694406,0.58746337890625,-0.209808349609375,0.2384185791015625,0.6678144832081482
1782294097.027123,-0.0029296837747097015,-0.0483398400247097,0.9819335341453552,0.9831270460422813,0.5283355712890625,-0.3337860107421875,-0.0019073486328125,0.6249441693746177
1782294097.03777,0.005859375,-0.05419921875,0.9887694716453552,0.9902711525871769,0.40435791015625,-0.209808349609375,-0.3681182861328125,0.5856926972885174
1782294097.048417,-0.00439453125,-0.05810546875,1.0029296875,1.0046210805435112,0.5283355712890625,-0.1506805419921875,-0.3070831298828125,0.6293990389911822
1782294097.056436,0.009765625,-0.048828125,0.9902343153953552,0.991485528189476,0.5283355712890625,-0.5779266357421875,-0.1850128173828125,0.8045914583100848
1782294097.064456,0.005859375,-0.04931640625,0.9882811903953552,0.9895282469389471,0.46539306640625,-0.392913818359375,-0.1850128173828125,0.6365545675844939
1782294097.072476,0.0048828125,-0.05419921875,0.9897460341453552,0.991240944108686,0.28228759765625,-0.698089599609375,0.0553131103515625,0.7550330569253763
1782294097.080496,-0.00390625,-0.0546875,0.9936522841453552,0.9951637268472934,0.2841949462890625,-0.1506805419921875,-0.0019073486328125,0.3216753506411543
1782294097.091119,-0.0058593712747097015,-0.0590820275247097,0.9897460341453552,0.9915252040743211,0.58746337890625,0.278472900390625,0.1201629638671875,0.661135020773565
1782294097.101742,-0.001953125,-0.060546875,0.9843749403953552,0.9862371733249008,0.40435791015625,0.644683837890625,0.3643035888671875,0.8437059174883321
1782294097.112365,0.008300784975290298,-0.0532226525247097,0.9804686903953552,0.9819472524624502,0.5283355712890625,0.4634857177734375,0.1811981201171875,0.7258031724946519
1782294097.12038,0.0043945349752902985,-0.0595703087747097,0.9965819716453552,0.9983704522038435,0.58746337890625,0.705718994140625,0.1811981201171875,0.9359408522875826
1782294097.128395,-0.010253902524709702,-0.0634765625,0.9907225966453552,0.9928069701646528,0.58746337890625,0.095367431640625,0.3643035888671875,0.6978003105725809
1782294097.13641,0.007812503725290298,-0.0390624962747097,0.9980468153953552,0.9988415087242218,0.3452301025390625,0.0934600830078125,-0.1239776611328125,0.37853542935228834
1782294097.144425,-0.0058593712747097015,-0.0527343787252903,0.9956054091453552,0.9970182433891405,0.40435791015625,-0.026702880859375,-0.1239776611328125,0.4237792158802534
1782294097.155063,0.01025390625,-0.05078125,0.9882811903953552,0.9896381102373769,-0.02288818359375,-0.026702880859375,-0.2498626708984375,0.25232571629327055
1782294097.165701,0.01025390625,-0.05859375,0.9843749403953552,0.9861705701402803,0.1010894775390625,-0.1506805419921875,-0.3681182861328125,0.4104080661847903
1782294097.176339,0.0029296912252902985,-0.0537109337747097,0.9951171278953552,0.9965698900369846,0.1010894775390625,-0.1506805419921875,-0.2498626708984375,0.308796150417522
1782294097.187026,0.00634765625,-0.05078125,0.9960936903953552,0.9974074734715338,0.09918212890625,-0.209808349609375,-0.4901885986328125,0.5423481358774881
1782294097.197711,-0.0019531212747097015,-0.0395507775247097,0.9892577528953552,0.9900499888132369,0.0400543212890625,-0.0896453857421875,-0.1850128173828125,0.20945258755794582
1782294097.208396,0.00146484375,-0.0498046875,0.9960936903953552,0.9973391061768421,0.0400543212890625,0.0324249267578125,-0.1850128173828125,0.19205589583530852
1782294097.21907,-0.00439453125,-0.05859375,0.9975585341453552,0.9992875304386619,0.58746337890625,0.400543212890625,-0.0019073486328125,0.7110216065124181
1782294097.229745,0.0058593787252902985,-0.0483398400247097,0.9956054091453552,0.9967954670704272,0.225067138671875,-0.087738037109375,0.0553131103515625,0.24781589989852387
1782294097.24042,0.0039062537252902985,-0.0473632849752903,0.9780272841453552,0.979181243751409,0.1621246337890625,0.3986358642578125,-0.2498626708984375,0.4976206421183828
1782294097.251068,-0.00439453125,-0.044921875,1.00048828125,1.001505909956103,0.7114410400390625,0.2155303955078125,-0.3070831298828125,0.8043020287791405
1782294097.261716,0.0034179724752902985,-0.0541992150247097,0.9912108778953552,0.9926974573873035,0.40435791015625,-0.026702880859375,-0.0629425048828125,0.41009769844884864
1782294097.272364,0.00048828125,-0.056640625,0.9799804091453552,0.9816160151136836,0.3452301025390625,-0.3337860107421875,-0.2498626708984375,0.5413208650835623
1782294097.280377,-0.005371086299419403,-0.06201171875,0.9941405653953552,0.996087227904746,0.530242919921875,0.095367431640625,-0.0019073486328125,0.5387542474299505
1782294097.28839,0.005859375,-0.06689453125,1.00048828125,1.0027392539963353,0.2231597900390625,-0.1506805419921875,-0.0629425048828125,0.27652608655651406
1782294097.296403,0.0048828125,-0.05322265625,0.9838866591453552,0.9853372270651425,0.225067138671875,0.095367431640625,-0.3681182861328125,0.44188373642060363
1782294097.304416,-0.00390625,-0.05224609375,0.9897460341453552,0.9911317395824104,0.225067138671875,-0.026702880859375,-0.3070831298828125,0.381665179725318
1782294097.315104,-0.014648430049419403,-0.0556640625,0.9892577528953552,0.9909308583450634,0.46539306640625,0.400543212890625,-0.1850128173828125,0.6412919103245281
1782294097.325792,0.0009765662252902985,-0.068359375,0.9951171278953552,0.9974628093631781,0.09918212890625,0.034332275390625,-0.3681182861328125,0.38278828667193165
1782294097.33648,0.0034179724752902985,-0.0625,1.00048828125,1.0024443792322948,0.3452301025390625,-0.2727508544921875,-0.4901885986328125,0.6586818006859994
1782294097.344519,-0.0014648400247097015,-0.06298828125,0.9726561903953552,0.9746946876050636,0.40435791015625,-0.087738037109375,-0.1850128173828125,0.4532472010477968
1782294097.352558,0.00537109375,-0.06591796875,0.9926757216453552,0.9948764323253034,0.225067138671875,-0.026702880859375,-0.4329681396484375,0.48870202650159317
1782294097.360597,0.0146484375,-0.0517578125,0.9877929091453552,0.9892564274412476,0.16021728515625,-0.392913818359375,-0.3070831298828125,0.5237851618547507
1782294097.368636,-0.004882805049419403,-0.05712890625,0.9853515028953552,0.9870183068072279,0.3452301025390625,-0.2079010009765625,-0.4329681396484375,0.5914964580255888
1782294097.379233,-0.0014648400247097015,-0.0585937462747097,0.9848632216453552,0.9866057663567911,0.4673004150390625,-0.3337860107421875,-0.1850128173828125,0.6033345021286199
1782294097.38983,0.014160159975290298,-0.0444335900247097,0.9941405653953552,0.9952338005803493,0.3452301025390625,-0.0896453857421875,-0.2498626708984375,0.43548992318134994
1782294097.400427,0.0034179724752902985,-0.0537109337747097,0.9960936903953552,0.9975465838687589,0.3452301025390625,-0.3337860107421875,-0.0629425048828125,0.4843125887143944
1782294097.411067,-0.0019531212747097015,-0.0478515662252903,0.9858397841453552,0.9870023642710729,0.64849853515625,-0.392913818359375,0.1201629638671875,0.7677048629798388
1782294097.42171,-0.0073242150247097015,-0.0585937462747097,0.9902343153953552,0.9919933823442276,0.40435791015625,-0.087738037109375,0.5435943603515625,0.6831530657676655
1782294097.432353,0.009277347475290298,-0.0576171912252903,0.9902343153953552,0.9919525237063399,0.530242919921875,-0.209808349609375,0.4863739013671875,0.7494909403216454
1782294097.440361,0.0029296912252902985,-0.0551757775247097,0.9951171278953552,0.996649912329717,0.225067138671875,-0.026702880859375,0.9136199951171875,0.941312783422208
1782294097.448367,0.0180664099752903,-0.0581054650247097,0.9970702528953552,0.9989252872181886,0.28228759765625,-0.087738037109375,0.4863739013671875,0.5691606301190215
1782294097.456373,0.0146484375,-0.05322265625,0.9970702528953552,0.9985971745745652,0.46539306640625,0.095367431640625,0.1811981201171875,0.5084470592015891
1782294097.464379,-0.0014648400247097015,-0.06884765625,0.9941405653953552,0.9965227590436722,0.530242919921875,-0.209808349609375,0.2384185791015625,0.6180780828939768
1782294097.475038,-0.0029296875,-0.0517578125,0.9892577528953552,0.9906151401463641,0.1621246337890625,-0.1506805419921875,0.2384185791015625,0.3253189841941368
1782294097.485697,0.0009765625,-0.056640625,0.9926757216453552,0.9942908037484978,0.40435791015625,-0.209808349609375,-0.0019073486328125,0.45555296185026256
1782294097.496356,-0.0009765587747097015,-0.0654296875,1.00439453125,1.0065239053685189,0.3452301025390625,0.0324249267578125,0.1201629638671875,0.36698002324340234
1782294097.504475,0.0009765625,-0.05029296875,0.9916991591453552,0.9929740976629801,0.28228759765625,-0.270843505859375,-0.2498626708984375,0.46419160566002815
1782294097.512594,-0.0029296837747097015,-0.0581054650247097,0.9995116591453552,1.001203468272188,0.3452301025390625,0.0934600830078125,-0.1239776611328125,0.37853542935228834
1782294097.520711,0.0073242224752902985,-0.0488281212747097,0.9897460341453552,0.9909768119227331,0.58746337890625,-0.576019287109375,-0.2498626708984375,0.8598504491982555
1782294097.528829,0.0039062537252902985,-0.0522460974752903,0.9956054091453552,0.9969829708871932,0.46539306640625,-0.209808349609375,-0.0019073486328125,0.5105035629685938
1782294097.539361,0.0039062537252902985,-0.0449218712747097,0.9916991591453552,0.9927237559294089,0.40435791015625,0.034332275390625,-0.2498626708984375,0.4765662377339886
1782294097.549893,-0.00439453125,-0.05126953125,1.00146484375,1.0027859741772986,0.40435791015625,-0.026702880859375,-0.1239776611328125,0.4237792158802534
1782294097.560425,0.008789066225290298,-0.0693359375,0.9902343153953552,0.9926976978419081,0.7114410400390625,0.2155303955078125,-0.1850128173828125,0.7660492460903169
1782294097.568437,-0.0185546837747097,-0.0488281212747097,0.9975585341453552,0.9989251677495302,0.58746337890625,0.095367431640625,-0.0019073486328125,0.5951569595934207
1782294097.576449,-0.00439453125,-0.056640625,0.9887694716453552,0.9904001920249879,0.28228759765625,-0.209808349609375,-0.0019073486328125,0.35172356949052147
1782294097.584461,-0.00048827752470970154,-0.0546874962747097,0.9931640028953552,0.9946686369393893,0.7114410400390625,-0.4558563232421875,-0.1850128173828125,0.864975770462777
1782294097.592473,0.00048828125,-0.04833984375,0.9975585341453552,0.9987291965085348,0.8335113525390625,-0.6961822509765625,0.0553131103515625,1.087414567477857
1782294097.600516,0.0029296912252902985,-0.0517578162252903,0.9936522841453552,0.9950036765853523,0.89263916015625,-0.453948974609375,0.2384185791015625,1.0294259374302583
1782294097.608559,-0.0019531212747097015,-0.0625,0.9868163466453552,0.9887955130810412,0.6504058837890625,-0.3337860107421875,0.1201629638671875,0.7408643955002576
1782294097.616602,0.0029296875,-0.0556640625,0.9926757216453552,0.9942394878835674,1.07574462890625,-0.576019287109375,0.3032684326171875,1.2573768201954114
1782294097.624645,-0.0024414025247097015,-0.0522460974752903,0.9926757216453552,0.9940526663571765,0.89263916015625,-0.392913818359375,-0.0019073486328125,0.9752894836308892
1782294097.635265,0.0068359375,-0.05126953125,0.9843749403953552,0.9857328837745334,1.07574462890625,-0.576019287109375,0.4863739013671875,1.3136149731461562
1782294097.645885,-0.00439453125,-0.04833984375,0.9960936903953552,0.9972756351401149,0.58746337890625,-0.209808349609375,0.2384185791015625,0.6678144832081482
1782294097.656505,0.0029296875,-0.060546875,0.9863280653953552,0.9881890303619331,0.58746337890625,0.278472900390625,0.4253387451171875,0.7768998815199929
1782294097.667134,0.0043945349752902985,-0.0537109337747097,0.9965819716453552,0.9980379765084813,0.3452301025390625,0.3986358642578125,0.4253387451171875,0.6775008664714522
1782294097.677761,0.01708984375,-0.041015625,0.9941405653953552,0.9951330604588196,0.4673004150390625,0.8258819580078125,0.3643035888671875,1.0164486171568197
1782294097.688388,0.0068359412252902985,-0.0493164025247097,0.9897460341453552,0.9909975023968898,0.09918212890625,0.766754150390625,0.0553131103515625,0.775118418057776
1782294097.696402,0.0034179724752902985,-0.0512695349752903,0.9873046278953552,0.9886408225518559,-0.2040863037109375,0.3376007080078125,-0.2498626708984375,0.46696553589988865
1782294097.704415,0.0107421875,-0.05029296875,0.9907225966453552,0.9920564705709494,-0.4482269287109375,-0.0896453857421875,-0.3070831298828125,0.5506756971804092
1782294097.712428,-0.0053710900247097015,-0.0546874962747097,0.9892577528953552,0.990782757480376,-0.5092620849609375,-0.1506805419921875,-0.1850128173828125,0.5623897576501073
1782294097.720441,0.0009765625,-0.0478515625,0.9868163466453552,0.9879763295314791,-0.2040863037109375,-0.3337860107421875,-0.3681182861328125,0.5371921378007463
1782294097.731082,-0.0004882737994194031,-0.05615234375,0.9873046278953552,0.9889002742357326,-0.32806396484375,-0.392913818359375,-0.3681182861328125,0.6304905282969002
1782294097.741723,-0.012207027524709702,-0.0600585900247097,0.9863280653953552,0.9882302860888698,0.0400543212890625,-0.2727508544921875,-0.3681182861328125,0.4599004782183914
1782294097.752364,0.0068359375,-0.0615234375,0.9941405653953552,0.9960659251113436,-0.08392333984375,-0.148773193359375,-0.3070831298828125,0.351392428335472
1782294097.763054,-0.0063476525247097015,-0.0590820275247097,1.001953125,1.0037136261734572,0.09918212890625,-0.270843505859375,-0.4901885986328125,0.568751405791822
1782294097.773744,-0.00927734375,-0.060546875,0.9853515028953552,0.9872535527601086,0.40435791015625,0.217437744140625,0.1201629638671875,0.47457731716574997
1782294097.784434,-0.0024414025247097015,-0.06396484375,0.9946288466453552,0.9966865125310561,0.40435791015625,-0.148773193359375,0.1201629638671875,0.44730070473186484
1782294097.79511,-0.00048827752470970154,-0.0478515662252903,0.9912108778953552,0.9923653637966388,0.58746337890625,0.034332275390625,0.4863739013671875,0.7634471157981964
1782294097.805789,0.0039062537252902985,-0.0488281212747097,0.9814452528953552,0.9826668960925731,1.1386871337890625,-0.3337860107421875,0.6084442138671875,1.3335013502101878
1782294097.816466,0.0107421875,-0.05419921875,0.9873046278953552,0.9888495225103673,0.89263916015625,-0.453948974609375,0.5435943603515625,1.139460034577511
1782294097.827117,0.01171875,-0.05126953125,0.9956054091453552,0.9969934927850068,0.9555816650390625,-0.6389617919921875,0.6084442138671875,1.3006201795963164
1782294097.837768,-0.0009765587747097015,-0.0346679650247097,0.9975585341453552,0.9981612347272483,1.1386871337890625,-0.5130767822265625,0.6694793701171875,1.4170599140929856
1782294097.848419,0.0146484375,-0.05224609375,0.9921874403953552,0.9936700397574699,1.3217926025390625,-0.2727508544921875,0.6084442138671875,1.480450294383998
1782294097.859085,-0.0029296837747097015,-0.0493164025247097,0.9897460341453552,0.990978255418078,0.713348388671875,-0.698089599609375,0.3643035888671875,1.0625027612034947
1782294097.869752,-0.0058593712747097015,-0.0576171912252903,0.9931640028953552,0.9948511494708903,0.28228759765625,-0.209808349609375,-0.0629425048828125,0.35730601768969616
1782294097.880419,0.0039062537252902985,-0.0488281212747097,0.9999999403953552,1.0011989437849493,0.58746337890625,0.095367431640625,-0.0629425048828125,0.5984729964623303
1782294097.888408,-0.0014648400247097015,-0.0561523474752903,1.00146484375,1.0030389150728378,0.7114410400390625,-0.3337860107421875,-0.1239776611328125,0.7955701822460475
1782294097.896397,-0.0063476525247097015,-0.0488281212747097,0.9941405653953552,0.9953592024412035,0.7114410400390625,-0.7610321044921875,-0.3070831298828125,1.0861023276737303
1782294097.904386,0.01025390625,-0.044921875,0.9887694716453552,0.9898425054041347,0.46539306640625,-1.064300537109375,0.1811981201171875,1.1756526265374134
1782294097.912375,0.0009765625,-0.0478515625,0.9868163466453552,0.9879763295314791,0.1621246337890625,-1.0013580322265625,0.2384185791015625,1.0420392144476613
1782294097.923056,0.013671878725290298,-0.0493164025247097,0.9970702528953552,0.9983827507697967,0.225067138671875,-0.026702880859375,0.4253387451171875,0.48195571254421166
1782294097.933738,0.01025390625,-0.0419921875,1.00146484375,1.0023972863449058,0.225067138671875,0.095367431640625,0.3643035888671875,0.43871091710736704
1782294097.94442,0.01025390625,-0.052734375,0.9916991591453552,0.9931532002413469,0.2841949462890625,0.5207061767578125,0.1811981201171875,0.6202696580875
1782294097.952423,0.0156250037252903,-0.0532226525247097,0.9877929091453552,0.989349090483751,0.1621246337890625,0.3376007080078125,0.4253387451171875,0.5667201099541799
1782294097.960426,0.0039062537252902985,-0.0517578162252903,0.9946288466453552,0.9959822653730571,0.2231597900390625,0.5207061767578125,0.2384185791015625,0.614636993081953
1782294097.968429,0.00634765625,-0.07080078125,0.9892577528953552,0.9918084215356543,0.225067138671875,0.583648681640625,0.0553131103515625,0.6279813219097753
1782294097.976432,0.009277351200580597,-0.06640625,0.9902343153953552,0.9925018179685462,0.28228759765625,0.400543212890625,0.2384185791015625,0.5449445586883949
1782294097.987083,-0.0029296875,-0.04150390625,0.9960936903953552,0.9969622848173818,0.40435791015625,-0.148773193359375,-0.0019073486328125,0.4308624148693908
1782294097.997734,0.01025390625,-0.0458984375,0.9912108778953552,0.9923259613737847,0.5283355712890625,-0.0896453857421875,-0.0629425048828125,0.5395706904522599
1782294098.008385,-0.00390625,-0.046875,0.9897460341453552,0.9908631270364848,0.2231597900390625,0.2155303955078125,0.1201629638671875,0.33270524667245566
1782294098.019074,-0.005859367549419403,-0.05126953125,0.9892577528953552,0.9906027451437037,0.530242919921875,0.278472900390625,-0.0629425048828125,0.6022179583009508
1782294098.029762,0.00146484375,-0.0498046875,0.9931640028953552,0.9944130878620362,0.4673004150390625,0.0324249267578125,-0.0629425048828125,0.472633909798961
1782294098.04045,-0.00048827752470970154,-0.0434570275247097,0.9877929091453552,0.988748493305587,0.3452301025390625,0.1544952392578125,-0.1850128173828125,0.42104910075712815
1782294098.04842,-0.0019531212747097015,-0.0444335900247097,0.9951171278953552,0.9961105645639436,0.40435791015625,0.278472900390625,-0.0019073486328125,0.49097465691897374
1782294098.056391,-0.0063476525247097015,-0.0541992150247097,0.9858397841453552,0.9873489391322754,0.5283355712890625,0.1544952392578125,0.3643035888671875,0.6600942051739143
1782294098.064362,-0.0078124962747097015,-0.0590820275247097,0.9931640028953552,0.9949504800348599,0.58746337890625,0.461578369140625,0.4253387451171875,0.8596981217336299
1782294098.072333,0.00146484375,-0.04931640625,0.9975585341453552,0.9987778945986223,0.6504058837890625,0.5207061767578125,0.6084442138671875,1.0316816842270824
1782294098.083038,-0.0180664025247097,-0.0541992150247097,0.9990233778953552,1.0006556147800927,0.713348388671875,-0.087738037109375,1.0967254638671875,1.3112477377945269
1782294098.093743,-0.0019531212747097015,-0.0546874962747097,0.9833983778953552,0.9849197462629765,0.64849853515625,0.095367431640625,1.7032623291015625,1.8250336596495997
1782294098.104448,-0.005859367549419403,-0.05126953125,0.9897460341453552,0.9910903637555621,0.8335113525390625,0.0934600830078125,1.0967254638671875,1.3806819709918798
1782294098.115111,-0.004882805049419403,-0.05126953125,0.9931640028953552,0.9944984380414433,0.7724761962890625,0.0324249267578125,1.6460418701171875,1.8185776551710284
1782294098.125776,0.01025390625,-0.05419921875,0.9858397841453552,0.9873817792071387,0.713348388671875,-0.026702880859375,1.8291473388671875,1.9635068002815432
1782294098.136441,0.003906257450580597,-0.0556640625,0.9990233778953552,1.0005805596166257,0.6504058837890625,-0.1506805419921875,1.5850067138671875,1.7198775312232413
1782294098.144463,0.0034179724752902985,-0.0449218712747097,0.9829100966453552,0.9839420283441728,0.3452301025390625,-0.0896453857421875,0.9746551513671875,1.0378693477363095
1782294098.152486,0.013671878725290298,-0.0502929650247097,0.9863280653953552,0.9877040828028402,0.28228759765625,-0.392913818359375,0.8525848388671875,0.9802899897043063
1782294098.160509,-0.00390625,-0.04736328125,0.9999999403953552,1.0011285731565867,0.58746337890625,-0.270843505859375,0.3643035888671875,0.7424193768239473
1782294098.168532,0.0034179724752902985,-0.0556640587747097,0.9848632216453552,0.9864409436579487,0.225067138671875,-0.209808349609375,0.4863739013671875,0.575529610365004
1782294098.179158,0.012207034975290298,-0.0537109337747097,0.9814452528953552,0.9829896543406075,0.40435791015625,-0.392913818359375,-0.0019073486328125,0.56381754685579
1782294098.189784,0.0107421875,-0.068359375,0.9965819716453552,0.9989814937981681,0.225067138671875,-0.087738037109375,-0.0629425048828125,0.2496296035863414
1782294098.20041,0.00537109375,-0.0478515625,0.9965819716453552,0.9977445799854321,0.28228759765625,-0.209808349609375,-0.1239776611328125,0.37292933890525304
1782294098.208392,0.001953125,-0.05224609375,0.9868163466453552,0.9882003698723681,0.4062652587890625,-0.3337860107421875,0.0553131103515625,0.5287003892970874
1782294098.216375,0.0039062537252902985,-0.0424804724752903,1.00048828125,1.001397348847334,0.46539306640625,-0.392913818359375,-0.0019073486328125,0.609077673942793
1782294098.224358,0.0024414099752902985,-0.0488281212747097,0.9780272841453552,0.9792484436763862,0.09918212890625,-0.576019287109375,0.3032684326171875,0.6584884631020153
1782294098.232341,-0.0019531212747097015,-0.06298828125,0.9916991591453552,0.9936994316729518,0.58746337890625,-0.392913818359375,-0.2498626708984375,0.7496171319561694
1782294098.243024,0.005859375,-0.05615234375,0.9960936903953552,0.9976923664283729,0.0400543212890625,-0.2727508544921875,0.0553131103515625,0.28117061983235375
1782294098.253707,0.0043945349752902985,-0.0473632849752903,0.9877929091453552,0.9889375228289923,0.2231597900390625,0.0324249267578125,0.4253387451171875,0.48141948014532165
1782294098.26439,-0.004882805049419403,-0.05078125,0.9912108778953552,0.9925228368127325,0.09918212890625,-0.026702880859375,0.6084442138671875,0.6170530770760533
1782294098.27242,0.0068359412252902985,-0.0541992150247097,0.9873046278953552,0.9888148023089643,0.3452301025390625,0.0324249267578125,0.5435943603515625,0.6447712991289279
1782294098.28045,-0.00439453125,-0.05224609375,1.00341796875,1.0047868362132424,0.530242919921875,0.278472900390625,0.5435943603515625,0.8088260251656516
1782294098.28848,0.0048828125,-0.0498046875,0.9907225966453552,0.9919856915594085,0.7724761962890625,0.1544952392578125,0.6084442138671875,0.9953856610254171
1782294098.29651,-0.00390625,-0.0458984375,0.9980468153953552,0.9991092888542344,0.5283355712890625,0.1544952392578125,0.6084442138671875,0.8204947386980178
1782294098.30456,-0.004882805049419403,-0.04541015625,0.9853515028953552,0.9864094019898306,0.6504058837890625,0.2155303955078125,0.4253387451171875,0.8064702183918817
1782294098.31261,0.015625,-0.06005859375,0.9999999403953552,1.0019236777813676,0.40435791015625,0.278472900390625,0.3032684326171875,0.57708250534909
1782294098.32066,0.0024414099752902985,-0.0341796837747097,0.9868163466453552,0.9874111166439704,0.7114410400390625,0.5207061767578125,0.2384185791015625,0.9133053677858295
1782294098.32871,0.00048828125,-0.04248046875,0.9804686903953552,0.9813886495621302,0.3452301025390625,0.3986358642578125,-0.0019073486328125,0.5273499918939146
1782294098.336643,0.009277351200580597,-0.05029296875,0.9882811903953552,0.9896035384133627,0.1621246337890625,0.0324249267578125,-0.0629425048828125,0.17691108409992293
1782294098.344576,0.008300784975290298,-0.0488281212747097,0.9907225966453552,0.9919598540072774,-0.1430511474609375,0.2803802490234375,-0.4329681396484375,0.5352925599921641
1782294098.352509,-0.0068359337747097015,-0.0449218712747097,0.9995116591453552,1.0005439826798692,-0.08392333984375,-0.026702880859375,-0.3070831298828125,0.3194623913316618
1782294098.360442,-0.0014648400247097015,-0.0419921912252903,0.9902343153953552,0.9911253650607007,-0.1430511474609375,0.1544952392578125,-0.4329681396484375,0.4814497062973956
1782294098.370026,-0.0068359337747097015,-0.0532226525247097,0.9985350966453552,0.9999758596910663,-0.2040863037109375,0.0324249267578125,-0.6732940673828125,0.7042921953355253
1782294098.37961,-0.0087890625,-0.04443359375,0.9907225966453552,0.9917574579386254,-0.08392333984375,0.095367431640625,-0.4329681396484375,0.45121999505661065
1782294098.389194,-0.00830078125,-0.05126953125,1.00439453125,1.0057364675743157,0.1010894775390625,0.3376007080078125,-0.4901885986328125,0.6037202851868549
1782294098.398778,-0.00341796875,-0.07080078125,0.9970702528953552,0.9995866757539308,0.2231597900390625,0.0324249267578125,-0.3070831298828125,0.38098781663480036
1782294098.408362,0.0034179724752902985,-0.0478515662252903,0.9912108778953552,0.9923711298622788,0.1621246337890625,0.3376007080078125,-0.0019073486328125,0.3745160516018252
1782294098.419035,-0.009765621274709702,-0.0439453087747097,0.9897460341453552,0.9907692817344734,-0.20599365234375,0.461578369140625,0.0553131103515625,0.5084756787115791
1782294098.429708,0.0166015625,-0.04541015625,1.00537109375,1.0065330249505786,-0.3871917724609375,0.3376007080078125,0.3032684326171875,0.5965429145760632
1782294098.440381,-0.0078125,-0.0615234375,0.9941405653953552,0.9960731058926664,-0.3261566162109375,0.0324249267578125,-0.1850128173828125,0.3763764827527674
1782294098.451036,0.00537109375,-0.06494140625,0.9873046278953552,0.9894527089039601,-0.08392333984375,-0.148773193359375,-0.1239776611328125,0.21106172199818238
1782294098.46169,-0.009277340024709702,-0.0581054650247097,0.9956054091453552,0.9973426917680612,-0.08392333984375,-0.209808349609375,-0.0629425048828125,0.23457286598680196
1782294098.472344,0.0048828125,-0.0478515625,0.9882811903953552,0.9894510221233095,0.225067138671875,-0.698089599609375,0.0553131103515625,0.7355568272876587
1782294098.480364,0.0043945349752902985,-0.0634765625,0.9853515028953552,0.9874037523640472,0.225067138671875,-0.576019287109375,0.0553131103515625,0.6208969127066922
1782294098.488383,0.012207034975290298,-0.0581054650247097,0.9960936903953552,0.9978616621626785,0.0400543212890625,-0.8220672607421875,0.3032684326171875,0.8771377725649356
1782294098.496402,0.0048828125,-0.06591796875,0.9838866591453552,0.9861044460432397,0.4673004150390625,-0.8220672607421875,0.4253387451171875,1.0368593478277117
1782294098.504421,0.009765625,-0.056640625,0.9848632216453552,0.9865389466116882,0.46539306640625,-0.209808349609375,0.6694793701171875,0.8419102546217905
1782294098.515122,0.00634765625,-0.056640625,0.9965819716453552,0.9982104384090573,0.2841949462890625,-0.3337860107421875,0.6694793701171875,0.8002390239646733
1782294098.525823,0.004394538700580597,-0.05126953125,0.9960936903953552,0.9974219352161969,0.09918212890625,0.644683837890625,0.4863739013671875,0.8136423768848943
1782294098.536524,0.0029296912252902985,-0.0483398400247097,1.001953125,1.0031228179647573,-0.1430511474609375,0.6465911865234375,0.1811981201171875,0.6865686797500162
1782294098.54714,0.008300784975290298,-0.0473632849752903,0.9814452528953552,0.9826224952776546,-0.3261566162109375,0.8869171142578125,0.1201629638671875,0.9525960548663434
1782294098.557756,0.005859375,-0.04052734375,1.0048828125,1.0057167915097827,-0.263214111328125,0.095367431640625,0.0553131103515625,0.285370207969837
1782294098.568372,0.003906257450580597,-0.0556640625,0.9765624403953552,0.9781553796264711,-0.6923675537109375,-0.1506805419921875,0.1811981201171875,0.7313755628271497
1782294098.576387,-0.001953125,-0.0556640625,0.9936522841453552,0.9952121202731362,-0.4482269287109375,-0.1506805419921875,-0.1850128173828125,0.5077812008657125
1782294098.584402,-0.0019531212747097015,-0.0468750037252903,0.9819335341453552,0.9830536842594849,-0.75531005859375,-0.331878662109375,-0.2498626708984375,0.8620139704696808
1782294098.592417,-0.0009765550494194031,-0.06103515625,1.0107421875,1.0125838303817178,-0.69427490234375,-0.392913818359375,-0.4329681396484375,0.9076675154663167
1782294098.600432,-0.00341796875,-0.0498046875,0.9863280653953552,0.9875906246992692,-0.6923675537109375,-0.3337860107421875,-0.4329681396484375,0.8821832804749139
1782294098.61116,0.012207034975290298,-0.0527343787252903,0.9926757216453552,0.994150398454156,-0.57220458984375,-0.453948974609375,-0.3681182861328125,0.8179234907816968
1782294098.621888,-0.0053710900247097015,-0.0546874962747097,0.9819335341453552,0.9834698959988747,-0.69427490234375,-0.270843505859375,-0.3070831298828125,0.8060235066976925
1782294098.632616,0.012207034975290298,-0.0537109337747097,0.9873046278953552,0.9888398780254694,-0.3871917724609375,-0.1506805419921875,0.0553131103515625,0.4191439306172355
1782294098.64062,0.008300784975290298,-0.068359375,0.9838866591453552,0.9862934985215126,-0.4425048828125,-0.431060791015625,0.0286102294921875,0.6184193739652052
1782294098.648624,0.0048828125,-0.0625,0.9892577528953552,0.9912421467640881,-0.0152587890625,-0.797271728515625,0.3337860107421875,0.864458293210916
1782294098.656628,0.0073242224752902985,-0.0537109337747097,0.9794921278953552,0.9809909975380965,-0.3833770751953125,-0.4940032958984375,0.6389617919921875,0.8940298707368222
1782294098.664632,0.012207034975290298,-0.0585937462747097,0.9951171278953552,0.9969154111739339,-0.0762939453125,-0.431060791015625,0.6389617919921875,0.7745362117217184
1782294098.675256,0.0073242224752902985,-0.0522460974752903,1.0009765625,1.002365890087338,-0.1373291015625,-0.370025634765625,0.9441375732421875,1.023315205460817
1782294098.68588,0.009277347475290298,-0.0532226525247097,0.9887694716453552,0.9902443072170515,0.0457763671875,-0.186920166015625,0.6389617919921875,0.6673131168215272
1782294098.696504,-0.0009765587747097015,-0.06689453125,1.0009765625,1.0032098039057005,0.2288818359375,-0.308990478515625,0.5168914794921875,0.6442350597468738
1782294098.707124,-0.0019531212747097015,-0.0522460974752903,0.9926757216453552,0.9940515870558418,0.5931854248046875,-0.0057220458984375,0.8220672607421875,1.0137535554532695
1782294098.717744,0.00732421875,-0.05029296875,0.9956054091453552,0.996901779317038,0.2288818359375,-0.370025634765625,0.8220672607421875,0.9301077606331366
1782294098.728364,-0.0058593712747097015,-0.0502929650247097,0.9897460341453552,0.9910403254505692,0.2880096435546875,-0.1888275146484375,0.3948211669921875,0.5239171107855486
1782294098.739054,-0.001953125,-0.05615234375,0.9843749403953552,0.9859771415627459,0.0457763671875,0.240325927734375,0.3948211669921875,0.4644736604365695
1782294098.749744,0.01953125,-0.046875,0.9887694716453552,0.990072625320687,0.1678466796875,0.179290771484375,0.2727508544921875,0.3670295863384845
1782294098.760434,-0.00830078125,-0.056640625,0.9936522841453552,0.9952999171893027,0.2899169921875,-0.125885009765625,0.0896453857421875,0.3285349193428364
1782294098.768433,-0.0029296875,-0.05615234375,0.9897460341453552,0.9913419596102672,-0.0762939453125,-0.186920166015625,0.2117156982421875,0.2925464944873422
1782294098.77643,0.00537109375,-0.04296875,0.9794921278953552,0.9804488720650377,0.1049041748046875,-0.0667572021484375,0.2727508544921875,0.2997572994213122
1782294098.784427,-0.0004882737994194031,-0.05615234375,0.9843749403953552,0.9859753279865985,-0.1373291015625,-0.308990478515625,0.2117156982421875,0.3989460299732977
1782294098.792424,0.0073242224752902985,-0.0522460974752903,0.9965819716453552,0.9979774171517153,-0.3814697265625,0.057220458984375,0.2117156982421875,0.44001917014174285
1782294098.803108,0.01220703125,-0.05078125,0.9833983778953552,0.9847842995350388,-0.0171661376953125,0.6046295166015625,-0.0324249267578125,0.6057416152985223
1782294098.813792,0.0048828125,-0.04541015625,0.9946288466453552,0.9956768887182373,-0.0152587890625,0.850677490234375,0.1506805419921875,0.8640541931905478
1782294098.824476,0.00537109375,-0.06005859375,0.9921874403953552,0.9940180079905924,0.4730224609375,0.972747802734375,0.1506805419921875,1.092104922620067
1782294098.835133,0.0,-0.05810546875,0.9965819716453552,0.998274447087173,-0.2574920654296875,0.6046295166015625,-0.0324249267578125,0.6579744614955318
1782294098.845792,0.01025390625,-0.0517578125,0.9897460341453552,0.9911514646382901,0.0476837158203125,0.4215240478515625,-0.1544952392578125,0.45146986458115607
1782294098.856451,0.005859375,-0.05517578125,0.9931640028953552,0.9947127403220809,-0.0743865966796875,0.6046295166015625,-0.3376007080078125,0.6964800472079598
1782294098.864468,0.0019531287252902985,-0.0634765625,0.9863280653953552,0.988370447395701,0.0457763671875,0.484466552734375,-0.0934600830078125,0.49551801544145796
1782294098.872488,0.0019531287252902985,-0.06298828125,0.9838866591453552,0.9859027823933022,-0.0762939453125,0.240325927734375,-0.1544952392578125,0.29571286171903904
1782294098.880508,0.0029296912252902985,-0.0585937462747097,0.9926757216453552,0.9944078129908812,-0.0152587890625,0.362396240234375,0.0896453857421875,0.3736310489835264
1782294098.888528,0.0,-0.06005859375,0.9829100966453552,0.9847432623636524,-0.3204345703125,0.484466552734375,-0.2155303955078125,0.619547823785573
1782294098.899158,0.00146484375,-0.052734375,0.9902343153953552,0.9916385729994374,-0.0762939453125,0.057220458984375,-0.0324249267578125,0.10072895756920543
1782294098.909788,0.0029296912252902985,-0.0449218712747097,0.9833983778953552,0.9844282235169373,-0.1983642578125,0.240325927734375,-0.3376007080078125,0.45943352986723585
1782294098.920418,-0.0009765587747097015,-0.0581054650247097,0.9965819716453552,0.9982749245279688,-0.2593994140625,0.179290771484375,-0.2155303955078125,0.38195102846200685
1782294098.928552,-0.00341796875,-0.0546875,0.9985350966453552,1.000037371501273,-0.0743865966796875,0.2994537353515625,-0.2765655517578125,0.4143602415781386
1782294098.936685,0.004394538700580597,-0.060546875,0.9853515028953552,0.9872197426615777,-0.2593994140625,0.057220458984375,-0.3376007080078125,0.4295770885297855
1782294098.944818,-0.00439453125,-0.0556640625,0.9960936903953552,0.9976574761932819,-0.1392364501953125,-0.0667572021484375,-0.2155303955078125,0.26513518153846194
1782294098.952951,-0.00927734375,-0.05615234375,1.0009765625,1.0025932542611635,-0.2002716064453125,-0.1888275146484375,-0.0324249267578125,0.27715685542981167
1782294098.963457,-0.011718746274709702,-0.0546874962747097,0.9936522841453552,0.9952250564823663,0.2899169921875,0.057220458984375,-0.0934600830078125,0.3099368167889331
1782294098.973963,-0.0068359337747097015,-0.0541992150247097,0.9985350966453552,1.0000283116654327,0.0457763671875,-0.064849853515625,-0.2155303955078125,0.22968310926499783
1782294098.984469,0.0063476599752902985,-0.0537109337747097,0.9897460341453552,0.9912226638352111,-0.1373291015625,-0.003814697265625,-0.2155303955078125,0.2555918336702992
1782294098.992466,0.00048828125,-0.0576171875,1.0126953125,1.0143331674915603,-0.0762939453125,-0.003814697265625,-0.0324249267578125,0.08298610655901753
1782294099.000463,-0.001953125,-0.060546875,0.9921874403953552,0.9940350374347062,0.0457763671875,-0.064849853515625,0.1506805419921875,0.17031031979578404
1782294099.00846,0.0029296912252902985,-0.0541992150247097,0.9809569716453552,0.9824574892684144,-0.0152587890625,-0.003814697265625,-0.0934600830078125,0.09477430914920688
1782294099.016457,0.009277351200580597,-0.0556640625,0.9946288466453552,0.9962284374973304,-0.0743865966796875,-0.0667572021484375,-0.3376007080078125,0.3520853985209414
1782294099.027123,0.0180664099752903,-0.0444335900247097,0.9956054091453552,0.9967601867106096,-0.0171661376953125,-0.0667572021484375,-0.3376007080078125,0.3445655792000096
1782294099.037789,0.00048828125,-0.05419921875,0.9887694716453552,0.9902539380328282,0.0457763671875,-0.003814697265625,-0.2765655517578125,0.2803542975008881
1782294099.048455,0.0009765625,-0.05615234375,0.9960936903953552,0.9976756383857293,0.2880096435546875,-0.1888275146484375,-0.2155303955078125,0.4062742133787943
1782294099.056444,0.007812503725290298,-0.0576171912252903,0.9863280653953552,0.9880403982255449,-0.0152587890625,-0.247955322265625,-0.6427764892578125,0.6891126813708355
1782294099.064432,0.00537109375,-0.05615234375,0.9858397841453552,0.987452284599337,-0.0762939453125,-0.125885009765625,-0.9479522705078125,0.9593129358743971
1782294099.07242,-0.008300777524709702,-0.0537109337747097,1.00537109375,1.0068390156636449,-0.0152587890625,-0.125885009765625,-0.5817413330078125,0.595401414893391
1782294099.080408,0.01025390625,-0.04150390625,0.9970702528953552,0.9979863756766423,-0.2593994140625,-0.308990478515625,-0.8258819580078125,0.9191540569415453
1782294099.091069,-0.0063476525247097015,-0.0551757775247097,0.9956054091453552,0.997153343191267,-0.0171661376953125,-0.1888275146484375,-0.6427764892578125,0.6701582810905786
1782294099.101728,-0.0068359375,-0.04150390625,0.9770507216453552,0.9779557336317539,0.3509521484375,-0.125885009765625,-0.3986358642578125,0.5458250621299481
1782294099.112388,0.0029296875,-0.0712890625,0.9907225966453552,0.993288466159097,0.2899169921875,-0.247955322265625,-0.6427764892578125,0.7474592425955382
1782294099.123089,0.0019531287252902985,-0.0434570275247097,1.00146484375,1.0024091785395388,-0.0152587890625,-0.308990478515625,-0.0324249267578125,0.3110616053649474
1782294099.133791,0.0009765625,-0.0654296875,0.9999999403953552,1.0021386523188187,0.2307891845703125,-0.0667572021484375,-0.3376007080078125,0.4143602415781386
1782294099.144493,-0.00732421875,-0.05126953125,0.9687499403953552,0.9701333186891876,0.2288818359375,0.057220458984375,-0.3986358642578125,0.46321876907253695
1782294099.152466,0.0009765662252902985,-0.0532226525247097,0.9970702528953552,0.9984902070787505,0.2288818359375,0.118255615234375,-0.3376007080078125,0.42467107672168763
1782294099.16044,0.01123046875,-0.0595703125,0.9858397841453552,0.9877017897945983,-0.1373291015625,0.362396240234375,-0.2155303955078125,0.4434452259972232
1782294099.168414,0.01513671875,-0.05078125,0.9814452528953552,0.9828746817559738,0.1049041748046875,-0.0057220458984375,-0.7038116455078125,0.7116097666931862
1782294099.176388,0.01611328125,-0.0546875,0.9892577528953552,0.9908992189685384,0.2880096435546875,0.4825592041015625,-0.3376007080078125,0.6555815573145785
1782294099.18703,0.0029296912252902985,-0.0468750037252903,0.9863280653953552,0.9874456449098683,-0.0171661376953125,0.4215240478515625,-0.3376007080078125,0.540325306873477
1782294099.197672,0.004394538700580597,-0.05126953125,0.9868163466453552,0.9881570618132886,-0.1983642578125,0.728607177734375,-0.7648468017578125,1.0748057630952252
1782294099.208314,0.0043945349752902985,-0.0493164025247097,0.9931640028953552,0.9943973834150779,0.0457763671875,0.301361083984375,-0.5207061767578125,0.6033646503126121
1782294099.219005,0.0034179724752902985,-0.0522460974752903,0.9863280653953552,0.9877167558686971,0.2307891845703125,0.6046295166015625,-0.8869171142578125,1.0979355480281503
1782294099.229697,-0.0014648400247097015,-0.0517578162252903,0.9951171278953552,0.99646330365318,0.2899169921875,0.362396240234375,-0.9479522705078125,1.0554602808519014
1782294099.240389,0.0078125,-0.07080078125,0.9931640028953552,0.9957150809488553,-0.1373291015625,0.301361083984375,-0.8869171142578125,0.9467310878172358
1782294099.251066,-0.00830078125,-0.06103515625,0.9897460341453552,0.9916609326651328,0.2899169921875,0.179290771484375,-0.7038116455078125,0.7820152654845838
1782294099.261742,0.0009765625,-0.0556640625,0.9946288466453552,0.9961857176788823,0.2880096435546875,0.2994537353515625,-0.8869171142578125,0.9794100581267825
1782294099.272418,0.0043945349752902985,-0.0595703087747097,0.9931640028953552,0.9949586274173858,0.2288818359375,0.118255615234375,-0.7648468017578125,0.8070699570147162
1782294099.280404,-0.0068359337747097015,-0.0600585900247097,1.0068359375,1.0086487839024207,0.3509521484375,0.301361083984375,-0.3376007080078125,0.5726780522077922
1782294099.288391,-0.0073242150247097015,-0.0581054650247097,0.9975585341453552,0.9992761971735821,-0.0171661376953125,0.4215240478515625,-0.5817413330078125,0.7186098925914166
1782294099.296378,0.0039062537252902985,-0.0537109337747097,0.9931640028953552,0.9946229737303692,0.4138946533203125,0.4215240478515625,-0.3376007080078125,0.6804157148476836
1782294099.304365,0.0,-0.05517578125,0.9829100966453552,0.984457528247882,-0.2002716064453125,0.2994537353515625,-0.5207061767578125,0.6331794204472599
1782294099.315129,-0.0087890625,-0.05078125,0.9936522841453552,0.9949878616136345,-0.0762939453125,-0.308990478515625,-0.2155303955078125,0.3843816245509347
1782294099.325893,-0.00439453125,-0.06103515625,1.001953125,1.003820037108562,0.2880096435546875,-0.3719329833984375,-0.7648468017578125,0.8979277972528276
1782294099.336658,-0.00390625,-0.0458984375,0.9897460341453552,0.9908174087390988,-0.0152587890625,-0.125885009765625,-0.2765655517578125,0.30425050656728353
1782294099.347233,-0.0014648400247097015,-0.0600585900247097,0.9931640028953552,0.9949793548808836,0.1678466796875,-0.431060791015625,-0.1544952392578125,0.48770348818361275
1782294099.357808,0.015625,-0.0517578125,0.9960936903953552,0.9975598487435342,0.4730224609375,-0.431060791015625,-0.0934600830078125,0.6467599564121238
1782294099.368383,0.00048828125,-0.06201171875,1.001953125,1.003870388236536,0.7171630859375,-0.308990478515625,-0.0934600830078125,0.7864685592956276
1782294099.376381,0.00830078125,-0.05615234375,0.9897460341453552,0.9913723825003585,0.5340576171875,-0.736236572265625,0.0896453857421875,0.9139464557632972
1782294099.384381,0.01953125,-0.04931640625,0.9960936903953552,0.9975049963270436,0.5931854248046875,-0.0667572021484375,0.0896453857421875,0.603623862537152
1782294099.392381,-0.010742183774709702,-0.0454101525247097,0.9829100966453552,0.9840171413913218,0.6561279296875,0.362396240234375,-0.0934600830078125,0.7553606305387136
1782294099.400381,0.0107421875,-0.05419921875,0.9931640028953552,0.9946997972014072,0.2880096435546875,0.9098052978515625,0.1506805419921875,0.9661262135530367
1782294099.411057,0.0024414099752902985,-0.0444335900247097,0.9980468153953552,0.9990384127379496,0.1659393310546875,0.9098052978515625,-0.0934600830078125,0.9295247864933321
1782294099.421733,-0.001953125,-0.05078125,0.9824218153953552,0.9837353167460918,-0.2002716064453125,0.6046295166015625,-0.4596710205078125,0.7854826642190896
1782294099.432409,0.008300784975290298,-0.0478515662252903,0.9921874403953552,0.9933753531770888,-0.2574920654296875,0.4215240478515625,-0.8258819580078125,0.9623230721744288
