timestamp,accel_x,accel_y,accel_z,accel_rms,gyro_x,gyro_y,gyro_z,gyro_rms
1784903214.361016,0.0166015625,-0.1943359375,0.9726561903953552,0.9920192201746147,-0.48828125,0.743865966796875,-3.9157867431640625,4.015612154279796
1784903214.368925,0.0229492224752903,-0.1845703125,0.9599608778953552,0.9778127398219912,-0.7915496826171875,0.0705718994140625,-3.8509368896484375,3.932079121926905
1784903214.376834,0.013671878725290298,-0.193359375,0.9575194716453552,0.9769433487916634,-1.03759765625,0.133514404296875,-3.1223297119140625,3.2929284569075588
1784903214.395388,0.00537109375,-0.18212890625,0.9697265028953552,0.9866961424661332,-0.8544921875,-0.293731689453125,-2.6912689208984375,2.838901831427315
1784903214.406036,0.0410156287252903,-0.1826171875,0.9711913466453552,0.9890621571817211,-0.732421875,-0.476837158203125,-2.3250579833984375,2.4838901152399147
1784903214.416684,0.0283203162252903,-0.173828125,0.9750975966453552,0.9908751588044096,-0.3681182861328125,-0.6008148193359375,-1.4743804931640625,1.634101391695674
1784903214.424694,0.0302734375,-0.17578125,0.9848632216453552,1.0008851553596432,0.79345703125,-0.659942626953125,-0.2498626708984375,1.0618520073995037
1784903214.432706,0.008789066225290298,-0.17919921875,0.9780272841453552,0.9943475128034777,1.5869140625,-0.293731689453125,0.4215240478515625,1.6680099130599935
1784903214.440718,0.0244140625,-0.1806640625,0.9721679091453552,0.9891137414366507,1.953125,0.377655029296875,1.1501312255859375,2.2978516973133916
1784903214.44873,0.0356445349752903,-0.1767578125,0.9746093153953552,0.9911494210303474,1.8329620361328125,1.0471343994140625,1.4553070068359375,2.564012238755145
1784903214.459425,0.0341796875,-0.1875,0.9741210341453552,0.9925906962096783,1.953125,0.865936279296875,1.6384124755859375,2.6923852520735503
1784903214.47012,0.03857421875,-0.19482421875,0.9721679091453552,0.9922473936150058,1.89208984375,0.316619873046875,1.3980865478515625,2.3737940340546855
1784903214.480815,0.0434570275247097,-0.18115234375,0.9731444716453552,0.9908152439185214,2.25830078125,-0.049591064453125,1.0318756103515625,2.483374512131902
1784903214.488789,0.05615234375,-0.15966796875,0.9707030653953552,0.9853483582577831,1.9512176513671875,-0.1125335693359375,0.6046295166015625,2.045847252260102
1784903214.496766,0.0556640662252903,-0.15185546875,0.9604491591453552,0.9739718471090607,1.15966796875,-0.782012939453125,-0.4329681396484375,1.464184225146377
1784903214.504743,0.04052734375,-0.154296875,0.9521483778953552,0.9654203875799146,0.0591278076171875,-0.6008148193359375,-0.6160736083984375,0.8625666558199208
1784903214.51272,0.0385742150247097,-0.15087890625,0.9672850966453552,0.9797412273698515,-0.8544921875,-1.209259033203125,-0.9860992431640625,1.7790042229434502
1784903214.523442,0.04541015625,-0.17041015625,0.9643554091453552,0.980348437440334,-1.46484375,-1.148223876953125,-1.8367767333984375,2.6149443687912677
1784903214.534164,0.0380859412252903,-0.14404296875,0.9785155653953552,0.9897937297671275,-2.2563934326171875,-1.5773773193359375,-2.3860931396484375,3.643195163780104
1784903214.544886,0.0537109337747097,-0.16162109375,0.9726561903953552,0.9874544582239239,-2.1991729736328125,-1.5773773193359375,-2.9392242431640625,3.9954374137402993
1784903214.555505,0.044921875,-0.16552734375,0.9726561903953552,0.9876625643897068,-1.15966796875,-1.514434814453125,-2.9392242431640625,3.503909496059477
1784903214.566127,0.0434570275247097,-0.17626953125,0.9819335341453552,0.9985754485103094,-0.8544921875,-1.819610595703125,-2.9392242431640625,3.56092386468694
1784903214.576749,0.0283203162252903,-0.18701171875,0.9804686903953552,0.9985460811131915,0.0,-1.453399658203125,-3.0574798583984375,3.385343948696659
1784903214.587407,0.0371093787252903,-0.1806640625,0.9682616591453552,0.985670964388876,0.0,-1.331329345703125,-2.9964447021484375,3.2788898547776424
1784903214.598068,0.03369140625,-0.18505859375,0.9726561903953552,0.9906774746052499,0.48828125,-1.331329345703125,-3.0574798583984375,3.3703174168531964
1784903214.608729,0.0551757849752903,-0.19140625,0.9736327528953552,0.9938015180594613,0.6103515625,-0.659942626953125,-3.1795501708984375,3.3041780505862977
1784903214.616761,0.0361328162252903,-0.181640625,0.9716796278953552,0.9891714696277978,0.5474090576171875,0.1316070556640625,-2.9392242431640625,2.992660395879435
1784903214.624793,0.0375976599752903,-0.19482421875,0.9599608778953552,0.9802524916248805,0.5474090576171875,0.0705718994140625,-2.7523040771484375,2.807100782379599
1784903214.632825,0.03466796875,-0.19189453125,0.9667968153953552,0.9862664251811012,0.30517578125,0.255584716796875,-2.6912689208984375,2.720548512619381
1784903214.640857,0.0283203162252903,-0.19921875,0.9638671278953552,0.9846471402994598,0.0,0.072479248046875,-2.2029876708984375,2.2041796477437954
1784903214.651486,0.029296875,-0.197265625,0.9594725966453552,0.9799794372356936,0.30517578125,-0.659942626953125,-1.7757415771484375,1.9188315916580485
1784903214.662115,0.0390625,-0.1875,0.9780272841453552,0.9966039822512197,0.18310546875,-1.026153564453125,-0.9212493896484375,1.3911215577560538
1784903214.672744,0.04541015625,-0.18408203125,0.9619140028953552,0.9804217589822968,0.18310546875,-1.453399658203125,-0.9860992431640625,1.7658680291912685
1784903214.680762,0.03955078125,-0.1806640625,0.9775390028953552,0.9948800279220277,0.2422332763671875,-1.2683868408203125,-0.8602142333984375,1.5515961670122083
1784903214.688779,0.0380859412252903,-0.1875,0.9760741591453552,0.9946494624089074,0.6103515625,-1.209259033203125,-1.0433197021484375,1.709781401267616
1784903214.696796,0.04345703125,-0.16845703125,0.9794921278953552,0.9948221517193905,1.0986328125,-1.026153564453125,-0.8029937744140625,1.7043427461309701
1784903214.704813,0.0449218787252903,-0.17138671875,0.9692382216453552,0.985298996675807,1.5850067138671875,-0.4177093505859375,-0.4329681396484375,1.6953432674599014
1784903214.715449,0.04052734375,-0.16259765625,0.9677733778953552,0.982174004121678,1.8310546875,0.133514404296875,-0.1926422119140625,1.8459952292954644
1784903214.726085,0.0410156287252903,-0.15576171875,0.9750975966453552,0.988311346596422,1.64794921875,0.621795654296875,-0.1926422119140625,1.77185707242214
1784903214.736721,0.0429687537252903,-0.1728515625,0.9565429091453552,0.9729842308545681,1.8310546875,0.926971435546875,-0.0095367431640625,2.0523470126676275
1784903214.74739,0.0371093787252903,-0.17138671875,0.9799804091453552,0.9955461393938336,1.5869140625,1.110076904296875,0.4787445068359375,1.994934404445212
1784903214.75806,0.03564453125,-0.17529296875,0.9589843153953552,0.9755250251405747,1.46484375,0.621795654296875,0.3604888916015625,1.6316707047025956
1784903214.76873,0.048828125,-0.17431640625,0.9682616591453552,0.9850385961219219,1.0986328125,0.499725341796875,0.0553131103515625,1.2082131492880004
1784903214.779397,0.0366210974752903,-0.1806640625,0.9619140028953552,0.9794177644016184,0.79345703125,0.133514404296875,0.1735687255859375,0.8231198327681938
1784903214.790065,0.0424804724752903,-0.169921875,0.9741210341453552,0.9897423014652126,0.5474090576171875,0.1964569091796875,0.2384185791015625,0.6285661559347443
1784903214.800733,0.02587890625,-0.19482421875,0.9682616591453552,0.9880064952069699,0.30517578125,0.865936279296875,0.4215240478515625,1.0102773976394948
1784903214.811394,0.0327148474752903,-0.1845703125,0.9780272841453552,0.9958282131142995,-0.1220703125,0.316619873046875,0.3604888916015625,0.4950773133261006
1784903214.822054,0.0327148474752903,-0.1845703125,0.9785155653953552,0.9963077703313725,0.3662109375,0.804901123046875,0.7877349853515625,1.1842730579446514
1784903214.832714,0.0327148474752903,-0.1796875,0.9663085341453552,0.9834175319078498,0.7305145263671875,0.7419586181640625,0.7877349853515625,1.305634126180925
1784903214.840729,0.03173828125,-0.17333984375,0.9570311903953552,0.9731200950127015,0.732421875,0.988006591796875,0.7877349853515625,1.460522247540043
1784903214.848745,0.02587890625,-0.16943359375,0.9716796278953552,0.986680677700031,0.91552734375,0.621795654296875,1.2149810791015625,1.6434716837935501
1784903214.856761,0.02978515625,-0.1796875,0.9780272841453552,0.9948427623106207,1.28173828125,0.377655029296875,1.4553070068359375,1.9757010975652929
1784903214.864777,0.02587890625,-0.1650390625,0.9667968153953552,0.981123688531765,1.2187957763671875,-0.0514984130859375,1.5811920166015625,1.9970687079831233
1784903214.875415,0.0322265625,-0.16845703125,0.9790038466453552,0.9939139069630387,1.77001953125,-0.659942626953125,1.7032623291015625,2.543540047573999
1784903214.886053,0.0327148474752903,-0.17578125,0.9760741591453552,0.9923155109380314,1.3446807861328125,-0.9059906005859375,2.1915435791015625,2.7261417138597386
1784903214.896691,0.03466796875,-0.16748046875,0.9653319716453552,0.9803659474658836,1.3427734375,-1.148223876953125,2.0694732666015625,2.721061957625988
1784903214.904704,0.0371093787252903,-0.1533203125,0.9760741591453552,0.988739090137427,-0.18310546875,-2.002716064453125,2.3097991943359375,3.062608621038561
1784903214.912718,0.0380859412252903,-0.16552734375,0.9892577528953552,1.0037334019108433,-0.30517578125,-2.490997314453125,2.3097991943359375,3.4107729616949256
1784903214.920732,0.0366210974752903,-0.166015625,0.9663085341453552,0.9811495684586425,-0.0629425048828125,-2.5539398193359375,2.6798248291015625,3.702435883898575
1784903214.936747,0.0341796875,-0.166015625,0.9658202528953552,0.980580542171109,-0.18310546875,-2.490997314453125,2.5577545166015625,3.5750109650873143
1784903214.944747,0.041015625,-0.15478515625,0.9702147841453552,0.9833399480666367,-0.48828125,-2.857208251953125,2.6798248291015625,3.947596571180978
1784903214.952747,0.0458984412252903,-0.16259765625,0.9799804091453552,0.9944376637243797,-0.1850128173828125,-2.5539398193359375,2.4967193603515625,3.576373289764356
1784903214.960747,0.0546875,-0.14404296875,0.9702147841453552,0.9823725499405924,-0.4291534423828125,-2.3708343505859375,2.9201507568359375,3.785803565648482
1784903214.971399,0.05078125,-0.1640625,0.9624022841453552,0.9776059511817681,-0.30517578125,-2.246856689453125,2.9201507568359375,3.6971310070176444
1784903214.982051,0.0498046875,-0.15087890625,0.9711913466453552,0.9841024250793143,-0.67138671875,-2.002716064453125,2.7980804443359375,3.505835982174252
1784903214.992703,0.0463867224752903,-0.16064453125,0.9624022841453552,0.9768196097390393,-0.9174346923828125,-1.5163421630859375,2.9201507568359375,3.4158835479256586
1784903215.000843,0.06005859375,-0.15478515625,0.9882811903953552,1.0021303261391827,-0.9174346923828125,-1.0280609130859375,2.9850006103515625,3.287677645329882
1784903215.008982,0.05517578125,-0.1650390625,0.9692382216453552,0.9847359997916586,-0.9174346923828125,-0.9059906005859375,2.4967193603515625,2.810002303823242
1784903215.017121,0.0585937462747097,-0.1669921875,0.9819335341453552,0.9977540194194798,-0.79345703125,-0.720977783203125,2.1915435791015625,2.4397225832897154
1784903215.02526,0.0439453087747097,-0.16650390625,0.9829100966453552,0.9978812549833748,-0.4291534423828125,-0.4177093505859375,2.3746490478515625,2.4490022211378815
1784903215.035733,0.06396484375,-0.1640625,0.9721679091453552,0.9879870691027609,-0.7343292236328125,-0.1125335693359375,1.8863677978515625,2.0273841968605777
1784903215.046206,0.0527343787252903,-0.169921875,0.9711913466453552,0.9873535284293445,-0.3662109375,0.438690185546875,1.7032623291015625,1.7965695342447117
1784903215.056679,0.0595703125,-0.17724609375,0.9746093153953552,0.9923850651518212,-0.42724609375,0.316619873046875,1.3980865478515625,1.4958052560130788
1784903215.067364,0.0576171912252903,-0.17431640625,0.9985350966453552,1.0152725197921766,-0.244140625,0.316619873046875,1.0318756103515625,1.10662553016909
1784903215.078049,0.0419921912252903,-0.1865234375,0.9643554091453552,0.9831254711422257,0.42724609375,0.621795654296875,0.9098052978515625,1.181911477364478
1784903215.088734,0.0219726599752903,-0.1650390625,0.9594725966453552,0.9738112515527068,0.7915496826171875,1.0471343994140625,0.6046295166015625,1.4452052459195748
1784903215.099434,0.0385742150247097,-0.17138671875,0.9980468153953552,1.0133897686228506,0.67138671875,0.133514404296875,0.9098052978515625,1.1385657215406633
1784903215.110133,0.0556640625,-0.189453125,0.9736327528953552,0.9934544337496599,1.0356903076171875,0.6847381591796875,0.7877349853515625,1.4703901411107863
1784903215.120832,0.029296875,-0.17724609375,0.9692382216453552,0.9857470339456519,1.2187957763671875,0.9250640869140625,0.5435943603515625,1.6237923321640202
1784903215.128865,0.0488281212747097,-0.18115234375,0.9794921278953552,0.9972989449920755,1.0967254638671875,0.5588531494140625,0.6618499755859375,1.397558219140734
1784903215.1369,0.0419921875,-0.173828125,0.9794921278953552,0.9956828759504814,1.3427734375,0.804901123046875,0.9098052978515625,1.8107048357853517
1784903215.144935,0.0263671912252903,-0.17724609375,0.9633788466453552,0.9799031629127848,1.28173828125,1.171112060546875,0.9098052978515625,1.9601280978494293
1784903215.15297,0.03564453125,-0.18359375,0.9711913466453552,0.989034796883261,1.4019012451171875,0.9250640869140625,0.5435943603515625,1.7653797026603917
1784903215.163566,0.0424804724752903,-0.1689453125,0.9707030653953552,0.9862107028041147,1.220703125,0.988006591796875,0.5435943603515625,1.6618567848719297
1784903215.174162,0.0468750037252903,-0.1708984375,0.9843749403953552,1.0001987628429394,1.40380859375,0.865936279296875,0.6618499755859375,1.777236505891091
1784903215.184758,0.0312500037252903,-0.1669921875,0.9741210341453552,0.9888249301991138,1.0986328125,0.865936279296875,0.5435943603515625,1.5007779732892537
1784903215.192739,0.0371093787252903,-0.17529296875,0.9687499403953552,0.985180784373391,0.91552734375,0.988006591796875,0.3604888916015625,1.394381434025902
1784903215.200722,0.019042976200580597,-0.17333984375,0.9628905653953552,0.9785538193176894,0.91552734375,0.865936279296875,0.2384185791015625,1.2825285087736857
1784903215.208705,0.0512695349752903,-0.1650390625,0.9838866591453552,0.9989491555688257,0.67138671875,0.682830810546875,-0.2498626708984375,0.9896713577013809
1784903215.216688,0.03515625,-0.1787109375,0.9736327528953552,0.9905222352914543,0.6103515625,0.316619873046875,-0.4978179931640625,0.8488815748809166
1784903215.22746,0.04541015625,-0.1689453125,0.9682616591453552,0.9839386370487176,0.42724609375,0.499725341796875,-1.1043548583984375,1.2852487288952557
1784903215.238232,0.0463867224752903,-0.1650390625,0.9721679091453552,0.9871676978836625,0.42724609375,0.011444091796875,-1.0433197021484375,1.127468932056575
1784903215.249004,0.04931640625,-0.17041015625,0.9682616591453552,0.9843791799146712,0.6103515625,-0.049591064453125,-1.4743804931640625,1.596491823387295
1784903215.259578,0.03173828125,-0.1787109375,0.9770507216453552,0.993767090593436,0.30517578125,0.011444091796875,-1.7757415771484375,1.8018105820291497
1784903215.270154,0.029296875,-0.18408203125,0.9746093153953552,0.9922740643437652,0.2422332763671875,-0.5397796630859375,-1.7757415771484375,1.8717096980232726
1784903215.28073,0.0380859412252903,-0.17529296875,0.9575194716453552,0.9741774491293693,0.3681182861328125,-0.6008148193359375,-1.6574859619140625,1.8010411526839745
1784903215.291407,0.03466796875,-0.1787109375,0.9643554091453552,0.9813871928995637,0.67138671875,-0.720977783203125,-1.4743804931640625,1.77323628673933
1784903215.302082,0.0234375037252903,-0.17578125,0.9741210341453552,0.9901313819876895,0.48828125,-1.087188720703125,-1.3484954833984375,1.7996771827946383
1784903215.312757,0.03466796875,-0.16259765625,0.9755858778953552,0.9896502771303078,0.48828125,-1.087188720703125,-1.5926361083984375,1.9891927174862116
1784903215.320751,0.0273437537252903,-0.1669921875,0.9716796278953552,0.9863038937470948,0.30517578125,-1.270294189453125,-1.6574859619140625,2.110459499531347
1784903215.328748,0.0341796875,-0.16796875,0.9711913466453552,0.9862019994975566,0.30517578125,-1.392364501953125,-1.5926361083984375,2.1373584017509186
1784903215.336745,0.0278320349752903,-0.17138671875,0.9692382216453552,0.9846678423879842,0.48828125,-0.965118408203125,-1.4095306396484375,1.7766960193183947
1784903215.344742,0.02587890625,-0.16796875,0.9614257216453552,0.9763312127585345,0.79345703125,-0.965118408203125,-1.5926361083984375,2.02423254001785
1784903215.355419,0.0468750037252903,-0.1796875,0.9672850966453552,0.9849494006408198,0.6084442138671875,-0.6008148193359375,-1.7757415771484375,1.9708985152299838
1784903215.366096,0.0405273474752903,-0.18212890625,0.9736327528953552,0.9913496567285389,0.3662109375,-0.720977783203125,-1.7147064208984375,1.8958210686896195
1784903215.376773,0.0454101599752903,-0.162109375,0.9711913466453552,0.9856744715628434,0.79345703125,-0.354766845703125,-1.9626617431640625,2.146502898514233
1784903215.384761,0.05419921875,-0.1748046875,0.9755858778953552,0.9926036667441512,0.48828125,-0.537872314453125,-1.6574859619140625,1.8096919405520127
1784903215.392749,0.0556640625,-0.16943359375,0.9721679091453552,0.9883909520615289,0.5474090576171875,-0.3566741943359375,-2.0198822021484375,2.12292187039998
1784903215.400737,0.05029296875,-0.17041015625,0.9672850966453552,0.9834680789181985,0.6732940673828125,-0.1125335693359375,-2.2640228271484375,2.3646961892068887
1784903215.408725,0.0434570275247097,-0.16259765625,0.9697265028953552,0.9842235525920582,0.18310546875,-0.293731689453125,-1.9626617431640625,1.9929493310555944
1784903215.416759,0.0302734375,-0.16259765625,0.9653319716453552,0.9793979243988464,-0.18310546875,-0.415802001953125,-2.1457672119140625,2.193338971805278
1784903215.424793,0.0400390625,-0.1572265625,0.9594725966453552,0.9730935115367001,-0.30517578125,-0.354766845703125,-1.9626617431640625,2.0176800763132614
1784903215.432827,0.0375976599752903,-0.16064453125,0.9741210341453552,0.987993946651783,-0.2460479736328125,-0.7228851318359375,-2.2640228271484375,2.3893308437735192
1784903215.440861,0.0361328162252903,-0.1826171875,0.9663085341453552,0.9840766234094406,-0.2460479736328125,-0.9059906005859375,-1.8978118896484375,2.1173210767783552
1784903215.451477,0.0327148474752903,-0.15966796875,0.9702147841453552,0.983809355954852,-0.54931640625,-1.026153564453125,-1.8367767333984375,2.174508776797441
1784903215.462093,0.0419921912252903,-0.1767578125,0.9692382216453552,0.9861183492370159,-0.732421875,-0.782012939453125,-1.6574859619140625,1.9736376958278887
1784903215.472709,0.0527343787252903,-0.1650390625,0.9697265028953552,0.9850828885266847,-0.1220703125,-0.720977783203125,-1.3484954833984375,1.5339981074995905
1784903215.480766,0.0380859412252903,-0.19091796875,0.9741210341453552,0.9933841144668353,-0.2460479736328125,-0.5397796630859375,-0.9212493896484375,1.0957199130880118
1784903215.488823,0.05078125,-0.18359375,0.9780272841453552,0.996404922169378,-0.2460479736328125,-0.5397796630859375,-1.0433197021484375,1.2001740252567898
1784903215.49688,0.0405273474752903,-0.166015625,0.9628905653953552,0.9779375719159737,0.0,-0.415802001953125,-0.9212493896484375,1.0107382167286667
1784903215.504937,0.0361328125,-0.1650390625,0.9755858778953552,0.9901067000272697,-0.30517578125,0.011444091796875,-0.9212493896484375,0.9705481248378268
1784903215.51555,0.05419921875,-0.14794921875,0.9716796278953552,0.9843717925198292,0.0591278076171875,0.3147125244140625,-0.7381439208984375,0.8046095441989275
1784903215.526163,0.03466796875,-0.1591796875,0.9819335341453552,0.9953559697158781,0.1220703125,0.316619873046875,-0.5550384521484375,0.6505512958755829
1784903215.536776,0.0400390625,-0.17236328125,0.9736327528953552,0.9895822172814815,0.0591278076171875,1.0471343994140625,-0.2498626708984375,1.0781548601097921
1784903215.547451,0.044921875,-0.1650390625,0.9760741591453552,0.9909473402536114,-0.4291534423828125,1.1081695556640625,-0.1277923583984375,1.1952168539954322
1784903215.558129,0.0502929724752903,-0.17724609375,0.9868163466453552,1.0038685485841858,-0.54931640625,1.354217529296875,0.1163482666015625,1.4660117837082811
1784903215.568807,0.04345703125,-0.1630859375,0.9760741591453552,0.9905585801590079,-0.244140625,1.476287841796875,-0.0667572021484375,1.497827413506427
1784903215.579475,0.05029296875,-0.1689453125,0.9731444716453552,0.9889803152820226,-0.7343292236328125,1.5354156494140625,-0.6809234619140625,1.833138670731652
1784903215.590142,0.03759765625,-0.16845703125,0.9736327528953552,0.9888134771753693,-0.6084442138671875,1.0471343994140625,-0.3147125244140625,1.2512948432914526
1784903215.600809,0.0424804724752903,-0.16748046875,0.9770507216453552,0.9922108700382963,-0.67138671875,1.232147216796875,-0.4978179931640625,1.48888201154157
1784903215.608788,0.044921875,-0.17529296875,0.9702147841453552,0.9869459595747492,-0.6103515625,0.988006591796875,-0.9212493896484375,1.4823584226521893
1784903215.616769,0.041015625,-0.1796875,0.9794921278953552,0.9966818488160409,-0.6103515625,0.988006591796875,-1.1043548583984375,1.602587192182847
1784903215.62475,0.029296875,-0.1708984375,0.9702147841453552,0.9855867847119935,-0.18310546875,0.743865966796875,-1.0433197021484375,1.294364782484409
1784903215.632731,0.0434570275247097,-0.16064453125,0.9736327528953552,0.987752963130156,-0.4291534423828125,0.8029937744140625,-1.1043548583984375,1.4312831069096683
1784903215.643431,0.03564453125,-0.1640625,0.9658202528953552,0.9803039311443824,-0.2460479736328125,0.3795623779296875,-0.7381439208984375,0.8657156877565353
1784903215.654131,0.0371093787252903,-0.15380859375,0.9794921278953552,0.9921890032194978,0.1220703125,0.438690185546875,-0.5550384521484375,0.7179261267375165
1784903215.664831,0.0380859412252903,-0.18505859375,0.9824218153953552,1.0004248324609146,0.18310546875,0.133514404296875,-0.6809234619140625,0.717642299356677
1784903215.675463,0.03466796875,-0.1640625,0.9726561903953552,0.9870047804736847,0.2422332763671875,-0.0514984130859375,-0.1926422119140625,0.3137516032486442
1784903215.686097,0.04443359375,-0.16015625,0.9633788466453552,0.9776109506502765,-0.1201629638671875,0.0705718994140625,-0.1277923583984375,0.18907780868544638
1784903215.696731,0.04150390625,-0.16943359375,0.9653319716453552,0.9809669374682093,-0.42724609375,0.011444091796875,0.1735687255859375,0.4612984872760971
1784903215.70474,0.04052734375,-0.18017578125,0.9746093153953552,0.9919521638647105,-0.244140625,-0.293731689453125,0.1735687255859375,0.41953432835216736
1784903215.712749,0.0478515662252903,-0.16796875,0.9843749403953552,0.9997486167257922,0.18310546875,-0.049591064453125,0.4215240478515625,0.4622438850616821
1784903215.720758,0.0410156287252903,-0.17041015625,0.9726561903953552,0.9883228054979232,0.2422332763671875,-0.0514984130859375,0.2384185791015625,0.34376222246017685
1784903215.728767,0.0400390625,-0.16748046875,0.9550780653953552,0.9704776890469626,-0.0629425048828125,-0.2346038818359375,0.6618499755859375,0.7050149859942832
1784903215.739458,0.05078125,-0.1796875,0.9731444716453552,0.990896813851841,-0.2460479736328125,-0.0514984130859375,0.4787445068359375,0.5407291324727825
1784903215.750149,0.044921875,-0.1640625,0.9755858778953552,0.9903041370753818,-0.18310546875,0.072479248046875,0.3604888916015625,0.4107713415657435
1784903215.76084,0.0400390625,-0.1728515625,0.9692382216453552,0.9853443659365091,-0.1220703125,0.316619873046875,0.4787445068359375,0.5868096863785156
1784903215.771454,0.0527343787252903,-0.1591796875,0.9824218153953552,0.9966301776370438,-0.1220703125,0.194549560546875,0.4787445068359375,0.5309868129515222
1784903215.782069,0.0454101599752903,-0.1572265625,0.9677733778953552,0.9815129064599883,-0.3662109375,0.316619873046875,0.3604888916015625,0.6035816727841985
1784903215.792684,0.0405273474752903,-0.162109375,0.9677733778953552,0.982093287992164,-0.3662109375,0.133514404296875,0.5435943603515625,0.6689031136909162
1784903215.803394,0.03369140625,-0.1728515625,0.9594725966453552,0.9755000959647182,-0.3032684326171875,0.0705718994140625,0.2384185791015625,0.39216776266006637
1784903215.814104,0.0385742150247097,-0.1708984375,0.9609374403953552,0.9767778715543728,-0.42724609375,0.316619873046875,0.4787445068359375,0.7155303427936778
1784903215.824814,0.0405273474752903,-0.17138671875,0.9707030653953552,0.9865497019538416,-0.6103515625,-0.049591064453125,0.3604888916015625,0.710591686193913
1784903215.832804,0.04931640625,-0.16943359375,0.9692382216453552,0.9851713459671397,-0.30517578125,0.255584716796875,0.0553131103515625,0.401889717582387
1784903215.840792,0.04541015625,-0.17578125,0.9760741591453552,0.9928151360114954,-0.4291534423828125,0.2536773681640625,-0.2498626708984375,0.5576345026414382
1784903215.84878,0.0361328125,-0.16455078125,0.9829100966453552,0.9972436000479156,-0.1201629638671875,0.2536773681640625,-0.0095367431640625,0.28085991966489204
1784903215.856768,0.0483398400247097,-0.1767578125,0.9736327528953552,0.9907274105040133,0.0591278076171875,0.3795623779296875,-0.1926422119140625,0.4297379645602616
1784903215.867409,0.0390625,-0.17529296875,0.9755858778953552,0.9919784820994302,-0.1220703125,0.499725341796875,-0.3147125244140625,0.6030510355276103
1784903215.87805,0.03564453125,-0.16796875,0.9736327528953552,0.9886580658120292,-0.30517578125,0.438690185546875,-0.0667572021484375,0.538551632060833
1784903215.888691,0.041015625,-0.17822265625,0.9731444716453552,0.9901796601571171,-0.1850128173828125,0.5588531494140625,-0.1926422119140625,0.6194010066322826
1784903215.899381,0.0478515662252903,-0.18017578125,0.9565429091453552,0.9745395946679234,0.0591278076171875,0.3147125244140625,-0.1277923583984375,0.34477667775202214
1784903215.910072,0.041015625,-0.16845703125,0.9707030653953552,0.9860651570964484,0.18310546875,0.499725341796875,0.2384185791015625,0.5831778877675051
1784903215.920763,0.0302734412252903,-0.17138671875,0.9677733778953552,0.9832981234450204,0.0,0.499725341796875,0.3604888916015625,0.6161798911049651
1784903215.928776,0.0512695349752903,-0.17236328125,0.9702147841453552,0.9867392732196623,0.0591278076171875,0.3795623779296875,0.6046295166015625,0.7163382920932632
1784903215.936789,0.0439453125,-0.16552734375,0.9614257216453552,0.9765602440509983,-0.1220703125,0.621795654296875,0.5435943603515625,0.8348807253149104
1784903215.944802,0.0351562537252903,-0.181640625,0.9663085341453552,0.9838604890880275,-0.06103515625,0.499725341796875,0.4787445068359375,0.6947280117845044
1784903215.952815,0.05419921875,-0.16796875,0.9726561903953552,0.9885398934813295,-0.06103515625,0.377655029296875,0.4787445068359375,0.6128171948283357
1784903215.960797,0.03369140625,-0.1728515625,0.9721679091453552,0.9879894822749105,-0.1220703125,0.438690185546875,0.4787445068359375,0.6607166888421877
1784903215.968779,0.0498046875,-0.16845703125,0.9638671278953552,0.9797439045545409,0.0,0.316619873046875,0.3604888916015625,0.4797920226268277
1784903215.976761,0.04052734375,-0.1650390625,0.9775390028953552,0.9922010179010878,-0.30517578125,0.499725341796875,0.2384185791015625,0.6322191815789516
1784903215.984743,0.0400390625,-0.16259765625,0.9697265028953552,0.9840785612752304,-0.1220703125,0.438690185546875,0.2384185791015625,0.5139977227087755
1784903215.995409,0.0458984412252903,-0.177734375,0.9609374403953552,0.9783133134722889,-0.18310546875,0.743865966796875,0.2384185791015625,0.8023139087075674
1784903216.006075,0.04443359375,-0.17529296875,0.9760741591453552,0.992684609177578,0.0,0.438690185546875,-0.1277923583984375,0.4569244639545866
1784903216.016741,0.05029296875,-0.16796875,0.9731444716453552,0.9888139594363383,0.18310546875,0.621795654296875,-0.0095367431640625,0.6482656846222954
1784903216.024744,0.0322265662252903,-0.16943359375,0.9755858778953552,0.990713934196226,0.1220703125,0.194549560546875,-0.0667572021484375,0.23918030174225716
1784903216.032749,0.0419921912252903,-0.1650390625,0.9726561903953552,0.9874519233811769,0.0591278076171875,0.2536773681640625,-0.3147125244140625,0.40852451306541243
1784903216.040754,0.048828125,-0.16796875,0.9843749403953552,0.9997958341811278,-0.06103515625,-0.293731689453125,-0.2498626708984375,0.39042918691607814
1784903216.059412,0.0400390625,-0.1728515625,0.9848632216453552,1.00071791956287,0.1220703125,0.316619873046875,-0.1277923583984375,0.3626019747148402
1784903216.070063,0.03955078125,-0.17041015625,0.9663085341453552,0.9820163281803311,0.0591278076171875,0.3147125244140625,-0.0667572021484375,0.3271033394745067
1784903216.080714,0.04443359375,-0.16259765625,0.9799804091453552,0.9943711301019509,0.18310546875,0.072479248046875,-0.3147125244140625,0.37124766276256815
1784903216.088724,0.0375976599752903,-0.1630859375,0.9672850966453552,0.9816573053963821,0.1220703125,0.499725341796875,-0.1277923583984375,0.5300542097681009
1784903216.096734,0.0419921912252903,-0.16259765625,0.9731444716453552,0.9875279766344911,0.18310546875,0.438690185546875,0.1163482666015625,0.48940127781044573
1784903216.104744,0.0332031287252903,-0.18017578125,0.9506835341453552,0.968176090389191,0.0591278076171875,0.2536773681640625,-0.0095367431640625,0.26065159547264954
1784903216.112754,0.0219726599752903,-0.18017578125,0.9648436903953552,0.9817685352623426,0.0591278076171875,0.3147125244140625,0.1735687255859375,0.36423367932992345
1784903216.123449,0.0327148474752903,-0.17626953125,0.9682616591453552,0.9847191728931363,-0.1850128173828125,0.5588531494140625,-0.0095367431640625,0.5887593181225412
1784903216.134144,0.0434570275247097,-0.1669921875,0.9692382216453552,0.9844783564028055,0.30517578125,0.377655029296875,0.1163482666015625,0.4992919964869852
1784903216.144839,0.044921875,-0.17529296875,0.9697265028953552,0.9864659599623088,0.1220703125,0.499725341796875,-0.0667572021484375,0.5187322068915121
1784903216.155717,0.0434570275247097,-0.171875,0.9765624403953552,0.9925239185315461,0.1220703125,0.621795654296875,-0.3719329833984375,0.7347551572027167
1784903216.166596,0.0317382849752903,-0.17529296875,0.9755858778953552,0.9917170709306219,0.1220703125,0.682830810546875,-0.5550384521484375,0.8883843539759597
1784903216.177475,0.03955078125,-0.16552734375,0.9692382216453552,0.9840662051532238,-0.2460479736328125,0.5588531494140625,-0.5550384521484375,0.8251812717834567
1784903216.185279,0.04150390625,-0.17333984375,0.9633788466453552,0.9797285735493367,-0.3662109375,0.255584716796875,-0.5550384521484375,0.7123915226672065
1784903216.193083,0.0380859412252903,-0.1806640625,0.9653319716453552,0.9828305336520274,-0.1220703125,0.133514404296875,-0.4978179931640625,0.5296697194162525
1784903216.200887,0.03955078125,-0.169921875,0.9653319716453552,0.9809707046500981,-0.0629425048828125,-0.2346038818359375,-0.4329681396484375,0.4964495445098548
1784903216.208691,0.0327148474752903,-0.16943359375,0.9702147841453552,0.9854413890793251,0.0,-0.354766845703125,-0.8602142333984375,0.9304988136217082
1784903216.21938,0.0341796875,-0.1787109375,0.9750975966453552,0.9919280080748171,0.1850128173828125,-0.1125335693359375,-0.5550384521484375,0.5957862285977626
1784903216.230069,0.0424804724752903,-0.1767578125,0.9824218153953552,0.9990998639706716,0.42724609375,-0.293731689453125,-0.3719329833984375,0.6380843785529334
1784903216.240758,0.0312500037252903,-0.177734375,0.9755858778953552,0.9921360168536985,0.8544921875,-0.537872314453125,-0.1277923583984375,1.017739854785461
1784903216.248765,0.0400390662252903,-0.171875,0.9716796278953552,0.9875755372203431,0.42724609375,-0.293731689453125,0.2994537353515625,0.5987404025365455
1784903216.256771,0.04443359375,-0.173828125,0.9775390028953552,0.9938677293665394,0.79345703125,-0.232696533203125,0.2384185791015625,0.8605609541837373
1784903216.264777,0.0468750037252903,-0.1650390625,0.9833983778953552,0.9982522365476276,0.6103515625,0.499725341796875,0.1735687255859375,0.8077007797332633
1784903216.272783,0.03076171875,-0.1650390625,0.9692382216453552,0.9836701204110978,0.1201629638671875,0.5588531494140625,0.4787445068359375,0.7456220780804096
1784903216.283446,0.0546875,-0.17138671875,0.9702147841453552,0.9867526829932411,0.2422332763671875,0.3795623779296875,0.3604888916015625,0.5767987516346964
1784903216.294109,0.0371093787252903,-0.17138671875,0.9750975966453552,0.9907400447830987,-0.18310546875,0.438690185546875,0.3604888916015625,0.5965977979756814
1784903216.304772,0.0341796875,-0.16015625,0.9711913466453552,0.9849014708337472,-0.1850128173828125,0.5588531494140625,0.5435943603515625,0.8012748678274932
1784903216.315434,0.0473632849752903,-0.17236328125,0.9770507216453552,0.9932675843671868,0.0,0.682830810546875,-0.1277923583984375,0.6946861181117246
1784903216.326094,0.03515625,-0.17529296875,0.9687499403953552,0.9851091481776297,-0.244140625,0.682830810546875,0.1163482666015625,0.7344382068960473
1784903216.336754,0.0429687537252903,-0.17724609375,0.9614257216453552,0.9785713616224575,-0.30517578125,0.865936279296875,-0.3719329833984375,0.990611952988518
1784903216.347431,0.0278320349752903,-0.1728515625,0.9755858778953552,0.9911710699866134,-0.42724609375,0.499725341796875,-0.3719329833984375,0.7553798951509761
1784903216.358106,0.03466796875,-0.16357421875,0.9809569716453552,0.995105508635416,-0.8544921875,0.133514404296875,-0.4329681396484375,0.9671837491417613
1784903216.368781,0.0375976599752903,-0.17236328125,0.9702147841453552,0.986123426419382,-0.48828125,0.377655029296875,-0.0667572021484375,0.6208851941329196
1784903216.376789,0.03466796875,-0.16748046875,0.9755858778953552,0.9904642248051273,-0.48828125,0.072479248046875,-0.0667572021484375,0.4981248282686683
1784903216.384796,0.0273437537252903,-0.1650390625,0.9643554091453552,0.9787578496066194,-0.7915496826171875,-0.1125335693359375,-0.0095367431640625,0.7995659158249767
1784903216.392803,0.0224609412252903,-0.1796875,0.9799804091453552,0.9965709677918948,-0.42724609375,-0.171661376953125,0.1163482666015625,0.47491448925387075
1784903216.40081,0.0400390662252903,-0.17626953125,0.9741210341453552,0.9907501519735963,0.0,-0.232696533203125,0.9098052978515625,0.939091772173265
1784903216.408804,0.0312500037252903,-0.1826171875,0.9765624403953552,0.9939817905244404,0.06103515625,-0.171661376953125,0.3604888916015625,0.4039123167273163
1784903216.416798,0.05078125,-0.18408203125,0.9716796278953552,0.9902657364806401,0.30517578125,-0.476837158203125,0.4787445068359375,0.7414190689012287
1784903216.424792,0.04150390625,-0.15869140625,0.9697265028953552,0.9835014118288121,0.18310546875,-0.476837158203125,1.0318756103515625,1.1513768120679688
1784903216.432786,0.04541015625,-0.16796875,0.9672850966453552,0.9828102774490233,0.0,-0.171661376953125,1.2760162353515625,1.2875111887739916
1784903216.443425,0.0375976599752903,-0.17138671875,0.9667968153953552,0.9825899824739257,0.18310546875,-0.415802001953125,0.9670257568359375,1.0684370509760983
1784903216.454064,0.0410156287252903,-0.171875,0.9677733778953552,0.9837726405972657,0.244140625,-0.659942626953125,0.9098052978515625,1.1501628561399262
1784903216.464703,0.0322265662252903,-0.1728515625,0.9643554091453552,0.9802538290551432,0.30517578125,-0.293731689453125,1.0318756103515625,1.1154271998158125
1784903216.475387,0.0419921912252903,-0.17236328125,0.9594725966453552,0.9757356755600096,0.1220703125,-0.171661376953125,1.0318756103515625,1.0531552899595102
1784903216.486071,0.0537109375,-0.17041015625,0.9702147841453552,0.9865298847650266,0.244140625,-0.354766845703125,0.6046295166015625,0.7423213670179343
1784903216.496755,0.041015625,-0.15478515625,0.9746093153953552,0.9876760823999337,0.3681182861328125,-0.4177093505859375,0.8487701416015625,1.0150876451945523
1784903216.504742,0.0498046875,-0.16552734375,0.9726561903953552,0.9878966915322213,0.1220703125,0.011444091796875,0.6618499755859375,0.6731103316797395
1784903216.512729,0.04638671875,-0.1748046875,0.9804686903953552,0.9970091570762764,0.5474090576171875,0.4367828369140625,0.3604888916015625,0.787647233190187
1784903216.520716,0.0522460974752903,-0.17626953125,0.9677733778953552,0.9850816784975134,0.18310546875,0.438690185546875,0.3604888916015625,0.5965977979756814
1784903216.528703,0.0375976599752903,-0.1748046875,0.9731444716453552,0.9894343967648931,0.30517578125,0.438690185546875,0.7266998291015625,0.9020387896165772
1784903216.539384,0.0361328125,-0.1591796875,0.9755858778953552,0.9891468840372539,0.1220703125,0.438690185546875,0.6618499755859375,0.8033651911006011
1784903216.550065,0.0400390625,-0.16064453125,0.9799804091453552,0.993866889606002,0.18310546875,0.194549560546875,0.4787445068359375,0.548245790700416
1784903216.560746,0.0468750037252903,-0.16552734375,0.9653319716453552,0.9805418823201207,-0.2460479736328125,0.2536773681640625,0.5435943603515625,0.6483723012694812
1784903216.571415,0.04931640625,-0.17236328125,0.9658202528953552,0.9823186700615689,-0.244140625,0.316619873046875,0.5435943603515625,0.6747945001180984
1784903216.582083,0.0268554724752903,-0.1796875,0.9721679091453552,0.9889991191250742,0.0,0.316619873046875,0.6046295166015625,0.6825137334545426
1784903216.592751,0.044921875,-0.16943359375,0.9677733778953552,0.9835197143461547,-0.30517578125,0.133514404296875,0.7266998291015625,0.7994066519816666
1784903216.600759,0.03955078125,-0.18505859375,0.9707030653953552,0.988976940371287,-0.1220703125,0.377655029296875,0.6046295166015625,0.7232574470359157
1784903216.608768,0.0410156287252903,-0.16650390625,0.9677733778953552,0.9828484845382963,-0.1850128173828125,0.5588531494140625,0.4787445068359375,0.7587772321515238
1784903216.616777,0.0332031287252903,-0.1748046875,0.9692382216453552,0.9854348567142182,0.0591278076171875,0.3795623779296875,0.6618499755859375,0.7652509957891986
1784903216.624786,0.0458984375,-0.1689453125,0.9614257216453552,0.9772351832706169,-0.30517578125,0.438690185546875,0.4215240478515625,0.6806348942523193
1784903216.635442,0.04443359375,-0.17138671875,0.9770507216453552,0.9929631736802433,0.0591278076171875,0.1964569091796875,0.4787445068359375,0.5208528752187475
1784903216.646098,0.0458984375,-0.18408203125,0.9692382216453552,0.9876313032160929,-0.18310546875,0.377655029296875,0.1735687255859375,0.4541773181708959
1784903216.656754,0.03515625,-0.17431640625,0.9702147841453552,0.9863766515769703,-0.18310546875,0.072479248046875,0.6046295166015625,0.6358912693451899
1784903216.667404,0.0463867224752903,-0.16650390625,0.9770507216453552,0.9922214427667938,-0.18310546875,0.316619873046875,0.6046295166015625,0.7066488583732486
1784903216.678057,0.0419921912252903,-0.1611328125,0.9887694716453552,1.0026924730174733,0.0591278076171875,0.1964569091796875,0.5435943603515625,0.5810217236937665
1784903216.68871,0.0385742150247097,-0.16748046875,0.9692382216453552,0.9843578657052235,-0.2460479736328125,0.6198883056640625,0.6046295166015625,0.9002099583839953
1784903216.696716,0.0463867224752903,-0.1650390625,0.9667968153953552,0.9818786597291332,-0.244140625,0.499725341796875,0.7266998291015625,0.9151080283909842
1784903216.704722,0.04052734375,-0.1650390625,0.9707030653953552,0.985466792393457,-0.18310546875,0.438690185546875,0.8487701416015625,0.9728244676485297
1784903216.712728,0.0400390625,-0.16943359375,0.9697265028953552,0.9852311199076967,-0.1220703125,0.499725341796875,0.2994537353515625,0.5952303067249305
1784903216.720734,0.0429687537252903,-0.17138671875,0.9731444716453552,0.989055045917321,-0.3662109375,0.682830810546875,0.0553131103515625,0.7768062221387618
1784903216.728744,0.0283203162252903,-0.1689453125,0.9624022841453552,0.977528882158998,-0.2460479736328125,0.6198883056640625,0.3604888916015625,0.7581248959083183
1784903216.736754,0.0498046875,-0.171875,0.9707030653953552,0.987059250344128,-0.1220703125,0.316619873046875,0.1163482666015625,0.3587286221411043
1784903216.744764,0.0278320349752903,-0.16748046875,0.9838866591453552,0.9984274072899811,-0.3662109375,0.621795654296875,-0.1277923583984375,0.7328513992018726
1784903216.752774,0.0380859412252903,-0.16845703125,0.9848632216453552,0.9998919319837758,-0.18310546875,0.316619873046875,-0.3719329833984375,0.5216415443904356
1784903216.763426,0.0419921912252903,-0.1708984375,0.9760741591453552,0.9918116677147708,-0.1220703125,0.133514404296875,-0.3719329833984375,0.41359569810173247
1784903216.774078,0.02978515625,-0.1728515625,0.9707030653953552,0.9864224548130824,0.3032684326171875,0.0705718994140625,-0.3719329833984375,0.4850631704723175
1784903216.78473,0.0341796837747097,-0.19189453125,0.9633788466453552,0.982899060977439,0.0591278076171875,-0.0514984130859375,-0.3719329833984375,0.380108311305669
1784903216.792768,0.0283203162252903,-0.17333984375,0.9760741591453552,0.9917507277001046,0.1220703125,-0.171661376953125,-0.4978179931640625,0.5405474482866283
1784903216.800806,0.0341796875,-0.17724609375,0.9780272841453552,0.994546025742384,0.1220703125,-0.171661376953125,-0.4329681396484375,0.4814874863191352
1784903216.808844,0.0185546912252903,-0.17578125,0.9736327528953552,0.989547402567768,0.2422332763671875,-0.2346038818359375,-0.2498626708984375,0.41969905391908335
1784903216.816882,0.0356445349752903,-0.1669921875,0.9716796278953552,0.9865689143828199,0.18310546875,-0.415802001953125,-0.0667572021484375,0.4592117611223292
1784903216.827568,0.0410156287252903,-0.1826171875,0.9604491591453552,0.9785161757851328,0.1220703125,-0.232696533203125,0.0553131103515625,0.26853003171966605
1784903216.838254,0.04443359375,-0.17333984375,0.9736327528953552,0.9899402927426494,-0.0629425048828125,-0.2346038818359375,-0.1926422119140625,0.31001897055592575
1784903216.84894,0.0371093787252903,-0.15966796875,0.9765624403953552,0.99022480590271,0.3662109375,0.011444091796875,0.1735687255859375,0.405422644265476
1784903216.856895,0.0322265662252903,-0.171875,0.9785155653953552,0.9940182487845305,0.18310546875,-0.049591064453125,0.1163482666015625,0.22253944706711998
1784903216.86485,0.04052734375,-0.173828125,0.9775390028953552,0.9937007521452782,0.3662109375,-0.476837158203125,0.3604888916015625,0.7010252257629421
1784903216.872805,0.0517578162252903,-0.17578125,0.9790038466453552,0.9960052465415911,0.1201629638671875,0.0705718994140625,0.4787445068359375,0.49861391245916975
1784903216.88076,0.0439453087747097,-0.1669921875,0.9760741591453552,0.9912307223853849,0.30517578125,0.133514404296875,0.1163482666015625,0.35283887648257456
1784903216.891741,0.0424804724752903,-0.1767578125,0.9716796278953552,0.9885389289696006,-0.3032684326171875,0.0705718994140625,0.4215240478515625,0.5240559685054265
1784903216.902722,0.03369140625,-0.1689453125,0.9711913466453552,0.9863519966369226,0.0591278076171875,0.5588531494140625,-0.0667572021484375,0.5659235498566206
1784903216.913703,0.0278320349752903,-0.1650390625,0.9604491591453552,0.9749231260077712,-0.30517578125,0.621795654296875,0.1163482666015625,0.7023524843732063
1784903216.924027,0.0390625,-0.16357421875,0.9794921278953552,0.9938245481748244,-0.3681182861328125,0.7419586181640625,-0.4329681396484375,0.9345988838019833
1784903216.934354,0.0419921912252903,-0.16455078125,0.9736327528953552,0.9883324548169379,-0.79345703125,0.377655029296875,-0.6809234619140625,1.1116897690355518
1784903216.944681,0.0371093787252903,-0.1669921875,0.9575194716453552,0.9726803355961363,-0.3662109375,0.682830810546875,-0.8602142333984375,1.1577291971432666
1784903216.955349,0.0463867224752903,-0.1728515625,0.9726561903953552,0.9889840521439648,-0.67138671875,0.804901123046875,-0.7381439208984375,1.2819837721107592
1784903216.966019,0.0366210974752903,-0.1650390625,0.9648436903953552,0.9795419050897729,-0.3662109375,0.682830810546875,-0.8029937744140625,1.115870677240187
1784903216.976689,0.0371093787252903,-0.150390625,0.9755858778953552,0.987806788408603,-0.1850128173828125,0.5588531494140625,-1.0433197021484375,1.1979409777184544
1784903216.984714,0.0380859412252903,-0.1748046875,0.9716796278953552,0.9880124072894252,-0.30517578125,0.133514404296875,-0.8602142333984375,0.9224569805457373
1784903216.992739,0.0214843787252903,-0.18115234375,0.9829100966453552,0.9996949576059246,0.3681182861328125,0.0705718994140625,-0.8602142333984375,0.9383282969800758
1784903217.000764,0.0229492224752903,-0.1728515625,0.9731444716453552,0.9886427525475667,0.1220703125,-0.354766845703125,-0.4978179931640625,0.6233646046431311
1784903217.008789,0.0380859412252903,-0.17138671875,0.9736327528953552,0.9893354758591727,0.6103515625,-0.537872314453125,-0.1926422119140625,0.8360303094460723
1784903217.019465,0.0458984412252903,-0.1669921875,0.9697265028953552,0.9850698188507259,0.67138671875,-0.843048095703125,-0.0095367431640625,1.0777667499290995
1784903217.030141,0.0312500037252903,-0.1708984375,0.9760741591453552,0.9914149498691677,0.9136199951171875,-0.6008148193359375,-0.1277923583984375,1.1009136339770889
1784903217.040817,0.0434570275247097,-0.1708984375,0.9760741591453552,0.9918747669602938,0.8544921875,-0.293731689453125,0.1735687255859375,0.9200876623393277
1784903217.048832,0.02490234375,-0.173828125,0.9672850966453552,0.9830955202611154,0.30517578125,-0.049591064453125,0.3604888916015625,0.47491448925387075
1784903217.056847,0.037109375,-0.15869140625,0.9604491591453552,0.9741779382810478,0.67138671875,0.255584716796875,0.6618499755859375,0.9767953028946937
1784903217.064862,0.0473632849752903,-0.1767578125,0.9721679091453552,0.9892406424199762,0.30517578125,0.682830810546875,0.2384185791015625,0.7850054726907694
1784903217.072877,0.03466796875,-0.1708984375,0.9692382216453552,0.9847999158689257,0.1220703125,1.110076904296875,0.0553131103515625,1.1181374847593408
1784903217.083514,0.037109375,-0.1640625,0.9765624403953552,0.9909428891768044,-0.0629425048828125,1.0471343994140625,0.4787445068359375,1.1531038601022707
1784903217.094151,0.04052734375,-0.16943359375,0.9609374403953552,0.9766017472010009,-0.3681182861328125,1.0471343994140625,-0.1926422119140625,1.1265489535891244
1784903217.104788,0.0341796875,-0.15966796875,0.9707030653953552,0.9843406688998926,-0.2460479736328125,1.1081695556640625,-0.4329681396484375,1.2149241866800282
1784903217.115475,0.03564453125,-0.17431640625,0.9628905653953552,0.9791909839369101,-0.06103515625,0.682830810546875,-0.9212493896484375,1.1483395160222358
1784903217.126165,0.03564453125,-0.1728515625,0.9653319716453552,0.9813327726859185,-0.42724609375,0.499725341796875,-1.1692047119140625,1.341381489443135
1784903217.136855,0.0429687537252903,-0.16943359375,0.9663085341453552,0.9819909570102414,-0.48828125,0.499725341796875,-1.1692047119140625,1.3620512672794707
1784903217.14494,0.0322265662252903,-0.15966796875,0.9682616591453552,0.9818671256266501,-0.732421875,0.621795654296875,-1.4095306396484375,1.7058277353791407
1784903217.153028,0.0312500037252903,-0.17138671875,0.9760741591453552,0.9914992356265507,-0.732421875,0.682830810546875,-1.5926361083984375,1.881273369977138
1784903217.161116,0.0302734375,-0.1787109375,0.9804686903953552,0.9970822097729847,-0.48828125,0.377655029296875,-1.2264251708984375,1.373011507624043
1784903217.169204,0.0341796837747097,-0.171875,0.9765624403953552,0.9921610083040306,-0.67138671875,-0.293731689453125,-1.1692047119140625,1.3798833609638623
1784903217.179713,0.01513671875,-0.18701171875,0.9726561903953552,0.9905869815007419,-0.30517578125,-0.232696533203125,-1.0433197021484375,1.1116635889141127
1784903217.190222,0.0341796837747097,-0.17626953125,0.9677733778953552,0.9842888343332052,-0.1220703125,-0.354766845703125,-0.9860992431640625,1.0550603742785194
1784903217.200731,0.0380859412252903,-0.16796875,0.9633788466453552,0.9786535863416195,-0.06103515625,-0.537872314453125,-0.5550384521484375,0.7753061332899132
1784903217.211434,0.0400390625,-0.18603515625,0.9721679091453552,0.9906173072679946,0.244140625,-0.171661376953125,-0.0667572021484375,0.3058247817812037
1784903217.222137,0.0390624962747097,-0.18701171875,0.9697265028953552,0.9883667092646818,0.30517578125,-0.415802001953125,0.2384185791015625,0.5682138516004185
1784903217.23284,0.04052734375,-0.17822265625,0.9667968153953552,0.9839216752622318,0.48828125,-0.415802001953125,0.2384185791015625,0.6842172920868027
1784903217.240827,0.0375976599752903,-0.16162109375,0.9643554091453552,0.9785276271666883,0.3662109375,-0.293731689453125,0.0553131103515625,0.4727031799241254
1784903217.248815,0.04345703125,-0.16015625,0.9824218153953552,0.9963388787675764,0.79345703125,-0.476837158203125,0.3604888916015625,0.9934283954324129
1784903217.256803,0.0361328162252903,-0.15771484375,0.9697265028953552,0.983132261074324,0.8544921875,-0.537872314453125,0.2994537353515625,1.0531552899595102
1784903217.27278,0.0424804724752903,-0.1748046875,0.9726561903953552,0.9891518255698172,0.42724609375,-0.537872314453125,0.2994537353515625,0.749345308182949
1784903217.280768,0.03173828125,-0.15966796875,0.9648436903953552,0.9784807231811893,0.1220703125,-0.354766845703125,0.2994537353515625,0.48003459835723944
1784903217.288756,0.0356445349752903,-0.17138671875,0.9702147841453552,0.9858806558664768,0.67138671875,0.194549560546875,0.1735687255859375,0.7202331290106004
1784903217.296744,0.0366210974752903,-0.16162109375,0.9672850966453552,0.9813780825540456,0.5474090576171875,0.1316070556640625,-0.0095367431640625,0.5630879531050884
1784903217.307411,0.0366210974752903,-0.16796875,0.9702147841453552,0.9853280332615506,0.2422332763671875,0.2536773681640625,0.1163482666015625,0.36954848997041756
1784903217.318078,0.0366210974752903,-0.1708984375,0.9707030653953552,0.9863122334677672,0.18310546875,0.255584716796875,-0.1926422119140625,0.368730500443669
1784903217.328745,0.0444335900247097,-0.16162109375,0.9775390028953552,0.9918055374160176,0.118255615234375,-0.102996826171875,-0.1506805419921875,0.21747956793915
1784903217.339412,0.0371093787252903,-0.16943359375,0.9692382216453552,0.9846357595469849,-0.1239776611328125,0.2002716064453125,-0.1506805419921875,0.279613666588756
1784903217.350077,0.0273437537252903,-0.166015625,0.9809569716453552,0.9952815927322057,-0.064849853515625,0.1373291015625,-0.3337860107421875,0.36671226677620855
1784903217.360742,0.03515625,-0.16259765625,0.9711913466453552,0.9853357760331624,-0.064849853515625,0.3204345703125,-0.3948211669921875,0.512608594599649
1784903217.368733,0.04150390625,-0.1591796875,0.9619140028953552,0.975878730228696,-0.186920166015625,0.4425048828125,-0.2765655517578125,0.5542907397704895
1784903217.376725,0.0463867224752903,-0.16552734375,0.9741210341453552,0.9891727951755176,-0.2460479736328125,0.8716583251953125,-0.2765655517578125,0.9470038783607032
1784903217.384717,0.041015625,-0.1650390625,0.9746093153953552,0.9893348731852236,-0.3070831298828125,0.3833770751953125,-0.0934600830078125,0.5000128173954782
1784903217.392709,0.0366210974752903,-0.1748046875,0.9755858778953552,0.9917991675239087,-0.3070831298828125,0.3833770751953125,-0.0286102294921875,0.49203310424760266
1784903217.403394,0.02685546875,-0.1640625,0.9780272841453552,0.9920559906783345,-0.064849853515625,0.1373291015625,-0.0934600830078125,0.17832434705555117
1784903217.414079,0.0380859412252903,-0.1611328125,0.9755858778953552,0.9895363193597431,0.06103515625,0.0762939453125,-0.2117156982421875,0.23317288279726192
1784903217.424764,0.0283203162252903,-0.166015625,0.9746093153953552,0.9890533583738766,-0.0019073486328125,0.1392364501953125,0.1544952392578125,0.20798847563056844
1784903217.435423,0.0322265662252903,-0.16650390625,0.9633788466453552,0.9781926724990924,0.1811981201171875,-0.0438690185546875,0.2765655517578125,0.33353523643246075
1784903217.44608,0.028808601200580597,-0.16357421875,0.9692382216453552,0.983366254678824,-0.308990478515625,0.0762939453125,-0.0934600830078125,0.33170871110130473
1784903217.456737,0.0317382849752903,-0.17236328125,0.9750975966453552,0.9907228383559082,-0.2460479736328125,0.0171661376953125,0.0934600830078125,0.2637594903089078
1784903217.467407,0.0424804724752903,-0.17431640625,0.9746093153953552,0.9909864366806651,-0.1239776611328125,0.0171661376953125,0.3376007080078125,0.36005468305621746
1784903217.478078,0.0385742150247097,-0.162109375,0.9692382216453552,0.9834582603374248,-0.2460479736328125,0.2002716064453125,0.1544952392578125,0.3528698069123059
1784903217.488749,0.04150390625,-0.17333984375,0.9648436903953552,0.981169008153545,-0.2460479736328125,0.0171661376953125,-0.2765655517578125,0.370570892045356
1784903217.496768,0.04345703125,-0.17041015625,0.9721679091453552,0.9879466475930088,-0.370025634765625,-0.1678466796875,-0.1506805419921875,0.4333544784594724
1784903217.504787,0.04443359375,-0.16552734375,0.9560546278953552,0.971295061916098,-0.1850128173828125,-0.1049041748046875,0.0324249267578125,0.21514182383401853
1784903217.512806,0.0341796837747097,-0.1669921875,0.9624022841453552,0.9773805799161202,-0.003814697265625,-0.0457763671875,-0.3948211669921875,0.3974843161851622
1784903217.520825,0.03857421875,-0.169921875,0.9858397841453552,1.0011201196457142,-0.186920166015625,-0.3509521484375,-0.2765655517578125,0.484350145427158
1784903217.531461,0.041015625,-0.1689453125,0.9765624403953552,0.9919168312418108,-0.6122589111328125,0.1392364501953125,-0.4558563232421875,0.7759205827688905
1784903217.542097,0.03125,-0.17333984375,0.9755858778953552,0.9913581941357651,-0.6732940673828125,0.0171661376953125,-0.3948211669921875,0.7807069433285057
1784903217.552733,0.03466796875,-0.1669921875,0.9799804091453552,0.9947109434664846,-0.2460479736328125,-0.1659393310546875,-0.5168914794921875,0.5960304258100528
1784903217.560764,0.0361328125,-0.1689453125,0.9731444716453552,0.9883614022455554,-0.4291534423828125,-0.2269744873046875,-0.1506805419921875,0.5083254083078114
1784903217.568795,0.0390624962747097,-0.16650390625,0.9619140028953552,0.9769994771635684,0.118255615234375,-0.3509521484375,-0.2117156982421875,0.4265856747589335
1784903217.576826,0.0317382849752903,-0.1796875,0.9687499403953552,0.9857846435228269,0.0591278076171875,-0.3490447998046875,-0.2117156982421875,0.4124947354651772
1784903217.584857,0.0341796837747097,-0.18115234375,0.9614257216453552,0.9789401619457389,0.423431396484375,-0.4730224609375,-0.3948211669921875,0.7476149744254388
1784903217.592834,0.0322265662252903,-0.1708984375,0.9721679091453552,0.9876007650273799,-0.1850128173828125,-0.1659393310546875,-0.0934600830078125,0.26551909781149513
1784903217.600811,0.03759765625,-0.16845703125,0.9609374403953552,0.9763155839617811,-0.4901885986328125,-0.5931854248046875,-0.2765655517578125,0.8177055184168818
1784903217.608788,0.03369140625,-0.17919921875,0.9638671278953552,0.98096244122441,-0.1850128173828125,-0.5931854248046875,-0.2765655517578125,0.680137629613115
1784903217.616765,0.0375976599752903,-0.17724609375,0.9755858778953552,0.992268898501864,0.0591278076171875,-0.4711151123046875,-0.2765655517578125,0.5494852601249434
1784903217.628752,0.0351562537252903,-0.16650390625,0.9711913466453552,0.9859879029538468,0.0591278076171875,0.2002716064453125,0.3376007080078125,0.3969622803607133
1784903217.640742,0.03466796875,-0.17919921875,0.9604491591453552,0.9776383868081701,0.2422332763671875,-0.1659393310546875,0.0934600830078125,0.3081356988183723
1784903217.652732,0.0273437537252903,-0.17919921875,0.9707030653953552,0.9874839148241044,-0.1850128173828125,0.2002716064453125,0.0324249267578125,0.2745720940288025
1784903217.664722,0.04443359375,-0.169921875,0.9741210341453552,0.9898280542707769,0.0591278076171875,0.1392364501953125,-0.0934600830078125,0.17781359287870563
1784903217.675391,0.03515625,-0.1708984375,0.9638671278953552,0.9795315605386307,0.301361083984375,-0.0457763671875,0.2117156982421875,0.371130052158673
1784903217.686062,0.0400390625,-0.15771484375,0.9638671278953552,0.9775054673515677,-0.244140625,0.2593994140625,0.4596710205078125,0.5815411833103935
1784903217.696733,0.03955078125,-0.1708984375,0.9594725966453552,0.975375929552707,0.0591278076171875,0.0171661376953125,-0.0286102294921875,0.06789196674559664
1784903217.704736,0.0424804724752903,-0.17041015625,0.9589843153953552,0.9749333972478179,-0.42724609375,0.0762939453125,0.0324249267578125,0.43521416175399213
1784903217.712738,0.0327148474752903,-0.1806640625,0.9672850966453552,0.9845558505826623,-0.5512237548828125,0.2002716064453125,0.2117156982421875,0.6235221577277508
1784903217.72074,0.0214843787252903,-0.166015625,0.9687499403953552,0.9831069185441411,-0.370025634765625,0.2593994140625,0.2117156982421875,0.4990296216477024
1784903217.728742,0.04833984375,-0.16455078125,0.9663085341453552,0.981410150378477,-0.2460479736328125,0.0171661376953125,-0.2117156982421875,0.32505048607003284
1784903217.739414,0.0390625,-0.16259765625,0.9716796278953552,0.9859640845340661,-0.1239776611328125,0.0171661376953125,-0.0286102294921875,0.12838879224812635
1784903217.750086,0.0380859412252903,-0.1728515625,0.9790038466453552,0.99487523505418,-0.1239776611328125,-0.1659393310546875,0.0324249267578125,0.20966091177443918
1784903217.760758,0.0302734375,-0.17041015625,0.9716796278953552,0.9869738606660623,-0.064849853515625,-0.4119873046875,-0.0934600830078125,0.427403591281702
1784903217.771422,0.0258789099752903,-0.17724609375,0.9619140028953552,0.978450021563344,-0.064849853515625,-0.1678466796875,-0.1506805419921875,0.23469690479036068
1784903217.782087,0.0419921912252903,-0.1650390625,0.9716796278953552,0.9864900078265548,0.1811981201171875,0.0171661376953125,-0.2117156982421875,0.2791970126981199
1784903217.792752,0.041015625,-0.16357421875,0.9736327528953552,0.9881293154463141,-0.064849853515625,-0.2288818359375,-0.2765655517578125,0.3648025530916991
1784903217.80341,0.04052734375,-0.16455078125,0.9702147841453552,0.9849041336981149,-0.064849853515625,-0.102996826171875,-0.5168914794921875,0.5310279194864428
1784903217.814066,0.04541015625,-0.16552734375,0.9663085341453552,0.9814344435476703,-0.0019073486328125,0.1392364501953125,-0.3948211669921875,0.4186575939199857
1784903217.824722,0.03076171875,-0.18408203125,0.9804686903953552,0.9980738101038235,0.1201629638671875,0.0171661376953125,-0.5817413330078125,0.5942699661756667
1784903217.83273,0.0302734375,-0.16796875,0.9790038466453552,0.9937698494827819,-0.1850128173828125,0.0171661376953125,-0.3337860107421875,0.3820176957242741
1784903217.840736,0.04150390625,-0.17333984375,0.9765624403953552,0.9926950567300187,-0.1239776611328125,-0.0438690185546875,-0.6999969482421875,0.7122434126036475
1784903217.848742,0.0327148474752903,-0.17578125,0.9799804091453552,0.996158075510906,-0.0019073486328125,-0.2880096435546875,-0.7648468017578125,0.8172783019990557
1784903217.856748,0.0424804724752903,-0.18115234375,0.9746093153953552,0.9922117112004096,0.2422332763671875,-0.5931854248046875,-0.6999969482421875,0.9489687223131622
1784903217.867415,0.0341796875,-0.1689453125,0.9731444716453552,0.9882919266832234,0.5474090576171875,-0.7152557373046875,-0.5817413330078125,1.0722268531604289
1784903217.878082,0.048828125,-0.17431640625,0.9677733778953552,0.9845586352482603,0.972747802734375,-0.9002685546875,-0.4558563232421875,1.4016157625125227
1784903217.888749,0.0229492224752903,-0.16015625,0.9794921278953552,0.9927645842974324,0.9746551513671875,-0.6542205810546875,-0.1506805419921875,1.1834956098343532
1784903217.896742,0.03466796875,-0.17822265625,0.9638671278953552,0.9808185476913136,0.850677490234375,-0.4119873046875,-0.2117156982421875,0.9686120319804535
1784903217.904734,0.0429687537252903,-0.17236328125,0.9672850966453552,0.9834611699056478,0.423431396484375,-0.2288818359375,-0.0286102294921875,0.48218211039235404
1784903217.912726,0.0356445349752903,-0.17236328125,0.9599608778953552,0.975963380812258,0.3643035888671875,-0.1659393310546875,0.1544952392578125,0.42909409854450187
1784903217.920718,0.0424804724752903,-0.1728515625,0.9824218153953552,0.9984161840460724,-0.3681182861328125,0.5054473876953125,0.2117156982421875,0.6601603374904855
1784903217.931415,0.0356445349752903,-0.17236328125,0.9667968153953552,0.9826880053483261,-0.4291534423828125,0.3223419189453125,0.7648468017578125,0.9343808752203349
1784903217.942112,0.0385742150247097,-0.1611328125,0.9682616591453552,0.982335173909521,-0.370025634765625,0.4425048828125,0.3376007080078125,0.6683590200962237
1784903217.952809,0.04931640625,-0.1748046875,0.9770507216453552,0.9937891624308937,-0.675201416015625,0.6256103515625,0.3376007080078125,0.9804384234713754
1784903217.963429,0.0312500037252903,-0.166015625,0.9746093153953552,0.9891415814393681,-0.9174346923828125,0.4444122314453125,0.1544952392578125,1.031046761887683
1784903217.974049,0.0419921875,-0.16357421875,0.9731444716453552,0.9876892383460628,-0.797271728515625,0.2593994140625,-0.2765655517578125,0.8828469683503274
1784903217.984669,0.0439453125,-0.17333984375,0.9711913466453552,0.9875173536302112,-0.675201416015625,0.2593994140625,-0.3948211669921875,0.824056285766055
1784903217.995344,0.04443359375,-0.17578125,0.9702147841453552,0.9870106987663917,-0.553131103515625,0.2593994140625,-0.7648468017578125,0.9788936121211211
1784903218.006019,0.037109375,-0.1689453125,0.9682616591453552,0.983590496547994,-0.7343292236328125,0.3833770751953125,-1.0700225830078125,1.3532057192508433
1784903218.016694,0.0351562537252903,-0.17626953125,0.9755858778953552,0.9920054006768021,-0.370025634765625,-0.102996826171875,-1.0051727294921875,1.0760574021398475
1784903218.024712,0.0361328162252903,-0.177734375,0.9741210341453552,0.9908616844087915,-0.42724609375,0.0762939453125,-1.0700225830078125,1.1546897067449295
1784903218.032731,0.03125,-0.17431640625,0.9716796278953552,0.9876862210513879,0.118255615234375,-0.3509521484375,-0.7648468017578125,0.8497896393734817
1784903218.04075,0.0166015625,-0.18359375,0.9770507216453552,0.9942888863827319,0.118255615234375,-0.3509521484375,-0.5817413330078125,0.6896193004528398
1784903218.048769,0.03125,-0.16845703125,0.9731444716453552,0.9881115810329727,0.9746551513671875,-0.2880096435546875,-0.6389617919921875,1.2004892296447147
1784903218.056845,0.0239257849752903,-0.1796875,0.9658202528953552,0.982684487384319,0.4863739013671875,-0.6542205810546875,0.3948211669921875,0.9057857884244731
1784903218.064921,0.03857421875,-0.17822265625,0.9765624403953552,0.9934412340666711,0.7305145263671875,-0.5931854248046875,0.0934600830078125,0.9456506799817896
1784903218.072997,0.0322265662252903,-0.15673828125,0.9716796278953552,0.9847673530569203,0.7305145263671875,-0.7762908935546875,0.3376007080078125,1.1181472455346781
1784903218.081073,0.0361328162252903,-0.17578125,0.9780272841453552,0.9943550657550212,0.423431396484375,-0.591278076171875,0.7648468017578125,1.055412024305852
1784903218.091628,0.0371093787252903,-0.1650390625,0.9658202528953552,0.9805221869203694,0.667572021484375,-0.4119873046875,0.5817413330078125,0.9766314154388607
1784903218.102183,0.02587890625,-0.1884765625,0.9721679091453552,0.9906076801502017,0.6694793701171875,-0.9593963623046875,0.5817413330078125,1.3065477356551807
1784903218.112738,0.0366210974752903,-0.17529296875,0.9775390028953552,0.9938064358088694,0.606536865234375,-0.5340576171875,0.8831024169921875,1.1970690816581038
1784903218.123437,0.04443359375,-0.1748046875,0.9711913466453552,0.9877973753884606,0.3032684326171875,-0.2880096435546875,0.7648468017578125,0.8717292740075546
1784903218.134136,0.0341796837747097,-0.15625,0.9726561903953552,0.9857192186405542,-0.064849853515625,-0.6561279296875,0.8831024169921875,1.1020795082544845
1784903218.144835,0.0546875,-0.169921875,0.9736327528953552,0.989861052759605,-0.2460479736328125,-0.5321502685546875,0.8258819580078125,1.0128200838324926
1784903218.155703,0.02685546875,-0.154296875,0.9677733778953552,0.980364244961807,-0.370025634765625,0.1373291015625,0.3376007080078125,0.5193770216009209
1784903218.166572,0.0400390625,-0.16259765625,0.9702147841453552,0.9845597248100748,-0.370025634765625,0.4425048828125,0.2117156982421875,0.614453479588801
1784903218.177441,0.0415039099752903,-0.1748046875,0.9775390028953552,0.9939123479949602,-0.492095947265625,-0.0457763671875,0.3376007080078125,0.5985216246348279
1784903218.185292,0.04833984375,-0.1591796875,0.9643554091453552,0.9785991357825111,-0.3070831298828125,0.3833770751953125,0.4596710205078125,0.6727373020270471
1784903218.193141,0.0341796875,-0.16015625,0.9804686903953552,0.994050868063221,-0.4901885986328125,0.0171661376953125,0.5817413330078125,0.7609221491339844
1784903218.20099,0.0537109375,-0.16943359375,0.9721679091453552,0.9882828800855656,-0.4901885986328125,0.5054473876953125,0.2117156982421875,0.7352451705654333
1784903218.208839,0.03955078125,-0.16845703125,0.9760741591453552,0.9912934983274938,-0.186920166015625,0.1373291015625,0.0324249267578125,0.2342003554107503
1784903218.218418,0.0366210974752903,-0.171875,0.9702147841453552,0.9860014441062005,-0.1850128173828125,0.5054473876953125,0.0934600830078125,0.5462980792935014
1784903218.228,0.0419921912252903,-0.15966796875,0.9887694716453552,1.002458115048448,-0.3070831298828125,0.3833770751953125,-0.3948211669921875,0.6302077311085682
1784903218.237582,0.0322265625,-0.173828125,0.9829100966453552,0.9986826455180663,-0.0019073486328125,0.3833770751953125,0.0934600830078125,0.3946091824577155
1784903218.247164,0.02978515625,-0.16796875,0.9785155653953552,0.9932740650144809,-0.064849853515625,0.4425048828125,0.2117156982421875,0.4948127036526845
1784903218.256746,0.03466796875,-0.173828125,0.9614257216453552,0.9776285098847919,0.0591278076171875,0.5054473876953125,0.2117156982421875,0.5511775541908502
1784903218.266363,0.0410156287252903,-0.17041015625,0.9731444716453552,0.9888033504427449,-0.064849853515625,0.4425048828125,0.0934600830078125,0.45689261531538194
1784903218.27598,0.03564453125,-0.15283203125,0.9604491591453552,0.9731858762266605,-0.064849853515625,0.4425048828125,0.2765655517578125,0.5258370272555991
1784903218.285597,0.0214843787252903,-0.17578125,0.9755858778953552,0.991528331178502,0.2422332763671875,0.5054473876953125,0.3948211669921875,0.6855930103295034
1784903218.295214,0.0341796875,-0.15478515625,0.9741210341453552,0.9869338806613901,0.1811981201171875,0.5054473876953125,0.3376007080078125,0.6342586684542786
1784903218.304831,0.03466796875,-0.171875,0.9790038466453552,0.9945810250696788,0.2422332763671875,0.3223419189453125,0.0324249267578125,0.40451532574697113
1784903218.314452,0.0302734375,-0.17724609375,0.9667968153953552,0.9833761950679408,0.179290771484375,0.2593994140625,-0.0286102294921875,0.316625618020757
1784903218.324073,0.0302734375,-0.17041015625,0.9809569716453552,0.9961087704617614,0.423431396484375,0.5035400390625,0.0324249267578125,0.658709415708491
1784903218.333694,0.0468750037252903,-0.16748046875,0.9726561903953552,0.9880825057156771,0.2422332763671875,0.3223419189453125,0.0324249267578125,0.40451532574697113
1784903218.343315,0.0341796875,-0.16845703125,0.9667968153953552,0.9819583008833734,0.244140625,0.2593994140625,-0.0934600830078125,0.368276374353808
1784903218.352936,0.0229492224752903,-0.1796875,0.9697265028953552,0.9865007627397587,0.2422332763671875,0.3833770751953125,-0.3337860107421875,0.5630879531050884
1784903218.360907,0.0229492224752903,-0.17236328125,0.9584960341453552,0.9741408599416518,0.1811981201171875,0.3223419189453125,-0.1506805419921875,0.3993015116154815
1784903218.368878,0.04150390625,-0.16357421875,0.9702147841453552,0.9847821214095531,0.3032684326171875,-0.1049041748046875,-0.5168914794921875,0.608402358382313
1784903218.376849,0.0458984375,-0.173828125,0.9721679091453552,0.9886522781939101,0.5474090576171875,-0.0438690185546875,-0.3948211669921875,0.6763615313243071
1784903218.38482,0.0283203162252903,-0.16943359375,0.9658202528953552,0.9809783605691761,0.1201629638671875,0.0171661376953125,-0.4558563232421875,0.47174018443270993
1784903218.395453,0.02734375,-0.18798828125,0.9726561903953552,0.9910334703055176,0.301361083984375,-0.0457763671875,-0.6389617919921875,0.7079450193051646
1784903218.406086,0.041015625,-0.16455078125,0.9677733778953552,0.9825194919527612,0.3643035888671875,-0.0438690185546875,-0.4558563232421875,0.5851893566106189
1784903218.416719,0.0322265662252903,-0.17626953125,0.9711913466453552,0.9875839868166081,0.3643035888671875,-0.4711151123046875,-0.2117156982421875,0.6320522848511412
1784903218.424719,0.0356445349752903,-0.171875,0.9726561903953552,0.98836815671743,0.4863739013671875,-0.4711151123046875,-0.4558563232421875,0.8162805941665419
1784903218.432722,0.02587890625,-0.16455078125,0.9736327528953552,0.9877790314180948,0.423431396484375,-0.102996826171875,-0.4558563232421875,0.6306405324509939
1784903218.440725,0.0366210974752903,-0.1669921875,0.9570311903953552,0.9721811533124269,0.3032684326171875,-0.2880096435546875,-0.3337860107421875,0.5351022313257229
1784903218.448728,0.0371093787252903,-0.1865234375,0.9780272841453552,0.9963460579833359,0.1811981201171875,0.0171661376953125,-0.3948211669921875,0.4347541706786146
1784903218.459395,0.04345703125,-0.17822265625,0.9853515028953552,1.0022821025160553,0.6694793701171875,0.0171661376953125,-0.0934600830078125,0.6761893894551346
1784903218.470062,0.0332031287252903,-0.162109375,0.9677733778953552,0.9818183172985849,0.1811981201171875,-0.0438690185546875,-0.0934600830078125,0.2085474445750449
1784903218.480729,0.03466796875,-0.18017578125,0.9653319716453552,0.9826143677389455,0.3032684326171875,-0.1049041748046875,-0.2765655517578125,0.42363325239249255
1784903218.488735,0.0302734375,-0.173828125,0.9755858778953552,0.9914133866394649,0.423431396484375,0.0152587890625,-0.2117156982421875,0.47365653701235755
1784903218.496741,0.0214843787252903,-0.181640625,0.9667968153953552,0.9839466334299858,0.5474090576171875,-0.1659393310546875,-0.1506805419921875,0.591521059377664
1784903218.504747,0.04345703125,-0.17041015625,0.9853515028953552,1.0009224341457974,0.5474090576171875,-0.3490447998046875,0.1544952392578125,0.6673512775033553
1784903218.512753,0.0366210974752903,-0.1630859375,0.9799804091453552,0.9941326521643107,0.244140625,0.0762939453125,-0.0934600830078125,0.27232370073602585
1784903218.523431,0.0244140625,-0.15234375,0.9804686903953552,0.9925338873093449,0.2422332763671875,-0.0438690185546875,-0.0286102294921875,0.24783057963078203
1784903218.534109,0.0283203162252903,-0.1650390625,0.9858397841453552,0.9999600054330873,0.0591278076171875,-0.0438690185546875,0.0934600830078125,0.11897636546135479
1784903218.544787,0.0390625,-0.166015625,0.9682616591453552,0.9831671817251157,0.3643035888671875,0.0171661376953125,0.0934600830078125,0.37649245445388996
1784903218.553124,0.0454101599752903,-0.16162109375,0.9721679091453552,0.9865565894291008,0.301361083984375,0.2593994140625,0.3948211669921875,0.5603483852580273
1784903218.561464,0.03369140625,-0.1689453125,0.9726561903953552,0.987794358247318,0.179290771484375,0.2593994140625,0.0324249267578125,0.3169930797835817
1784903218.569804,0.0449218787252903,-0.171875,0.9819335341453552,0.9978739681404647,0.1811981201171875,-0.1049041748046875,-0.1506805419921875,0.25795788485819643
1784903218.578144,0.03662109375,-0.1689453125,0.9721679091453552,0.9874178784563405,0.0591278076171875,0.1392364501953125,0.2765655517578125,0.31523228120817537
1784903218.585967,0.0278320349752903,-0.16015625,0.9794921278953552,0.9928894576909855,-0.064849853515625,0.0152587890625,0.3376007080078125,0.3441112787922363
1784903218.59379,0.0380859412252903,-0.1650390625,0.9667968153953552,0.981521529732535,0.3643035888671875,0.2002716064453125,0.5817413330078125,0.715016642980711
1784903218.601613,0.0439453087747097,-0.1611328125,0.9785155653953552,0.9926669558056501,0.2422332763671875,0.2002716064453125,0.3948211669921875,0.5046478281265473
1784903218.609436,0.0341796875,-0.15966796875,0.9692382216453552,0.9828961499469816,0.423431396484375,0.3204345703125,0.2117156982421875,0.5716607370304886
1784903218.620455,0.0366210974752903,-0.1630859375,0.9741210341453552,0.9883571808587039,0.1811981201171875,0.2002716064453125,0.1544952392578125,0.3111434621449044
1784903218.631474,0.03564453125,-0.18505859375,0.9672850966453552,0.9854733248145147,0.1811981201171875,0.4444122314453125,0.5207061767578125,0.7081454036466966
1784903218.642493,0.0375976599752903,-0.17919921875,0.9755858778953552,0.9926196397337093,0.0591278076171875,0.5664825439453125,0.4596710205078125,0.731912574917976
1784903218.652611,0.0278320349752903,-0.16796875,0.9804686903953552,0.9951416863909436,-0.1239776611328125,0.3223419189453125,-0.1506805419921875,0.37680153782112974
1784903218.662731,0.0366210974752903,-0.16796875,0.9780272841453552,0.993021638379344,-0.0019073486328125,0.2002716064453125,0.0324249267578125,0.2028884673958644
1784903218.672851,0.0312500037252903,-0.1708984375,0.9794921278953552,0.9947802105398674,0.1811981201171875,0.3833770751953125,-0.0286102294921875,0.42500504202998657
1784903218.680838,0.0385742150247097,-0.1669921875,0.9765624403953552,0.9914880537564431,0.06103515625,0.0762939453125,-0.1506805419921875,0.17958474914331682
1784903218.688823,0.0205078125,-0.16015625,0.9667968153953552,0.9801870622724003,0.0591278076171875,0.1392364501953125,-0.5168914794921875,0.5385718970278985
1784903218.696808,0.0317382849752903,-0.1474609375,0.9667968153953552,0.9784927843781742,-0.3070831298828125,0.2002716064453125,-0.2117156982421875,0.42335836107131203
1784903218.704793,0.0312500037252903,-0.16748046875,0.9824218153953552,0.9970851987218824,0.06103515625,-0.4119873046875,0.0934600830078125,0.42684144203434615
1784903218.715457,0.0234375037252903,-0.16552734375,0.9858397841453552,0.9999143453884258,-0.0019073486328125,-0.7762908935546875,0.0324249267578125,0.7769701186467802
1784903218.726121,0.0322265662252903,-0.16748046875,0.9677733778953552,0.9826869134909545,0.3643035888671875,-1.0814666748046875,-0.0934600830078125,1.1449987164579913
1784903218.736785,0.0371093787252903,-0.16796875,0.9624022841453552,0.9776547261145606,0.301361083984375,-1.0223388671875,0.0324249267578125,1.0663238899029261
1784903218.747439,0.0302734375,-0.17236328125,0.9780272841453552,0.9935607431224688,0.4863739013671875,-0.8373260498046875,0.8258819580078125,1.2726961515520816
1784903218.758095,0.0419921912252903,-0.158203125,0.9833983778953552,0.9969272503702981,0.423431396484375,-0.8392333984375,0.6999969482421875,1.1720079232368863
1784903218.768751,0.0322265662252903,-0.17041015625,0.9780272841453552,0.9932852266376269,0.1811981201171875,-0.5321502685546875,0.4596710205078125,0.7261639719454019
1784903218.779434,0.0371093787252903,-0.162109375,0.9829100966453552,0.9968795381286795,0.0591278076171875,-0.5931854248046875,0.5207061767578125,0.7915175098177367
1784903218.790119,0.04345703125,-0.1630859375,0.9692382216453552,0.9838232904711944,-0.244140625,0.0762939453125,1.0089874267578125,1.0409039524481063
1784903218.800804,0.0419921875,-0.1591796875,0.9848632216453552,0.9985274568449788,-0.2460479736328125,0.1392364501953125,0.5817413330078125,0.6467993297163437
1784903218.811481,0.0332031287252903,-0.1630859375,0.9692382216453552,0.9834237139024322,-0.3070831298828125,0.6275177001953125,0.6999969482421875,0.988976359811201
1784903218.822159,0.0410156287252903,-0.17041015625,0.9604491591453552,0.976311676902361,-0.8563995361328125,0.2002716064453125,0.3948211669921875,0.9640604938185962
1784903218.832837,0.0424804724752903,-0.16796875,0.9741210341453552,0.9894088541562092,-0.675201416015625,0.4425048828125,0.2117156982421875,0.8345843638510049
1784903218.840811,0.0278320349752903,-0.1689453125,0.9790038466453552,0.9938640110865221,-1.0395050048828125,0.0171661376953125,0.0934600830078125,1.043839124853834
1784903218.848786,0.0371093787252903,-0.16064453125,0.9746093153953552,0.9884569232219036,-0.7343292236328125,-0.1659393310546875,0.0934600830078125,0.7586237917359787
1784903218.856761,0.0361328162252903,-0.17578125,0.9580077528953552,0.9746709613338961,-0.9174346923828125,-0.1049041748046875,0.0324249267578125,0.9239819676564298
1784903218.864736,0.0366210974752903,-0.15771484375,0.9677733778953552,0.9812239233133117,-0.7953643798828125,-0.2269744873046875,-0.0286102294921875,0.8276112975939806
1784903218.875386,0.03076171875,-0.16845703125,0.9736327528953552,0.9885771554252129,-0.6122589111328125,-0.0438690185546875,-0.4558563232421875,0.7645851505819181
1784903218.886036,0.05029296875,-0.17041015625,0.9677733778953552,0.9839483294471433,-0.858306884765625,-0.3509521484375,-0.2117156982421875,0.9511475468144498
1784903218.896686,0.0244140587747097,-0.171875,0.9716796278953552,0.9870655303259814,-0.3070831298828125,-0.0438690185546875,-0.0934600830078125,0.32397426836618215
1784903218.90738,0.025390625,-0.16357421875,0.9731444716453552,0.9871227743150702,-0.3070831298828125,-0.5321502685546875,0.3376007080078125,0.70104079412601
1784903218.918075,0.0185546912252903,-0.17529296875,0.9624022841453552,0.9784120083011305,-0.1850128173828125,-0.6542205810546875,0.3948211669921875,0.7862048493723068
1784903218.92877,0.0322265662252903,-0.1669921875,0.9741210341453552,0.9888562744004431,0.118255615234375,-0.7171630859375,0.7648468017578125,1.0551293345012323
1784903218.939418,0.0341796875,-0.1884765625,0.9833983778953552,1.0018802499783244,0.3032684326171875,-0.7762908935546875,1.0700225830078125,1.3562992375522194
1784903218.950066,0.0283203162252903,-0.17578125,0.9716796278953552,0.9878574732366603,0.3643035888671875,-0.7762908935546875,0.9479522705078125,1.278263730001898
1784903218.960714,0.0380859412252903,-0.1748046875,0.9707030653953552,0.9870520041309516,0.423431396484375,-0.591278076171875,1.1310577392578125,1.344691607925481
1784903218.968745,0.0375976599752903,-0.16796875,0.9804686903953552,0.9954626752710335,0.606536865234375,-0.3509521484375,0.8258819580078125,1.0831137465400658
1784903218.976776,0.03369140625,-0.169921875,0.9726561903953552,0.9879618510717019,0.8525848388671875,-0.5321502685546875,0.7648468017578125,1.262962963015214
1784903218.984807,0.0385742150247097,-0.166015625,0.9707030653953552,0.9855524333980675,0.4863739013671875,-0.3490447998046875,0.4596710205078125,0.7547776436120288
1784903218.992838,0.0429687537252903,-0.15771484375,0.9760741591453552,0.9896671409555355,0.6694793701171875,-0.1659393310546875,0.7648468017578125,1.029917044602398
1784903219.003478,0.0463867224752903,-0.17041015625,0.9672850966453552,0.983276058676994,0.423431396484375,-0.7171630859375,0.4596710205078125,0.9512699335387405
1784903219.014118,0.0410156287252903,-0.16748046875,0.9780272841453552,0.9931109493632572,0.5474090576171875,-0.2269744873046875,0.6427764892578125,0.8742629520865915
1784903219.024758,0.0405273474752903,-0.16748046875,0.9804686903953552,0.9954953672175906,0.3643035888671875,0.0171661376953125,0.6999969482421875,0.7893082469436531
1784903219.035404,0.0390625,-0.1630859375,0.9873046278953552,1.0014456201811908,0.1201629638671875,0.2002716064453125,0.5817413330078125,0.6268738571381325
1784903219.04605,0.0488281212747097,-0.166015625,0.9711913466453552,0.986487711515038,0.4863739013671875,0.6275177001953125,0.3376007080078125,0.8627353441449638
1784903219.056696,0.03515625,-0.1640625,0.9653319716453552,0.9798052262062197,0.3643035888671875,0.4444122314453125,0.1544952392578125,0.5950530356808909
1784903219.064731,0.037109375,-0.1689453125,0.9667968153953552,0.9821485155449831,0.3643035888671875,0.3833770751953125,0.3948211669921875,0.6599839699204049
1784903219.072764,0.0341796875,-0.1650390625,0.9804686903953552,0.9948492328157366,0.1811981201171875,0.5054473876953125,0.5817413330078125,0.7916645747990274
1784903219.080797,0.0424804724752903,-0.1640625,0.9589843153953552,0.9738439359683214,-0.1239776611328125,0.4444122314453125,0.2117156982421875,0.5076378914150731
1784903219.08883,0.0375976599752903,-0.15234375,0.9746093153953552,0.9871603313824371,0.2422332763671875,0.2002716064453125,0.2117156982421875,0.37895806286440903
1784903219.099523,0.0307617224752903,-0.1708984375,0.9824218153953552,0.9976498297871321,-0.064849853515625,0.2593994140625,-0.0286102294921875,0.2689091012750628
1784903219.110216,0.0322265625,-0.15869140625,0.9833983778953552,0.99664130126911,0.244140625,0.0762939453125,0.0324249267578125,0.2578309266592875
1784903219.120909,0.04541015625,-0.1650390625,0.9702147841453552,0.9851988133446703,0.301361083984375,0.1373291015625,-0.1506805419921875,0.3638439374391998
1784903219.128911,0.0146484375,-0.17626953125,0.9672850966453552,0.9833239458899088,0.0591278076171875,0.2613067626953125,-0.1506805419921875,0.30737915934392634
1784903219.136914,0.02490234375,-0.16943359375,0.9624022841453552,0.9775203455394063,-0.1239776611328125,-0.0438690185546875,-0.3337860107421875,0.35875904478646625
1784903219.144917,0.04345703125,-0.169921875,0.9755858778953552,0.991226393069429,-0.0019073486328125,-0.1659393310546875,-0.0934600830078125,0.1904580969281996
1784903219.15292,0.0371093787252903,-0.162109375,0.9790038466453552,0.9930282408867684,0.423431396484375,-0.102996826171875,0.0324249267578125,0.43698268799282763
1784903219.163515,0.0317382849752903,-0.15771484375,0.9736327528953552,0.9868343468803908,0.179290771484375,-0.2288818359375,-0.0286102294921875,0.29214828562423345
1784903219.17411,0.02001953125,-0.16796875,0.9721679091453552,0.9867749116085612,-0.244140625,-0.2288818359375,0.2117156982421875,0.3959988339372836
1784903219.184705,0.025390625,-0.1787109375,0.9853515028953552,1.0017484051787429,-0.1239776611328125,-0.2880096435546875,-0.1506805419921875,0.34788595972749464
1784903219.195367,0.03662109375,-0.15380859375,0.9736327528953552,0.9863868032011512,-0.064849853515625,-0.3509521484375,0.3948211669921875,0.5322186279142885
1784903219.206029,0.03076171875,-0.16064453125,0.9833983778953552,0.9969078785967148,-0.4291534423828125,0.0171661376953125,0.3376007080078125,0.5462980792935014
1784903219.216691,0.0283203162252903,-0.1591796875,0.9638671278953552,0.977333133307645,-0.2460479736328125,0.0171661376953125,0.0324249267578125,0.24876828071005583
1784903219.224713,0.0288085974752903,-0.1669921875,0.9731444716453552,0.9877886862423795,-0.553131103515625,-0.0457763671875,-0.1506805419921875,0.5751122666091876
1784903219.232737,0.0307617224752903,-0.166015625,0.9726561903953552,0.9872018719736064,0.1201629638671875,0.2002716064453125,0.0934600830078125,0.25156041292174797
1784903219.240761,0.0263671875,-0.173828125,0.9770507216453552,0.9927434503865463,-0.492095947265625,0.0762939453125,-0.2117156982421875,0.5411124876481567
1784903219.248785,0.029296875,-0.15869140625,0.9599608778953552,0.973430098359399,-0.244140625,0.0762939453125,-0.3948211669921875,0.4704350802946249
1784903219.259438,0.0439453125,-0.17333984375,0.9853515028953552,1.0014466916317275,-0.42724609375,-0.4119873046875,-0.2765655517578125,0.6547986471178816
1784903219.270091,0.02294921875,-0.16357421875,0.9804686903953552,0.9942846898783523,-0.308990478515625,-0.2288818359375,-0.5168914794921875,0.6442350597468738
1784903219.280744,0.0312500037252903,-0.171875,0.9721679091453552,0.9877388429791968,-0.064849853515625,-0.286102294921875,-0.7648468017578125,0.8191768165785187
1784903219.291408,0.0234375037252903,-0.16845703125,0.9863280653953552,1.0008846789440733,-0.064849853515625,-0.774383544921875,-0.7648468017578125,1.0903513233384559
1784903219.302073,0.0336914025247097,-0.17236328125,0.9799804091453552,0.9955931968610706,-0.1239776611328125,-0.7762908935546875,-1.0700225830078125,1.3277598954715453
1784903219.312738,0.03515625,-0.16015625,0.9721679091453552,0.9858987929296681,-0.1850128173828125,-0.6542205810546875,-0.4558563232421875,0.8185592823438902
1784903219.32074,0.02978515625,-0.17626953125,0.9570311903953552,0.9735845122892426,-0.1850128173828125,-0.6542205810546875,-0.3337860107421875,0.7573951493366211
1784903219.328744,0.0229492224752903,-0.15771484375,0.9687499403953552,0.9817724205574893,0.118255615234375,-0.102996826171875,-0.1506805419921875,0.21747956793915
1784903219.336748,0.0410156287252903,-0.1728515625,0.9624022841453552,0.9786613821882517,-0.064849853515625,-0.286102294921875,0.0934600830078125,0.30788766421600716
1784903219.344752,0.0156250037252903,-0.166015625,0.9746093153953552,0.9887712810053491,-0.1239776611328125,-0.3490447998046875,0.0934600830078125,0.3820176957242741
1784903219.355394,0.029296875,-0.16015625,0.9648436903953552,0.9784843781045031,-0.0019073486328125,-0.4711151123046875,0.5207061767578125,0.7022022568565297
1784903219.366036,0.0419921912252903,-0.17529296875,0.9638671278953552,0.9805767737685464,0.179290771484375,-0.2288818359375,0.3948211669921875,0.490322169054853
1784903219.376678,0.0322265662252903,-0.1767578125,0.9848632216453552,1.0011180955312546,-0.064849853515625,-0.0457763671875,0.8258819580078125,0.8296878858080917
1784903219.387377,0.0415039099752903,-0.1728515625,0.9750975966453552,0.9911687849127797,0.0591278076171875,-0.2880096435546875,0.5207061767578125,0.5979804134985122
1784903219.398076,0.0361328162252903,-0.16748046875,0.9643554091453552,0.9794573206469978,0.118255615234375,0.0762939453125,0.4596710205078125,0.48073132175935973
1784903219.408775,0.052734375,-0.16845703125,0.9736327528953552,0.9895046352568501,-0.1239776611328125,-0.0438690185546875,0.7648468017578125,0.7760706033654854
1784903219.41941,0.041015625,-0.15869140625,0.9643554091453552,0.9781853602766956,0.301361083984375,-0.0457763671875,0.5817413330078125,0.6567624816193667
1784903219.430046,0.0556640625,-0.1689453125,0.9687499403953552,0.9849454063478498,-0.1239776611328125,-0.2269744873046875,0.1544952392578125,0.30125845598176487
1784903219.440682,0.0419921912252903,-0.16796875,0.9707030653953552,0.9860229643717245,-0.1850128173828125,-0.2880096435546875,0.2765655517578125,0.44007704075028425
1784903219.448751,0.0439453125,-0.16357421875,0.9760741591453552,0.9906606279052922,-0.4291534423828125,0.0171661376953125,0.1544952392578125,0.45643853074178686
1784903219.456819,0.03955078125,-0.16259765625,0.9663085341453552,0.9806908000372103,0.0591278076171875,0.2002716064453125,0.0934600830078125,0.2287784978918003
1784903219.464887,0.0268554724752903,-0.15478515625,0.9682616591453552,0.9809231884139166,-0.1850128173828125,-0.1049041748046875,0.0324249267578125,0.21514182383401853
1784903219.472955,0.0317382849752903,-0.16650390625,0.9697265028953552,0.9844289511931965,-0.186920166015625,0.1373291015625,0.2765655517578125,0.3609528155013831
1784903219.480978,0.0288085974752903,-0.17626953125,0.9667968153953552,0.9831566330927074,-0.3070831298828125,-0.2880096435546875,0.5207061767578125,0.6696152073787308
1784903219.489001,0.03466796875,-0.16650390625,0.9731444716453552,0.987894519444094,-0.0019073486328125,0.1392364501953125,0.3948211669921875,0.4186575939199857
1784903219.497024,0.03564453125,-0.15966796875,0.9677733778953552,0.9815037971479118,-0.3070831298828125,0.0171661376953125,0.5207061767578125,0.6047558577275106
1784903219.505047,0.0361328162252903,-0.16748046875,0.9775390028953552,0.9924403206252432,-0.1850128173828125,0.0171661376953125,0.5207061767578125,0.5528646682444436
1784903219.515613,0.02490234375,-0.1689453125,0.9619140028953552,0.976955062582784,-0.1850128173828125,0.0171661376953125,0.5817413330078125,0.6106941930369135
1784903219.526179,0.03564453125,-0.17333984375,0.9721679091453552,0.988143551115605,-0.0019073486328125,0.1392364501953125,0.9479522705078125,0.9581252184358346
1784903219.536745,0.0283203162252903,-0.17236328125,0.9682616591453552,0.9838911431684315,-0.1850128173828125,0.2002716064453125,0.3376007080078125,0.43395010887369107
1784903219.547415,0.03515625,-0.17529296875,0.9726561903953552,0.9889507831644891,0.1811981201171875,0.0171661376953125,0.5817413330078125,0.6095493528395249
1784903219.558088,0.0268554724752903,-0.16015625,0.9736327528953552,0.9870825590225578,-0.064849853515625,-0.102996826171875,0.5817413330078125,0.5943373017337747
1784903219.568761,0.04150390625,-0.16845703125,0.9780272841453552,0.9932963878643231,-0.17547607421875,0.2593994140625,0.4596710205078125,0.5562170041754264
1784903219.576768,0.0356445349752903,-0.166015625,0.9765624403953552,0.9912143666274602,0.1316070556640625,0.3185272216796875,0.2765655517578125,0.4418919692307699
1784903219.584775,0.03466796875,-0.16455078125,0.9677733778953552,0.9822749811688285,0.133514404296875,-0.1068115234375,-0.1506805419921875,0.22790222339601776
1784903219.592782,0.0175781287252903,-0.16552734375,0.9716796278953552,0.9858344645047005,0.1316070556640625,0.1964569091796875,0.0324249267578125,0.23867783755566652
1784903219.600789,0.03369140625,-0.17333984375,0.9594725966453552,0.9755867342270278,0.133514404296875,-0.1068115234375,-0.2117156982421875,0.272136610135362
1784903219.611469,0.03857421875,-0.17041015625,0.9726561903953552,0.9882244969741075,0.0705718994140625,0.0133514404296875,-0.4558563232421875,0.46147983855022506
1784903219.622149,0.0273437537252903,-0.1767578125,0.9633788466453552,0.9798417256431313,-0.4177093505859375,-0.3528594970703125,-0.4558563232421875,0.7118959992017972
1784903219.632829,0.0244140625,-0.1708984375,0.9643554091453552,0.9796854992984232,-0.0514984130859375,-0.0438690185546875,-0.5779266357421875,0.5818726438316244
1784903219.640817,0.0288085974752903,-0.1669921875,0.9799804091453552,0.9945239706931283,-0.049591064453125,-0.4119873046875,-0.3337860107421875,0.532546630694861
1784903219.648805,0.02978515625,-0.15966796875,0.9741210341453552,0.9875691393224093,0.0705718994140625,-0.2918243408203125,0.0324249267578125,0.3019821431100984
1784903219.656793,0.0263671875,-0.16943359375,0.9731444716453552,0.9881361920108067,-0.11444091796875,-0.2899169921875,0.0934600830078125,0.3253972544143609
1784903219.664781,0.03369140625,-0.17529296875,0.9755858778953552,0.9917814985656579,0.1926422119140625,-0.6580352783203125,0.3376007080078125,0.7642615307423304
1784903219.675501,0.0371093787252903,-0.16650390625,0.9726561903953552,0.987502264048185,0.37384033203125,-0.7781982421875,0.2155303955078125,0.8898328210314026
1784903219.686221,0.0424804724752903,-0.1552734375,0.9638671278953552,0.9772176171007312,0.133514404296875,-0.7781982421875,0.5817413330078125,0.9807352236093955
1784903219.696941,0.0385742150247097,-0.17138671875,0.9736327528953552,0.9893543929953775,0.31280517578125,-0.7171630859375,0.1544952392578125,0.7975203751505446
1784903219.707593,0.0371093787252903,-0.16455078125,0.9804686903953552,0.9948733177872172,0.133514404296875,-0.4119873046875,0.5817413330078125,0.7252465883464237
1784903219.718245,0.0458984375,-0.16796875,0.9672850966453552,0.9828329592223279,0.621795654296875,-0.2288818359375,0.6427764892578125,0.9231350636105198
1784903219.728897,0.04150390625,-0.1787109375,0.9750975966453552,0.9922073857816649,-0.17547607421875,0.1373291015625,0.4596710205078125,0.510831265540669
1784903219.736864,0.0341796837747097,-0.1767578125,0.9780272841453552,0.994459121128397,0.00762939453125,0.8697509765625,0.4596710205078125,0.9837796582502759
1784903219.744831,0.03125,-0.16015625,0.9692382216453552,0.9828780785083739,-0.354766845703125,0.7476806640625,0.0934600830078125,0.8328389264070892
1784903219.752798,0.0439453125,-0.16357421875,0.9643554091453552,0.9791164745209331,-0.48065185546875,0.6866455078125,-0.0896453857421875,0.8429380491765119
1784903219.760765,0.0361328162252903,-0.17041015625,0.9785155653953552,0.9939003538999831,-0.41961669921875,0.7476806640625,-0.0286102294921875,0.857859600929998
1784903219.771427,0.0332031287252903,-0.1806640625,0.9702147841453552,0.9874505955288955,-0.6008148193359375,0.6237030029296875,-0.5779266357421875,1.041145080811252
1784903219.782089,0.0375976599752903,-0.1689453125,0.9711913466453552,0.986493149722875,-0.7228851318359375,0.6237030029296875,-0.6389617919921875,1.1488431230236955
1784903219.792751,0.03515625,-0.1650390625,0.9570311903953552,0.971793472634228,-0.9059906005859375,0.3795623779296875,-0.6389617919921875,1.1718185604928666
1784903219.803417,0.0371093787252903,-0.1767578125,0.9731444716453552,0.9897628973461673,-0.9059906005859375,0.3185272216796875,-0.6389617919921875,1.153495006892928
1784903219.814085,0.0219726599752903,-0.1728515625,0.9707030653953552,0.9862174717642253,-0.8449554443359375,-0.0438690185546875,-0.7610321044921875,1.1380000253821179
1784903219.824753,0.0307617224752903,-0.1708984375,0.9750975966453552,0.9904382274998962,-0.7839202880859375,0.1354217529296875,-0.9441375732421875,1.2346116095545738
1784903219.832762,0.0258789099752903,-0.16259765625,0.9619140028953552,0.9759027947319691,-0.9059906005859375,-0.2269744873046875,-0.2727508544921875,0.9730002131878039
1784903219.840769,0.01953125,-0.1796875,0.9702147841453552,0.9869071864957873,-0.48065185546875,-0.4119873046875,0.0324249267578125,0.6338857320246865
1784903219.848776,0.0190429724752903,-0.177734375,0.9750975966453552,0.9913462895683239,-0.1125335693359375,-0.9632110595703125,0.1544952392578125,0.9819919187342526
1784903219.856783,0.0302734375,-0.16845703125,0.9702147841453552,0.985195909334711,0.00762939453125,-1.1444091796875,0.5817413330078125,1.2838043296171098
1784903219.867464,0.03857421875,-0.169921875,0.9736327528953552,0.9891016891433744,0.1926422119140625,-1.0242462158203125,0.7038116455078125,1.257593799597385
1784903219.878145,0.0385742150247097,-0.17236328125,0.9750975966453552,0.9909653847494306,0.133514404296875,-0.9002685546875,0.7648468017578125,1.1888230300902756
1784903219.888826,0.03955078125,-0.17236328125,0.9663085341453552,0.9823571388160709,0.31280517578125,-0.6561279296875,0.9479522705078125,1.1945561708318535
1784903219.899464,0.0473632849752903,-0.16943359375,0.9692382216453552,0.9850755066252238,0.2536773681640625,-0.6580352783203125,0.4596710205078125,0.841819506620885
1784903219.910103,0.05029296875,-0.16748046875,0.9594725966453552,0.975277782906895,0.1926422119140625,-0.3528594970703125,0.5207061767578125,0.6578417507255029
1784903219.920742,0.0507812537252903,-0.166015625,0.9702147841453552,0.985625005186187,0.49591064453125,-0.5340576171875,0.4596710205078125,0.8616509461087383
1784903219.928765,0.0502929724752903,-0.16650390625,0.9868163466453552,1.0020276622346287,0.06866455078125,-0.4119873046875,0.4596710205078125,0.6210843798167489
1784903219.936788,0.0434570275247097,-0.16259765625,0.9726561903953552,0.9871102146030514,0.0705718994140625,-0.4749298095703125,0.4596710205078125,0.6647075778867694
1784903219.944811,0.03564453125,-0.16943359375,0.9848632216453552,0.9999669197772196,-0.2346038818359375,-0.1087188720703125,0.2765655517578125,0.3786123068995972
1784903219.952834,0.0332031287252903,-0.17578125,0.9716796278953552,0.9880095115309198,-0.48065185546875,-0.5340576171875,0.2155303955078125,0.7501313858447042
1784903219.96356,0.0332031287252903,-0.15966796875,0.9755858778953552,0.9891229009333219,-0.41961669921875,-0.1068115234375,0.1544952392578125,0.4597343306254246
1784903219.974286,0.03466796875,-0.16650390625,0.9702147841453552,0.985008703630571,-0.17547607421875,0.1373291015625,0.2765655517578125,0.35516142692906694
1784903219.985012,0.0390624962747097,-0.162109375,0.9702147841453552,0.9844399704666205,-0.17547607421875,0.3814697265625,0.0934600830078125,0.43016949220361966
1784903219.995573,0.0361328125,-0.169921875,0.9702147841453552,0.9856448402527627,-0.29754638671875,0.5035400390625,0.1544952392578125,0.6049423130694171
1784903220.006132,0.0322265662252903,-0.15576171875,0.9799804091453552,0.9928050497994684,-0.17547607421875,0.4425048828125,0.1544952392578125,0.5004709810662925
1784903220.016691,0.0400390625,-0.17724609375,0.9775390028953552,0.9942845701594478,-0.17547607421875,0.3814697265625,-0.1506805419921875,0.4461116795623627
1784903220.024926,0.0429687537252903,-0.1611328125,0.9785155653953552,0.9926242032017235,0.00762939453125,0.5645751953125,-0.0286102294921875,0.5653511334159123
1784903220.03316,0.0439453125,-0.16064453125,0.9672850966453552,0.9815183717605438,-0.11444091796875,0.2593994140625,-0.2117156982421875,0.3538478721197508
1784903220.041394,0.0341796837747097,-0.17138671875,0.9716796278953552,0.9872704580882012,0.133514404296875,0.2593994140625,-0.2117156982421875,0.36046870745308074
1784903220.049628,0.0288085974752903,-0.173828125,0.9648436903953552,0.9808004380225557,-0.17547607421875,0.2593994140625,-0.2117156982421875,0.3780257207140403
1784903220.059996,0.0429687537252903,-0.16796875,0.9741210341453552,0.9894299388727246,0.2536773681640625,0.1964569091796875,-0.2117156982421875,0.38441001699391014
1784903220.070364,0.0341796875,-0.166015625,0.9707030653953552,0.9853902170965965,0.1926422119140625,0.1354217529296875,-0.2117156982421875,0.31666008567526926
1784903220.080732,0.0439453125,-0.17431640625,0.9736327528953552,0.9900899643412338,0.00762939453125,0.0152587890625,-0.0896453857421875,0.09125422450184392
1784903220.091396,0.03857421875,-0.16552734375,0.9604491591453552,0.975371651825151,0.19073486328125,0.0762939453125,-0.0286102294921875,0.20741046114856287
1784903220.102061,0.0434570275247097,-0.17724609375,0.9726561903953552,0.9896285948300618,0.2536773681640625,-0.1087188720703125,0.0324249267578125,0.27789094288611815
1784903220.112726,0.0439453125,-0.1640625,0.9746093153953552,0.989298242216358,-0.0514984130859375,0.1964569091796875,0.3376007080078125,0.3939817784646672
1784903220.120738,0.0356445349752903,-0.16650390625,0.9731444716453552,0.987929271944116,0.19073486328125,-0.2288818359375,0.3986358642578125,0.4976718147189078
1784903220.128752,0.0317382849752903,-0.16796875,0.9824218153953552,0.9971827530971645,-0.11444091796875,-0.1068115234375,0.2765655517578125,0.3177954210867001
1784903220.136766,0.03515625,-0.17431640625,0.9785155653953552,0.9945425496794842,0.1316070556640625,-0.2918243408203125,0.7038116455078125,0.7731964144693043
1784903220.14478,0.0439453087747097,-0.17138671875,0.9770507216453552,0.9929414434874322,0.0705718994140625,0.0133514404296875,0.2765655517578125,0.28573966887283836
1784903220.155434,0.0400390625,-0.16455078125,0.9726561903953552,0.9872892944067964,-0.17547607421875,0.0762939453125,0.0934600830078125,0.21294930342783044
1784903220.166088,0.0371093787252903,-0.17236328125,0.9736327528953552,0.9894680107124391,-0.17547607421875,0.0152587890625,0.3376007080078125,0.3807872389067869
1784903220.176742,0.03125,-0.16357421875,0.9716796278953552,0.9858470402686863,-0.17547607421875,0.1373291015625,0.0324249267578125,0.22517217997443023
1784903220.184752,0.0302734375,-0.17724609375,0.9575194716453552,0.9742567409814009,-0.3566741943359375,-0.3528594970703125,-0.0896453857421875,0.509669109092134
1784903220.192762,0.0439453125,-0.16748046875,0.9785155653953552,0.9937170671898687,-0.29754638671875,0.0152587890625,-0.5779266357421875,0.6502044902900325
1784903220.200772,0.0327148474752903,-0.1767578125,0.9765624403953552,0.9929691765186109,-0.2956390380859375,0.1354217529296875,-0.3337860107421875,0.4659984903131248
1784903220.208782,0.02490234375,-0.177734375,0.9672850966453552,0.9837937248087619,-0.3566741943359375,-0.3528594970703125,-0.5779266357421875,0.7653270554986196
1784903220.219453,0.0302734375,-0.173828125,0.9780272841453552,0.9938159118226179,0.0095367431640625,-0.3528594970703125,-0.3337860107421875,0.4858125925807964
1784903220.230124,0.0332031287252903,-0.17138671875,0.9707030653953552,0.986275973695486,-0.17547607421875,-0.1678466796875,-0.8220672607421875,0.8571808103833789
1784903220.240795,0.03564453125,-0.1748046875,0.9682616591453552,0.9845597249283158,-0.2956390380859375,-0.1697540283203125,-0.3948211669921875,0.5216345702466667
1784903220.251437,0.02490234375,-0.1630859375,0.9794921278953552,0.9932884668330082,-0.0514984130859375,-0.2918243408203125,-0.0896453857421875,0.30959623323038893
1784903220.26208,0.0361328162252903,-0.177734375,0.9785155653953552,0.9951822949520369,-0.17547607421875,-0.4730224609375,-0.1506805419921875,0.5265422365866316
1784903220.272723,0.0322265662252903,-0.18408203125,0.9653319716453552,0.9832550845434301,0.1316070556640625,-0.4749298095703125,0.2155303955078125,0.5378959866989259
1784903220.283433,0.0400390625,-0.16845703125,0.9755858778953552,0.9908323284250939,0.00762939453125,-0.2899169921875,0.2765655517578125,0.40074751956695087
1784903220.294143,0.041015625,-0.16943359375,0.9614257216453552,0.9771025751815787,-0.0514984130859375,-0.3528594970703125,0.2155303955078125,0.4166716484365571
1784903220.304853,0.0332031287252903,-0.16552734375,0.9653319716453552,0.9799834512719017,0.00762939453125,-0.4119873046875,0.2765655517578125,0.49626631086916195
1784903220.315494,0.03564453125,-0.18798828125,0.9770507216453552,0.9956094812541063,0.2536773681640625,-0.2269744873046875,0.3986358642578125,0.5241947894422876
1784903220.326137,0.0380859412252903,-0.17236328125,0.9707030653953552,0.9866225624879162,0.19073486328125,-0.2288818359375,0.0934600830078125,0.3122522538091038
1784903220.33678,0.0390625,-0.177734375,0.9667968153953552,0.983774094607848,0.4367828369140625,-0.1087188720703125,0.3986358642578125,0.6012566773346559
1784903220.34477,0.03173828125,-0.1787109375,0.9672850966453552,0.9841673515571664,0.133514404296875,-0.4119873046875,0.0934600830078125,0.4430512639573975
1784903220.352763,0.05078125,-0.16796875,0.9765624403953552,0.9922028201527431,0.00762939453125,-0.0457763671875,0.0934600830078125,0.10434783452293342
1784903220.360756,0.0434570275247097,-0.17138671875,0.9785155653953552,0.9943614193673076,0.06866455078125,-0.2288818359375,0.0324249267578125,0.24114952048752042
1784903220.368749,0.044921875,-0.16796875,0.9663085341453552,0.9818266949885928,-0.17547607421875,0.0152587890625,0.2155303955078125,0.27834876442088297
1784903220.379411,0.03857421875,-0.16357421875,0.9638671278953552,0.9784090839874121,-0.17547607421875,-0.1068115234375,-0.0896453857421875,0.22413578328131692
1784903220.390073,0.03466796875,-0.16259765625,0.9682616591453552,0.9824309168822815,-0.2346038818359375,-0.1697540283203125,0.1544952392578125,0.3282136353913297
1784903220.400735,0.0307617224752903,-0.162109375,0.9711913466453552,0.9851083010671242,-0.049591064453125,0.0762939453125,0.0324249267578125,0.09659925279312591
1784903220.411402,0.03955078125,-0.1689453125,0.9780272841453552,0.9932996282320594,0.00762939453125,-0.2288818359375,0.2155303955078125,0.31448124565828756
1784903220.422072,0.0415039099752903,-0.16796875,0.9741210341453552,0.9893674063179037,0.00762939453125,0.2593994140625,0.0934600830078125,0.27582793693298907
1784903220.432742,0.03955078125,-0.16015625,0.9716796278953552,0.9855838817565981,-0.17547607421875,-0.2288818359375,0.2155303955078125,0.36004457895252223
1784903220.440742,0.046875,-0.16357421875,0.9736327528953552,0.9883898664875418,0.1316070556640625,0.1354217529296875,0.0934600830078125,0.2106994432430712
1784903220.448745,0.0473632849752903,-0.17041015625,0.9824218153953552,0.9982161717190848,-0.17547607421875,0.3204345703125,0.0934600830078125,0.3771007207503162
1784903220.456748,0.0283203162252903,-0.1591796875,0.9780272841453552,0.9913009541791219,-0.2956390380859375,0.1354217529296875,-0.1506805419921875,0.3583938025998596
1784903220.464751,0.0278320349752903,-0.17138671875,0.9780272841453552,0.9933203904418235,-0.17547607421875,-0.0457763671875,-0.0286102294921875,0.18359159470875763
1784903220.475398,0.0327148474752903,-0.1552734375,0.9716796278953552,0.9845513703739658,0.00762939453125,0.0762939453125,-0.1506805419921875,0.16906684916718473
1784903220.486045,0.0292968712747097,-0.17138671875,0.9687499403953552,0.9842297298122948,-0.1125335693359375,0.0133514404296875,0.4596710205078125,0.4734337464563838
1784903220.496692,0.03564453125,-0.1787109375,0.9755858778953552,0.9924595391949297,0.0705718994140625,-0.0438690185546875,0.0934600830078125,0.12505866979816824
1784903220.504706,0.0390624962747097,-0.16650390625,0.9775390028953552,0.992386986811781,-0.1125335693359375,0.0133514404296875,0.0324249267578125,0.11787044186004926
1784903220.512722,0.03955078125,-0.16796875,0.9814452528953552,0.9965001503787522,-0.17547607421875,0.1373291015625,-0.0286102294921875,0.22465457927846327
1784903220.520738,0.0400390662252903,-0.1669921875,0.9687499403953552,0.9838526132130934,-0.17547607421875,0.1373291015625,-0.2117156982421875,0.30736732363959035
1784903220.528754,0.03955078125,-0.1611328125,0.9565429091453552,0.9708256200770068,0.00762939453125,0.1983642578125,0.3986358642578125,0.4453281247698045
1784903220.539417,0.0341796875,-0.16943359375,0.9633788466453552,0.9787618688385713,-0.11444091796875,-0.1068115234375,0.2155303955078125,0.26638088638700014
1784903220.55008,0.0322265662252903,-0.16064453125,0.9750975966453552,0.9887671818859853,-0.17547607421875,-0.1068115234375,0.2155303955078125,0.29774805717253294
1784903220.560743,0.0283203162252903,-0.154296875,0.9658202528953552,0.9784775556182748,-0.23651123046875,0.0762939453125,0.3376007080078125,0.41920468303272235
1784903220.571435,0.02490234375,-0.1728515625,0.9731444716453552,0.9886900181942023,-0.29754638671875,0.0152587890625,0.2155303955078125,0.36772276823823663
1784903220.582126,0.0424804724752903,-0.1650390625,0.9697265028953552,0.9845872094996249,0.0095367431640625,0.1354217529296875,0.3986358642578125,0.4211182172612576
1784903220.592817,0.03466796875,-0.16650390625,0.9672850966453552,0.9821231475970689,-0.48065185546875,0.2593994140625,0.1544952392578125,0.5676116992582598
1784903220.603475,0.03955078125,-0.17626953125,0.9731444716453552,0.9897703645990304,-0.29754638671875,0.5035400390625,0.3986358642578125,0.7078113982276784
1784903220.614131,0.0375976599752903,-0.16650390625,0.9848632216453552,0.9995462471450706,-0.29754638671875,0.6866455078125,-0.2727508544921875,0.7964979185626843
1784903220.624787,0.041015625,-0.16455078125,0.9833983778953552,0.9979136289034948,0.31280517578125,0.1373291015625,0.0934600830078125,0.35417671753988766
1784903220.632772,0.0356445349752903,-0.16650390625,0.9721679091453552,0.9869673384880399,0.00762939453125,0.1983642578125,-0.0896453857421875,0.21781386921700607
1784903220.640759,0.0283203162252903,-0.16943359375,0.9770507216453552,0.9920372451021433,-0.17547607421875,0.0762939453125,-0.2117156982421875,0.285370207969837
1784903220.648746,0.0224609375,-0.16845703125,0.9648436903953552,0.9796966938735021,0.06866455078125,-0.1068115234375,-0.1506805419921875,0.1970485925047166
1784903220.656733,0.03125,-0.1689453125,0.9726561903953552,0.9877141012611534,-0.354766845703125,-0.2899169921875,-0.5168914794921875,0.6907157003723126
1784903220.667411,0.0410156287252903,-0.1669921875,0.9736327528953552,0.9887008698268419,-0.29754638671875,-0.4119873046875,-0.3337860107421875,0.608013562710766
1784903220.678089,0.04052734375,-0.177734375,0.9711913466453552,0.9881521165523504,0.00762939453125,-0.2288818359375,-0.2727508544921875,0.3561434136822589
1784903220.688767,0.0278320349752903,-0.16796875,0.9741210341453552,0.9888882203322298,0.0095367431640625,-0.3528594970703125,-0.2727508544921875,0.4460872143080427
1784903220.699421,0.0341796837747097,-0.1669921875,0.9609374403953552,0.975938218240556,-0.0514984130859375,-0.4749298095703125,-0.0286102294921875,0.4785696979547063
1784903220.710075,0.0268554724752903,-0.17578125,0.9790038466453552,0.99502200779673,0.31280517578125,-0.5950927734375,-0.3337860107421875,0.7505968211764943
1784903220.720729,0.0390625,-0.1640625,0.9721679091453552,0.9866878059368889,0.621795654296875,-0.5950927734375,0.1544952392578125,0.8744335444465424
1784903220.728813,0.0356445349752903,-0.16748046875,0.9663085341453552,0.9813625341577238,0.6809234619140625,-1.0242462158203125,0.5817413330078125,1.3605734269553291
1784903220.736899,0.0302734375,-0.169921875,0.9746093153953552,0.9897743390677417,0.49591064453125,-0.7171630859375,0.3376007080078125,0.93499973114337
1784903220.744985,0.0380859412252903,-0.1689453125,0.9565429091453552,0.9720943341934456,0.4367828369140625,-0.7152557373046875,0.5817413330078125,1.0201926263699788
1784903220.753071,0.04345703125,-0.17529296875,0.9609374403953552,0.9777611685947795,0.4367828369140625,-0.2269744873046875,0.5207061767578125,0.7165414063567161
1784903220.761,0.04931640625,-0.16015625,0.9897460341453552,1.003832328850758,0.1316070556640625,0.0133514404296875,0.8869171142578125,0.8967277433120472
1784903220.768929,0.0595703125,-0.16650390625,0.9643554091453552,0.9804353767973502,0.0705718994140625,0.6847381591796875,0.7648468017578125,1.0289982360445766
1784903220.776858,0.04052734375,-0.173828125,0.9672850966453552,0.9836153419018333,0.06866455078125,0.7476806640625,0.3986358642578125,0.8500892589719652
1784903220.792843,0.0390625,-0.16748046875,0.9638671278953552,0.9790890799902789,-0.2346038818359375,1.2950897216796875,0.3986358642578125,1.3752115912998386
1784903220.800897,0.0332031287252903,-0.1640625,0.9765624403953552,0.9908042953350222,-0.7839202880859375,0.8068084716796875,0.1544952392578125,1.1354909541692444
1784903220.808951,0.0419921912252903,-0.16748046875,0.9692382216453552,0.984497730741352,-0.8449554443359375,0.8068084716796875,-0.1506805419921875,1.1779619003270496
1784903220.817005,0.03369140625,-0.17333984375,0.9638671278953552,0.979909002164802,-0.9670257568359375,0.8068084716796875,-0.4558563232421875,1.3393594408515275
1784903220.827641,0.0170898474752903,-0.16748046875,0.9697265028953552,0.9842313044793403,-0.9059906005859375,0.4444122314453125,-0.6389617919921875,1.1944008420267198
1784903220.838277,0.0424804724752903,-0.17431640625,0.9672850966453552,0.9837841522518307,-0.96893310546875,0.2593994140625,-0.8831024169921875,1.3364091056958298
1784903220.848913,0.0341796875,-0.17333984375,0.9741210341453552,0.9900135057832739,-0.9059906005859375,0.2613067626953125,-1.0051727294921875,1.3782134844410523
1784903220.859535,0.0146484375,-0.173828125,0.9638671278953552,0.9795257189065778,-0.843048095703125,0.0762939453125,-1.1882781982421875,1.458957139253142
1784903220.87016,0.02099609375,-0.1728515625,0.9624022841453552,0.9780269194350671,-0.6008148193359375,0.0133514404296875,-0.6999969482421875,0.9225792300087827
1784903220.880785,0.0224609412252903,-0.15478515625,0.9814452528953552,0.9938298259294146,-0.8449554443359375,0.0133514404296875,-0.8220672607421875,1.178949763585647
1784903220.888767,0.0214843787252903,-0.16064453125,0.9731444716453552,0.9865487350575548,-0.4177093505859375,-0.7801055908203125,0.0934600830078125,0.8898205557930552
1784903220.896749,0.0424804724752903,-0.17236328125,0.9702147841453552,0.9863216608384958,-0.2346038818359375,-0.8411407470703125,0.3986358642578125,0.9599308777339476
1784903220.904731,0.0229492224752903,-0.17578125,0.9765624403953552,0.9925219970633974,-0.17547607421875,-0.7781982421875,0.8258819580078125,1.14824447106431
1784903220.912713,0.04052734375,-0.18505859375,0.9765624403953552,0.9947679873734829,0.00762939453125,-0.9002685546875,0.8258819580078125,1.2217293836127754
1784903220.923441,0.0332031287252903,-0.17724609375,0.9780272841453552,0.994512943123176,0.19073486328125,-0.9613037109375,0.9479522705078125,1.363487484318812
1784903220.934169,0.0302734412252903,-0.17138671875,0.9794921278953552,0.9948340149072525,0.133514404296875,-0.7781982421875,1.1920928955078125,1.4298615568713864
1784903220.944897,0.0439453125,-0.16943359375,0.9721679091453552,0.9878002716915066,0.0705718994140625,-0.6580352783203125,0.7038116455078125,0.9660960888304094
1784903220.952866,0.046875,-0.18310546875,0.9672850966453552,0.985578681031287,0.133514404296875,-0.7781982421875,0.8258819580078125,1.1425846178123011
1784903220.960835,0.0439453087747097,-0.17138671875,0.9619140028953552,0.9780506870778025,-0.11444091796875,-0.2899169921875,0.5207061767578125,0.60686366556115
1784903220.968804,0.0336914025247097,-0.1572265625,0.9794921278953552,0.9926027056021051,0.0705718994140625,-0.3528594970703125,0.4596710205078125,0.5837702157136112
1784903220.976773,0.03369140625,-0.17529296875,0.9609374403953552,0.9773758233667681,0.19073486328125,-0.2899169921875,0.1544952392578125,0.37986896343777915
1784903220.98745,0.0327148474752903,-0.166015625,0.9731444716453552,0.9877457221792407,0.133514404296875,-0.2288818359375,0.2155303955078125,0.34156455080207626
1784903220.998127,0.0302734375,-0.15380859375,0.9755858778953552,0.9880998783919923,0.1926422119140625,-0.3528594970703125,0.0934600830078125,0.4127416063346215
1784903221.008804,0.03515625,-0.17529296875,0.9672850966453552,0.9836686662690162,0.133514404296875,-0.5950927734375,-0.0286102294921875,0.610557163895307
1784903221.016795,0.0288085974752903,-0.15771484375,0.9716796278953552,0.9848173467676309,0.4367828369140625,-0.1697540283203125,-0.0286102294921875,0.4694829304514336
1784903221.024786,0.03466796875,-0.1669921875,0.9687499403953552,0.9836486698813202,0.19073486328125,-0.0457763671875,0.1544952392578125,0.24968789080996837
1784903221.032777,0.0263671912252903,-0.16650390625,0.9726561903953552,0.9871569501776429,0.19073486328125,0.1983642578125,0.0934600830078125,0.29062510897072935
1784903221.040768,0.0283203162252903,-0.1650390625,0.9804686903953552,0.9946651624077131,0.06866455078125,0.5645751953125,0.3986358642578125,0.6945289943326423
1784903221.051445,0.0375976599752903,-0.16650390625,0.9819335341453552,0.9966597214251782,0.0705718994140625,0.6237030029296875,0.3376007080078125,0.7127131729509386
1784903221.062122,0.03173828125,-0.1591796875,0.9833983778953552,0.9967034970624502,-0.4177093505859375,0.6847381591796875,0.3986358642578125,0.8956885622113782
1784903221.072799,0.0244140625,-0.16943359375,0.9628905653953552,0.9779887678629958,-0.29754638671875,0.5035400390625,0.3376007080078125,0.6753226349203943
1784903221.080834,0.0273437537252903,-0.17529296875,0.9721679091453552,0.9882235320680385,0.06866455078125,0.3814697265625,0.3376007080078125,0.5140118781361338
1784903221.088872,0.0380859412252903,-0.17138671875,0.9682616591453552,0.9840500936709594,-0.29754638671875,0.2593994140625,0.4596710205078125,0.6059037509044205
1784903221.09691,0.0351562537252903,-0.171875,0.9697265028953552,0.9854676393563881,-0.2346038818359375,0.1964569091796875,0.3986358642578125,0.5025384072978897
1784903221.104948,0.0317382849752903,-0.1630859375,0.9687499403953552,0.982894088271687,-0.354766845703125,0.0762939453125,0.2765655517578125,0.45625517566444646
1784903221.115558,0.02978515625,-0.16162109375,0.9697265028953552,0.9835537727523791,-0.2956390380859375,0.1354217529296875,0.4596710205078125,0.5630621094529639
1784903221.126168,0.0400390625,-0.1591796875,0.9736327528953552,0.9873712761413836,-0.3566741943359375,0.4444122314453125,0.5207061767578125,0.7719155620125367
1784903221.136778,0.041015625,-0.1650390625,0.9614257216453552,0.976350137955801,-0.354766845703125,0.2593994140625,0.5817413330078125,0.7290888487391779
1784903221.147409,0.0375976599752903,-0.17138671875,0.9755858778953552,0.9912390208967563,-0.41961669921875,-0.1068115234375,0.5817413330078125,0.7251964246547173
1784903221.158039,0.0371093787252903,-0.1611328125,0.9692382216453552,0.983241384173687,-0.049591064453125,0.0762939453125,0.3986358642578125,0.4088894618812202
1784903221.168669,0.03466796875,-0.17529296875,0.9697265028953552,0.9860522214203946,-0.41961669921875,0.3814697265625,0.7038116455078125,0.9038518456579718
1784903221.179365,0.0288085974752903,-0.17626953125,0.9848632216453552,1.0009277937420142,-0.11444091796875,-0.0457763671875,0.7038116455078125,0.7145229400451952
1784903221.19006,0.04248046875,-0.16845703125,0.9604491591453552,0.9760353215462046,-0.48065185546875,-0.1068115234375,0.3986358642578125,0.6335183185805797
1784903221.200755,0.0292968712747097,-0.162109375,0.9643554091453552,0.9783246451343659,-0.48065185546875,-0.0457763671875,0.6427764892578125,0.8039174690856243
1784903221.20877,0.0366210974752903,-0.1796875,0.9594725966453552,0.9768399900443906,-0.17547607421875,-0.1678466796875,0.2155303955078125,0.3246809386044961
1784903221.216783,0.0302734375,-0.16845703125,0.9780272841453552,0.9928905382409329,-0.1125335693359375,0.3185272216796875,0.3986358642578125,0.5225265040656217
1784903221.224796,0.04443359375,-0.1611328125,0.9624022841453552,0.9768092362615626,0.06866455078125,0.3814697265625,0.2155303955078125,0.4434944466455171
1784903221.232809,0.0322265662252903,-0.17236328125,0.9741210341453552,0.989777470676291,-0.2346038818359375,0.4444122314453125,0.5207061767578125,0.723654707263368
1784903221.243446,0.0439453087747097,-0.17724609375,0.9726561903953552,0.989650156685353,-0.354766845703125,0.0762939453125,0.5817413330078125,0.6856407655844263
1784903221.254083,0.0273437537252903,-0.17431640625,0.9760741591453552,0.9918944775060584,-0.41961669921875,0.0762939453125,0.2155303955078125,0.47786220999608214
1784903221.26472,0.0283203162252903,-0.162109375,0.9667968153953552,0.9807025910196178,-0.4177093505859375,-0.1697540283203125,-0.2117156982421875,0.4981175248674514
1784903221.275405,0.0327148474752903,-0.166015625,0.9687499403953552,0.9834164407846131,-0.3566741943359375,-0.0438690185546875,-0.2727508544921875,0.45114742637009475
1784903221.286091,0.0332031287252903,-0.16748046875,0.9682616591453552,0.9832002826183401,-0.11444091796875,0.0762939453125,-0.2117156982421875,0.2524698530103226
1784903221.296777,0.0219726599752903,-0.1796875,0.9765624403953552,0.9931991720866321,0.00762939453125,-0.0457763671875,-0.4558563232421875,0.45821247352476563
1784903221.307414,0.0371093787252903,-0.16650390625,0.9687499403953552,0.9836549719296346,-0.2346038818359375,-0.3528594970703125,-0.5168914794921875,0.6683753493485729
1784903221.318052,0.0268554724752903,-0.1533203125,0.9843749403953552,0.9966054173570039,-0.2956390380859375,-0.3528594970703125,-0.8220672607421875,0.942181960502989
1784903221.32869,0.0380859412252903,-0.17822265625,0.9731444716453552,0.9900626327731693,-0.2346038818359375,-0.4749298095703125,0.0934600830078125,0.5378959866989259
1784903221.336698,0.0263671875,-0.16015625,0.9711913466453552,0.9846613046065846,-0.2346038818359375,-0.3528594970703125,-0.0896453857421875,0.4331109571808014
1784903221.344707,0.0302734375,-0.16357421875,0.9794921278953552,0.9935179085787584,-0.0514984130859375,-0.1087188720703125,-0.0286102294921875,0.12365445776924691
1784903221.352716,0.03564453125,-0.1533203125,0.9711913466453552,0.9838649717476217,-0.2346038818359375,-0.2918243408203125,0.2765655517578125,0.4654985839793755
1784903221.360725,0.04150390625,-0.17822265625,0.9653319716453552,0.9825231320002208,-0.29754638671875,-0.4119873046875,0.3376007080078125,0.610116078726361
1784903221.371389,0.0312500037252903,-0.17041015625,0.9780272841453552,0.9932540222011284,-0.354766845703125,-0.2899169921875,0.5207061767578125,0.6935750137389106
1784903221.382053,0.0439453125,-0.17041015625,0.9731444716453552,0.9889292060293242,-0.2346038818359375,-0.2269744873046875,0.5207061767578125,0.6145659621012659
1784903221.392717,0.03466796875,-0.1630859375,0.9692382216453552,0.9834742606523852,-0.17547607421875,-0.4730224609375,0.3986358642578125,0.6430028409324224
1784903221.400723,0.0375976599752903,-0.169921875,0.9687499403953552,0.9842578293593287,-0.41961669921875,-0.4119873046875,0.2765655517578125,0.6498463032948738
1784903221.408732,0.046875,-0.16845703125,0.9667968153953552,0.9824821215987414,-0.4787445068359375,-0.3528594970703125,0.5207061767578125,0.7904688798504576
1784903221.416741,0.0336914025247097,-0.15185546875,0.9741210341453552,0.9864618508375175,-0.2346038818359375,-0.5970001220703125,0.8258819580078125,1.04571943449822
1784903221.42475,0.0317382849752903,-0.1748046875,0.9633788466453552,0.9796238051767017,-0.4177093505859375,-0.2918243408203125,0.5817413330078125,0.7733469635240331
1784903221.435423,0.03955078125,-0.173828125,0.9829100966453552,0.9989458140589421,-0.5397796630859375,-0.3528594970703125,-0.0286102294921875,0.6455156501475993
1784903221.446096,0.0302734375,-0.16845703125,0.9643554091453552,0.9794261623744464,-0.3566741943359375,-0.0438690185546875,0.2765655517578125,0.45346386417579615
