timestamp,accel_x,accel_y,accel_z,accel_rms,gyro_x,gyro_y,gyro_z,gyro_rms
1785512694.397719,-0.0537109337747097,-0.15673828125,0.9838866591453552,0.9977398013812838,-1.1043548583984375,-0.1125335693359375,0.9746551513671875,1.4772325888573927
1785512694.408756,-0.0625,-0.1591796875,0.9716796278953552,0.9866132586679817,-1.224517822265625,-0.29754638671875,0.9136199951171875,1.556495822279476
1785512694.419793,-0.068359375,-0.1513671875,0.9721679091453552,0.9862532500195386,-0.9822845458984375,-0.1125335693359375,0.7305145263671875,1.2293080194043566
1785512694.430066,-0.0673828050494194,-0.15966796875,0.9741210341453552,0.989417046459932,-0.3681182861328125,-0.1125335693359375,0.6694793701171875,0.7722548179359916
1785512694.440341,-0.0678710862994194,-0.14453125,0.9785155653953552,0.9914577541695951,-0.064849853515625,-0.415802001953125,0.8525848388671875,0.9507879447045028
1785512694.450614,-0.07373046875,-0.1376953125,0.9833983778953552,0.9957251381549946,-0.064849853515625,-0.415802001953125,0.7915496826171875,0.8964640028359169
1785512694.458597,-0.0605468712747097,-0.1416015625,0.9775390028953552,0.9895955882608021,0.057220458984375,-0.17547607421875,0.6694793701171875,0.6944556577364123
1785512694.46658,-0.0629882737994194,-0.1494140625,0.9829100966453552,0.9961949321274256,0.362396240234375,-0.05340576171875,0.8525848388671875,0.9279461825919426
1785512694.474563,-0.07080078125,-0.14794921875,0.9785155653953552,0.992166535252695,0.3604888916015625,0.0095367431640625,1.0967254638671875,1.1544912011500987
1785512694.482546,-0.0629882737994194,-0.14111328125,0.9750975966453552,0.9872668351387683,0.1201629638671875,0.1926422119140625,0.9136199951171875,0.9414093982823941
1785512694.493232,-0.0673828050494194,-0.13916015625,0.9780272841453552,0.9901733989744381,0.0553131103515625,0.8640289306640625,1.0356903076171875,1.3499110883659826
1785512694.503918,-0.0634765625,-0.1376953125,0.9814452528953552,0.9930881418595818,0.118255615234375,0.61798095703125,1.0967254638671875,1.2643937665468055
1785512694.514604,-0.06689453125,-0.1435546875,0.9775390028953552,0.9902854784333784,0.3032684326171875,0.1926422119140625,1.1577606201171875,1.212226223741824
1785512694.522578,-0.0634765625,-0.13623046875,0.9711913466453552,0.982751569015018,0.2384185791015625,0.3757476806640625,1.2798309326171875,1.3549896510560553
1785512694.53055,-0.0629882737994194,-0.14794921875,0.9726561903953552,0.985858285292248,0.3032684326171875,0.0095367431640625,0.9746551513671875,1.0207915339474842
1785512694.538523,-0.0634765625,-0.15234375,0.9794921278953552,0.9932989080633532,0.1201629638671875,0.0705718994140625,0.7305145263671875,0.7436874371036073
1785512694.546497,-0.0537109300494194,-0.1455078125,0.9741210341453552,0.9863919994960042,0.057220458984375,0.12969970703125,0.6694793701171875,0.6843236236919494
1785512694.557194,-0.0654296875,-0.1513671875,0.9726561903953552,0.9865359264478984,0.301361083984375,-0.17547607421875,0.6694793701171875,0.75485957805142
1785512694.567893,-0.0566406212747097,-0.140625,0.9755858778953552,0.9872949689693734,0.1773834228515625,0.0095367431640625,0.6084442138671875,0.6338455565523619
1785512694.57859,-0.0712890625,-0.1376953125,0.9814452528953552,0.9936180926027008,0.301361083984375,0.12969970703125,0.3032684326171875,0.44677987775448796
1785512694.586577,-0.07177734375,-0.14990234375,0.9702147841453552,0.9843472086168412,0.118255615234375,0.00762939453125,0.4863739013671875,0.5006018079536995
1785512694.594564,-0.07275390625,-0.1318359375,0.9819335341453552,0.993411954211507,0.057220458984375,0.31280517578125,0.5474090576171875,0.6330702451412944
1785512694.602551,-0.0561523400247097,-0.14501953125,0.9809569716453552,0.9932070931854275,-0.1888275146484375,-0.2346038818359375,0.4863739013671875,0.5720615208104238
1785512694.610538,-0.0620117150247097,-0.1337890625,0.9672850966453552,0.9784607423076047,-0.3681182861328125,-0.4177093505859375,0.4863739013671875,0.7392913810422947
1785512694.618563,-0.0654296875,-0.1552734375,0.9785155653953552,0.992916711572731,-0.4940032958984375,-0.3566741943359375,0.6084442138671875,0.8610807735933773
1785512694.626588,-0.0605468712747097,-0.1376953125,0.9780272841453552,0.9895268016776344,-0.431060791015625,-0.35858154296875,0.5474090576171875,0.7836139386650821
1785512694.634614,-0.06640625,-0.1357421875,0.9702147841453552,0.981912653386525,-0.431060791015625,-0.35858154296875,0.6694793701171875,0.8732678601216078
1785512694.642638,-0.06640625,-0.13916015625,0.9838866591453552,0.995895726053082,-0.553131103515625,-0.17547607421875,0.4253387451171875,0.7194851759400614
1785512694.653349,-0.0624999962747097,-0.14111328125,0.9785155653953552,0.9906118914087757,-0.064849853515625,0.255584716796875,0.3032684326171875,0.4018716128108857
1785512694.66406,-0.0546874925494194,-0.14404296875,0.9819335341453552,0.9939479685410317,-0.1888275146484375,0.3757476806640625,0.0,0.42052603939914135
1785512694.674772,-0.0468749962747097,-0.14013671875,0.9760741591453552,0.987196195985926,-0.247955322265625,0.560760498046875,-0.7343292236328125,0.9566470543992692
1785512694.685385,-0.06494140625,-0.14501953125,0.9877929091453552,1.0004913203259393,-0.1277923583984375,0.1926422119140625,-0.9784698486328125,1.005407953698247
1785512694.695998,-0.0688476487994194,-0.138671875,0.9814452528953552,0.9935817390089512,-0.0057220458984375,0.0095367431640625,-1.1005401611328125,1.100596355411773
1785512694.706613,-0.0820312425494194,-0.1337890625,0.9721679091453552,0.9847533100075786,0.1773834228515625,0.0705718994140625,-1.1005401611328125,1.1169753434860064
1785512694.714615,-0.07568359375,-0.13818359375,0.9790038466453552,0.9916003447412582,0.057220458984375,-0.05340576171875,-0.7343292236328125,0.738488838773012
1785512694.722619,-0.0771484300494194,-0.1396484375,0.9819335341453552,0.9948100481169604,-0.247955322265625,0.00762939453125,-0.4901885986328125,0.5493859406012899
1785512694.730623,-0.0961913913488388,-0.13232421875,0.9780272841453552,0.9916147695401489,-0.0057220458984375,0.0095367431640625,-0.6122589111328125,0.6123599150344332
1785512694.738627,-0.07373046875,-0.13818359375,0.9731444716453552,0.9856678194491678,-0.0629425048828125,-0.1125335693359375,0.1201629638671875,0.1762518114339712
1785512694.7493,-0.07080078125,-0.134765625,0.9741210341453552,0.9859443764592744,-0.1277923583984375,0.0095367431640625,0.1201629638671875,0.17567291829009674
1785512694.759971,-0.0732421875,-0.1416015625,0.9624022841453552,0.9755170818906369,-0.064849853515625,0.19073486328125,-0.1239776611328125,0.236549681952603
1785512694.770643,-0.06640625,-0.14111328125,0.9721679091453552,0.9845979848426747,-0.247955322265625,-0.232696533203125,0.1811981201171875,0.3853080289049343
1785512694.781267,-0.0566406212747097,-0.146484375,0.9726561903953552,0.9852542295326274,-0.3108978271484375,-0.2956390380859375,-0.1850128173828125,0.4672147711298564
1785512694.79189,-0.06884765625,-0.14306640625,0.9858397841453552,0.9985429767276763,0.057220458984375,-0.05340576171875,-0.4901885986328125,0.49639824590820525
1785512694.802513,-0.0498046837747097,-0.13232421875,0.9843749403953552,0.9944768618082855,-0.064849853515625,-0.29754638671875,-0.6122589111328125,0.6838130811939175
1785512694.810565,-0.0522460900247097,-0.1376953125,0.9750975966453552,0.9861566690901049,-0.064849853515625,-0.35858154296875,-1.0395050048828125,1.1015247984658645
1785512694.818619,-0.07080078125,-0.14111328125,0.9746093153953552,0.9873140465050393,-0.125885009765625,-0.35858154296875,-1.2836456298828125,1.3387209798007886
1785512694.826674,-0.07421875,-0.1416015625,0.9692382216453552,0.9823350526435747,0.057220458984375,-0.66375732421875,-1.2226104736328125,1.392344905767629
1785512694.834728,-0.07177734375,-0.14599609375,0.9711913466453552,0.9847230464779846,-0.3108978271484375,-0.6618499755859375,-1.0395050048828125,1.2709341069800362
1785512694.845326,-0.06982421875,-0.1572265625,0.9702147841453552,0.9853488422146912,0.179290771484375,-1.02996826171875,-0.7343292236328125,1.2775833474057867
1785512694.855926,-0.0820312425494194,-0.15478515625,0.9746093153953552,0.9902276945253256,-0.064849853515625,-0.84686279296875,-0.5512237548828125,1.0125362816032504
1785512694.866524,-0.0751953125,-0.1494140625,0.9780272841453552,0.9922279302798657,-0.3108978271484375,-0.9059906005859375,0.1201629638671875,0.9653577394733179
1785512694.877296,-0.06591796875,-0.13525390625,0.9824218153953552,0.9938769647822185,-0.1277923583984375,-0.7839202880859375,0.7305145263671875,1.0791262104921973
1785512694.888067,-0.0581054650247097,-0.1513671875,0.9677733778953552,0.9812612197984714,-0.0057220458984375,-0.4177093505859375,0.7915496826171875,0.8950222027567583
1785512694.898839,-0.064453125,-0.140625,0.9814452528953552,0.9935614628084632,-0.003814697265625,-0.54168701171875,0.7305145263671875,0.9094453495474557
1785512694.909416,-0.0541992112994194,-0.1435546875,0.9760741591453552,0.9880618740544612,0.0553131103515625,-0.2956390380859375,0.6694793701171875,0.7339377412489759
1785512694.919992,-0.0693359375,-0.1435546875,0.9809569716453552,0.9938269470847794,0.057220458984375,-0.35858154296875,0.5474090576171875,0.6568954104311959
1785512694.930568,-0.0561523400247097,-0.13671875,0.9726561903953552,0.9838217148478776,0.0553131103515625,-0.2956390380859375,0.4863739013671875,0.5718579831988718
1785512694.938567,-0.0419921837747097,-0.1435546875,0.9692382216453552,0.980710977862307,-0.1888275146484375,0.0705718994140625,-0.1850128173828125,0.2736164576028649
1785512694.946568,-0.0488281212747097,-0.13671875,0.9785155653953552,0.9892264218821554,-0.125885009765625,0.43487548828125,-0.2460479736328125,0.5152701537255582
1785512694.95457,-0.0532226487994194,-0.13818359375,0.9887694716453552,0.9997961912233544,0.118255615234375,0.31280517578125,-0.4291534423828125,0.5440626302541071
1785512694.96257,-0.0522460900247097,-0.14404296875,0.9687499403953552,0.9807927802472792,0.118255615234375,0.43487548828125,-0.1239776611328125,0.467409393682111
1785512694.973254,-0.0712890625,-0.142578125,0.9785155653953552,0.9914148293633882,-0.1277923583984375,0.2536773681640625,0.0,0.28404769667026
1785512694.983938,-0.06396484375,-0.1513671875,0.9721679091453552,0.9859584018911111,0.1201629638671875,0.1926422119140625,0.0,0.22704660247730987
1785512694.994622,-0.0922851487994194,-0.13623046875,0.9780272841453552,0.9917724828999417,0.0553131103515625,0.3757476806640625,0.5474090576171875,0.6662601114148465
1785512695.002614,-0.0722656175494194,-0.14501953125,0.9643554091453552,0.9778723531584652,0.1201629638671875,0.1926422119140625,0.6694793701171875,0.7069319533795284
1785512695.010608,-0.0566406212747097,-0.12548828125,0.9770507216453552,0.986703390780215,-0.247955322265625,0.255584716796875,0.4863739013671875,0.6027976121644207
1785512695.018603,-0.0620117150247097,-0.13623046875,0.9765624403953552,0.9879667977250461,-0.0057220458984375,0.2536773681640625,0.3643035888671875,0.4439617706395697
1785512695.026596,-0.0585937462747097,-0.13623046875,0.9667968153953552,0.9781043144659727,-0.3108978271484375,0.6809234619140625,0.0591278076171875,0.7508730369005578
1785512695.037275,-0.06689453125,-0.1484375,0.9824218153953552,0.9958218681481706,-0.1888275146484375,0.6809234619140625,-0.2460479736328125,0.748232715538522
1785512695.047954,-0.0693359375,-0.140625,0.9829100966453552,0.9953366872276865,-0.1277923583984375,0.4978179931640625,0.0591278076171875,0.5173487593650384
1785512695.058634,-0.06396484375,-0.1552734375,0.9770507216453552,0.9913775538596472,-0.3108978271484375,-0.1125335693359375,0.0591278076171875,0.335882956975672
1785512695.067335,-0.0673828050494194,-0.14306640625,0.9692382216453552,0.9820545653434277,-0.1277923583984375,0.0705718994140625,0.3643035888671875,0.39246450121438503
1785512695.076036,-0.07373046875,-0.15234375,0.9775390028953552,0.9920823062467159,-0.3108978271484375,0.3757476806640625,0.5474090576171875,0.7331442251094796
1785512695.084738,-0.0595703087747097,-0.15380859375,0.9858397841453552,0.9995427880799438,0.1773834228515625,-0.1125335693359375,0.3643035888671875,0.42053036488645534
1785512695.093438,-0.0629882737994194,-0.150390625,0.9746093153953552,0.9881539254486237,0.1773834228515625,0.0705718994140625,0.4863739013671875,0.5224986541806432
1785512695.103157,-0.06689453125,-0.12451171875,0.9799804091453552,0.9901210273122848,0.423431396484375,0.12969970703125,0.6084442138671875,0.752542705048132
1785512695.112875,-0.07373046875,-0.13232421875,0.9707030653953552,0.9824511804959226,0.728607177734375,0.12969970703125,0.4863739013671875,0.8855789097427637
1785512695.122592,-0.07080078125,-0.140625,0.9750975966453552,0.9877264116313577,0.3032684326171875,0.3757476806640625,0.6084442138671875,0.7767640717328317
1785512695.133273,-0.0654296875,-0.14453125,0.9741210341453552,0.9869559845288576,0.057220458984375,0.43487548828125,0.2422332763671875,0.5010666935786297
1785512695.143953,-0.0581054612994194,-0.14794921875,0.9819335341453552,0.9947153771007771,-0.370025634765625,0.743865966796875,0.1201629638671875,0.8394609489593309
1785512695.154634,-0.0678710862994194,-0.1455078125,0.9765624403953552,0.9896732833844359,-0.6160736083984375,0.6809234619140625,0.0,0.9182611022743493
1785512695.165382,-0.06591796875,-0.14013671875,0.9746093153953552,0.9868367626925669,-0.9822845458984375,0.2536773681640625,0.0,1.0145122651942384
1785512695.176132,-0.06494140625,-0.1435546875,0.9663085341453552,0.9790697205567617,-0.9822845458984375,0.1316070556640625,0.3643035888671875,1.0558979359166187
1785512695.186882,-0.078125,-0.15234375,0.9702147841453552,0.9852049843374122,-1.041412353515625,-0.17547607421875,0.1811981201171875,1.0715242887644592
1785512695.194821,-0.0595703087747097,-0.150390625,0.9741210341453552,0.9874602528404984,-0.858306884765625,0.12969970703125,-0.0629425048828125,0.8703300990779228
1785512695.202761,-0.0654296875,-0.142578125,0.9804686903953552,0.9929392824238782,-0.614166259765625,0.12969970703125,-0.1239776611328125,0.639838002230605
1785512695.210701,-0.0693359375,-0.1455078125,0.9731444716453552,0.986402635043853,-0.736236572265625,0.19073486328125,0.3032684326171875,0.8187770274222644
1785512695.218642,-0.06640625,-0.13623046875,0.9780272841453552,0.989699903600908,-0.431060791015625,0.31280517578125,-0.2460479736328125,0.5866856814985075
1785512695.229347,-0.07080078125,-0.1494140625,0.9755858778953552,0.9894974066904951,-0.1888275146484375,0.2536773681640625,-0.1850128173828125,0.3663847431360606
1785512695.240053,-0.0605468712747097,-0.15185546875,0.9829100966453552,0.9964126981817424,-0.3108978271484375,0.2536773681640625,0.1201629638671875,0.41886609307702627
1785512695.250759,-0.0576171837747097,-0.15283203125,0.9829100966453552,0.996388291646139,-0.0629425048828125,-0.1125335693359375,0.0591278076171875,0.14185083990595285
1785512695.261334,-0.0624999962747097,-0.1533203125,0.9746093153953552,0.9885730551733845,0.179290771484375,0.12969970703125,0.1201629638671875,0.25180614096721604
1785512695.27191,-0.0581054650247097,-0.14208984375,0.9809569716453552,0.9928959406615899,0.3604888916015625,-0.4177093505859375,0.3032684326171875,0.6296070876007784
1785512695.282486,-0.0629882737994194,-0.12890625,0.9765624403953552,0.987045360617345,0.3604888916015625,0.0705718994140625,0.3032684326171875,0.47634480807196505
1785512695.290507,-0.0600585900247097,-0.14111328125,0.9863280653953552,0.9981798660399046,0.545501708984375,0.31280517578125,0.3643035888671875,0.726729865467166
1785512695.29853,-0.07666015625,-0.14599609375,0.9775390028953552,0.9913496563413832,0.4253387451171875,-0.1125335693359375,0.6084442138671875,0.7508536566560823
1785512695.306552,-0.06591796875,-0.14306640625,0.9750975966453552,0.9877390840626709,0.240325927734375,0.072479248046875,0.2422332763671875,0.34883628411965795
1785512695.314575,-0.0673828050494194,-0.13916015625,0.9682616591453552,0.9805287512739076,0.118255615234375,-0.05340576171875,-0.1850128173828125,0.22597855764462782
1785512695.322596,-0.0678710862994194,-0.15576171875,0.9785155653953552,0.9931570415117686,-0.0057220458984375,-0.1735687255859375,-0.1239776611328125,0.21337597046235732
1785512695.330617,-0.0610351525247097,-0.14453125,0.9848632216453552,0.997281373244254,0.423431396484375,0.00762939453125,0.0,0.42350012419079813
1785512695.338638,-0.07470703125,-0.14404296875,0.9716796278953552,0.9851349230594548,0.1201629638671875,-0.4177093505859375,-0.1850128173828125,0.4723875337561297
1785512695.346659,-0.0629882737994194,-0.1474609375,0.9614257216453552,0.9747059397407515,-0.3108978271484375,-0.6618499755859375,0.1201629638671875,0.7410411506752326
1785512695.362565,-0.07080078125,-0.14501953125,0.9775390028953552,0.9907703655495684,0.0553131103515625,-0.1125335693359375,0.1811981201171875,0.22035449425471923
1785512695.378471,-0.0634765550494194,-0.1494140625,0.9755858778953552,0.9890003236918311,0.118255615234375,-0.66375732421875,0.0591278076171875,0.6767970697499439
1785512695.386505,-0.0693359375,-0.14501953125,0.9697265028953552,0.9829586090424302,0.3604888916015625,0.4978179931640625,0.4863739013671875,0.7837949777953137
1785512695.39454,-0.0776367112994194,-0.142578125,0.9897460341453552,1.0029721794628024,0.240325927734375,0.80108642578125,0.4863739013671875,0.9674996563531715
1785512695.402573,-0.0600585900247097,-0.13525390625,0.9765624403953552,0.9877119283387094,0.4825592041015625,0.1316070556640625,0.4863739013671875,0.6976699610093843
1785512695.410607,-0.0678710862994194,-0.12939453125,0.9726561903953552,0.9835697706758153,0.301361083984375,0.61798095703125,0.1201629638671875,0.6979671224913422
1785512695.418681,-0.0585937425494194,-0.13818359375,0.9658202528953552,0.9774132663057427,0.423431396484375,0.072479248046875,-0.0629425048828125,0.43417640176208483
1785512695.426755,-0.0703125,-0.14453125,0.9653319716453552,0.9786209405911573,0.423431396484375,-0.05340576171875,0.2422332763671875,0.4907374889827046
1785512695.434829,-0.0673828050494194,-0.13916015625,0.9804686903953552,0.992584930547223,0.1773834228515625,-0.4787445068359375,0.3643035888671875,0.6271987614701052
1785512695.442903,-0.07373046875,-0.1513671875,0.9809569716453552,0.9953013552152841,0.240325927734375,-0.48065185546875,0.1811981201171875,0.5671115555522942
1785512695.45348,-0.0600585900247097,-0.14404296875,0.9814452528953552,0.9937757269690669,0.2384185791015625,-0.6008148193359375,0.0591278076171875,0.6490901043985329
1785512695.464055,-0.06591796875,-0.13427734375,0.9628905653953552,0.9744402621895651,0.1201629638671875,-0.4177093505859375,-0.1850128173828125,0.4723875337561297
1785512695.474631,-0.0620117150247097,-0.150390625,0.9755858778953552,0.9890554069601194,0.3032684326171875,-0.1125335693359375,-0.1239776611328125,0.34641883163236714
1785512695.485281,-0.06787109375,-0.1318359375,0.9785155653953552,0.9896867744414477,0.1773834228515625,-0.1125335693359375,-0.1850128173828125,0.2799257500230167
1785512695.495929,-0.06640625,-0.1298828125,0.9702147841453552,0.9811198002263489,0.118255615234375,-0.17547607421875,-0.1850128173828125,0.2810800344272263
1785512695.506578,-0.07080078125,-0.1474609375,0.9809569716453552,0.9945019149974602,0.362396240234375,-0.35858154296875,-0.1850128173828125,0.5423481358774881
1785512695.51466,-0.0556640587747097,-0.13916015625,0.9799804091453552,0.9913756295347876,0.0553131103515625,0.0705718994140625,0.1201629638671875,0.14993022059951655
1785512695.522745,-0.0605468712747097,-0.142578125,0.9692382216453552,0.981538168207392,0.362396240234375,0.43487548828125,-0.0629425048828125,0.5695695604268097
1785512695.53083,-0.0600585900247097,-0.14306640625,0.9838866591453552,0.9960461780847586,0.3032684326171875,0.2536773681640625,0.2422332763671875,0.4636819055347245
1785512695.538915,-0.06640625,-0.1337890625,0.9755858778953552,0.9869534479561548,0.1201629638671875,0.5588531494140625,0.0591278076171875,0.5746756286192921
1785512695.549499,-0.0512695275247097,-0.150390625,0.9819335341453552,0.9947056700450063,0.4825592041015625,0.7419586181640625,0.3643035888671875,0.9571222917645222
1785512695.560083,-0.06640625,-0.14501953125,0.9726561903953552,0.9856472590117814,0.3032684326171875,0.7419586181640625,-0.1850128173828125,0.8226202501068988
1785512695.570668,-0.0732421875,-0.1416015625,0.9829100966453552,0.9957548285695672,-0.1888275146484375,0.9250640869140625,0.2422332763671875,0.9747186031701849
1785512695.581515,-0.0678710862994194,-0.1455078125,0.9770507216453552,0.9901550992252213,0.1201629638671875,0.6809234619140625,0.0591278076171875,0.6939682964689337
1785512695.592362,-0.0537109337747097,-0.1328125,0.9877929091453552,0.99812767516037,-0.064849853515625,0.67901611328125,0.0591278076171875,0.6846637738555973
1785512695.60321,-0.0722656175494194,-0.142578125,0.9819335341453552,0.9948589380849437,-0.064849853515625,0.43487548828125,0.1811981201171875,0.4755575175968269
1785512695.611048,-0.0791015625,-0.14013671875,0.9770507216453552,0.9902138505391992,0.057220458984375,-0.05340576171875,-0.1239776611328125,0.1466179278639039
1785512695.618885,-0.0776367112994194,-0.1357421875,0.9663085341453552,0.9788797595061508,0.240325927734375,0.12969970703125,0.3032684326171875,0.40810575561668533
1785512695.626722,-0.068359375,-0.1318359375,0.9809569716453552,0.9921342140993429,0.057220458984375,0.12969970703125,0.1201629638671875,0.18583684461301433
1785512695.634559,-0.0605468712747097,-0.14306640625,0.9726561903953552,0.9849842561852711,0.057220458984375,-0.05340576171875,0.1201629638671875,0.14340674390170588
1785512695.645219,-0.0654296875,-0.14599609375,0.9765624403953552,0.9895807715328437,0.240325927734375,-0.48065185546875,-0.2460479736328125,0.5910349930721136
1785512695.655879,-0.0732421875,-0.12646484375,0.9682616591453552,0.9792284796233273,0.4825592041015625,-0.7228851318359375,-0.1850128173828125,0.8886259291110743
1785512695.666539,-0.06884765625,-0.13671875,0.9697265028953552,0.981733928715075,0.0553131103515625,-0.9059906005859375,0.0,0.9076775355415776
1785512695.677183,-0.0610351525247097,-0.13818359375,0.9731444716453552,0.9847995522538062,0.1773834228515625,-0.9670257568359375,-0.0629425048828125,0.9851728031201312
1785512695.687829,-0.0502929650247097,-0.14404296875,0.9677733778953552,0.97972601789494,0.1773834228515625,-1.1501312255859375,-0.0629425048828125,1.1654305958276836
1785512695.698473,-0.07080078125,-0.138671875,0.9804686903953552,0.9927544975406604,-0.308990478515625,-0.54168701171875,0.0,0.623618420573113
1785512695.706492,-0.0673828050494194,-0.1435546875,0.9785155653953552,0.9912825542904214,-0.064849853515625,-0.35858154296875,-0.3070831298828125,0.47653570182880506
1785512695.714509,-0.0571289025247097,-0.14599609375,0.9760741591453552,0.9885845108260846,0.3032684326171875,-0.1125335693359375,-0.3070831298828125,0.4460219670691076
1785512695.722527,-0.0595703087747097,-0.15185546875,0.9809569716453552,0.9944271141196939,0.240325927734375,-0.17547607421875,-0.2460479736328125,0.3861191648875066
1785512695.730543,-0.06640625,-0.142578125,0.9741210341453552,0.9867370981837028,0.240325927734375,-0.232696533203125,0.1201629638671875,0.35544811997180137
1785512695.741281,-0.0561523400247097,-0.13671875,0.9692382216453552,0.9804426715469211,0.301361083984375,0.12969970703125,-0.1850128173828125,0.37665668657300583
1785512695.752017,-0.0576171837747097,-0.1416015625,0.9697265028953552,0.9817027211871349,0.240325927734375,0.255584716796875,-0.1850128173828125,0.39662304723433905
1785512695.762754,-0.0639648362994194,-0.13916015625,0.9819335341453552,0.9938060750717533,-0.0057220458984375,0.3147125244140625,-0.2460479736328125,0.3995201123362238
1785512695.773379,-0.0571289025247097,-0.14892578125,0.9750975966453552,0.9880576515609545,-0.0057220458984375,0.1926422119140625,-0.3070831298828125,0.3625518063381159
1785512695.784005,-0.0683593675494194,-0.13818359375,0.9716796278953552,0.9838338314879589,0.1201629638671875,0.3757476806640625,-0.5512237548828125,0.677844440382066
1785512695.794631,-0.0585937462747097,-0.14111328125,0.9829100966453552,0.9947152574154214,0.423431396484375,0.255584716796875,-0.3681182861328125,0.6165458357447612
1785512695.802621,-0.07177734375,-0.1376953125,0.9858397841453552,0.9979940211063586,0.2384185791015625,0.3757476806640625,-0.0629425048828125,0.44943464186258847
1785512695.810612,-0.07080078125,-0.1376953125,0.9814452528953552,0.9935831792763556,0.3604888916015625,-0.1125335693359375,-0.3070831298828125,0.4867402735075798
1785512695.818604,-0.07177734375,-0.13916015625,0.9770507216453552,0.9895178870697788,-0.0057220458984375,0.0095367431640625,0.1811981201171875,0.18153911427966102
1785512695.826594,-0.0683593675494194,-0.14453125,0.9619140028953552,0.9751106779871116,0.3604888916015625,-0.1125335693359375,0.2422332763671875,0.4486568904800099
1785512695.837214,-0.0678710862994194,-0.13525390625,0.9692382216453552,0.9809805471106946,-0.064849853515625,-0.415802001953125,0.6084442138671875,0.7397980600932151
1785512695.847832,-0.06591796875,-0.1396484375,0.9780272841453552,0.9901435417317314,0.1773834228515625,-0.6008148193359375,0.9746551513671875,1.1586181380950353
1785512695.858451,-0.0581054650247097,-0.15673828125,0.9829100966453552,0.9970232655070409,0.423431396484375,-0.415802001953125,0.5474090576171875,0.8073674062768894
1785512695.866493,-0.0595703087747097,-0.14208984375,0.9785155653953552,0.9905709752992995,0.423431396484375,-0.29754638671875,0.9136199951171875,1.0500140452660724
1785512695.874535,-0.0624999962747097,-0.13232421875,0.9643554091453552,0.9753959726952137,0.728607177734375,-0.48065185546875,0.6084442138671875,1.0640014036645173
1785512695.882577,-0.0585937425494194,-0.13427734375,0.9726561903953552,0.9836278241412799,1.094818115234375,-0.17547607421875,0.6694793701171875,1.2952301668356399
1785512695.890619,-0.0576171837747097,-0.14501953125,0.9697265028953552,0.9822015550424229,0.8487701416015625,0.1926422119140625,0.3643035888671875,0.943524710830083
1785512695.901307,-0.06494140625,-0.1455078125,0.9780272841453552,0.9909224380732339,0.606536865234375,0.12969970703125,0.3643035888671875,0.7193233541001204
1785512695.911995,-0.064453125,-0.12646484375,0.9790038466453552,0.9892401598061917,0.6084442138671875,0.5588531494140625,-0.1850128173828125,0.8466114496003477
1785512695.922683,-0.06494140625,-0.14013671875,0.9731444716453552,0.9853252503014737,0.3604888916015625,0.6809234619140625,0.0591278076171875,0.7727257596241826
1785512695.930892,-0.080078125,-0.12548828125,0.9746093153953552,0.9859123350937433,-0.003814697265625,0.43487548828125,0.1811981201171875,0.4711305561700352
1785512695.939099,-0.0624999962747097,-0.1357421875,0.9667968153953552,0.9782782187395488,-0.1888275146484375,-0.0514984130859375,0.3032684326171875,0.3609427365396918
1785512695.947308,-0.0688476487994194,-0.13916015625,0.9702147841453552,0.9825590441326927,-0.0057220458984375,0.0705718994140625,0.6084442138671875,0.6125499948450185
1785512695.955515,-0.08056640625,-0.14404296875,0.9721679091453552,0.9860779716809442,-0.4940032958984375,-0.2956390380859375,0.5474090576171875,0.7944170023106473
1785512695.965899,-0.0610351525247097,-0.1455078125,0.9799804091453552,0.9926023451770339,-0.5512237548828125,-0.1125335693359375,0.1201629638671875,0.57528303474024
1785512695.976283,-0.06591796875,-0.14697265625,0.9755858778953552,0.9887941876033443,-0.6771087646484375,-0.1125335693359375,0.2422332763671875,0.7278853230906649
1785512695.986668,-0.0585937425494194,-0.1455078125,0.9809569716453552,0.9934195137926922,-0.7381439208984375,-0.1125335693359375,-0.3070831298828125,0.8073538882333009
1785512695.994641,-0.0673828050494194,-0.1396484375,0.9780272841453552,0.9902421406127184,-0.9822845458984375,-0.1125335693359375,-0.1239776611328125,0.9964523038250994
1785512696.002615,-0.06494140625,-0.1455078125,0.9658202528953552,0.978876228461551,-0.736236572265625,-0.29754638671875,0.1201629638671875,0.8031296784929367
1785512696.010589,-0.0576171875,-0.13427734375,0.9589843153953552,0.9700520926807302,-0.7991790771484375,-0.2346038818359375,-0.1239776611328125,0.8420787606775754
1785512696.018563,-0.0502929650247097,-0.13525390625,0.9770507216453552,0.9876492870217494,-0.3681182861328125,-0.1125335693359375,0.1201629638671875,0.40325428044621237
1785512696.0297,-0.0693359300494194,-0.14453125,0.9824218153953552,0.9954141734911583,-0.431060791015625,0.12969970703125,-0.1850128173828125,0.48668795151609656
1785512696.040837,-0.0581054650247097,-0.162109375,0.9707030653953552,0.9858600994545664,-0.247955322265625,-0.17547607421875,0.3032684326171875,0.4292382050623637
1785512696.051974,-0.0615234337747097,-0.1513671875,0.9736327528953552,0.9872476365460082,-0.0057220458984375,0.0705718994140625,0.4253387451171875,0.4311915849063339
1785512696.062311,-0.0605468712747097,-0.14013671875,0.9672850966453552,0.9792572091924506,0.423431396484375,-0.415802001953125,0.6694793701171875,0.8946441076592639
1785512696.072649,-0.0556640587747097,-0.1494140625,0.9809569716453552,0.9938307852605767,0.3604888916015625,-0.1125335693359375,0.4863739013671875,0.6157723744426572
1785512696.082985,-0.06396484375,-0.1455078125,0.9687499403953552,0.9817028428962103,0.179290771484375,-0.05340576171875,0.4863739013671875,0.5211112434551388
1785512696.090871,-0.0620117150247097,-0.13916015625,0.9707030653953552,0.9825860995636817,0.179290771484375,0.43487548828125,0.2422332763671875,0.5290924599981559
1785512696.098758,-0.0654296875,-0.14208984375,0.9677733778953552,0.9803345748601511,0.1773834228515625,0.8029937744140625,0.4253387451171875,0.9258385002516056
1785512696.106647,-0.0673828050494194,-0.1416015625,0.9726561903953552,0.9852164785635565,0.3032684326171875,0.3757476806640625,0.0591278076171875,0.48647112903041123
1785512696.114534,-0.0581054612994194,-0.13818359375,0.9809569716453552,0.9923444615828264,0.240325927734375,0.31280517578125,0.5474090576171875,0.674729802141764
1785512696.125221,-0.0639648362994194,-0.1494140625,0.9707030653953552,0.9842156793729231,0.118255615234375,0.31280517578125,0.6084442138671875,0.6942880021420931
1785512696.135908,-0.06982421875,-0.13818359375,0.9746093153953552,0.9868299979029397,0.118255615234375,-0.05340576171875,0.4863739013671875,0.5033846817796098
1785512696.146595,-0.06591796875,-0.1328125,0.9731444716453552,0.9843751832783543,0.240325927734375,0.072479248046875,0.7915496826171875,0.830397912443305
1785512696.157235,-0.0629882737994194,-0.13818359375,0.9726561903953552,0.9844400910834041,0.00762939453125,0.7781982421875,-0.0553131103515625,0.7801988541271978
1785512696.167877,-0.06396484375,-0.1328125,0.9804686903953552,0.9914885345972463,0.1277923583984375,0.5321502685546875,0.0629425048828125,0.5508870611194128
1785512696.178519,-0.0703125,-0.12841796875,0.9765624403953552,0.9874761882420546,0.25177001953125,0.4730224609375,0.0057220458984375,0.535883507019388
1785512696.186551,-0.0615234337747097,-0.12451171875,0.9775390028953552,0.9873554593919839,0.0667572021484375,0.1049041748046875,-0.3604888916015625,0.38133141871377824
1785512696.194582,-0.0732421875,-0.14111328125,0.9750975966453552,0.9879740376945513,-0.1163482666015625,0.1049041748046875,-0.1201629638671875,0.19743592104272137
1785512696.202612,-0.0654296875,-0.1328125,0.9716796278953552,0.9828944518255527,-0.17547607421875,-0.5645751953125,-0.1201629638671875,0.6033043524380698
1785512696.210644,-0.0610351525247097,-0.1328125,0.9692382216453552,0.9801975210630841,-0.35858154296875,-0.3814697265625,-0.1773834228515625,0.5527791185854023
1785512696.221444,-0.0751953125,-0.14208984375,0.9702147841453552,0.9834432297255853,-0.41961669921875,-0.6256103515625,0.0057220458984375,0.753325446307675
1785512696.232245,-0.06982421875,-0.1298828125,0.9731444716453552,0.9842535898846778,-0.2994537353515625,-0.2613067626953125,0.3108978271484375,0.5045901532649322
1785512696.243046,-0.06494140625,-0.13720703125,0.9780272841453552,0.9897376037126736,-0.05340576171875,-0.3814697265625,0.2498626708984375,0.4591325320394203
1785512696.253548,-0.07470703125,-0.12255859375,0.9760741591453552,0.9865710889598773,-0.0553131103515625,-0.4444122314453125,0.1888275146484375,0.48602222369277726
1785512696.264049,-0.06591796875,-0.14794921875,0.9799804091453552,0.9932752650909813,-0.17547607421875,-0.5035400390625,0.2498626708984375,0.5888767085483931
1785512696.27455,-0.0727538987994194,-0.1357421875,0.9682616591453552,0.9804334305952227,0.12969970703125,-0.3204345703125,0.0057220458984375,0.34573554874298423
1785512696.282637,-0.0585937462747097,-0.15185546875,0.9736327528953552,0.9871443906553767,0.06866455078125,-0.1373291015625,0.1888275146484375,0.24337200528873526
1785512696.290724,-0.0551757775247097,-0.1455078125,0.9721679091453552,0.9845442262773385,0.0095367431640625,0.0438690185546875,-0.0553131103515625,0.07123889693063011
1785512696.298811,-0.0678710862994194,-0.13916015625,0.9741210341453552,0.9863487327550048,0.0667572021484375,-0.0782012939453125,-0.1773834228515625,0.20502888849121906
1785512696.306898,-0.0605468712747097,-0.14501953125,0.9794921278953552,0.9920188590314687,0.12969970703125,-0.0762939453125,-0.6656646728515625,0.6824604287267626
1785512696.316484,-0.0620117150247097,-0.13818359375,0.9916991591453552,1.0031985748751717,0.12969970703125,0.1068115234375,-0.4253387451171875,0.45732238480189824
1785512696.326071,-0.0654296875,-0.14599609375,0.9775390028953552,0.9905444995446957,-0.17547607421875,0.1678466796875,-0.5435943603515625,0.595364752997158
1785512696.335656,-0.0590820275247097,-0.14208984375,0.9770507216453552,0.9890946983686847,-0.2384185791015625,0.0438690185546875,-0.5435943603515625,0.5951997465185817
1785512696.345242,-0.07080078125,-0.14794921875,0.9868163466453552,1.0003540493049605,0.06866455078125,0.3509521484375,-0.0553131103515625,0.3618587724563991
1785512696.354828,-0.06982421875,-0.1337890625,0.9687499403953552,0.9804342822365408,-0.1163482666015625,0.5321502685546875,-0.5435943603515625,0.7695554925215197
1785512696.365402,-0.0566406212747097,-0.1416015625,0.9848632216453552,0.9966015893176644,-0.0553131103515625,0.5321502685546875,-0.4253387451171875,0.6834884758336851
1785512696.375978,-0.0629882737994194,-0.138671875,0.9746093153953552,0.9864384061904976,-0.17547607421875,0.4119873046875,-0.3604888916015625,0.5748718403392344
1785512696.386554,-0.07275390625,-0.13671875,0.9809569716453552,0.9931071078669322,-0.1163482666015625,0.2880096435546875,-0.1201629638671875,0.3330549681464509
1785512696.394922,-0.07861328125,-0.1376953125,0.9736327528953552,0.9864587090111537,-0.41961669921875,-0.1373291015625,0.0057220458984375,0.44155429814289676
1785512696.40329,-0.06689453125,-0.14111328125,0.9663085341453552,0.9788462696554776,-0.4787445068359375,0.0438690185546875,-0.1201629638671875,0.4955400402589921
1785512696.411659,-0.07080078125,-0.1435546875,0.9809569716453552,0.9939302184501985,-0.6046295166015625,-0.0782012939453125,-0.3604888916015625,0.7082686889088655
1785512696.420028,-0.06640625,-0.13720703125,0.9721679091453552,0.9840457321870527,-0.17547607421875,-0.3204345703125,-0.1773834228515625,0.4061219585015282
1785512696.43019,-0.0654296875,-0.12451171875,0.9775390028953552,0.9876065584503133,-0.35858154296875,-0.1983642578125,-0.1773834228515625,0.4465355309915323
1785512696.440352,-0.0673828050494194,-0.13818359375,0.9692382216453552,0.981355123437099,-0.05340576171875,-0.3814697265625,-0.0553131103515625,0.3891411926861413
1785512696.450514,-0.06982421875,-0.13330078125,0.9750975966453552,0.9866406857561957,-0.3604888916015625,-0.4444122314453125,-0.1201629638671875,0.5847166923491001
1785512696.461236,-0.0703125,-0.14306640625,0.9711913466453552,0.9841872159565773,-0.05340576171875,-0.3814697265625,0.0057220458984375,0.38523248756782213
1785512696.471959,-0.0751953125,-0.1474609375,0.9843749403953552,0.9981949140266698,-0.05340576171875,-0.5035400390625,-0.1773834228515625,0.5365348311399365
1785512696.48268,-0.0581054612994194,-0.1494140625,0.9750975966453552,0.9881883067963919,-0.05340576171875,-0.1983642578125,0.1888275146484375,0.2790275693378161
1785512696.49068,-0.0585937425494194,-0.13427734375,0.9653319716453552,0.9763859109958584,-0.1163482666015625,0.2880096435546875,0.2498626708984375,0.39864499022336564
1785512696.498682,-0.0595703087747097,-0.1337890625,0.9765624403953552,0.9874828276598409,-0.17547607421875,0.1678466796875,0.3681182861328125,0.4409936882662854
1785512696.506684,-0.06689453125,-0.14208984375,0.9731444716453552,0.9857355450129482,0.0095367431640625,0.7152557373046875,0.1277923583984375,0.7266447592066457
1785512696.514686,-0.0771484300494194,-0.14208984375,0.9702147841453552,0.9835944953740885,0.06866455078125,0.3509521484375,-0.0553131103515625,0.3618587724563991
1785512696.522689,-0.0517578087747097,-0.14501953125,0.9794921278953552,0.9915212372017556,0.1926422119140625,0.7152557373046875,-0.1201629638671875,0.750427164649416
1785512696.540285,-0.06982421875,-0.138671875,0.9770507216453552,0.9893095688952841,0.2498626708984375,0.7152557373046875,0.0629425048828125,0.7602525126408304
1785512696.549879,-0.0556640587747097,-0.13720703125,0.9687499403953552,0.9800003591222388,0.31280517578125,0.2899169921875,-0.1773834228515625,0.46191321593684875
1785512696.559471,-0.0644531175494194,-0.14892578125,0.9814452528953552,0.9947702634847856,0.12969970703125,0.1068115234375,-0.2384185791015625,0.2916747064862493
1785512696.569064,-0.0634765550494194,-0.14794921875,0.9633788466453552,0.9767379620621961,0.43487548828125,0.4730224609375,-0.3032684326171875,0.7105200075165441
1785512696.578658,-0.0517578087747097,-0.142578125,0.9711913466453552,0.9829649150892892,0.25177001953125,0.4730224609375,-0.1773834228515625,0.5644495282916542
1785512696.586648,-0.0722656175494194,-0.1376953125,0.9707030653953552,0.9830802407393868,0.0095367431640625,0.0438690185546875,-0.3604888916015625,0.36327356252176113
1785512696.59464,-0.0727538987994194,-0.13916015625,0.9658202528953552,0.9785026519028389,0.00762939453125,-0.0762939453125,-0.3604888916015625,0.368552865570712
1785512696.602633,-0.0776367112994194,-0.1376953125,0.9682616591453552,0.9810800673730855,0.06866455078125,0.1678466796875,-0.3032684326171875,0.35335403017115097
1785512696.618737,-0.0639648362994194,-0.1337890625,0.9799804091453552,0.9911370318155498,0.06866455078125,-0.6256103515625,-0.0553131103515625,0.6317932198852009
1785512696.626853,-0.0722656175494194,-0.12744140625,0.9687499403953552,0.9797653180852958,0.0667572021484375,-0.3833770751953125,-0.1201629638671875,0.4072758815708913
1785512696.634969,-0.06689453125,-0.1455078125,0.9638671278953552,0.977080980291262,-0.2994537353515625,-0.5664825439453125,-0.1201629638671875,0.6519310930582338
1785512696.643085,-0.06787109375,-0.1513671875,0.9794921278953552,0.9934401539234522,-0.05340576171875,-0.3814697265625,-0.0553131103515625,0.3891411926861413
1785512696.65378,-0.06689453125,-0.13330078125,0.9785155653953552,0.9898164922418747,-0.0553131103515625,-0.4444122314453125,0.2498626708984375,0.5128285541420905
1785512696.664475,-0.0576171837747097,-0.14013671875,0.9599608778953552,0.971845114664763,0.0667572021484375,-0.4444122314453125,0.0057220458984375,0.44943464186258847
1785512696.67517,-0.0634765550494194,-0.14453125,0.9814452528953552,0.9940590222407985,0.12969970703125,-0.3204345703125,-0.3604888916015625,0.49945226881401955
1785512696.685722,-0.0546874962747097,-0.142578125,0.9770507216453552,0.9889122087652783,0.19073486328125,-0.9918212890625,0.1888275146484375,1.0274945682566026
1785512696.696276,-0.064453125,-0.126953125,0.9741210341453552,0.9844709698279313,0.43487548828125,-0.6256103515625,0.1277923583984375,0.7725515446590248
1785512696.70683,-0.0498046837747097,-0.130859375,0.9755858778953552,0.9855823089423533,0.5550384521484375,-0.5664825439453125,0.0629425048828125,0.7955701822460475
1785512696.714807,-0.0581054650247097,-0.14208984375,0.9736327528953552,0.9856604416700637,0.37384033203125,0.1678466796875,0.0629425048828125,0.4145972270243451
1785512696.722782,-0.0537109337747097,-0.1376953125,0.9790038466453552,0.9900976695446899,0.19073486328125,0.9613037109375,-0.3032684326171875,1.025892954920352
1785512696.730758,-0.0576171837747097,-0.1318359375,0.9721679091453552,0.9827567846902326,0.12969970703125,1.0223388671875,-0.4825592041015625,1.137920102129032
1785512696.738734,-0.0620117150247097,-0.12939453125,0.9697265028953552,0.9802845953779792,0.00762939453125,1.1444091796875,-0.2384185791015625,1.1690055590435566
1785512696.749339,-0.0722656175494194,-0.14501953125,0.9838866591453552,0.9971388779743657,-0.23651123046875,0.8392333984375,-0.2384185791015625,0.9039323415231949
1785512696.759944,-0.07080078125,-0.13671875,0.9770507216453552,0.989107112447829,-0.0553131103515625,0.7152557373046875,-0.1201629638671875,0.7273853502851039
1785512696.77055,-0.07763671875,-0.1318359375,0.9814452528953552,0.9932990279596564,-0.35858154296875,0.4730224609375,0.1277923583984375,0.6071753110710719
1785512696.781217,-0.0678710862994194,-0.1455078125,0.9770507216453552,0.9901550992252213,-0.54168701171875,-0.0152587890625,-0.1773834228515625,0.5701951665973496
1785512696.791883,-0.07421875,-0.14111328125,0.9697265028953552,0.9827465957276879,-0.4215240478515625,0.2269744873046875,-0.2384185791015625,0.5348302157369197
1785512696.802548,-0.0703125,-0.14208984375,0.9794921278953552,0.9922389832908806,-0.60272216796875,-0.0152587890625,-0.1773834228515625,0.6284677566169486
1785512696.813208,-0.0839843675494194,-0.138671875,0.9721679091453552,0.9855930734744148,-0.90789794921875,-0.3204345703125,-0.2384185791015625,0.991867137729533
1785512696.823871,-0.0639648362994194,-0.14404296875,0.9677733778953552,0.9805229156384418,-0.90789794921875,-0.3814697265625,-0.1201629638671875,0.9920871818366708
1785512696.834534,-0.0488281175494194,-0.14990234375,0.9702147841453552,0.9829402957959253,-1.1501312255859375,-0.4444122314453125,-0.0553131103515625,1.2342461698149105
1785512696.842546,-0.0576171837747097,-0.14794921875,0.9790038466453552,0.9917949601310072,-0.4787445068359375,-0.4444122314453125,0.1277923583984375,0.6656045531310778
1785512696.850559,-0.0615234337747097,-0.1533203125,0.9892577528953552,1.0029572038686878,-0.60272216796875,-0.6866455078125,0.3681182861328125,0.9850213894862362
1785512696.858572,-0.06982421875,-0.13525390625,0.9848632216453552,0.9965563737338695,-0.2994537353515625,-0.6885528564453125,0.3681182861328125,0.8362348045377936
1785512696.866584,-0.06689453125,-0.142578125,0.9741210341453552,0.9867700791998555,-0.1163482666015625,-0.4444122314453125,0.0629425048828125,0.4636819055347245
1785512696.877281,-0.0468749962747097,-0.14453125,0.9804686903953552,0.9921720618662367,0.06866455078125,-0.1373291015625,0.2498626708984375,0.29326686989575756
1785512696.887979,-0.0634765550494194,-0.15283203125,0.9702147841453552,0.9842274280831443,0.25177001953125,-0.1373291015625,0.0057220458984375,0.28684519636904027
1785512696.898675,-0.0590820237994194,-0.14404296875,0.9619140028953552,0.9744319429024861,0.37384033203125,-0.0152587890625,0.1888275146484375,0.41910053064294134
1785512696.906661,-0.06591796875,-0.14453125,0.9809569716453552,0.9937359010573759,-0.1163482666015625,0.2880096435546875,0.1888275146484375,0.3635138294618133
1785512696.914648,-0.0605468712747097,-0.142578125,0.9775390028953552,0.9897357968323249,-0.2384185791015625,0.5321502685546875,0.0629425048828125,0.586505827852168
1785512696.922636,-0.0703125,-0.14208984375,0.9648436903953552,0.9777815288953241,-0.2384185791015625,0.7152557373046875,0.3108978271484375,0.8155315122873548
1785512696.930623,-0.0585937425494194,-0.1455078125,0.9794921278953552,0.9919730736131166,0.0095367431640625,0.7152557373046875,0.3681182861328125,0.8044829344385178
1785512696.941309,-0.0683593675494194,-0.14306640625,0.9804686903953552,0.9932068528633043,0.0667572021484375,0.7152557373046875,0.5512237548828125,0.9054804921880242
1785512696.951996,-0.07080078125,-0.1416015625,0.9760741591453552,0.988829872768498,0.12969970703125,0.4730224609375,0.5512237548828125,0.7378481486745547
1785512696.962683,-0.0639648362994194,-0.1396484375,0.9877929091453552,0.9996639524044302,0.1277923583984375,0.5321502685546875,0.4940032958984375,0.7372611827204657
1785512696.973562,-0.0581054650247097,-0.15185546875,0.9741210341453552,0.9875971433835946,0.1926422119140625,0.2269744873046875,0.3681182861328125,0.4734337464563838
1785512696.984441,-0.0590820237994194,-0.14453125,0.9692382216453552,0.9817345354325926,0.00762939453125,0.3509521484375,0.1888275146484375,0.39859935830620247
1785512696.99532,-0.06591796875,-0.14697265625,0.9755858778953552,0.9887941876033443,-0.05340576171875,0.5950927734375,0.2498626708984375,0.6476256161477837
1785512697.003127,-0.0703125,-0.1357421875,0.9716796278953552,0.9836315816353149,0.1926422119140625,0.4100799560546875,-0.4253387451171875,0.6214415823444878
1785512697.010935,-0.0722656175494194,-0.1396484375,0.9702147841453552,0.9828737115978882,-0.1163482666015625,0.2269744873046875,-0.3032684326171875,0.3962651628020051
1785512697.018743,-0.08544921875,-0.14697265625,0.9741210341453552,0.9888449422607077,0.19073486328125,0.3509521484375,-0.5435943603515625,0.6745680300531879
1785512697.026551,-0.0737304612994194,-0.14404296875,0.9897460341453552,1.0028867183666346,-0.1163482666015625,0.0438690185546875,-0.1773834228515625,0.216624764587699
1785512697.037573,-0.0620117150247097,-0.12890625,0.9692382216453552,0.9797372119030792,0.0667572021484375,-0.0782012939453125,0.2498626708984375,0.2701912669238393
1785512697.048595,-0.0722656175494194,-0.13330078125,0.9755858778953552,0.9872989531598371,-0.17547607421875,-0.0762939453125,0.1277923583984375,0.2300945579095814
1785512697.059618,-0.0644531175494194,-0.14404296875,0.9677733778953552,0.9805548899328067,-0.0553131103515625,-0.2613067626953125,0.0629425048828125,0.2744130524009224
1785512697.067589,-0.06591796875,-0.130859375,0.9785155653953552,0.9894251191224671,-0.2384185791015625,-0.4444122314453125,0.3108978271484375,0.5924551537834992
1785512697.075562,-0.06689453125,-0.14111328125,0.9858397841453552,0.9981322139176049,-0.1735687255859375,-0.4444122314453125,0.4329681396484375,0.6442745873541478
1785512697.083535,-0.0546874962747097,-0.13623046875,0.9833983778953552,0.9942946406935205,-0.1163482666015625,-0.4444122314453125,0.1888275146484375,0.49668398493176336
1785512697.091508,-0.0673828050494194,-0.13916015625,0.9770507216453552,0.9892088273825511,0.1277923583984375,-0.9326934814453125,0.2498626708984375,0.9740017307500604
1785512697.101842,-0.0556640587747097,-0.14501953125,0.9770507216453552,0.9893216183582331,-0.1163482666015625,-0.2613067626953125,0.1888275146484375,0.34274476459867115
1785512697.112176,-0.0620117150247097,-0.13232421875,0.9843749403953552,0.9951628886501258,0.0667572021484375,-0.0782012939453125,-0.0553131103515625,0.11675404314272225
1785512697.12251,-0.0576171837747097,-0.13720703125,0.9799804091453552,0.9912149674007475,-0.2994537353515625,-0.3833770751953125,-0.6656646728515625,0.8244755776151854
1785512697.130551,-0.0585937425494194,-0.1435546875,0.9736327528953552,0.9859015734239185,0.00762939453125,-0.0152587890625,-0.7266998291015625,0.7269000480952024
1785512697.138593,-0.06591796875,-0.1357421875,0.9721679091453552,0.9838097192259603,0.31280517578125,-0.1373291015625,-0.7266998291015625,0.8029937744140625
1785512697.146636,-0.0634765550494194,-0.12939453125,0.9633788466453552,0.974100107751808,0.00762939453125,-0.1373291015625,-0.5435943603515625,0.5607248152194634
1785512697.154677,-0.06494140625,-0.146484375,0.9790038466453552,0.9920300348836574,0.12969970703125,-0.3204345703125,-0.5435943603515625,0.6442011770102356
1785512697.165306,-0.0751953125,-0.12890625,0.9882811903953552,0.9994853013427939,-0.23651123046875,0.1068115234375,-0.2384185791015625,0.3524055654181554
1785512697.175936,-0.07470703125,-0.1376953125,0.9804686903953552,0.9929048254733401,-0.1163482666015625,0.2880096435546875,0.0629425048828125,0.3169356919670129
1785512697.186564,-0.0722656175494194,-0.1337890625,0.9873046278953552,0.9989455745875316,-0.23651123046875,0.1068115234375,-0.1201629638671875,0.2859814706623994
1785512697.197248,-0.0693359375,-0.14794921875,0.9667968153953552,0.9805062599577525,-0.05340576171875,0.1068115234375,0.0629425048828125,0.13499124358536146
1785512697.207934,-0.0585937425494194,-0.1337890625,0.9658202528953552,0.9768016691291147,0.06866455078125,-0.1373291015625,0.0057220458984375,0.15364519022481024
1785512697.21862,-0.0595703050494194,-0.134765625,0.9741210341453552,0.9852015956593543,-0.05340576171875,-0.0762939453125,-0.0553131103515625,0.10831658069229648
1785512697.22928,-0.0546874962747097,-0.14697265625,0.9799804091453552,0.9924481277339763,0.12969970703125,0.1678466796875,-0.3032684326171875,0.37008953525896393
1785512697.23994,-0.0551757775247097,-0.1416015625,0.9667968153953552,0.9786682028075185,-0.1163482666015625,-0.3833770751953125,-0.3604888916015625,0.5389500365475668
1785512697.2506,-0.07080078125,-0.13671875,0.9902343153953552,1.0021321103595477,-0.1163482666015625,-0.2613067626953125,-0.4825592041015625,0.560964819605139
1785512697.258581,-0.0566406212747097,-0.1396484375,0.9765624403953552,0.9881214733348872,-0.1163482666015625,-0.2613067626953125,-0.5435943603515625,0.6142580662698024
1785512697.266562,-0.07666015625,-0.14208984375,0.9760741591453552,0.9893366805109806,0.0095367431640625,-0.2613067626953125,-0.7266998291015625,0.7723113461012481
1785512697.274543,-0.07861328125,-0.1474609375,0.9775390028953552,0.9917193545852152,-0.05340576171875,-0.1983642578125,-0.5435943603515625,0.5811156363137102
1785512697.282524,-0.0771484300494194,-0.14892578125,0.9770507216453552,0.9913419597937547,0.2498626708984375,-0.2613067626953125,-0.1201629638671875,0.38098781663480036
1785512697.293248,-0.06494140625,-0.1435546875,0.9794921278953552,0.9920837480565444,0.31280517578125,-0.0762939453125,0.2498626708984375,0.4075526940107087
1785512697.303972,-0.06884765625,-0.140625,0.9682616591453552,0.9808394521872753,0.3719329833984375,-0.3833770751953125,0.1277923583984375,0.5492203681492607
1785512697.314697,-0.0673828050494194,-0.14111328125,0.9750975966453552,0.9875569469883838,0.43487548828125,-0.1373291015625,0.1888275146484375,0.4935907239121547
1785512697.325436,-0.0571289025247097,-0.1630859375,0.9765624403953552,0.9917332980720489,0.19073486328125,0.1678466796875,0.4940032958984375,0.5555101730045585
1785512697.336176,-0.0712890625,-0.138671875,0.9794921278953552,0.9918250087374867,0.00762939453125,0.1678466796875,0.1277923583984375,0.21109619231067717
1785512697.346916,-0.0498046837747097,-0.142578125,0.9736327528953552,0.9852764920391648,0.12969970703125,0.2288818359375,0.3108978271484375,0.40726694900486643
1785512697.357463,-0.0693359375,-0.13720703125,0.9711913466453552,0.9832832112124467,-0.1163482666015625,0.7152557373046875,0.2498626708984375,0.7665240004050501
1785512697.368008,-0.0600585900247097,-0.14111328125,0.9785155653953552,0.9904608544015707,0.2498626708984375,0.7152557373046875,-0.1773834228515625,0.7781304535605256
1785512697.378554,-0.0693359375,-0.1474609375,0.9716796278953552,0.9852479381273724,0.0095367431640625,0.2269744873046875,0.1277923583984375,0.26065159547264954
1785512697.386594,-0.06689453125,-0.13427734375,0.9799804091453552,0.991396432142264,0.1926422119140625,0.2269744873046875,0.1888275146484375,0.3525397424215803
1785512697.394634,-0.0786132737994194,-0.13818359375,0.9702147841453552,0.9831538433904156,0.06866455078125,0.3509521484375,0.0057220458984375,0.3576520275856852
1785512697.402675,-0.07080078125,-0.1396484375,0.9892577528953552,1.0015714344895073,0.12969970703125,0.1678466796875,-0.1201629638671875,0.24379019621686454
1785512697.410717,-0.068359375,-0.1318359375,0.9809569716453552,0.9921342140993429,-0.05340576171875,-0.0762939453125,0.2498626708984375,0.2666538876232775
1785512697.421309,-0.0727538987994194,-0.1396484375,0.9829100966453552,0.9954431545668939,-0.2994537353515625,0.2269744873046875,-0.0553131103515625,0.37980191900514865
1785512697.431901,-0.0654296875,-0.1552734375,0.9814452528953552,0.9958040313386173,-0.1163482666015625,-0.3833770751953125,0.1277923583984375,0.42053036488645534
1785512697.442492,-0.07275390625,-0.13720703125,0.9721679091453552,0.9844944610667568,-0.1735687255859375,-0.4444122314453125,0.0629425048828125,0.48123808336482615
1785512697.453178,-0.07080078125,-0.14208984375,0.9775390028953552,0.9903457863312971,-0.1163482666015625,-0.6885528564453125,0.3681182861328125,0.7894004230082137
1785512697.463862,-0.0634765550494194,-0.14794921875,0.9750975966453552,0.9882983190075885,0.19073486328125,-0.5645751953125,0.3108978271484375,0.6721476014676273
1785512697.474546,-0.0703125,-0.14013671875,0.9853515028953552,0.9977473286641272,-0.17547607421875,-0.5645751953125,0.0629425048828125,0.5945576193324703
1785512697.482564,-0.0678710862994194,-0.1474609375,0.9755858778953552,0.9889989977713289,0.0095367431640625,-0.4444122314453125,0.0057220458984375,0.44455137243927517
1785512697.490581,-0.0566406212747097,-0.15185546875,0.9863280653953552,0.9995555492088528,-0.1163482666015625,-0.6237030029296875,0.3681182861328125,0.7335212523097454
1785512697.498596,-0.0576171837747097,-0.13330078125,0.9858397841453552,0.9964782577416075,-0.35858154296875,-0.6866455078125,0.2498626708984375,0.8139374242934382
1785512697.506613,-0.0576171837747097,-0.14306640625,0.9833983778953552,0.9954195628530889,-0.1163482666015625,-0.5664825439453125,0.3108978271484375,0.6565796605603625
1785512697.517254,-0.0654296875,-0.14111328125,0.9721679091453552,0.9845326026717149,0.06866455078125,-0.3204345703125,0.3108978271484375,0.451719595889936
1785512697.527896,-0.0600585900247097,-0.1494140625,0.9843749403953552,0.9974595829339999,0.31280517578125,-0.3204345703125,0.3108978271484375,0.545144797987209
1785512697.538538,-0.0595703087747097,-0.1513671875,0.9760741591453552,0.9895359575530778,0.25177001953125,0.1678466796875,0.4940032958984375,0.5793098540292608
1785512697.549189,-0.0483398400247097,-0.12646484375,0.9853515028953552,0.9946093107831143,0.12969970703125,1.1444091796875,0.0629425048828125,1.153454005792139
1785512697.55984,-0.07470703125,-0.146484375,0.9902343153953552,1.0037942080047269,0.19073486328125,1.0223388671875,-0.1201629638671875,1.046898125568331
1785512697.570491,-0.0590820237994194,-0.1435546875,0.9663085341453552,0.9786985322363587,0.12969970703125,0.7171630859375,0.0629425048828125,0.7315098528087731
1785512697.578545,-0.0771484300494194,-0.13037109375,0.9511718153953552,0.9631595531100531,0.00762939453125,0.9002685546875,-0.3032684326171875,0.9500070633643306
1785512697.586601,-0.0615234337747097,-0.14111328125,0.9887694716453552,1.0006813474360394,-0.2994537353515625,0.8411407470703125,-0.6084442138671875,1.08046039140103
1785512697.594656,-0.0712890625,-0.1435546875,0.9628905653953552,0.9761394980548315,-0.9098052978515625,0.5931854248046875,-0.0553131103515625,1.0875082383027046
1785512697.60271,-0.076171875,-0.13037109375,0.9848632216453552,0.9963705846602734,-0.7266998291015625,0.5321502685546875,-0.1201629638671875,0.9086889940042265
1785512697.613347,-0.0639648362994194,-0.14990234375,0.9819335341453552,0.9953671073647864,-0.7877349853515625,0.3528594970703125,-0.3604888916015625,0.9354081851190225
1785512697.623984,-0.0771484300494194,-0.13134765625,0.9741210341453552,0.9859593684457157,-0.96893310546875,-0.0152587890625,-0.6656646728515625,1.1756588153880136
1785512697.634621,-0.08642578125,-0.140625,0.9677733778953552,0.9817485000002082,-0.96893310546875,0.1678466796875,-0.3032684326171875,1.0290654075312802
1785512697.645302,-0.0830078125,-0.1318359375,0.9790038466453552,0.9913221187378708,-1.15203857421875,-0.0762939453125,0.1888275146484375,1.1699014799835168
1785512697.655983,-0.06689453125,-0.14306640625,0.9755858778953552,0.98828673979635,-0.84686279296875,-0.5645751953125,0.4940032958984375,1.131353612994407
1785512697.666666,-0.0541992150247097,-0.1455078125,0.9633788466453552,0.9758119083981117,-0.60272216796875,-0.6866455078125,-0.1201629638671875,0.9215178799379766
1785512697.677284,-0.0683593675494194,-0.15478515625,0.9790038466453552,0.9935189879783354,-0.17547607421875,-0.0762939453125,-0.3032684326171875,0.3585866156685949
1785512697.687903,-0.0732421875,-0.1513671875,0.9741210341453552,0.9885283165624855,-0.2994537353515625,-0.2613067626953125,0.3108978271484375,0.5045901532649322
1785512697.698522,-0.0605468712747097,-0.14599609375,0.9765624403953552,0.9892699242382469,0.19073486328125,-0.6866455078125,0.0629425048828125,0.7154184792070485
1785512697.706512,-0.07080078125,-0.15185546875,0.9765624403953552,0.9908314861800791,0.74005126953125,-0.0152587890625,0.0629425048828125,0.7428798497061228
1785512697.714504,-0.06640625,-0.1337890625,0.9785155653953552,0.9898494910867425,0.55694580078125,-0.6866455078125,0.1888275146484375,0.9040611199997817
1785512697.722494,-0.0624999962747097,-0.146484375,0.9711913466453552,0.984162869372899,0.31280517578125,-0.2593994140625,0.0057220458984375,0.40640850854869026
1785512697.730485,-0.0620117150247097,-0.13671875,0.9838866591453552,0.9952740464043442,0.3719329833984375,0.4100799560546875,-0.1201629638671875,0.5665146532816462
1785512697.738535,-0.0683593675494194,-0.138671875,0.9541015028953552,0.9665467241033657,0.3147125244140625,0.5321502685546875,-0.1773834228515625,0.6431895210965692
1785512697.746585,-0.0712890625,-0.12353515625,0.9838866591453552,0.9941710231675681,0.00762939453125,0.5950927734375,-0.0553131103515625,0.5977065808866532
1785512697.754636,-0.064453125,-0.16162109375,0.9663085341453552,0.9818491566576595,-0.17547607421875,0.3509521484375,0.0057220458984375,0.39241815060644825
1785512697.762686,-0.0751953125,-0.12841796875,0.9790038466453552,0.9902494844564429,0.06866455078125,-0.0152587890625,-0.1773834228515625,0.19082067466650712
1785512697.773479,-0.0498046837747097,-0.16259765625,0.9760741591453552,0.9907771033361662,-0.17547607421875,0.7781982421875,0.2498626708984375,0.835951978929077
1785512697.784273,-0.07470703125,-0.13818359375,0.9799804091453552,0.9924905281203198,0.00762939453125,0.3509521484375,-0.1201629638671875,0.3710320148439451
1785512697.795067,-0.0620117150247097,-0.14013671875,0.9731444716453552,0.9851364958401653,0.12969970703125,0.4119873046875,0.1888275146484375,0.4713930244668125
1785512697.805591,-0.07421875,-0.14013671875,0.9726561903953552,0.9854982432800095,0.06866455078125,0.8392333984375,0.0629425048828125,0.8443869234585939
1785512697.816114,-0.0781249925494194,-0.14013671875,0.9858397841453552,0.9988102394382148,-0.1163482666015625,0.8983612060546875,0.2498626708984375,0.9396920399757156
1785512697.826638,-0.0605468712747097,-0.126953125,0.9799804091453552,0.990022536045074,-0.2994537353515625,0.3528594970703125,0.4329681396484375,0.6337537173376945
1785512697.83726,-0.0678710862994194,-0.150390625,0.9565429091453552,0.9706689247522108,-0.5435943603515625,0.0438690185546875,0.0057220458984375,0.5453916585392921
1785512697.847882,-0.0737304612994194,-0.13916015625,0.9877929091453552,1.0002682447067854,-0.48065185546875,-0.1373291015625,0.3108978271484375,0.5886789848696277
1785512697.858502,-0.0693359375,-0.138671875,0.9702147841453552,0.9825243450007932,-0.41961669921875,-0.6866455078125,-0.0553131103515625,0.8066100469490131
1785512697.868122,-0.0532226487994194,-0.142578125,0.9707030653953552,0.982560742774553,-0.4215240478515625,-0.9326934814453125,-0.1773834228515625,1.0387803097625021
1785512697.877742,-0.0561523400247097,-0.1328125,0.9814452528953552,0.99198136569057,-0.2994537353515625,-0.6885528564453125,-0.6656646728515625,1.003437607635662
1785512697.887362,-0.0644531175494194,-0.13916015625,0.9643554091453552,0.9764738135747774,-0.2994537353515625,-0.6237030029296875,-1.0967254638671875,1.2967207558199303
1785512697.896982,-0.0654296875,-0.15478515625,0.9897460341453552,1.0039107035529322,-0.0553131103515625,0.0438690185546875,-0.9708404541015625,0.9734039337735613
1785512697.906602,-0.08447265625,-0.15576171875,0.9736327528953552,0.9896252220878733,-0.1735687255859375,0.0438690185546875,-1.0967254638671875,1.1112413492959914
1785512697.914703,-0.07275390625,-0.13671875,0.9838866591453552,0.9960010569875941,0.0667572021484375,0.1049041748046875,-0.3032684326171875,0.32776996835009975
1785512697.922802,-0.064453125,-0.1435546875,0.9765624403953552,0.9891594176958636,-0.05340576171875,0.4730224609375,0.1888275146484375,0.5121115642361872
1785512697.930902,-0.07666015625,-0.1279296875,0.9814452528953552,0.9927122286599223,0.12969970703125,0.2899169921875,0.9822845458984375,1.0323549803599237
1785512697.939,-0.0722656175494194,-0.14990234375,0.9667968153953552,0.981014329355154,0.06866455078125,0.3509521484375,1.1653900146484375,1.2190226073659065
1785512697.947099,-0.0722656175494194,-0.1357421875,0.9853515028953552,0.9972792212841994,-0.05340576171875,0.4730224609375,1.2264251708984375,1.315568745352895
1785512697.955199,-0.06494140625,-0.15185546875,0.9775390028953552,0.9913929452122681,0.0667572021484375,0.5931854248046875,1.2874603271484375,1.4191122458144623
1785512697.964702,-0.0581054612994194,-0.13330078125,0.9677733778953552,0.9786371410679572,0.00762939453125,0.5950927734375,0.9822845458984375,1.148510577125587
1785512697.974206,-0.06640625,-0.146484375,0.9785155653953552,0.9916451854767384,0.00762939453125,0.8392333984375,0.8563995361328125,1.1990792593495918
1785512697.983711,-0.0625,-0.13427734375,0.9731444716453552,0.9843509626847902,0.0095367431640625,0.2269744873046875,0.3108978271484375,0.38505301749632187
1785512697.993214,-0.0429687462747097,-0.16162109375,0.9746093153953552,0.9888533808187995,-0.1163482666015625,-0.1354217529296875,-0.3604888916015625,0.40227877308635196
1785512698.002718,-0.0454101525247097,-0.14599609375,0.9907225966453552,1.0024510984812633,-0.17547607421875,-0.0762939453125,-1.3980865478515625,1.411119631355921
1785512698.013338,-0.0654296875,-0.14599609375,0.9624022841453552,0.9756095837602271,-0.2994537353515625,-0.0171661376953125,-1.8863677978515625,1.9100656231320252
1785512698.023958,-0.0634765550494194,-0.13427734375,0.9765624403953552,0.9877924266142302,-0.6046295166015625,-0.2002716064453125,-2.0732879638671875,2.168918751316096
1785512698.034578,-0.0629882737994194,-0.140625,0.9589843153953552,0.9712846289505094,-0.23651123046875,-0.5035400390625,-1.6422271728515625,1.73389740767121
1785512698.042569,-0.080078125,-0.13671875,0.9716796278953552,0.9845129872032843,-0.35858154296875,-0.5645751953125,-1.6422271728515625,1.7731993574812823
1785512698.050562,-0.0771484300494194,-0.14013671875,0.9926757216453552,1.0054826047949479,-0.48065185546875,-0.3814697265625,-1.4591217041015625,1.5829028731509298
1785512698.058555,-0.0849609375,-0.15283203125,0.9736327528953552,0.9892101537021685,-0.35858154296875,-0.5035400390625,-0.7915496826171875,1.0043327107827782
1785512698.066549,-0.076171875,-0.1416015625,0.9833983778953552,0.9964564850964004,-0.66375732421875,-0.1983642578125,-0.5435943603515625,0.8805776472506914
1785512698.077221,-0.0712890625,-0.154296875,0.9462890028953552,0.9614325421305335,-0.1163482666015625,-0.1354217529296875,0.1277923583984375,0.21956060022866644
1785512698.087894,-0.0771484300494194,-0.12744140625,0.9941405653953552,1.0052405961015822,0.0667572021484375,0.1049041748046875,0.7381439208984375,0.7485438249624791
1785512698.098567,-0.06494140625,-0.142578125,0.9560546278953552,0.9688066677590371,-0.17547607421875,0.3509521484375,0.9212493896484375,1.0013289674446355
1785512698.106681,-0.07470703125,-0.12158203125,0.9838866591453552,0.9941812153150315,0.25177001953125,0.9613037109375,1.3446807861328125,1.6720225429077604
1785512698.114796,-0.0869140550494194,-0.16357421875,0.9501952528953552,0.9680813997953243,0.19073486328125,0.8392333984375,1.7757415771484375,1.9733095636360487
1785512698.122911,-0.0683593675494194,-0.14013671875,0.9907225966453552,1.00291702876035,-0.35858154296875,-0.1983642578125,1.5926361083984375,1.6445117438041825
1785512698.131027,-0.0400390587747097,-0.1455078125,0.9702147841453552,0.9818820586507924,-0.35858154296875,-0.5035400390625,0.9822845458984375,1.1606102804162184
1785512698.141581,-0.0415039025247097,-0.14501953125,0.9687499403953552,0.9804232174855686,0.00762939453125,-0.9918212890625,-0.0553131103515625,0.9933917743142817
1785512698.152137,-0.0454101525247097,-0.13720703125,0.9853515028953552,0.9958942893876293,-0.17547607421875,-0.9918212890625,-1.5201568603515625,1.8235619545644024
1785512698.162691,-0.0463867150247097,-0.14599609375,0.9858397841453552,0.9976706203576424,0.0667572021484375,-0.0782012939453125,-2.6798248291015625,2.681796614414044
1785512698.173562,-0.08935546875,-0.14306640625,0.9804686903953552,0.994872478882799,0.25177001953125,0.8392333984375,-2.7446746826171875,2.881135184816478
1785512698.184433,-0.0888671875,-0.1357421875,0.9819335341453552,0.9952470969365511,0.31280517578125,0.7171630859375,-1.2149810791015625,1.4451121037489563
1785512698.195304,-0.07177734375,-0.15478515625,0.9687499403953552,0.9836599405725268,0.80108642578125,0.1678466796875,-0.1773834228515625,0.8374824464761232
1785512698.203115,-0.07861328125,-0.142578125,0.9770507216453552,0.9905234385844267,0.0667572021484375,-0.4444122314453125,1.0395050048828125,1.1324881503456472
1785512698.210925,-0.0673828050494194,-0.1259765625,0.9931640028953552,1.0033869011317467,-0.2384185791015625,-0.4444122314453125,1.1043548583984375,1.2140614908591916
1785512698.218736,-0.0576171837747097,-0.14599609375,0.9809569716453552,0.9934340337818177,-0.2384185791015625,-0.4444122314453125,0.6160736083984375,0.7961735622865665
1785512698.226547,-0.0488281175494194,-0.14404296875,0.9790038466453552,0.9907477447141303,-0.35858154296875,-0.0152587890625,0.6160736083984375,0.7129938601184268
1785512698.237677,-0.0654296875,-0.13525390625,0.9716796278953552,0.9832273198142367,-0.2994537353515625,0.4711151123046875,0.2498626708984375,0.6115990050403637
1785512698.248807,-0.0683593675494194,-0.12451171875,0.9721679091453552,0.9824900074860239,-0.23651123046875,0.8392333984375,0.1277923583984375,0.8812384161257568
1785512698.259938,-0.076171875,-0.150390625,0.9809569716453552,0.9953371664157491,-0.11444091796875,0.6561279296875,0.2498626708984375,0.7113592187706826
1785512698.267606,-0.0678710862994194,-0.14794921875,0.9594725966453552,0.973181955955606,0.3719329833984375,0.4100799560546875,0.3681182861328125,0.6648389181469719
1785512698.275276,-0.0585937462747097,-0.15283203125,0.9833983778953552,0.99692689126421,0.12969970703125,-0.3814697265625,0.5512237548828125,0.6827801946708527
1785512698.282946,-0.0639648362994194,-0.14892578125,0.9746093153953552,0.9879947906032386,0.12969970703125,-0.6256103515625,0.4329681396484375,0.7717977299375632
1785512698.290616,-0.0541992150247097,-0.15234375,0.9785155653953552,0.9917857050766304,0.31280517578125,-0.9307861328125,-0.1773834228515625,0.997835047357089
1785512698.301255,-0.06396484375,-0.14111328125,0.9780272841453552,0.9902231202682772,0.06866455078125,-0.5035400390625,-0.1201629638671875,0.522213107225778
1785512698.311893,-0.07666015625,-0.1181640625,0.9707030653953552,0.980868985334289,0.25177001953125,0.1068115234375,-0.6656646728515625,0.7196570717754279
1785512698.32253,-0.08056640625,-0.12451171875,0.9824218153953552,0.9935525840572428,0.49591064453125,1.0833740234375,0.1888275146484375,1.2063508910374554
1785512698.330559,-0.076171875,-0.14453125,0.9819335341453552,0.9954320178931184,0.61798095703125,0.9613037109375,1.1043548583984375,1.589215196624957
1785512698.338588,-0.0639648362994194,-0.14453125,0.9702147841453552,0.9830043285172209,0.8602142333984375,0.5321502685546875,1.5277862548828125,1.832289080978473
1785512698.346617,-0.0620117150247097,-0.12939453125,0.9643554091453552,0.9749716676219974,0.31280517578125,0.2288818359375,1.4705657958984375,1.5207885233930667
1785512698.354646,-0.0610351525247097,-0.13720703125,0.9667968153953552,0.9783900763635911,0.0667572021484375,-0.0782012939453125,1.3446807861328125,1.3486060888962972
1785512698.365271,-0.0405273400247097,-0.1328125,0.9926757216453552,1.0023406176494372,-0.35858154296875,-0.8087158203125,0.8563995361328125,1.2312685192394328
1785512698.375896,-0.0537109337747097,-0.142578125,0.9697265028953552,0.9816225733718241,-0.7877349853515625,-1.1119842529296875,-0.3032684326171875,1.3960684539565054
1785512698.386521,-0.06591796875,-0.13818359375,0.9716796278953552,0.983667211740153,-0.90789794921875,-0.1983642578125,-1.2149810791015625,1.5296424704969176
1785512698.394619,-0.06494140625,-0.130859375,0.9663085341453552,0.9772889774438589,-0.96893310546875,-0.3204345703125,-1.8863677978515625,2.1447361482233718
1785512698.402719,-0.0507812462747097,-0.13330078125,0.9902343153953552,1.000455812438301,-0.66375732421875,-0.6256103515625,-2.0732879638671875,2.26505741175643
1785512698.410818,-0.06494140625,-0.1484375,0.9550780653953552,0.9687234841023067,-0.72479248046875,-0.8697509765625,-1.8863677978515625,2.200039629130989
1785512698.418916,-0.0776367112994194,-0.1484375,0.9819335341453552,0.996119779859243,-0.66375732421875,-0.8087158203125,-1.5201568603515625,1.8453920839625584
1785512698.429456,-0.0732421800494194,-0.15283203125,0.9765624403953552,0.9911590420842279,-0.72479248046875,-0.3814697265625,-1.3370513916015625,1.5679763122609305
1785512698.439996,-0.0810546875,-0.14013671875,0.9829100966453552,0.9961528097611936,-0.66375732421875,-0.1983642578125,-0.9708404541015625,1.1926664879804694
1785512698.450536,-0.08837890625,-0.15283203125,0.9658202528953552,0.9818234167857248,-0.66375732421875,0.2288818359375,0.1277923583984375,0.7136466682758283
1785512698.45876,-0.0878906175494194,-0.14306640625,0.9584960341453552,0.97309167333961,-0.35858154296875,0.4119873046875,0.9212493896484375,1.0709877217359398
1785512698.466983,-0.07861328125,-0.1357421875,0.9887694716453552,1.0011348847752792,-0.2994537353515625,0.6580352783203125,1.9588470458984375,2.088004960807117
1785512698.475206,-0.0786132737994194,-0.158203125,0.9848632216453552,1.0005817512461919,0.1926422119140625,0.7152557373046875,2.5043487548828125,2.611601898766638
1785512698.483429,-0.0688476487994194,-0.125,0.9853515028953552,0.9956317507007013,0.2498626708984375,0.7152557373046875,2.9926300048828125,3.087046561064584
1785512698.493794,-0.0610351525247097,-0.150390625,0.9643554091453552,0.9779181893591665,0.80108642578125,0.2899169921875,3.6067962646484375,3.706045145247417
1785512698.504159,-0.0498046837747097,-0.1318359375,0.9848632216453552,0.9948953644942119,0.74005126953125,-0.3204345703125,3.6067962646484375,3.6958535536555144
1785512698.514524,-0.0454101525247097,-0.16162109375,0.9848632216453552,0.9990690793168067,0.80108642578125,-0.6866455078125,2.5691986083984375,2.777409405249167
1785512698.525187,-0.0415039025247097,-0.1328125,0.9921874403953552,1.001897026125598,0.25177001953125,-0.1373291015625,0.6160736083984375,0.6795543509063868
1785512698.535851,-0.0502929650247097,-0.14501953125,0.9584960341453552,0.9707083466455413,-0.17547607421875,-0.2593994140625,-0.1201629638671875,0.33543858830572787
1785512698.546513,-0.0600585900247097,-0.12841796875,0.9892577528953552,0.9993643532752206,0.00762939453125,-0.5035400390625,-0.7915496826171875,0.9381693230176245
1785512698.557186,-0.0771484300494194,-0.12646484375,0.9863280653953552,0.9973907406580163,-0.05340576171875,-0.6256103515625,-0.7266998291015625,0.9603817621046096
1785512698.56786,-0.0551757775247097,-0.14892578125,0.9658202528953552,0.9787910990856155,0.00762939453125,-1.1138916015625,-0.9136199951171875,1.4406645005587924
1785512698.578534,-0.0571289025247097,-0.1484375,0.9721679091453552,0.9850928111005477,-0.41961669921875,-0.8087158203125,-1.0967254638671875,1.4258001947614036
1785512698.589187,-0.0561523400247097,-0.15966796875,0.9824218153953552,0.9968949638250295,-0.4787445068359375,-0.7495880126953125,-2.0084381103515625,2.1965659868792122
1785512698.599842,-0.0517578087747097,-0.142578125,0.9887694716453552,1.0003361737713528,0.00762939453125,0.1678466796875,-2.2563934326171875,2.2626405013393103
1785512698.610496,-0.06982421875,-0.140625,0.9824218153953552,0.9948886548321643,0.31280517578125,0.5950927734375,-2.2563934326171875,2.3544200580506125
1785512698.618538,-0.08154296875,-0.1318359375,0.9843749403953552,0.9965058923295068,0.25177001953125,1.3275146484375,-1.7681121826171875,2.2252873915227713
1785512698.626583,-0.1113281175494194,-0.134765625,0.9711913466453552,0.9867970182553029,0.5550384521484375,1.7528533935546875,-0.8487701416015625,2.0250860366744554
1785512698.634626,-0.1010742112994194,-0.1298828125,0.9702147841453552,0.9840743206419564,0.31280517578125,1.9378662109375,1.1043548583984375,2.2522815505076257
1785512698.64267,-0.10888671875,-0.14013671875,0.9848632216453552,1.0007248287175783,0.31280517578125,1.5716552734375,2.5691986083984375,3.027990895943366
1785512698.650787,-0.0830078125,-0.13623046875,0.9692382216453552,0.9822788646052254,0.31280517578125,1.0833740234375,3.6067962646484375,3.7789582754162048
1785512698.658904,-0.0830078050494194,-0.12353515625,0.9887694716453552,0.999908145074671,0.1926422119140625,0.8983612060546875,4.1522979736328125,4.252733513893192
1785512698.667021,-0.0673828050494194,-0.15576171875,0.9580077528953552,0.9729239487503071,0.0667572021484375,0.8983612060546875,4.6405792236328125,4.727206882652296
1785512698.675138,-0.0537109337747097,-0.1357421875,0.9843749403953552,0.9951406077296794,-0.05340576171875,-0.0152587890625,4.5223236083984375,4.5226646819221825
1785512698.685702,-0.0307617150247097,-0.13330078125,0.9790038466453552,0.9885160156211552,-0.41961669921875,-0.6866455078125,2.9926300048828125,3.0989344255384346
1785512698.696266,-0.0351562462747097,-0.14453125,0.9711913466453552,0.98251609436055,-0.2994537353515625,-1.0547637939453125,1.7147064208984375,2.0352929299008147
1785512698.70683,-0.0234374962747097,-0.1416015625,0.9873046278953552,0.9976826885326087,-0.11444091796875,-1.1749267578125,-0.1201629638671875,1.186587016537207
1785512698.717454,-0.02783203125,-0.15869140625,0.9785155653953552,0.9916906251962329,-0.17547607421875,-1.3580322265625,-3.4160614013671875,3.680287879896935
1785512698.728077,-0.0375976525247097,-0.1474609375,0.9638671278953552,0.9758064110267921,0.31280517578125,-1.4190673828125,-4.6977996826171875,4.917410006594529
1785512698.7387,-0.0590820275247097,-0.13037109375,0.9804686903953552,0.9908613227427866,0.19073486328125,-1.5411376953125,-5.1860809326171875,5.4135866690798995
1785512698.749314,-0.080078125,-0.12646484375,0.9775390028953552,0.9889329426153589,0.00762939453125,-1.1138916015625,-5.0601959228515625,5.181350739463211
1785512698.759928,-0.09912109375,-0.13330078125,0.9877929091453552,1.0016630775195323,0.25177001953125,-0.6256103515625,-3.9043426513671875,3.9621544636727477
1785512698.770543,-0.0908203125,-0.13720703125,0.9775390028953552,0.991290371570652,0.49591064453125,-0.1373291015625,-2.4356842041015625,2.4894465633158758
1785512698.778577,-0.0961913913488388,-0.1318359375,0.9790038466453552,0.9925129872865803,0.06866455078125,1.3275146484375,0.9212493896484375,1.6173158010350819
1785512698.78661,-0.08935546875,-0.13720703125,0.9721679091453552,0.9858603414236837,-0.35858154296875,1.5106201171875,2.3212432861328125,2.7926196043904876
1785512698.794643,-0.09765625,-0.1416015625,0.9687499403953552,0.9839025321049378,-0.2384185791015625,1.2035369873046875,3.5457611083984375,3.752034986044529
1785512698.802676,-0.0830078050494194,-0.1455078125,0.9838866591453552,0.9980459795229205,-0.66375732421875,1.3275146484375,4.0340423583984375,4.298414437513326
1785512698.813304,-0.0742187425494194,-0.14892578125,0.9648436903953552,0.9790866442569155,-0.2994537353515625,0.8411407470703125,4.4002532958984375,4.489924204712488
1785512698.823932,-0.0610351525247097,-0.1376953125,0.9897460341453552,1.0011406000331051,0.00762939453125,0.5950927734375,3.3626556396484375,3.4149153089817457
1785512698.83456,-0.0429687462747097,-0.14306640625,0.9897460341453552,1.0009553046266197,0.19073486328125,0.1068115234375,2.2640228271484375,2.2745522309806736
1785512698.842561,-0.0424804650247097,-0.1435546875,0.9775390028953552,0.9889363176633689,0.12969970703125,-0.3204345703125,0.6771087646484375,0.7602477274014581
1785512698.850562,-0.0532226487994194,-0.14453125,0.9760741591453552,0.9881511507472432,0.3719329833984375,-0.8716583251953125,-0.4253387451171875,1.038766301012804
1785512698.858563,-0.0473632775247097,-0.14794921875,0.9682616591453552,0.9806441209519048,0.31280517578125,-0.9918212890625,-1.5850067138671875,1.8957327951051537
1785512698.866564,-0.0551757775247097,-0.15576171875,0.9624022841453552,0.976485655799207,0.12969970703125,-1.4190673828125,-2.3136138916015625,2.7172382100909074
1785512698.877222,-0.06298828125,-0.15185546875,0.9833983778953552,0.9970456241372946,-0.17547607421875,-1.7852783203125,-3.0498504638671875,3.5383044506588104
1785512698.887881,-0.0590820275247097,-0.15185546875,0.9672850966453552,0.9809134658867351,-0.35858154296875,-1.7242431640625,-2.6187896728515625,3.155892039092609
1785512698.898539,-0.0600585900247097,-0.14208984375,0.9692382216453552,0.9814373582816717,-0.1163482666015625,-1.3599395751953125,-2.6798248291015625,3.0073964956408417
1785512698.906518,-0.07080078125,-0.13818359375,0.9887694716453552,1.0008858697499483,-0.05340576171875,-1.2969970703125,-2.0084381103515625,2.391417407918685
1785512698.914498,-0.06494140625,-0.142578125,0.9672850966453552,0.9798909970840927,-0.1163482666015625,-1.0547637939453125,-1.7032623291015625,2.0067800432273533
1785512698.922479,-0.0703125,-0.13134765625,0.9814452528953552,0.992688691831153,0.12969970703125,-0.6256103515625,-0.9708404541015625,1.162214056577477
1785512698.93046,-0.06884765625,-0.1376953125,0.9746093153953552,0.9866931217511318,0.12969970703125,-0.2593994140625,-0.6656646728515625,0.7260988408629627
1785512698.941142,-0.07373046875,-0.15234375,0.9853515028953552,0.9997811682784851,0.55694580078125,0.7781982421875,-0.1773834228515625,0.9732656409501566
1785512698.951822,-0.0849609375,-0.14599609375,0.9638671278953552,0.9785566210129993,0.6809234619140625,1.2035369873046875,0.5512237548828125,1.4886254292946168
1785512698.962503,-0.07421875,-0.146484375,0.9721679091453552,0.9859394193066604,0.4978179931640625,1.2035369873046875,0.9822845458984375,1.631320619387629
1785512698.970696,-0.06982421875,-0.1337890625,0.9780272841453552,0.9896020934200858,0.5550384521484375,1.6918182373046875,1.8978118896484375,2.6023079371840385
1785512698.97889,-0.103515625,-0.13232421875,0.9663085341453552,0.9808044487302674,0.61798095703125,1.2054443359375,2.4471282958984375,2.7970401153511992
1785512698.987084,-0.0683593675494194,-0.150390625,0.9716796278953552,0.9856224644794289,0.0667572021484375,0.8983612060546875,2.2640228271484375,2.436659340661292
1785512698.995278,-0.0610351525247097,-0.14501953125,0.9799804091453552,0.9925308844546764,0.00762939453125,-0.3814697265625,2.0809173583984375,2.115607338904957
1785512699.005783,-0.0400390587747097,-0.14892578125,0.9643554091453552,0.9766080942201908,0.00762939453125,-0.7476806640625,0.9212493896484375,1.1865011677202315
1785512699.016289,-0.0405273400247097,-0.14599609375,0.9780272841453552,0.9896942422852002,-0.35858154296875,-1.1749267578125,-0.7915496826171875,1.4613639208742677
1785512699.026793,-0.0375976525247097,-0.14208984375,0.9829100966453552,0.9938387018322691,-0.17547607421875,-0.6866455078125,-1.8863677978515625,2.0151072861745263
1785512699.037501,-0.0844726487994194,-0.125,0.9829100966453552,0.9944208799510253,-0.2994537353515625,-0.2613067626953125,-2.4356842041015625,2.467896129490901
1785512699.048207,-0.0830078050494194,-0.142578125,0.9868163466453552,1.0005125283743947,0.12969970703125,-0.2593994140625,-2.1305084228515625,2.150157252356537
1785512699.058913,-0.07373046875,-0.140625,0.9750975966453552,0.9879407348776761,-0.17547607421875,-0.5645751953125,-1.8863677978515625,1.9768460922784872
1785512699.066874,-0.0732421800494194,-0.1357421875,0.9804686903953552,0.9925266803725025,0.12969970703125,-1.5411376953125,-0.7915496826171875,1.7373768474250157
1785512699.074836,-0.0629882737994194,-0.15087890625,0.9790038466453552,0.9925625918468967,0.31280517578125,-1.2969970703125,-0.4825592041015625,1.4187712514207074
1785512699.082796,-0.0703125,-0.14990234375,0.9921874403953552,1.0059077876208533,0.61798095703125,-1.1138916015625,-0.3604888916015625,1.323860719355648
1785512699.090757,-0.078125,-0.1416015625,0.9711913466453552,0.9845644468120205,0.61798095703125,-0.3814697265625,0.4329681396484375,0.8455063722335611
1785512699.101356,-0.0693359375,-0.13134765625,0.9716796278953552,0.9829654003566087,0.67901611328125,0.2899169921875,0.6160736083984375,0.9615931756307828
1785512699.111953,-0.0693359300494194,-0.13427734375,0.9653319716453552,0.9770893980189748,0.61798095703125,0.7171630859375,1.2874603271484375,1.5980542697498792
1785512699.122551,-0.0737304612994194,-0.134765625,0.9741210341453552,0.9861590864406625,0.31280517578125,0.7781982421875,1.6536712646484375,1.8542028566646143
1785512699.130664,-0.0512695275247097,-0.140625,0.9790038466453552,0.9903799709323736,0.0667572021484375,0.7152557373046875,1.6536712646484375,1.8029631014832006
1785512699.138775,-0.0434570237994194,-0.154296875,0.9829100966453552,0.995895725786415,-0.1163482666015625,0.4100799560546875,1.1653900146484375,1.2409014367552678
1785512699.146886,-0.0478515587747097,-0.15185546875,0.9814452528953552,0.994275937301753,-0.2384185791015625,0.2269744873046875,0.4940032958984375,0.5936329616072148
1785512699.154998,-0.0444335862994194,-0.1396484375,0.9824218153953552,0.9932918267318647,-0.23651123046875,0.2899169921875,-0.3604888916015625,0.5195591068059651
1785512699.164531,-0.0566406212747097,-0.14501953125,0.9746093153953552,0.9869661301573412,0.0667572021484375,0.5931854248046875,-1.1539459228515625,1.2991984702520047
1785512699.174063,-0.0678710862994194,-0.1435546875,0.9829100966453552,0.9956539010851448,0.12969970703125,0.2899169921875,-1.3980865478515625,1.4337084332759358
1785512699.183596,-0.080078125,-0.1513671875,0.9741210341453552,0.9890582999599125,-0.2994537353515625,0.0438690185546875,-0.9708404541015625,1.0169209495949443
1785512699.19313,-0.080078125,-0.1455078125,0.9707030653953552,0.9848093575763738,-0.1163482666015625,-0.1354217529296875,-0.6084442138671875,0.6340980458069536
1785512699.202662,-0.0786132737994194,-0.14013671875,0.9643554091453552,0.9776500917543989,-0.41961669921875,-0.5035400390625,0.1277923583984375,0.667803587941348
1785512699.213325,-0.0644531175494194,-0.1396484375,0.9667968153953552,0.9789545304643271,-0.96893310546875,-0.5645751953125,0.0629425048828125,1.123182208262037
1785512699.223989,-0.06494140625,-0.1455078125,0.9804686903953552,0.9933321511910533,-1.33514404296875,-0.5645751953125,0.4329681396484375,1.5128833982127359
1785512699.234651,-0.07080078125,-0.1455078125,0.9897460341453552,1.0028870755127939,-1.15203857421875,-0.2593994140625,0.3108978271484375,1.2211217758395592
1785512699.242635,-0.0620117150247097,-0.14892578125,0.9702147841453552,0.9835349859031182,-0.35858154296875,-0.1983642578125,0.5512237548828125,0.686860051016552
1785512699.250623,-0.0571289025247097,-0.1416015625,0.9790038466453552,0.9908396670261649,-0.2994537353515625,-0.1354217529296875,0.1277923583984375,0.3526222875083021
1785512699.258609,-0.0678710862994194,-0.142578125,0.9726561903953552,0.9853908213487602,0.0095367431640625,-0.2613067626953125,-0.2384185791015625,0.35385815316492236
1785512699.266596,-0.0561523400247097,-0.1591796875,0.9804686903953552,0.9948920097419776,0.19073486328125,-0.3814697265625,-0.1201629638671875,0.44310052836792313
1785512699.277249,-0.0561523400247097,-0.12890625,0.9848632216453552,0.9948494719951261,0.3719329833984375,-0.2613067626953125,-0.3604888916015625,0.5801444728152547
1785512699.2879,-0.0703125,-0.142578125,0.9741210341453552,0.9870076790730566,0.2498626708984375,-0.0782012939453125,-0.4825592041015625,0.5490083625468336
1785512699.298552,-0.0488281212747097,-0.15087890625,0.9799804091453552,0.9927286799962575,0.31280517578125,-0.0152587890625,-0.6084442138671875,0.6843129912749373
1785512699.306657,-0.0693359300494194,-0.13916015625,0.9702147841453552,0.9825933785944013,0.43487548828125,0.1068115234375,-0.6084442138671875,0.7554665798269008
1785512699.314761,-0.0874023362994194,-0.1435546875,0.9667968153953552,0.9812966926227867,0.5550384521484375,0.5321502685546875,-0.4253387451171875,0.8787289910911231
1785512699.322866,-0.0791015625,-0.14111328125,0.9711913466453552,0.9845723168634702,0.06866455078125,0.2899169921875,-0.2384185791015625,0.3815889172314178
1785512699.330971,-0.0688476487994194,-0.1494140625,0.9721679091453552,0.985989353081469,0.3719329833984375,0.5321502685546875,0.3108978271484375,0.719844088249746
1785512699.341533,-0.0732421800494194,-0.158203125,0.9731444716453552,0.9886368435335974,0.0667572021484375,0.2269744873046875,0.6771087646484375,0.7172518533190738
1785512699.352096,-0.0654296875,-0.13916015625,0.9785155653953552,0.9905247623431046,0.61798095703125,0.1068115234375,1.2874603271484375,1.4320835376378924
1785512699.362658,-0.0532226487994194,-0.1455078125,0.9692382216453552,0.9815436333357841,0.00762939453125,-0.1983642578125,1.2264251708984375,1.2423869309726656
1785512699.370722,-0.0405273400247097,-0.14599609375,0.9838866591453552,0.9954849485170258,0.00762939453125,0.1678466796875,0.7381439208984375,0.7570252066492571
1785512699.378788,-0.0517578087747097,-0.13037109375,0.9877929091453552,0.9977025229057881,0.1926422119140625,0.7152557373046875,0.1888275146484375,0.7644328759588513
1785512699.386854,-0.06689453125,-0.14599609375,0.9794921278953552,0.9925696783150223,-0.05340576171875,0.5950927734375,0.1277923583984375,0.6109979306407922
1785512699.39492,-0.06396484375,-0.1416015625,0.9677733778953552,0.9801672381289783,0.37384033203125,0.6561279296875,-0.5435943603515625,0.930459715718668
1785512699.405461,-0.0571289025247097,-0.13037109375,0.9692382216453552,0.9796341479794892,0.3719329833984375,0.3528594970703125,-0.4825592041015625,0.70406487930837
1785512699.416001,-0.0776367112994194,-0.142578125,0.9726561903953552,0.9861115785672078,0.43487548828125,-0.1373291015625,-0.3604888916015625,0.5813159325288979
1785512699.42654,-0.07666015625,-0.15185546875,0.9736327528953552,0.9883813031700592,0.00762939453125,-0.3204345703125,-0.3604888916015625,0.48237823591077683
1785512699.43454,-0.0571289025247097,-0.13818359375,0.9775390028953552,0.9889089539826141,-0.11444091796875,-0.3204345703125,-0.5435943603515625,0.6413032560052312
1785512699.442538,-0.0610351525247097,-0.146484375,0.9775390028953552,0.9903360359718819,0.00762939453125,-0.3814697265625,-0.5435943603515625,0.6641326588495753
1785512699.450537,-0.0712890625,-0.13525390625,0.9755858778953552,0.987493571997744,0.1277923583984375,-0.4444122314453125,-0.7266998291015625,0.8613511246521228
1785512699.458536,-0.0830078050494194,-0.1494140625,0.9716796278953552,0.9865982754083509,0.5550384521484375,-0.2613067626953125,-0.0553131103515625,0.6159614012017326
1785512699.469275,-0.0771484300494194,-0.13916015625,0.9721679091453552,0.9851029757942396,0.1926422119140625,-0.2613067626953125,0.1888275146484375,0.37556367812895963
1785512699.480014,-0.07470703125,-0.14599609375,0.9785155653953552,0.9921636516368855,0.25177001953125,-0.1983642578125,0.6160736083984375,0.6944661348671664
1785512699.490754,-0.0722656175494194,-0.1474609375,0.9824218153953552,0.9960520422813676,-0.05340576171875,-0.5645751953125,0.5512237548828125,0.7908507789046012
1785512699.498819,-0.0610351525247097,-0.15234375,0.9628905653953552,0.9767764068276649,-0.05340576171875,-0.3814697265625,0.7381439208984375,0.8326030120217841
1785512699.506885,-0.0483398362994194,-0.130859375,0.9672850966453552,0.977292880354226,-0.05340576171875,-0.6256103515625,0.1888275146484375,0.6556647906172945
1785512699.514951,-0.0654296875,-0.15478515625,0.9687499403953552,0.9832171355390877,-0.23651123046875,-0.1983642578125,-0.3032684326171875,0.43273280802064423
1785512699.523017,-0.0605468712747097,-0.138671875,0.9873046278953552,0.998832438800802,-0.2994537353515625,-0.2613067626953125,-0.4253387451171875,0.5821226777442808
1785512699.533527,-0.0561523400247097,-0.1337890625,0.9794921278953552,0.9901805023044286,0.06866455078125,0.1678466796875,-0.6084442138671875,0.6348950226648252
1785512699.544037,-0.0624999962747097,-0.12060546875,0.9799804091453552,0.9893500548013549,-0.0553131103515625,0.0438690185546875,-0.9136199951171875,0.9163435635413419
1785512699.554548,-0.06982421875,-0.15087890625,0.9877929091453552,1.001685927440876,-0.05340576171875,0.1678466796875,-0.3604888916015625,0.4012192969374743
1785512699.562593,-0.0722656175494194,-0.154296875,0.9750975966453552,0.9898712886522734,-0.35858154296875,0.3509521484375,-0.2384185791015625,0.5555101730045585
1785512699.570642,-0.07763671875,-0.14697265625,0.9770507216453552,0.9910885603472359,-0.4787445068359375,0.2269744873046875,-0.2384185791015625,0.5809966777647001
1785512699.57869,-0.06982421875,-0.1396484375,0.9775390028953552,0.9899290933202664,-0.35858154296875,0.1068115234375,-0.3032684326171875,0.48162346985894977
1785512699.586737,-0.07080078125,-0.15478515625,0.9731444716453552,0.9879176878236693,-0.41961669921875,0.2899169921875,-0.6656646728515625,0.8385937594001422
1785512699.597356,-0.0751953125,-0.13916015625,0.9721679091453552,0.9849519418131774,-0.1163482666015625,0.3528594970703125,-0.6656646728515625,0.7623360154790536
1785512699.607973,-0.0678710862994194,-0.15234375,0.9858397841453552,0.999847579645661,-0.1163482666015625,0.3528594970703125,0.1888275146484375,0.41677640780424224
1785512699.618592,-0.0727538987994194,-0.138671875,0.9770507216453552,0.9895206573762072,0.0667572021484375,0.0438690185546875,0.0629425048828125,0.1016994284573996
1785512699.629247,-0.0722656175494194,-0.1494140625,0.9687499403953552,0.9828648577340412,-0.05340576171875,-0.1373291015625,0.1888275146484375,0.2395146922613083
1785512699.639904,-0.0629882737994194,-0.14501953125,0.9790038466453552,0.9916888215698524,0.00762939453125,-0.1373291015625,0.1888275146484375,0.2336093321876992
1785512699.650559,-0.06591796875,-0.162109375,0.9746093153953552,0.9901959127982803,-0.2994537353515625,-0.4444122314453125,0.3108978271484375,0.6195419517674532
1785512699.658578,-0.0546874962747097,-0.13525390625,0.9824218153953552,0.993195330622021,-0.17547607421875,-0.5035400390625,-0.3032684326171875,0.613446139269271
1785512699.666597,-0.07177734375,-0.13623046875,0.9843749403953552,0.996345698525371,0.25177001953125,-0.3814697265625,-0.3032684326171875,0.5485244180895871
1785512699.674616,-0.0673828050494194,-0.14208984375,0.9799804091453552,0.9925177924963992,0.2498626708984375,-0.5664825439453125,-0.6656646728515625,0.9090892605161671
1785512699.682636,-0.0629882737994194,-0.142578125,0.9648436903953552,0.9773532581725373,0.1277923583984375,-0.4444122314453125,-0.6084442138671875,0.7642234488104225
1785512699.693269,-0.0629882737994194,-0.13818359375,0.9741210341453552,0.9858874263232653,0.31280517578125,-0.1983642578125,-0.5435943603515625,0.6577919772839033
1785512699.703903,-0.0556640587747097,-0.1474609375,0.9770507216453552,0.9896824380554414,0.19073486328125,-0.0152587890625,-0.2384185791015625,0.3057058023253386
1785512699.714537,-0.0590820275247097,-0.142578125,0.9790038466453552,0.9910942132064683,0.1926422119140625,0.2269744873046875,-0.3032684326171875,0.42497080125633796
1785512699.725209,-0.06689453125,-0.1435546875,0.9741210341453552,0.9869116555086358,0.1277923583984375,0.5321502685546875,-0.0553131103515625,0.5500675734531394
1785512699.735883,-0.0683593675494194,-0.138671875,0.9741210341453552,0.9863136829691599,-0.1163482666015625,0.2880096435546875,-0.1773834228515625,0.3577028831645373
1785512699.746557,-0.0693359375,-0.1455078125,0.9750975966453552,0.9883295597679385,-0.05340576171875,0.4119873046875,0.1277923583984375,0.43464537438406675
1785512699.75456,-0.0605468712747097,-0.15087890625,0.9794921278953552,0.9928923388672729,-0.05340576171875,0.6561279296875,0.3108978271484375,0.7280202568791507
1785512699.762562,-0.076171875,-0.14013671875,0.9799804091453552,0.9928756502159423,-0.2384185791015625,0.4100799560546875,0.3681182861328125,0.6004332284309236
1785512699.770563,-0.07421875,-0.14013671875,0.9716796278953552,0.9845344189313217,-0.17547607421875,0.4730224609375,0.5512237548828125,0.7472547953152927
1785512699.778565,-0.0678710862994194,-0.1455078125,0.9755858778953552,0.9887096707339568,-0.23651123046875,0.5950927734375,0.2498626708984375,0.687389500533634
1785512699.789233,-0.06982421875,-0.14599609375,0.9716796278953552,0.9850642518034864,-0.3604888916015625,0.5321502685546875,0.4940032958984375,0.8106635588513081
1785512699.799901,-0.06982421875,-0.1416015625,0.9697265028953552,0.9824947401610579,0.00762939453125,0.1068115234375,0.1888275146484375,0.21707772683593993
1785512699.81057,-0.0678710862994194,-0.1396484375,0.9780272841453552,0.9902754864099151,-0.05340576171875,-0.0152587890625,0.1277923583984375,0.13934092325461486
1785512699.818599,-0.0654296875,-0.14990234375,0.9780272841453552,0.9916093611906002,0.06866455078125,0.2899169921875,-0.3032684326171875,0.4251334203695628
1785512699.826627,-0.0654296875,-0.14599609375,0.9794921278953552,0.9924720308429741,0.12969970703125,-0.1373291015625,-0.0553131103515625,0.19682691969524813
1785512699.834656,-0.0595703087747097,-0.15234375,0.9707030653953552,0.9843889886724232,0.00762939453125,-0.3204345703125,-0.6656646728515625,0.7388138995679817
1785512699.842685,-0.06494140625,-0.146484375,0.9731444716453552,0.9862480524993628,0.31280517578125,-0.6866455078125,-0.6084442138671875,0.9692953588989708
1785512699.853444,-0.0673828050494194,-0.13916015625,0.9750975966453552,0.987279754926333,-0.05340576171875,-0.6866455078125,-0.7915496826171875,1.0492307319342187
1785512699.864203,-0.0561523400247097,-0.14501953125,0.9775390028953552,0.989831426009432,0.00762939453125,-0.5645751953125,-0.7266998291015625,0.9202695259755704
1785512699.874962,-0.06298828125,-0.146484375,0.9746093153953552,0.9875669665138526,0.00762939453125,-0.6256103515625,-0.7915496826171875,1.0089585817537003
1785512699.885475,-0.06298828125,-0.146484375,0.9760741591453552,0.9890126186481556,-0.11444091796875,-0.5035400390625,-0.2384185791015625,0.5687641985088392
1785512699.895989,-0.07373046875,-0.140625,0.9697265028953552,0.9826398440246304,0.12969970703125,-0.6866455078125,-0.2384185791015625,0.7383410365568787
1785512699.906503,-0.0693359375,-0.1435546875,0.9765624403953552,0.9894895757526495,0.12969970703125,-0.6256103515625,0.0057220458984375,0.6389390172742707
1785512699.917199,-0.06396484375,-0.13720703125,0.9887694716453552,1.000291126981658,0.31280517578125,-0.8087158203125,0.5512237548828125,1.0274804056362172
1785512699.927896,-0.0620117150247097,-0.13623046875,0.9775390028953552,0.9889320985779538,0.2498626708984375,-0.5664825439453125,0.3681182861328125,0.7203088917184162
1785512699.938594,-0.0468749962747097,-0.150390625,0.9790038466453552,0.9915962571077237,0.12969970703125,0.3509521484375,0.2498626708984375,0.4499119678396986
1785512699.946638,-0.0512695275247097,-0.13916015625,0.9780272841453552,0.9892075020302216,-0.11444091796875,0.4730224609375,0.0629425048828125,0.4907226621808104
1785512699.954685,-0.064453125,-0.13623046875,0.9785155653953552,0.9900533610160122,0.00762939453125,1.0223388671875,-0.4253387451171875,1.1073156799761295
1785512699.962732,-0.06591796875,-0.1396484375,0.9790038466453552,0.9911081658662285,-0.1163482666015625,1.0242462158203125,-0.3032684326171875,1.074518018455486
1785512699.970779,-0.0576171837747097,-0.13671875,0.9731444716453552,0.9843891096317597,-0.54168701171875,0.9613037109375,-0.3604888916015625,1.160810873611684
1785512699.98135,-0.0585937462747097,-0.1474609375,0.9667968153953552,0.9797316150096844,-0.4215240478515625,0.7152557373046875,-0.2384185791015625,0.86378047646682
1785512699.991922,-0.0581054650247097,-0.1416015625,0.9677733778953552,0.9798023058409105,-0.48065185546875,0.1068115234375,-0.4253387451171875,0.6506519467445367
1785512700.002495,-0.06982421875,-0.134765625,0.9750975966453552,0.9868396618444337,-0.54168701171875,-0.3204345703125,-0.5435943603515625,0.8316236896109743
1785512700.010514,-0.06982421875,-0.1513671875,0.9809569716453552,0.9950196114626758,-0.66375732421875,-0.1373291015625,-0.2384185791015625,0.7185238245533729
1785512700.018534,-0.076171875,-0.1435546875,0.9843749403953552,0.9976994167195836,-0.41961669921875,-0.1983642578125,-0.4253387451171875,0.6295550818940362
1785512700.026554,-0.08154296875,-0.15185546875,0.9838866591453552,0.9988705107200102,-0.35858154296875,-0.1373291015625,-0.6084442138671875,0.7194750631413661
1785512700.034574,-0.06689453125,-0.13330078125,0.9677733778953552,0.9791982881704827,-0.96893310546875,-0.5035400390625,-0.1773834228515625,1.1062770053268376
1785512700.045269,-0.07373046875,-0.140625,0.9702147841453552,0.9831217117027337,-0.84686279296875,-0.0762939453125,-0.4253387451171875,0.9507420282621583
1785512700.055962,-0.0605468712747097,-0.13818359375,0.9731444716453552,0.9847694105204217,-0.6046295166015625,-0.7495880126953125,-0.1773834228515625,0.979246608278468
1785512700.066657,-0.06982421875,-0.1494140625,0.9667968153953552,0.9807630018793543,-0.72479248046875,-0.6256103515625,-0.5435943603515625,1.101002852099949
1785512700.074622,-0.0458984337747097,-0.15625,0.9775390028953552,0.9910112163364332,-0.6046295166015625,-0.7495880126953125,-0.3032684326171875,1.009668650273164
1785512700.082589,-0.0615234337747097,-0.14697265625,0.9750975966453552,0.9880290570485059,-0.48065185546875,-0.3204345703125,-0.3032684326171875,0.65243870381745
1785512700.090556,-0.0551757775247097,-0.1484375,0.9794921278953552,0.992211109815183,-0.1163482666015625,-0.5664825439453125,-0.4253387451171875,0.7178805191909061
1785512700.098523,-0.0571289025247097,-0.1376953125,0.9868163466453552,0.9980131324760393,0.00762939453125,-0.3204345703125,-0.1773834228515625,0.3663350927972997
1785512700.10919,-0.07373046875,-0.14794921875,0.9829100966453552,0.9967133045355678,0.0667572021484375,-0.3833770751953125,0.0629425048828125,0.3942033291905619
1785512700.119857,-0.0732421800494194,-0.1259765625,0.9619140028953552,0.9728890276921995,0.0667572021484375,-0.0782012939453125,0.2498626708984375,0.2701912669238393
1785512700.130524,-0.0615234337747097,-0.1494140625,0.9790038466453552,0.9922490749416636,0.0667572021484375,0.1049041748046875,0.6160736083984375,0.6284966991919776
1785512700.141387,-0.0683593675494194,-0.13916015625,0.9599608778953552,0.9724008634863002,-0.0553131103515625,0.0438690185546875,1.1043548583984375,1.1066090927847776
1785512700.15225,-0.0605468712747097,-0.14111328125,0.9667968153953552,0.9789151975656004,-0.23651123046875,0.2899169921875,1.0395050048828125,1.1047896087822808
1785512700.163113,-0.0620117150247097,-0.13134765625,0.9770507216453552,0.9877883236151273,-0.05340576171875,0.2899169921875,1.0395050048828125,1.0804974284653448
1785512700.172599,-0.0624999962747097,-0.14306640625,0.9809569716453552,0.9933029881920495,0.1926422119140625,0.2269744873046875,0.8563995361328125,0.9066689611908333
1785512700.182086,-0.0561523400247097,-0.13427734375,0.9755858778953552,0.9863829355192928,0.2498626708984375,0.0438690185546875,0.6771087646484375,0.7230713133994361
1785512700.191574,-0.0683593675494194,-0.14990234375,0.9667968153953552,0.9807343157308712,0.2498626708984375,-0.0782012939453125,0.3681182861328125,0.45172764943999305
1785512700.20106,-0.0551757775247097,-0.14013671875,0.9814452528953552,0.9929337595219032,-0.17547607421875,-0.0762939453125,0.4329681396484375,0.47336458323917713
1785512700.210547,-0.0634765550494194,-0.150390625,0.9609374403953552,0.9747037383135501,-0.23651123046875,-0.1373291015625,0.1888275146484375,0.33234421096524536
1785512700.220155,-0.0507812462747097,-0.13818359375,0.9848632216453552,0.9958057069049895,0.0667572021484375,0.2269744873046875,-0.3032684326171875,0.3846370810881326
1785512700.229762,-0.0654296875,-0.13525390625,0.9755858778953552,0.9870878726390485,0.00762939453125,-0.0762939453125,-0.4825592041015625,0.488612688348751
1785512700.239367,-0.06884765625,-0.13720703125,0.9711913466453552,0.9832489008355795,0.1926422119140625,0.0438690185546875,-0.3604888916015625,0.41108120069910414
1785512700.248973,-0.0673828050494194,-0.14990234375,0.9770507216453552,0.9907771029579663,-0.11444091796875,-0.0152587890625,-0.4825592041015625,0.4961783346865495
1785512700.258579,-0.080078125,-0.1416015625,0.9736327528953552,0.9871292955416453,-0.1163482666015625,-0.0782012939453125,-0.1773834228515625,0.2260912210114441
1785512700.268219,-0.0703125,-0.1416015625,0.9697265028953552,0.9825295621895286,-0.1735687255859375,0.0438690185546875,-0.0553131103515625,0.1873769822236502
1785512700.277855,-0.06591796875,-0.14697265625,0.9677733778953552,0.9810868724288857,-0.05340576171875,-0.1983642578125,0.3681182861328125,0.4215585685852241
1785512700.287491,-0.0688476487994194,-0.134765625,0.9736327528953552,0.9853235559639466,0.0667572021484375,-0.2613067626953125,0.5512237548828125,0.6136655247087771
1785512700.297127,-0.0566406212747097,-0.1435546875,0.9716796278953552,0.9838584286107751,-0.11444091796875,-0.0152587890625,0.0629425048828125,0.13149643824114368
1785512700.306763,-0.0561523400247097,-0.1474609375,0.9667968153953552,0.9795886359269538,0.0667572021484375,-0.0782012939453125,0.4940032958984375,0.5045901532649322
1785512700.316337,-0.06396484375,-0.140625,0.9760741591453552,0.9882244967679531,0.0095367431640625,0.0438690185546875,0.3681182861328125,0.37084567254383327
1785512700.325915,-0.0654296875,-0.1416015625,0.9663085341453552,0.9788177714319117,-0.2994537353515625,-0.0171661376953125,0.3681182861328125,0.4748455417130262
1785512700.335493,-0.0771484300494194,-0.142578125,0.9780272841453552,0.9913716611444696,0.00762939453125,-0.1373291015625,0.1277923583984375,0.18774551036419382
1785512700.345071,-0.0615234337747097,-0.1435546875,0.9609374403953552,0.9735470433216007,-0.17547607421875,-0.1373291015625,-0.1201629638671875,0.25316056692252586
1785512700.354649,-0.0571289025247097,-0.142578125,0.9951171278953552,1.0069013514058336,-0.35858154296875,-0.1373291015625,-0.0553131103515625,0.38794270874779574
1785512700.364279,-0.0624999962747097,-0.1328125,0.9995116591453552,1.0102321349363668,-0.23651123046875,-0.1373291015625,-0.2384185791015625,0.36282263316200886
1785512700.373908,-0.052734375,-0.154296875,0.9672850966453552,0.9809326674821368,-0.05340576171875,-0.3204345703125,-0.4825592041015625,0.5817163180616906
1785512700.383536,-0.06640625,-0.13427734375,0.9746093153953552,0.9860545181373194,-0.05340576171875,-0.1373291015625,-0.3604888916015625,0.38944023737776046
1785512700.393165,-0.06884765625,-0.15185546875,0.9638671278953552,0.9781819480023343,-0.1163482666015625,0.3528594970703125,-0.5435943603515625,0.6584387385474267
1785512700.402795,-0.0722656175494194,-0.1474609375,0.9667968153953552,0.980644242234042,-0.05340576171875,0.2899169921875,-0.0553131103515625,0.299939290391524
1785512700.413366,-0.0634765625,-0.13671875,0.9824218153953552,0.9939184644391532,-0.11444091796875,-0.0152587890625,-0.1201629638671875,0.1666394078077903
1785512700.423938,-0.0629882737994194,-0.15771484375,0.9667968153953552,0.9815994992021533,-0.1163482666015625,0.3528594970703125,0.0629425048828125,0.3768401554171543
1785512700.434509,-0.0605468712747097,-0.15576171875,0.9702147841453552,0.9845020893951056,0.1277923583984375,0.0438690185546875,-0.3032684326171875,0.33200469857529397
1785512700.442548,-0.0703125,-0.14453125,0.9614257216453552,0.9747679457820229,0.00762939453125,0.4730224609375,-0.0553131103515625,0.4763066201398489
1785512700.450584,-0.0571289025247097,-0.1435546875,0.9702147841453552,0.9824400170906714,-0.17547607421875,0.2899169921875,-0.4253387451171875,0.5438352352322668
1785512700.458622,-0.076171875,-0.13916015625,0.9799804091453552,0.9927382867288024,-0.4215240478515625,0.0438690185546875,-0.7266998291015625,0.8412488664612618
1785512700.466658,-0.068359375,-0.1513671875,0.9716796278953552,0.9857719456694366,-0.2384185791015625,0.4100799560546875,-0.3032684326171875,0.563010418589841
1785512700.477315,-0.0703125,-0.14501953125,0.9819335341453552,0.9950718454360002,-0.2994537353515625,0.1049041748046875,-0.4253387451171875,0.5306509903932337
1785512700.487972,-0.0776367112994194,-0.14501953125,0.9736327528953552,0.9874304334462995,-0.3604888916015625,-0.4444122314453125,-0.5435943603515625,0.7892713735036572
1785512700.498629,-0.0673828050494194,-0.1572265625,0.9907225966453552,1.005381468834397,-0.1735687255859375,-0.4444122314453125,-0.4253387451171875,0.6391724196627951
1785512700.506677,-0.07080078125,-0.1416015625,0.9682616591453552,0.9811189498215636,-0.2994537353515625,-0.3185272216796875,-0.2384185791015625,0.4979714343491928
1785512700.514725,-0.0722656175494194,-0.14697265625,0.9829100966453552,0.9964615091674947,-0.35858154296875,0.1678466796875,-0.1773834228515625,0.43384111094098027
1785512700.522774,-0.0512695275247097,-0.1416015625,0.9555663466453552,0.9673606410208136,0.0667572021484375,0.2269744873046875,-0.1773834228515625,0.29570055906008924
1785512700.530821,-0.0600585900247097,-0.12890625,1.0029296875,1.0129619013534845,-0.23651123046875,0.1068115234375,-0.3604888916015625,0.4441829630287556
1785512700.541374,-0.0732421800494194,-0.15283203125,0.9638671278953552,0.9786530983712428,-0.1735687255859375,0.0438690185546875,-0.1773834228515625,0.25202276086301056
1785512700.551927,-0.0620117150247097,-0.13232421875,0.9873046278953552,0.9980609099306963,-0.17547607421875,0.1068115234375,0.3108978271484375,0.3726365697135529
1785512700.56248,-0.06640625,-0.12744140625,0.9746093153953552,0.9851469026096783,-0.17547607421875,0.1678466796875,0.3681182861328125,0.4409936882662854
1785512700.573187,-0.0620117150247097,-0.15380859375,0.9736327528953552,0.9876554428657022,0.0095367431640625,0.0438690185546875,0.4329681396484375,0.43528938674146156
1785512700.583894,-0.06640625,-0.14306640625,0.9697265028953552,0.9824699878642644,0.0095367431640625,0.0438690185546875,0.6771087646484375,0.6785954018580305
1785512700.594599,-0.0615234337747097,-0.14697265625,0.9829100966453552,0.9957401029766719,0.06866455078125,0.1678466796875,0.7991790771484375,0.8194965074775714
1785512700.602626,-0.0615234337747097,-0.140625,0.9804686903953552,0.99241089089853,-0.05340576171875,0.1068115234375,0.3108978271484375,0.33304404490910694
1785512700.610652,-0.0624999962747097,-0.14990234375,0.9741210341453552,0.9875670870176356,-0.0553131103515625,0.2269744873046875,-0.1201629638671875,0.26270914706065507
1785512700.618679,-0.0532226487994194,-0.13916015625,0.9711913466453552,0.9825532205593595,0.00762939453125,0.1678466796875,-0.4825592041015625,0.5109736793673086
1785512700.626704,-0.0678710862994194,-0.14013671875,0.9838866591453552,0.9961313880917959,0.0667572021484375,0.1049041748046875,-0.6084442138671875,0.6210199443806934
1785512700.637397,-0.0610351525247097,-0.14794921875,0.9707030653953552,0.9838082650295175,-0.41961669921875,0.1678466796875,-0.6656646728515625,0.8045869367743519
1785512700.648088,-0.0712890625,-0.1376953125,0.9965819716453552,1.0085721370953815,-0.2384185791015625,-0.0782012939453125,-0.7266998291015625,0.7687987401471007
1785512700.65878,-0.0683593675494194,-0.13427734375,0.9619140028953552,0.9736436499779977,-0.4215240478515625,-0.2613067626953125,-0.5435943603515625,0.7358386886767337
1785512700.669421,-0.0722656175494194,-0.1484375,0.9770507216453552,0.9909006628082142,-0.54168701171875,-0.1373291015625,-0.4825592041015625,0.7383410365568787
1785512700.680063,-0.0629882737994194,-0.14794921875,0.9799804091453552,0.9930851404958508,0.0095367431640625,0.0438690185546875,0.0629425048828125,0.07731234817318437
1785512700.690705,-0.06982421875,-0.1318359375,0.9711913466453552,0.9825827027479012,0.0095367431640625,-0.2613067626953125,-0.3032684326171875,0.4004296641391185
1785512700.701406,-0.09130859375,-0.1455078125,0.9799804091453552,0.9949228035882158,-0.1163482666015625,0.1049041748046875,0.1277923583984375,0.202169957950422
1785512700.712106,-0.08154296875,-0.13671875,0.9604491591453552,0.9735521864066383,0.0667572021484375,0.1049041748046875,0.0057220458984375,0.12447550658424172
1785512700.722807,-0.0771484225988388,-0.13671875,0.9858397841453552,0.9982604748835907,-0.2994537353515625,0.1697540283203125,0.6160736083984375,0.7057164166377656
1785512700.730744,-0.06689453125,-0.13232421875,0.9765624403953552,0.9877544113644275,-0.1163482666015625,-0.3833770751953125,0.6771087646484375,0.7867599253204459
1785512700.738679,-0.0673828050494194,-0.15625,0.9638671278953552,0.978771855517704,-0.23651123046875,-0.6256103515625,0.7381439208984375,0.9960834915203222
1785512700.746614,-0.0541992150247097,-0.146484375,0.9643554091453552,0.976921993905522,-0.05340576171875,-0.5035400390625,0.7991790771484375,0.9460929889158106
1785512700.75455,-0.0415039025247097,-0.15625,0.9941405653953552,1.0072001291646944,0.3719329833984375,-1.1119842529296875,0.0629425048828125,1.1742252261913728
1785512700.765212,-0.0493164025247097,-0.13232421875,0.9536132216453552,0.9640124391949568,0.12969970703125,-0.9918212890625,-0.0553131103515625,1.0017939027656115
1785512700.775875,-0.06494140625,-0.13916015625,0.9697265028953552,0.9818107891803325,0.31280517578125,-0.2593994140625,-0.9708404541015625,1.0524572776752674
1785512700.786539,-0.0561523400247097,-0.1357421875,0.9819335341453552,0.9928607617570165,0.43487548828125,0.7781982421875,-1.0318756103515625,1.3636262206667853
1785512700.794572,-0.0610351525247097,-0.13720703125,0.9819335341453552,0.9933501521353588,0.19073486328125,0.6561279296875,-1.1539459228515625,1.341072272867002
1785512700.802605,-0.07373046875,-0.13818359375,0.9677733778953552,0.9803653393336311,-0.5435943603515625,0.5321502685546875,-0.9136199951171875,1.1888566912823346
1785512700.810638,-0.0722656175494194,-0.14111328125,0.9692382216453552,0.9821191414096312,-0.72479248046875,0.5950927734375,-0.9708404541015625,1.349811370548384
1785512700.818671,-0.07373046875,-0.16552734375,0.9843749403953552,1.0009143354100711,-0.72479248046875,0.3509521484375,-0.6656646728515625,1.0447971128020588
1785512700.82929,-0.06591796875,-0.13330078125,0.9814452528953552,0.9926475010379133,-0.84686279296875,0.2288818359375,-0.3032684326171875,0.9281892194800789
1785512700.839909,-0.0751953125,-0.13427734375,0.9760741591453552,0.9881323313290789,-0.7877349853515625,-0.0171661376953125,0.1888275146484375,0.8102326293839978
1785512700.850528,-0.06640625,-0.1376953125,0.9804686903953552,0.9923147897563143,-0.84686279296875,0.3509521484375,0.2498626708984375,0.9501449125876693
1785512700.85909,-0.076171875,-0.15625,0.9765624403953552,0.9919125047260707,-0.8487701416015625,0.5321502685546875,0.5512237548828125,1.1434344273041062
1785512700.86765,-0.0624999962747097,-0.142578125,0.9770507216453552,0.9893749966168357,-0.90789794921875,0.1678466796875,1.1043548583984375,1.4394619992712427
1785512700.87621,-0.0532226487994194,-0.1552734375,0.9750975966453552,0.9888163700717341,-0.54168701171875,-0.0152587890625,0.9212493896484375,1.0688115302690468
1785512700.894728,-0.0571289025247097,-0.15625,0.9843749403953552,0.9983345117154054,-0.84686279296875,-0.1983642578125,0.4940032958984375,1.0002820728428832
1785512700.904688,-0.0673828050494194,-0.1513671875,0.9790038466453552,0.9929254753577382,-0.84686279296875,-0.4425048828125,0.1888275146484375,0.9739830551483132
1785512700.914648,-0.06640625,-0.15771484375,0.9775390028953552,0.9924042846339363,-0.66375732421875,-0.5035400390625,-0.0553131103515625,0.8349765844440568
1785512700.922667,-0.068359375,-0.15234375,0.9750975966453552,0.9892911327298961,-0.41961669921875,-0.3204345703125,0.0057220458984375,0.5280049525561851
1785512700.930682,-0.0595703087747097,-0.1474609375,0.9785155653953552,0.9913556685150314,-0.1163482666015625,-0.2613067626953125,-0.4253387451171875,0.5125731084141621
1785512700.938699,-0.0688476487994194,-0.1494140625,0.9643554091453552,0.9782872359209577,0.19073486328125,-0.1373291015625,-0.3604888916015625,0.4303386006100355
1785512700.946714,-0.07080078125,-0.1494140625,0.9755858778953552,0.9894974066904951,0.4329681396484375,-0.2613067626953125,-0.1773834228515625,0.535917449691153
1785512700.957433,-0.0732421875,-0.142578125,0.9653319716453552,0.9785493116031556,0.49591064453125,-0.2593994140625,-0.4825592041015625,0.7389714533312512
1785512700.968152,-0.0556640587747097,-0.1455078125,0.9916991591453552,1.0038616603832493,0.49591064453125,-0.1373291015625,-0.3604888916015625,0.6282824925648385
1785512700.978871,-0.0776367112994194,-0.14453125,0.9716796278953552,0.985432920312087,0.55694580078125,0.1678466796875,-0.4253387451171875,0.7206068144195209
1785512700.986794,-0.07470703125,-0.146484375,0.9731444716453552,0.9869391953566575,0.19073486328125,0.4730224609375,-0.1773834228515625,0.539995291946904
1785512700.994716,-0.0703125,-0.138671875,0.9663085341453552,0.9787369001597982,0.06866455078125,0.6561279296875,0.0629425048828125,0.6627069032165869
1785512701.002638,-0.08154296875,-0.15283203125,0.9697265028953552,0.9850768375848759,-0.23651123046875,0.3509521484375,0.5512237548828125,0.6949479121328779
1785512701.010561,-0.06640625,-0.12890625,0.9746093153953552,0.9853374695927929,0.31280517578125,0.1068115234375,0.9212493896484375,0.9787523780110049
1785512701.021312,-0.0590820275247097,-0.1513671875,0.9707030653953552,0.9842088968283258,-0.17547607421875,-0.0762939453125,1.1043548583984375,1.1208087579880897
1785512701.032063,-0.0776367112994194,-0.1494140625,0.9731444716453552,0.9876042647275581,0.12969970703125,-0.1983642578125,0.6771087646484375,0.7173887871616264
1785512701.042814,-0.0688476487994194,-0.14013671875,0.9819335341453552,0.9942694625534932,0.12969970703125,-0.1983642578125,0.5512237548828125,0.6000150170859084
1785512701.053512,-0.0678710862994194,-0.14404296875,0.9692382216453552,0.9822309257501657,-0.05340576171875,-0.1983642578125,0.3108978271484375,0.3726365697135529
1785512701.064214,-0.06396484375,-0.13720703125,0.9833983778953552,0.9949822311517007,0.0095367431640625,0.5321502685546875,-0.1773834228515625,0.5610166989453519
1785512701.074914,-0.06640625,-0.1533203125,0.9697265028953552,0.9840154463634275,-0.23651123046875,0.2899169921875,-0.3032684326171875,0.48162346985894977
1785512701.085466,-0.0693359375,-0.13623046875,0.9760741591453552,0.987971141783079,-0.23651123046875,0.1068115234375,-0.4253387451171875,0.4982562711845638
1785512701.09602,-0.076171875,-0.14794921875,0.9829100966453552,0.9968968772932998,-0.23651123046875,-0.1983642578125,0.0629425048828125,0.31503602942563413
1785512701.106572,-0.0776367112994194,-0.13525390625,0.9765624403953552,0.9889364378402713,-0.35858154296875,-0.5645751953125,-0.0553131103515625,0.6711076026217861
1785512701.114614,-0.0507812462747097,-0.14990234375,0.9726561903953552,0.9854488887554551,-0.3604888916015625,-0.4444122314453125,0.0057220458984375,0.5722649860297141
1785512701.122657,-0.06591796875,-0.13720703125,0.9765624403953552,0.9883547682990639,-0.23651123046875,-0.1373291015625,0.0629425048828125,0.2806396322594663
1785512701.1307,-0.0502929650247097,-0.13916015625,0.9716796278953552,0.9828815954556057,-0.23651123046875,-0.1373291015625,-0.1201629638671875,0.2987239229776427
1785512701.138742,-0.07373046875,-0.140625,0.9736327528953552,0.9864949620538782,-0.17547607421875,0.3509521484375,0.0629425048828125,0.3973927805547607
1785512701.149452,-0.0654296875,-0.1337890625,0.9755858778953552,0.9868882218366108,0.12969970703125,0.1678466796875,-0.1773834228515625,0.27651293023771334
1785512701.160162,-0.0678710862994194,-0.1435546875,0.9916991591453552,1.00433144673872,0.3719329833984375,0.2880096435546875,0.0629425048828125,0.47460031378106293
1785512701.170872,-0.0634765625,-0.13623046875,0.9726561903953552,0.984199207130887,0.0095367431640625,0.2269744873046875,0.1277923583984375,0.26065159547264954
1785512701.181425,-0.0566406212747097,-0.14404296875,0.9780272841453552,0.9901989221148637,0.06866455078125,-0.1373291015625,0.1888275146484375,0.24337200528873526
1785512701.191978,-0.0673828050494194,-0.15087890625,0.9707030653953552,0.9846671152909817,0.19073486328125,-0.0152587890625,-0.1773834228515625,0.26091664840923284
1785512701.202531,-0.07080078125,-0.15576171875,0.9814452528953552,0.996247583728258,0.1926422119140625,0.2269744873046875,-0.1773834228515625,0.3465448288474444
1785512701.210554,-0.07666015625,-0.1435546875,0.9804686903953552,0.9938830820096899,0.12969970703125,0.3509521484375,-0.3604888916015625,0.5195591068059651
1785512701.218576,-0.0810546875,-0.14697265625,0.9707030653953552,0.9851067278314785,0.0667572021484375,-0.0782012939453125,-0.3032684326171875,0.32022446601640875
1785512701.226599,-0.06640625,-0.1298828125,0.9809569716453552,0.9917438758276246,-0.05340576171875,-0.0762939453125,-0.4253387451171875,0.4354147328398184
1785512701.23462,-0.07470703125,-0.1513671875,0.9785155653953552,0.9929682158512629,-0.11444091796875,0.1678466796875,-0.7266998291015625,0.7545607153860374
1785512701.24525,-0.0605468712747097,-0.14990234375,0.9829100966453552,0.9961169079833355,-0.05340576171875,-0.0152587890625,-0.6656646728515625,0.6679778908848641
1785512701.255878,-0.0561523400247097,-0.146484375,0.9780272841453552,0.9905292150876372,-0.1163482666015625,-0.3833770751953125,-0.4253387451171875,0.5843183627307671
1785512701.266508,-0.07080078125,-0.15478515625,0.9824218153953552,0.9970575803762051,-0.11444091796875,-0.5035400390625,-0.6656646728515625,0.8424718104050556
1785512701.277165,-0.06298828125,-0.1513671875,0.9755858778953552,0.9892660684443494,0.00762939453125,-0.3204345703125,-0.6656646728515625,0.7388138995679817
1785512701.287823,-0.0839843675494194,-0.14453125,0.9912108778953552,1.0052072724952397,0.0095367431640625,-0.4444122314453125,-0.6656646728515625,0.8004390280408352
1785512701.298481,-0.07177734375,-0.13818359375,0.9853515028953552,0.9975792083416765,0.12969970703125,-0.3814697265625,-0.6656646728515625,0.7781070768025685
1785512701.306499,-0.07421875,-0.15625,0.9682616591453552,0.9835919509239991,0.3719329833984375,-0.6885528564453125,-0.3032684326171875,0.8392919173212304
1785512701.314519,-0.06787109375,-0.15185546875,0.9760741591453552,0.9901451069956442,0.31280517578125,-0.6866455078125,-0.1773834228515625,0.7751090311028255
1785512701.32254,-0.0566406212747097,-0.1494140625,0.9721679091453552,0.9852122439470546,0.25177001953125,-0.5035400390625,-0.1773834228515625,0.5902589197770469
1785512701.330559,-0.0683593675494194,-0.1357421875,0.9790038466453552,0.9907307789432223,-0.1735687255859375,-0.4444122314453125,-0.2384185791015625,0.5333589343214722
1785512701.341415,-0.06689453125,-0.1396484375,0.9794921278953552,0.9916558843753813,0.12969970703125,-0.5035400390625,-0.0553131103515625,0.5229092895711648
1785512701.352271,-0.06494140625,-0.1484375,0.9746093153953552,0.9879850177545105,0.3719329833984375,-0.3833770751953125,-0.0553131103515625,0.5370024823981159
1785512701.363127,-0.0590820275247097,-0.13818359375,0.9755858778953552,0.9870933069912624,0.12969970703125,-0.2593994140625,0.0057220458984375,0.2900738041072034
