timestamp,accel_x,accel_y,accel_z,accel_rms,gyro_x,gyro_y,gyro_z,gyro_rms
1785339803.611014,0.0200195349752903,0.0595703087747097,1.00341796875,1.005384017914805,-11.209487915039062,0.2079010009765625,0.2574920654296875,11.214372220832207
1785339803.618979,0.029296875,0.0581054612994194,0.9951171278953552,0.9972425230345348,-11.209487915039062,0.3299713134765625,-0.1087188720703125,11.21487049315633
1785339803.626944,0.01025390625,0.06689453125,0.9936522841453552,0.9959542573290315,-11.333465576171875,0.38909912109375,0.3757476806640625,11.346366220593854
1785339803.634909,0.007812503725290298,0.0610351525247097,0.9824218153953552,0.9843469654663836,-11.577606201171875,0.38909912109375,0.0743865966796875,11.5843815907978
1785339803.645542,0.011718753725290298,0.0512695275247097,0.9741210341453552,0.9755396879706624,-11.94000244140625,0.38909912109375,-0.1087188720703125,11.94683540608003
1785339803.656175,0.014160159975290298,0.0517578087747097,0.9882811903953552,0.9897368802812925,-12.065887451171875,0.57220458984375,0.1354217529296875,12.080206833003801
1785339803.666808,0.012695316225290298,0.0590820275247097,0.9843749403953552,0.9862281076449048,-12.187957763671875,0.75531005859375,-0.5359649658203125,12.223095605379564
1785339803.67754,0.008300784975290298,0.0522460900247097,0.9829100966453552,0.9843326749841527,-11.760711669921875,1.003265380859375,-0.1087188720703125,11.8039273210492
1785339803.688272,0.0034179724752902985,0.0380859337747097,0.9848632216453552,0.9856052892700006,-11.514663696289062,0.9403228759765625,0.0743865966796875,11.553234201533686
1785339803.699004,0.0126953125,0.052734375,1.01171875,1.013171710208924,-11.209487915039062,1.1234283447265625,-0.1087188720703125,11.266167509685186
1785339803.706984,0.02001953125,0.03271484375,1.00439453125,1.0051265676709396,-10.96343994140625,1.36566162109375,0.3757476806640625,11.054557129603824
1785339803.714964,0.0043945349752902985,0.0366210900247097,0.9999999403953552,1.0006799173376875,-10.660171508789062,1.7337799072265625,0.2574920654296875,10.803312062847203
1785339803.722944,0.01025390625,0.03125,0.9980468153953552,0.9985885793529756,-10.171890258789062,1.7948150634765625,0.0743865966796875,10.329290678197404
1785339803.738905,0.0068359412252902985,0.0263671837747097,0.9809569716453552,0.9813350797216368,-10.29205322265625,1.36566162109375,0.4978179931640625,10.394191356504614
1785339803.746886,0.0068359375,0.03759765625,0.9941405653953552,0.9948747547111614,-11.026382446289062,1.7337799072265625,0.6237030029296875,11.17927135614829
1785339803.754867,0.0029296912252902985,0.0249023400247097,1.0068359375,1.0071481096000159,-11.026382446289062,1.4286041259765625,0.7457733154296875,11.14352715429885
1785339803.762848,0.012207034975290298,0.014648433774709702,0.9868163466453552,0.9870005523409933,-10.906219482421875,1.73187255859375,0.8068084716796875,11.072305354710132
1785339803.770876,0.0019531287252902985,0.011718746274709702,0.9882811903953552,0.98835259650356,-10.782241821289062,2.2830963134765625,1.2340545654296875,11.090182962414236
1785339803.778904,0.005859375,0.02294921875,0.9702147841453552,0.9705038517650737,-10.906219482421875,2.03704833984375,1.1692047119140625,11.156264114656873
1785339803.786932,-0.0009765550494194031,0.02294921875,0.9912108778953552,0.991476991542961,-10.477066040039062,1.7948150634765625,1.2950897216796875,10.708292641995854
1785339803.79496,0.01025390625,0.01025390625,1.00439453125,1.0044992083579134,-10.110855102539062,1.9779205322265625,1.6574859619140625,10.434980606128876
1785339803.805584,0.0063476599752902985,0.0253906212747097,1.00048828125,1.0008305437757465,-9.378433227539062,2.0999908447265625,1.5392303466796875,9.733149614152852
1785339803.816208,0.00830078125,0.00341796875,1.00732421875,1.0073642177286397,-8.829116821289062,2.3441314697265625,1.7223358154296875,9.295950562069688
1785339803.826832,0.004394538700580597,-0.0009765625,0.9975585341453552,0.9975686917154813,-8.159637451171875,2.651214599609375,1.7833709716796875,8.762935250837947
1785339803.834848,0.00634765625,0.00634765625,1.00390625,1.0039463851564978,-7.6084136962890625,2.8324127197265625,1.2950897216796875,8.221178636664465
1785339803.842864,0.0019531287252902985,0.0009765587747097015,1.00634765625,1.0063500253980848,-7.2422027587890625,2.8934478759765625,1.2950897216796875,7.905618179345974
1785339803.85088,0.0146484375,-0.00048828125,0.9731444716453552,0.9732548370461295,-7.122039794921875,2.40325927734375,1.2950897216796875,7.627343140425111
1785339803.858896,0.02001953125,-0.00244140625,0.9858397841453552,0.9860460547559164,-7.66754150390625,2.70843505859375,0.6809234619140625,8.1602983978363
1785339803.869544,0.013671878725290298,0.014160159975290298,0.9931640028953552,0.9933590322967472,-7.488250732421875,2.52532958984375,0.4978179931640625,7.918270728086723
1785339803.880192,-0.00439453125,0.005859375,1.0068359375,1.0068625771284787,-7.1201324462890625,2.5882720947265625,0.3757476806640625,7.5852900279793465
1785339803.89084,0.00146484375,0.001953125,0.9814452528953552,0.9814482894657799,-6.3877105712890625,2.4662017822265625,0.0743865966796875,6.847666094296735
1785339803.901504,0.0034179724752902985,0.013671878725290298,0.9956054091453552,0.9957051438670039,-5.657196044921875,2.89154052734375,-0.2307891845703125,6.357526040816955
1785339803.912168,0.008300784975290298,0.0029296837747097015,0.9995116591453552,0.9995504203619378,-5.6552886962890625,2.7713775634765625,0.0743865966796875,6.298282083511481
1785339803.922832,0.0043945349752902985,0.0058593712747097015,0.9941405653953552,0.9941675452025078,-4.9228668212890625,2.5882720947265625,-0.5970001220703125,5.593762537169492
1785339803.930832,0.0019531287252902985,0.011230465024709702,0.9843749403953552,0.9844409384695701,-4.6176910400390625,1.9168853759765625,-0.8411407470703125,5.070013593894187
1785339803.938832,0.001953125,0.0126953125,0.9907225966453552,0.9908058584609063,-4.73785400390625,2.03704833984375,-1.0852813720703125,5.270167184990765
1785339803.946832,0.01123046875,-0.0068359375,0.9853515028953552,0.9854392105695733,-4.9839019775390625,2.0999908447265625,-0.9670257568359375,5.494031241632803
1785339803.954832,-0.0058593712747097015,0.0068359337747097015,0.9887694716453552,0.9888104622626835,-5.4111480712890625,2.0389556884765625,-1.1463165283203125,5.89507466721895
1785339803.965493,0.0024414099752902985,0.0053710900247097015,0.9775390028953552,0.9775568071843018,-6.3266754150390625,2.1610260009765625,-1.2722015380859375,6.805538328278276
1785339803.976154,-0.00341796875,0.0078125,1.00537109375,1.0054072576894884,-6.8149566650390625,1.7948150634765625,-0.9670257568359375,7.113377135568368
1785339803.986815,0.0190429724752903,0.0063476525247097015,0.9858397841453552,0.9860441204616707,-6.7539215087890625,1.7337799072265625,-1.4553070068359375,7.123157094837362
1785339803.994831,0.0009765625,-0.00390625,0.9775390028953552,0.9775472953494497,-6.7539215087890625,1.4286041259765625,-1.2073516845703125,7.008142663065269
1785339804.00285,-0.0004882737994194031,0.00341796875,0.9726561903953552,0.9726623184004224,-7.3642730712890625,1.3065338134765625,-1.3904571533203125,7.6074252917455905
1785339804.010869,0.00048828125,0.00244140625,0.9838866591453552,0.9838898093421158,-7.6694488525390625,1.6117095947265625,-1.0242462158203125,7.903615237982466
1785339804.018888,-0.0048828087747097015,-0.0039062537252902985,0.9921874403953552,0.99220714446026,-6.7539215087890625,1.4286041259765625,-0.5359649658203125,6.924133443271263
1785339804.029529,0.00048828125,-0.01416015625,0.9951171278953552,0.9952179895250609,-6.2656402587890625,1.6117095947265625,-0.4787445068359375,6.487299281913662
1785339804.04017,-0.0185546875,-0.021484375,0.9912108778953552,0.9916172947541022,-5.7163238525390625,1.8558502197265625,-0.1087188720703125,6.011019731984782
1785339804.050811,-0.00830078125,-0.0146484375,0.9960936903953552,0.9962359759293927,-4.863739013671875,1.73187255859375,0.0095367431640625,5.162889762700159
1785339804.058834,0.00048828125,-0.02783203125,1.01025390625,1.0106373313288322,-3.6411285400390625,1.6727447509765625,0.2574920654296875,4.015245224237977
1785339804.066857,-0.00341796875,-0.0302734375,1.0068359375,1.0072967629104872,-2.4814605712890625,1.6117095947265625,0.2574920654296875,2.9701105279694806
1785339804.07488,0.0048828125,-0.041015625,0.9980468153953552,0.9989011808346514,-1.5048980712890625,1.7337799072265625,0.3185272216796875,2.317794331389882
1785339804.082903,-0.0009765587747097015,-0.0288085974752903,0.9931640028953552,0.9935822188438453,-0.9555816650390625,1.8558502197265625,0.4978179931640625,2.1459587859359863
1785339804.093581,-0.00341796875,-0.03076171875,0.9965819716453552,0.9970624815222834,-0.102996826171875,1.73187255859375,0.4978179931640625,1.8049414560393464
1785339804.104259,-0.0029296875,-0.03759765625,0.9956054091453552,0.996319375272724,0.5092620849609375,1.6727447509765625,0.1354217529296875,1.7537850279509608
1785339804.114937,-0.009765621274709702,-0.0283203162252903,0.9858397841453552,0.986294827966639,0.690460205078125,1.42669677734375,0.2574920654296875,1.6057712019583656
1785339804.122947,-0.0029296875,-0.0322265625,0.9931640028953552,0.9936910339972578,1.67083740234375,1.54876708984375,0.6237030029296875,2.3620716668884962
1785339804.13096,-0.00341796875,-0.041015625,0.9863280653953552,0.9871864143063663,1.9741058349609375,1.6117095947265625,0.6237030029296875,2.62368197410128
1785339804.138973,-0.013671875,-0.03271484375,0.9970702528953552,0.997700491318116,2.9506683349609375,1.7337799072265625,0.6809234619140625,3.4894259055937455
1785339804.146986,-0.0019531212747097015,-0.0253906212747097,0.9995116591453552,0.999836014103778,3.6830902099609375,1.4896392822265625,0.8068084716796875,4.054024987076015
1785339804.157659,-0.0078125,-0.02099609375,1.00048828125,1.0007390629068038,4.657745361328125,2.03704833984375,1.1692047119140625,5.216435320043361
1785339804.168332,-0.011718746274709702,-0.0288085974752903,1.0009765625,1.0014596062633083,5.0868988037109375,1.6727447509765625,1.2340545654296875,5.4952256652091425
1785339804.179005,-0.015136715024709702,-0.0190429724752903,0.9951171278953552,0.9954144127814981,5.8193206787109375,1.8558502197265625,1.4781951904296875,6.284404046585588
1785339804.189649,0.0009765625,-0.01220703125,0.9990233778953552,0.999098431020538,6.6738128662109375,2.3441314697265625,1.7223358154296875,7.280190325923966
1785339804.200293,-0.011230465024709702,-0.0258789025247097,0.9965819716453552,0.9969811769281797,6.916046142578125,2.03704833984375,2.0275115966796875,7.4894634961257776
1785339804.210937,-0.015136715024709702,-0.0297851525247097,0.9999999403953552,1.0005579224829382,7.22503662109375,2.03704833984375,2.7599334716796875,7.997996804394452
1785339804.218904,-0.010742180049419403,-0.0263671875,1.01513671875,1.0155359081605095,9.540557861328125,1.857757568359375,4.0988922119140625,10.548669340397213
1785339804.226871,-0.013671875,-0.037109375,1.0224609375,1.0232254857030707,11.068344116210938,1.6117095947265625,4.8351287841796875,12.185414217506022
1785339804.234838,-0.0073242150247097015,-0.0234375037252903,1.02392578125,1.024220174676824,12.836456298828125,1.54876708984375,5.2013397216796875,13.936542781860581
1785339804.242805,-0.0214843712747097,-0.0170898474752903,1.021484375,1.0218532034812724,14.484405517578125,1.73187255859375,5.5675506591796875,15.613936278190387
1785339804.253505,-0.00439453125,-0.03857421875,1.00390625,1.0046566781971553,15.890121459960938,1.6117095947265625,6.1779022216796875,17.124837041288295
1785339804.264205,-0.01220703125,-0.041015625,1.0087890625,1.0096963235179715,16.925811767578125,1.54876708984375,6.2999725341796875,18.12653958761814
1785339804.274905,-0.0029296875,-0.0322265625,1.01220703125,1.0127241522306816,17.963409423828125,2.03704833984375,6.1779022216796875,19.10497631319055
1785339804.282887,-0.011230465024709702,-0.0327148474752903,1.00830078125,1.008893874527625,19.430160522460938,2.4051666259765625,6.2351226806640625,20.54732876240224
1785339804.290869,-0.011230465024709702,-0.0400390587747097,1.03369140625,1.0345275119238435,20.650863647460938,2.0999908447265625,6.5441131591796875,21.76450201530253
1785339804.298851,-0.0058593712747097015,-0.0385742150247097,1.0380859375,1.038818904300341,22.420883178710938,2.1610260009765625,6.6661834716796875,23.490509529773835
1785339804.306833,-0.015624996274709702,-0.0488281212747097,1.044921875,1.046178785289263,23.885726928710938,2.0389556884765625,7.1544647216796875,25.017427059277637
1785339804.317502,-0.0009765587747097015,-0.0527343787252903,1.0341796875,1.035523777807241,25.472640991210938,2.4662017822265625,7.4596405029296875,26.656778251145173
1785339804.328171,-0.00341796875,-0.03466796875,1.04638671875,1.0469664348698189,26.693344116210938,2.1610260009765625,8.008956909179688,27.952603532702405
1785339804.33884,-0.010253898799419403,-0.0419921875,1.06787109375,1.068745600748113,28.158187866210938,2.5272369384765625,8.436203002929688,29.503220020171852
1785339804.349522,-0.014648430049419403,-0.01171875,1.06494140625,1.0651066164240097,32.36961364746094,2.3441314697265625,10.267257690429688,34.039732967738445
1785339804.360207,-0.0214843712747097,-0.0185546912252903,1.0283203125,1.028712068499069,33.89549255371094,2.4051666259765625,11.854171752929688,35.98903485654125
1785339804.370892,-0.04296875,-0.009765625,1.0390625,1.0399964229815664,34.626007080078125,2.70843505859375,13.380050659179688,37.219910564353256
1785339804.378868,-0.0385742112994194,-0.001953125,1.0458984375,1.0466113538652155,36.15379333496094,2.8324127197265625,14.966964721679688,39.23173928469064
1785339804.386844,-0.0297851525247097,0.0058593712747097015,1.0361328125,1.0365773934838707,37.738800048828125,3.07464599609375,17.469406127929688,41.699527906071935
1785339804.39482,-0.0175781212747097,0.0161132775247097,1.0224609375,1.0227389680527068,38.77830505371094,2.9544830322265625,19.662857055664062,43.578823531823986
1785339804.402796,-0.0185546875,0.021484375,1.01318359375,1.013581200221042,39.32762145996094,2.5882720947265625,21.005630493164062,44.66091663355852
1785339804.413476,-0.011718746274709702,0.009277347475290298,1.00146484375,1.0015763732525045,39.81590270996094,2.4051666259765625,21.619796752929688,45.37076753533904
1785339804.424156,-0.0395507737994194,0.05224609375,1.029296875,1.0313806159246122,40.241241455078125,2.52532958984375,22.470474243164062,46.15904045900368
1785339804.434836,-0.0351562425494194,0.04736328125,1.0283203125,1.0300106343630913,41.645050048828125,3.37982177734375,23.141860961914062,47.76273775231659
1785339804.445522,-0.0268554650247097,0.0610351525247097,1.0439453125,1.0460728088121451,45.37010192871094,4.4193267822265625,25.526046752929688,52.245149641497605
1785339804.456208,-0.0224609337747097,0.06640625,1.03955078125,1.0419117574836074,48.053741455078125,4.35638427734375,26.624679565429688,55.109107357724376
1785339804.466894,-0.02880859375,0.0732421800494194,1.03759765625,1.0405783239467066,50.495147705078125,4.116058349609375,27.479171752929688,57.63511740529427
1785339804.477563,-0.0380859375,0.0820312425494194,0.9995116591453552,1.0035951475355769,52.51121520996094,3.7479400634765625,28.760910034179688,59.98887166417138
1785339804.488234,-0.0439453050494194,0.095703125,1.0146484375,1.020098882310849,54.157257080078125,4.47845458984375,29.798507690429688,61.97593170358605
1785339804.498905,-0.07470703125,0.1103515625,1.02392578125,1.0325611911033663,56.11228942871094,5.2127838134765625,31.690597534179688,64.65335344814547
1785339804.506909,-0.10546875,0.1279296875,0.9990233778953552,1.012688190783252,60.26268005371094,7.3490142822265625,37.85133361816406,71.54244946079116
1785339804.514916,-0.1157226487994194,0.14453125,0.9580077528953552,0.9757355524317664,61.42234802246094,9.057998657226562,41.45240783691406,74.65289205211332
1785339804.522923,-0.1249999925494194,0.1650390625,0.9531249403953552,0.9753512404728274,61.72752380371094,10.095596313476562,45.72486877441406,77.4788479799472
1785339804.53093,-0.14990234375,0.18505859375,0.9545897841453552,0.9838491001048619,62.03269958496094,10.828018188476562,51.27906799316406,81.20864861537554
1785339804.541582,-0.1611328125,0.19970703125,0.9462890028953552,0.9804639506863749,61.36131286621094,11.926651000976562,57.01637268066406,84.60687013726778
1785339804.552234,-0.16259765625,0.212890625,0.9414061903953552,0.9787778253237961,60.993194580078125,12.53509521484375,63.67301940917969,89.05926003403714
1785339804.562886,-0.1748046725988388,0.2221679538488388,0.9082030653953552,0.9511824647633528,60.14060974121094,13.879776000976562,70.32203674316406,93.56671402581603
1785339804.570879,-0.205078125,0.24951171875,0.8955077528953552,0.9519702047032687,59.22508239746094,15.283584594726562,76.91764831542969,98.27269694796375
1785339804.578873,-0.189453125,0.25341796875,0.8896483778953552,0.94423905328549,57.51609802246094,16.016006469726562,84.36393737792969,103.35321922840575
1785339804.586867,-0.1982421725988388,0.28662109375,0.8754882216453552,0.9423010329076906,55.744171142578125,17.238616943359375,91.87126159667969,108.83432931689555
1785339804.594861,-0.20654296875,0.29248046875,0.8662108778953552,0.9372972354192266,52.99949645996094,17.541885375976562,99.80201721191406,114.355179188004
1785339804.60551,-0.1879882663488388,0.30078125,0.8525390028953552,0.9233805824762674,50.61912536621094,18.152236938476562,108.16383361816406,120.79409944897412
1785339804.616159,-0.18505859375,0.3125,0.8613280653953552,0.934766799452373,48.54393005371094,19.006729125976562,115.98014831542969,127.15802648829091
1785339804.626808,-0.1684570163488388,0.3076171875,0.8496093153953552,0.9191529193823665,46.16355895996094,20.410537719726562,123.36158752441406,133.2882046634354
1785339804.637485,-0.12255859375,0.33544921875,0.8559569716453552,0.9274745951077314,42.133331298828125,22.23968505859375,136.4269256591797,144.50649550334265
1785339804.648164,-0.1064452975988388,0.3203125,0.8608397841453552,0.9246490323385285,40.73143005371094,23.767471313476562,142.2863006591797,149.89774328565375
1785339804.658843,-0.09423828125,0.33447265625,0.8540038466453552,0.9219953261904033,39.020538330078125,25.417327880859375,147.1080780029297,154.30304462935348
1785339804.669509,-0.0576171875,0.3427734375,0.8525390028953552,0.9206715599000455,37.13035583496094,26.819229125976562,151.07154846191406,157.86243102785062
1785339804.680174,-0.0439453050494194,0.34228515625,0.845703125,0.9134024817459929,34.20066833496094,28.284072875976562,153.8829803466797,160.1550690218332
1785339804.690839,-0.010253898799419403,0.3525390625,0.865234375,0.9343551020413,31.576156616210938,28.650283813476562,155.5309295654297,161.26922360057077
1785339804.701496,0.03955078125,0.3427734375,0.8720702528953552,0.9378509581687383,26.998519897460938,28.467178344726562,157.5450897216797,162.35687732577318
1785339804.712153,0.0532226525247097,0.3603515625,0.8681640028953552,0.9414853345970099,24.923324584960938,29.138565063476562,157.6671600341797,162.26263105092744
1785339804.72281,0.0502929724752903,0.3603515625,0.8686522841453552,0.9417746133908763,22.480010986328125,29.80804443359375,156.3854217529297,160.7801932569501
1785339804.730821,0.06591796875,0.35546875,0.8715819716453552,0.9435880161001905,20.650863647460938,30.725479125976562,155.46607971191406,159.81306322669013
1785339804.738831,0.09375,0.34423828125,0.8671874403953552,0.9377116366759036,17.72308349609375,30.72357177734375,153.9440155029297,157.97723082942477
1785339804.746841,0.09765625,0.34521484375,0.8603515625,0.9321560183818967,14.972686767578125,30.60150146484375,151.6857147216797,155.464430953095
1785339804.754851,0.13818359375,0.34814453125,0.8564452528953552,0.9347715183016309,12.289047241210938,30.115127563476562,148.8780975341797,152.38972903597505
1785339804.762861,0.134765625,0.34765625,0.8486327528953552,0.9269326788566968,9.664535522460938,29.260635375976562,145.0328826904297,148.2704457771902
1785339804.770871,0.166015625,0.349609375,0.8408203125,0.9256169298066176,6.8569183349609375,28.223037719726562,141.3707733154297,144.32343099782528
1785339804.778881,0.1689453125,0.35498046875,0.8398436903953552,0.9273031198624222,3.986358642578125,27.00042724609375,137.2203826904297,139.90835411942646
1785339804.786891,0.18359375,0.35302734375,0.8579100966453552,0.9456979985176482,0.5092620849609375,25.598526000976562,132.2765350341797,134.7316800234541
1785339804.797544,0.17138671875,0.34423828125,0.8632811903953552,0.9450543980810138,-2.2983551025390625,23.950576782226562,127.45094299316406,129.70217975895955
1785339804.808197,0.19970703125,0.3388671875,0.8627929091453552,0.9482222699168976,-4.680633544921875,23.21624755859375,122.26676940917969,124.53941296971524
1785339804.81885,0.21337890625,0.34130859375,0.8574218153953552,0.9472034012375142,-7.610321044921875,21.87347412109375,116.52946472167969,118.80859398567988
1785339804.829534,0.23388671875,0.33154296875,0.8920897841453552,0.9800244488336561,-12.918472290039062,19.983291625976562,104.32243347167969,107.00181772273949
1785339804.840218,0.21875,0.31103515625,0.9023436903953552,0.9791928137602781,-14.749526977539062,19.250869750976562,98.09684753417969,101.0501658997862
1785339804.850902,0.2265625,0.32763671875,0.8872069716453552,0.9725289694480256,-16.397476196289062,18.152236938476562,91.87126159667969,95.0721286121438
1785339804.861538,0.2373046875,0.31298828125,0.8876952528953552,0.9707100704753456,-18.16558837890625,17.11273193359375,85.34049987792969,88.91476319935745
1785339804.872174,0.228515625,0.310546875,0.9204100966453552,0.9979045537766217,-19.632339477539062,16.077041625976562,79.05387878417969,83.02659677253125
1785339804.88281,0.21875,0.3017578125,0.9287108778953552,1.000706367835214,-20.364761352539062,15.222549438476562,72.94654846191406,77.25055630129215
1785339804.893483,0.2158203125,0.2900390625,0.9316405653953552,0.9993273778665597,-21.158218383789062,13.635635375976562,61.23161315917969,66.2035588723002
1785339804.904156,0.1923828125,0.28515625,0.9487304091453552,1.0091653098955522,-21.099090576171875,12.59613037109375,55.92155456542969,61.08235742406661
1785339804.914829,0.18310546875,0.2734375,0.9467772841453552,1.0023387176329477,-21.463394165039062,11.560440063476562,51.89323425292969,57.33435989678878
1785339804.922844,0.177734375,0.2705078125,0.9570311903953552,1.0102834671861787,-21.158218383789062,9.973526000976562,47.92594909667969,53.32952299510842
1785339804.930858,0.1650390625,0.2705078125,0.9736327528953552,1.023900926010423,-20.732879638671875,8.75091552734375,43.95866394042969,49.384156934243535
1785339804.938872,0.14892578125,0.263671875,0.9814452528953552,1.0271010322347875,-20.303726196289062,8.081436157226562,40.72380065917969,46.21665119787248
1785339804.946886,0.1552734375,0.26806640625,0.9897460341453552,1.0370952948785928,-19.510269165039062,7.8372955322265625,38.28239440917969,43.67625814846923
1785339804.954922,0.13916015625,0.255859375,0.9892577528953552,1.0312421978015072,-18.228530883789062,6.3114166259765625,36.14616394042969,40.97143499581537
1785339804.962958,0.134765625,0.2421874850988388,0.9985350966453552,1.0362861047281728,-17.190933227539062,4.7855377197265625,34.13200378417969,38.51523385394263
1785339804.970994,0.140625,0.2431640475988388,1.00390625,1.0424643415765897,-15.787124633789062,4.1141510009765625,31.934738159179688,35.8606615103095
1785339804.97903,0.13037109375,0.23974609375,1.01025390625,1.0464644125087765,-14.507293701171875,3.56292724609375,30.103683471679688,33.60636516578517
1785339804.989743,0.13525390625,0.2490234225988388,1.00634765625,1.0454864367358343,-12.737274169921875,3.07464599609375,28.455734252929688,31.327630187334794
1785339805.000456,0.12890625,0.2421875,0.9965819716453552,1.0336572123551677,-10.965347290039062,2.8324127197265625,26.807785034179688,29.101868349726693
1785339805.011169,0.1298828125,0.2382812350988388,1.00341796875,1.039468668115357,-9.683609008789062,2.2830963134765625,24.911880493164062,26.825111405498376
1785339805.021734,0.12939453125,0.2392578125,0.9731444716453552,1.0104441638475676,-7.122039794921875,1.24359130859375,22.958755493164062,24.070197838367505
1785339805.032299,0.14111328125,0.25048828125,0.9853515028953552,1.0264379773989543,-6.8149566650390625,0.6351470947265625,21.680831909179688,22.73555626001713
1785339805.042864,0.15087890625,0.2460937350988388,0.9775390028953552,1.019268891405864,-5.9604644775390625,-0.2193450927734375,19.971847534179688,20.843462835772947
1785339805.050859,0.1650390625,0.2460937350988388,0.9638671278953552,1.0083847771773518,-5.7163238525390625,-0.6465911865234375,18.686294555664062,19.551778506586995
1785339805.058853,0.15869140625,0.25244140625,0.9589843153953552,1.0042711502285517,-5.1059722900390625,-0.9517669677734375,16.675949096679688,17.466084039149802
1785339805.066847,0.173828125,0.2509765625,0.9633788466453552,1.0105959895670806,-4.9839019775390625,-1.3179779052734375,14.291763305664062,15.193118279853959
1785339805.074841,0.18994140625,0.25537109375,0.9462890028953552,0.9983761867813076,-5.046844482421875,-1.01470947265625,11.365890502929688,12.47732909994113
1785339805.085542,0.19921875,0.25537109375,0.9409179091453552,0.9951025161384633,-4.863739013671875,-1.01470947265625,9.042739868164062,10.317787399936869
1785339805.096243,0.19189453125,0.25537109375,0.9467772841453552,0.9992122559398394,-4.7397613525390625,-1.0128021240234375,6.6661834716796875,8.241911665356815
1785339805.106944,0.20166015625,0.2421874850988388,0.9453124403953552,0.9964623457629981,-4.5566558837890625,-0.8296966552734375,3.4885406494140625,5.79839850697205
1785339805.117574,0.2119140625,0.251953125,0.9477538466453552,1.0033071817312915,-4.9228668212890625,0.0247955322265625,-1.3904571533203125,5.115525745589275
1785339805.128204,0.1943359375,0.2485351413488388,0.9497069716453552,1.0007394791258526,-4.6787261962890625,0.3299713134765625,-3.7097930908203125,5.980127478930286
1785339805.138834,0.197265625,0.248046875,0.9453124403953552,0.997023865797669,-4.6787261962890625,0.8182525634765625,-5.8498382568359375,7.535291879457544
1785339805.146843,0.20068359375,0.2456054538488388,0.9624022841453552,1.0133183607775527,-4.0073394775390625,1.6727447509765625,-7.2498321533203125,8.450852675409726
1785339805.154854,0.1787109375,0.2456054538488388,0.9541015028953552,1.0012838338700962,-3.5190582275390625,2.4662017822265625,-9.202957153320312,10.156787996473952
1785339805.162865,0.17919921875,0.2475585788488388,0.9443358778953552,0.9925562252299153,-3.2749176025390625,3.5648345947265625,-10.610580444335938,11.66265614501704
1785339805.170876,0.17333984375,0.248046875,0.9497069716453552,0.9967533725151532,-3.0307769775390625,4.7855377197265625,-12.010574340820312,13.27934020766385
1785339805.181565,0.16015625,0.2382812350988388,0.9462890028953552,0.9888836374493088,-3.0918121337890625,5.5179595947265625,-13.170242309570312,14.610354644993262
1785339805.192254,0.1474609375,0.2451171875,0.9604491591453552,1.0021425801747519,-3.0918121337890625,6.1893463134765625,-14.268875122070312,15.857745971859565
1785339805.202943,0.1259765625,0.2465820163488388,0.9443358778953552,0.9840950337067893,-3.0918121337890625,7.2269439697265625,-15.245437622070312,17.152591340688126
1785339805.213574,0.10009765625,0.2260742038488388,0.9560546278953552,0.9875067280544247,-4.863739013671875,8.99505615234375,-16.466140747070312,19.383002437167992
1785339805.224206,0.10009765625,0.23828125,0.9570311903953552,0.9913153858777015,-5.168914794921875,9.23919677734375,-16.405105590820312,19.52454677306506
1785339805.234838,0.0732421875,0.234375,0.9531249403953552,0.9842475352564692,-5.1670074462890625,9.973526000976562,-16.042709350585938,19.584118824944348
1785339805.245511,0.06591796875,0.2275390475988388,0.9511718153953552,0.9802280444818993,-5.7163238525390625,9.668350219726562,-15.188217163085938,18.890084567080475
1785339805.256183,0.0512695349752903,0.2412109225988388,0.9624022841453552,0.9934935485073683,-5.657196044921875,9.42230224609375,-14.394760131835938,18.11057055866867
1785339805.266855,0.0380859412252903,0.2255859375,0.9780272841453552,1.0044286548329402,-5.779266357421875,8.75091552734375,-13.353347778320312,16.979114790986788
1785339805.274854,0.0332031287252903,0.2363281100988388,0.9833983778953552,1.011941595660171,-4.619598388671875,7.59124755859375,-10.179519653320312,13.512599644065899
1785339805.282854,0.0273437537252903,0.2133788913488388,0.9858397841453552,1.0090383105436629,-3.7631988525390625,7.5321197509765625,-8.840560913085938,12.208603966252054
1785339805.290854,0.0244140625,0.2060546875,0.9790038466453552,1.0007512740111195,-3.2749176025390625,7.4710845947265625,-7.3108673095703125,10.95403903330295
1785339805.298854,0.01708984375,0.2197265625,0.9594725966453552,0.9844589827620277,-3.215789794921875,7.28607177734375,-6.1511993408203125,10.06307106604326
1785339805.309528,0.01611328125,0.224609375,0.9677733778953552,0.9936268515562159,-4.2514801025390625,7.4100494384765625,-4.9304962158203125,9.86375733061042
1785339805.320202,0.007812503725290298,0.2270507663488388,0.9755858778953552,1.001689019038795,-4.4345855712890625,7.1659088134765625,-3.4656524658203125,9.111890326710075
1785339805.330876,0.0146484375,0.21484375,1.005859375,1.028652271620806,-4.3735504150390625,6.7386627197265625,-2.2487640380859375,8.342329301946162
1785339805.341537,0.03173828125,0.21923828125,1.0126953125,1.0366409882025844,-3.7021636962890625,6.2503814697265625,-1.5125274658203125,7.420311576078372
1785339805.352199,0.03857421875,0.22900390625,0.9809569716453552,1.0080710985092063,-2.4814605712890625,5.4569244384765625,-0.4787445068359375,6.013723239136515
1785339805.362861,0.0576171912252903,0.2138671725988388,0.9877929091453552,1.0123209666889041,-1.873016357421875,4.17327880859375,-0.7839202880859375,4.64101037571565
1785339805.370855,0.0810546875,0.2128906100988388,0.9672850966453552,0.9937468150521,-1.5048980712890625,2.2220611572265625,-2.0008087158203125,3.347463145238065
1785339805.37885,0.0859375,0.2124023288488388,0.9628905653953552,0.9897768658309039,-1.62506103515625,0.87738037109375,-3.6487579345703125,4.08950536723618
1785339805.386845,0.08349609375,0.21484375,0.9638671278953552,0.9910445372549169,-1.8711090087890625,0.3299713134765625,-5.4187774658203125,5.742219014855759
1785339805.39484,0.0908203125,0.22412109375,0.9653319716453552,0.9951604942455277,-1.8711090087890625,-0.2803802490234375,-6.7043304443359375,6.966183224238632
1785339805.4055,0.087890625,0.20849609375,0.9824218153953552,1.0081408663657103,-1.6269683837890625,-0.4024505615234375,-8.287429809570312,8.45520463530448
1785339805.41616,0.07958984375,0.21435546875,0.9873046278953552,1.0134363514670113,-0.8335113525390625,-0.3414154052734375,-9.634017944335938,9.676032627350756
1785339805.42682,0.07470703125,0.22802734375,0.9799804091453552,1.0089297360691512,0.0209808349609375,-0.2193450927734375,-9.935379028320312,9.937822140768395
1785339805.437557,0.06640625,0.2255859375,0.9726561903953552,1.0006792043163593,0.3261566162109375,-0.4634857177734375,-9.935379028320312,9.951530213251889
1785339805.448293,0.046875,0.22998046875,0.9770507216453552,1.0048464530957848,0.8144378662109375,-0.6465911865234375,-9.935379028320312,9.989651927709748
1785339805.459029,0.0366210974752903,0.2231445163488388,0.9731444716453552,0.9990719406783325,1.3027191162109375,-0.4634857177734375,-10.122299194335938,10.216302515390552
1785339805.467033,0.0327148474752903,0.2270507663488388,0.9531249403953552,0.980341503634614,1.178741455078125,1.857757568359375,-8.714675903320312,8.988118306999967
1785339805.475038,0.0185546912252903,0.2426757663488388,0.9619140028953552,0.9922269665281364,1.3027191162109375,2.8934478759765625,-7.6808929443359375,8.310549568415093
1785339805.483043,0.01806640625,0.2294921875,0.9643554091453552,0.9914506615592279,1.117706298828125,3.50189208984375,-5.7277679443359375,6.805868144734559
1785339805.491048,0.0034179724752902985,0.220703125,0.9716796278953552,0.9964350712351826,1.2416839599609375,3.9310455322265625,-3.9539337158203125,5.71213531544582
1785339805.501631,0.03466796875,0.23486328125,0.9682616591453552,0.9969419589462988,1.4858245849609375,4.3582916259765625,-2.4318695068359375,5.2073380812666885
1785339805.512214,0.0278320349752903,0.2431640475988388,0.9541015028953552,0.9849939360436143,1.7910003662109375,4.8465728759765625,-1.5125274658203125,5.38374314847767
1785339805.522797,0.03466796875,0.24462890625,0.9477538466453552,0.9794296930670368,1.8520355224609375,5.5789947509765625,-0.2307891845703125,5.882897386118155
1785339805.530808,0.0312500037252903,0.2314452975988388,0.9526366591453552,0.9808466204565673,1.5468597412109375,5.7621002197265625,0.7457733154296875,6.012549529039994
1785339805.538819,0.0190429724752903,0.2431640475988388,0.9448241591453552,0.9757992009374021,1.0585784912109375,5.2127838134765625,0.9860992431640625,5.409814712674216
1785339805.54683,0.0458984412252903,0.2421874850988388,0.9477538466453552,0.9792848404200277,0.9365081787109375,4.4193267822265625,1.2340545654296875,4.6829891572963644
1785339805.554841,0.03857421875,0.24267578125,0.9511718153953552,0.9823987619902452,0.385284423828125,4.299163818359375,1.1692047119140625,4.47194513413313
1785339805.565516,0.0507812537252903,0.2456054538488388,0.9472655653953552,0.9799044984456334,0.2040863037109375,3.4427642822265625,0.9288787841796875,3.5717072833641486
1785339805.576191,0.0356445349752903,0.25146484375,0.9516600966453552,0.9849680401225531,-0.7114410400390625,2.9544830322265625,0.5626678466796875,3.090584644829143
1785339805.586866,0.0390624962747097,0.25048828125,0.9599608778953552,0.9928721693896007,-1.1386871337890625,2.4662017822265625,-0.0476837158203125,2.716805726596706
1785339805.594886,0.0429687537252903,0.25048828125,0.9599608778953552,0.9930335240715213,-1.262664794921875,1.60980224609375,0.0095367431640625,2.045941496068194
1785339805.602909,0.03466796875,0.2490234375,0.9589843153953552,0.9913957119414354,-1.44195556640625,1.36566162109375,-0.1087188720703125,1.9889915313954003
1785339805.610932,0.0332031287252903,0.2485351413488388,0.9604491591453552,0.9926402931301224,-1.934051513671875,0.38909912109375,0.2574920654296875,1.9895365157070242
1785339805.618955,0.0424804724752903,0.2509765625,0.9643554091453552,0.9973841690211178,-1.9931793212890625,0.1468658447265625,0.4978179931640625,2.0596495181169705
1785339805.629615,0.0473632849752903,0.25048828125,0.9565429091453552,0.9899302989824531,-2.2983551025390625,-0.2803802490234375,0.2574920654296875,2.3296676641034093
1785339805.640275,0.04443359375,0.2490234375,0.9672850966453552,0.999813720084932,-2.239227294921875,-0.70953369140625,0.1354217529296875,2.3528527341782923
1785339805.650935,0.037109375,0.24462890625,0.9589843153953552,0.9903894812952427,-2.8476715087890625,-1.1959075927734375,0.1354217529296875,3.091563850802484
1785339805.661553,0.0400390625,0.2451171875,0.9643554091453552,0.9958247422522171,-3.0918121337890625,-1.2569427490234375,0.7457733154296875,3.4198516317195486
1785339805.672172,0.0439453087747097,0.2509765625,0.9492186903953552,0.9828207096329901,-3.215789794921875,-2.05230712890625,0.4978179931640625,3.847218646087194
1785339805.682791,0.0458984412252903,0.2456054538488388,0.9638671278953552,0.995725135820346,-3.4580230712890625,-2.3555755615234375,0.2574920654296875,4.192011683115059
1785339805.690814,0.0361328162252903,0.2407226413488388,0.9604491591453552,0.9908156023041584,-3.6411285400390625,-2.5997161865234375,0.0095367431640625,4.4739727586373546
1785339805.698837,0.05908203125,0.23486328125,0.9643554091453552,0.9943001571175819,-3.0918121337890625,-3.0879974365234375,0.3185272216796875,4.381379922989055
1785339805.70686,0.0517578125,0.22998046875,0.9692382216453552,0.9974931666229627,-2.7866363525390625,-3.9424896240234375,0.1354217529296875,4.8297935409281445
1785339805.714883,0.06591796875,0.2416992038488388,0.9760741591453552,1.0077124827531911,-2.1762847900390625,-4.1255950927734375,0.5626678466796875,4.698227906621686
1785339805.725538,0.07763671875,0.23046875,0.9760741591453552,1.005914543575219,-1.934051513671875,-4.31060791015625,0.6809234619140625,4.773421474542462
1785339805.736193,0.07080078125,0.22900390625,0.9721679091453552,1.0012821696581942,-1.3828277587890625,-4.5528411865234375,0.3185272216796875,4.768860982575682
1785339805.746848,0.0581054650247097,0.2407226413488388,0.9692382216453552,1.0003731131042808,-0.8945465087890625,-4.4307708740234375,-0.2307891845703125,4.526058731633489
1785339805.757504,0.06396484375,0.24462890625,0.9443358778953552,0.9776016843732546,-0.8945465087890625,-4.0645599365234375,-0.5970001220703125,4.204434573129909
1785339805.768161,0.0791015625,0.2407226413488388,0.9584960341453552,0.991422762861675,-0.713348388671875,-4.18853759765625,-1.1463165283203125,4.400767514161715
1785339805.778818,0.08837890625,0.255859375,0.9653319716453552,1.0025670383201544,-0.4673004150390625,-4.0645599365234375,-0.6580352783203125,4.14391452409448
1785339805.78686,0.07666015625,0.2377929538488388,0.9770507216453552,1.008489157663155,0.0209808349609375,-4.5528411865234375,-0.9670257568359375,4.654453982963407
1785339805.7949,0.09716796875,0.25146484375,0.9790038466453552,1.0154431119169676,0.1430511474609375,-4.4918060302734375,-1.5125274658203125,4.741784935997364
1785339805.80294,0.08984375,0.23876953125,0.9609374403953552,0.994225101685219,0.1430511474609375,-4.9190521240234375,-2.1266937255859375,5.361003976131334
1785339805.81098,0.07177734375,0.2368163913488388,0.9750975966453552,1.0060066169120558,0.7534027099609375,-5.0411224365234375,-2.9773712158203125,5.902988261905304
1785339805.821601,0.09765625,0.244140625,0.9814452528953552,1.0160591382248776,0.8144378662109375,-4.4918060302734375,-3.4656524658203125,5.731524881335285
1785339805.832222,0.08056640625,0.24365234375,0.9682616591453552,1.0016925930652698,1.361846923828125,-5.039215087890625,-4.0798187255859375,6.625197097415767
1785339805.842843,0.07666015625,0.2490234375,0.9746093153953552,1.008837335568026,1.9130706787109375,-5.2242279052734375,-4.6253204345703125,7.235052574130676
1785339805.853514,0.08837890625,0.2456054538488388,0.9589843153953552,0.9938731242993436,1.6078948974609375,-5.9566497802734375,-5.6018829345703125,8.333552364912734
1785339805.864186,0.08154296875,0.23974609375,0.9599608778953552,0.9928002479404245,1.361846923828125,-6.14166259765625,-5.4798126220703125,8.342840815956574
1785339805.874858,0.08740234375,0.244140625,0.9628905653953552,0.997197099572482,1.4247894287109375,-6.2618255615234375,-6.0329437255859375,8.811180072793967
1785339805.882863,0.0693359375,0.22998046875,0.9438475966453552,0.9739336599218074,1.422882080078125,-6.32476806640625,-6.2732696533203125,9.021152734041769
1785339805.890867,0.08642578125,0.2470702975988388,0.9633788466453552,0.9983045375956109,1.544952392578125,-6.32476806640625,-6.6394805908203125,9.299046806261638
1785339805.898871,0.08154296875,0.244140625,0.9697265028953552,1.0033062298947464,1.6078948974609375,-6.2618255615234375,-6.7615509033203125,9.354910795000718
1785339805.906875,0.07763671875,0.2490234375,0.9716796278953552,1.006082219199524,1.9741058349609375,-6.2007904052734375,-6.6394805908203125,9.296752014205692
1785339805.917749,0.0810546875,0.2490234375,0.9477538466453552,0.9832699978241514,1.9130706787109375,-5.7735443115234375,-6.6394805908203125,9.004240992707148
1785339805.928623,0.08203125,0.24853515625,0.9604491591453552,0.9954704602205905,2.2182464599609375,-5.5904388427734375,-6.6394805908203125,8.958589527810664
1785339805.939497,0.07470703125,0.24658203125,0.9526366591453552,0.9868639435105471,2.4623870849609375,-6.0176849365234375,-5.9680938720703125,8.82575926576783
1785339805.949965,0.07421875,0.2456054538488388,0.9389647841453552,0.973388580001322,2.5234222412109375,-5.5294036865234375,-5.8498382568359375,8.435791164266593
1785339805.960436,0.08251953125,0.255859375,0.9423827528953552,0.9799789516962792,2.338409423828125,-5.59234619140625,-5.4798126220703125,8.17134266390691
1785339805.970907,0.0703125,0.2431640625,0.9560546278953552,0.9889959860726837,1.79290771484375,-5.34820556640625,-5.3615570068359375,7.7822949309337135
1785339805.978896,0.08642578125,0.251953125,0.9575194716453552,0.9938779258248664,1.9130706787109375,-5.2242279052734375,-4.5680999755859375,7.198606393943862
1785339805.986887,0.08056640625,0.24951171875,0.9516600966453552,0.9871190319088504,1.9741058349609375,-4.3697357177734375,-4.5032501220703125,6.578065502314343
1785339805.994878,0.0830078125,0.2587890625,0.9467772841453552,0.9850123357498214,1.7299652099609375,-3.3931732177734375,-4.1980743408203125,5.6683535779398975
1785339806.002869,0.08154296875,0.2587890625,0.9565429091453552,0.9942813342603046,1.7299652099609375,-2.2945404052734375,-4.0149688720703125,4.937374843254372
1785339806.013542,0.08349609375,0.2373046875,0.9624022841453552,0.9947377890224028,1.850128173828125,-1.38092041015625,-3.1032562255859375,3.867830740921399
1785339806.024215,0.07373046875,0.2421875,0.9624022841453552,0.995142765489727,2.1572113037109375,-0.5245208740234375,-2.0618438720703125,3.0298321585425243
1785339806.034888,0.0732421875,0.2490234375,0.9589843153953552,0.9934928321977968,2.2792816162109375,0.7572174072265625,-1.5125274658203125,2.838352025853185
1785339806.042879,0.06982421875,0.2392578125,0.9492186903953552,0.9813948464110692,2.033233642578125,2.58636474609375,0.6237030029296875,3.3484813096404777
1785339806.050871,0.06982421875,0.25146484375,0.9511718153953552,0.9863254085588363,1.9741058349609375,3.1986236572265625,1.6574859619140625,4.1079857426892845
1785339806.058863,0.0615234412252903,0.2309570163488388,0.9238280653953552,0.9542455510156095,1.178741455078125,4.05120849609375,2.3288726806640625,4.819270656384147
1785339806.066855,0.0502929724752903,0.2465820163488388,0.9204100966453552,0.9541943302460832,0.385284423828125,4.970550537109375,3.3702850341796875,6.01777682710305
1785339806.077521,0.0458984375,0.25732421875,0.9443358778953552,0.9798431866378571,-0.774383544921875,5.82122802734375,5.0182342529296875,7.7245738159625965
1785339806.088187,0.05908203125,0.25341796875,0.9604491591453552,0.9950748417104223,-1.079559326171875,6.67572021484375,6.4830780029296875,9.368083534942937
1785339806.098853,0.06591796875,0.259765625,0.9838866591453552,1.0197334536926672,-0.774383544921875,6.923675537109375,7.5778961181640625,10.293758419328604
1785339806.106881,0.0869140625,0.240234375,0.9838866591453552,1.0165134368202433,-0.1010894775390625,7.5321197509765625,8.371353149414062,11.26155409247432
1785339806.11491,0.091796875,0.2373046725988388,0.9599608778953552,0.9931087860786596,0.3261566162109375,6.9828033447265625,7.7648162841796875,10.447884600075016
1785339806.122939,0.1015625,0.2509765625,0.9414061903953552,0.9795661241821617,0.6313323974609375,7.0438385009765625,6.9713592529296875,9.930462791699684
1785339806.141604,0.1025390625,0.22900390625,0.9365233778953552,0.9695530340113758,0.0209808349609375,6.0062408447265625,4.5299530029296875,7.523020901808595
1785339806.152239,0.10107421875,0.2441406100988388,0.9428710341453552,0.979196825069244,-0.2841949462890625,5.5789947509765625,2.8820037841796875,6.285848790016057
1785339806.162874,0.1142578125,0.24169921875,0.9409179091453552,0.9781614753260898,-0.896453857421875,5.63812255859375,1.9054412841796875,6.018534870852426
1785339806.170873,0.11376953125,0.2578125,0.9370116591453552,0.9784690290302632,-1.44195556640625,5.63812255859375,0.6809234619140625,5.859293353485447
1785339806.178875,0.109375,0.2548828125,0.9541015028953552,0.9935984181549836,-2.3593902587890625,5.7010650634765625,-0.3528594970703125,6.180078889135191
1785339806.186877,0.09765625,0.25244140625,0.9545897841453552,0.992222284948396,-2.727508544921875,6.30950927734375,-1.4553070068359375,7.026174540079008
1785339806.194879,0.07568359375,0.24853515625,0.9702147841453552,1.0043975595496761,-3.08990478515625,6.61468505859375,-2.5501251220703125,7.73335038285018
1785339806.205534,0.08935546875,0.244140625,0.9560546278953552,0.9907721716373795,-2.910614013671875,6.79779052734375,-2.7370452880859375,7.884988706349613
1785339806.216189,0.064453125,0.24853515625,0.9711913466453552,1.0045578933109311,-2.910614013671875,6.923675537109375,-3.2215118408203125,8.172337206717266
1785339806.226844,0.0561523474752903,0.2319335788488388,0.9565429091453552,0.9858603390748993,-3.398895263671875,6.49261474609375,-3.5915374755859375,8.161230096814041
1785339806.23763,0.03955078125,0.2470703125,0.9511718153953552,0.9835323207799674,-3.0918121337890625,7.3490142822265625,-2.9201507568359375,8.490853527983202
1785339806.248418,0.04443359375,0.2490234375,0.9565429091453552,0.9894247589959105,-2.910614013671875,7.411956787109375,-2.6721954345703125,8.399369368654902
1785339806.259206,0.02978515625,0.2548828125,0.9648436903953552,0.9983865736960184,-2.727508544921875,7.65228271484375,-1.2722015380859375,8.222848068888693
1785339806.267103,0.04150390625,0.23388671875,0.9658202528953552,0.9946026002100026,-2.1762847900390625,7.8372955322265625,0.0743865966796875,8.134184047129706
1785339806.275002,0.0205078162252903,0.2363281100988388,0.9687499403953552,0.9973705395514866,-1.6880035400390625,7.7152252197265625,1.2340545654296875,7.993556580943619
1785339806.282901,0.0283203162252903,0.2421874850988388,0.9555663466453552,0.9861865244925789,-1.3217926025390625,6.5555572509765625,2.6988983154296875,7.211554525342478
1785339806.2908,0.03466796875,0.240234375,0.9511718153953552,0.9816528130614139,-1.0776519775390625,6.3724517822265625,3.0651092529296875,7.152927389110806
1785339806.30148,0.0288085974752903,0.2475585788488388,0.9672850966453552,0.998877191371574,-1.1386871337890625,5.5789947509765625,3.3702850341796875,6.616691925100969
1785339806.31216,0.04150390625,0.23486328125,0.9677733778953552,0.9967289732301913,-1.079559326171875,4.17327880859375,3.4885406494140625,5.545414341200901
1785339806.32284,0.0415039099752903,0.2373046725988388,0.9497069716453552,0.9797853918957307,-0.9555816650390625,3.4427642822265625,3.3702850341796875,4.911678270525196
1785339806.333496,0.0556640625,0.23486328125,0.9741210341453552,1.0035791139207395,-0.774383544921875,2.346038818359375,2.6988983154296875,3.6589096912774477
1785339806.34415,0.0522460974752903,0.2412109225988388,0.9736327528953552,1.0044267526270736,-0.5283355712890625,1.8558502197265625,2.3288726806640625,3.024395224948599
1785339806.354804,0.0498046875,0.248046875,0.9628905653953552,0.9955732017393925,-0.0400543212890625,1.8558502197265625,1.7833709716796875,2.574139935850965
1785339806.362847,0.0527343787252903,0.2373046725988388,0.9682616591453552,0.9983111052711476,0.080108642578125,1.54876708984375,1.1692047119140625,1.9421988959838368
1785339806.37089,0.0419921912252903,0.2460937350988388,0.9658202528953552,0.9975641490559124,0.2651214599609375,0.8182525634765625,0.5626678466796875,1.0278237941665591
1785339806.378933,0.05029296875,0.22802734375,0.9692382216453552,0.9969696998914359,0.6313323974609375,0.2079010009765625,-0.0476837158203125,0.6663911456834223
1785339806.386976,0.044921875,0.24853515625,0.9624022841453552,0.9949903794881259,0.8144378662109375,0.1468658447265625,-0.4787445068359375,0.9560726526216806
1785339806.397648,0.0512695349752903,0.2548828125,0.9785155653953552,1.0124655673382104,0.6313323974609375,0.2689361572265625,-1.2722015380859375,1.44547708603623
1785339806.40832,0.0576171912252903,0.2314452975988388,0.9702147841453552,0.9991012931027189,1.1196136474609375,-0.4024505615234375,-1.3904571533203125,1.8299924232823865
1785339806.418992,0.05078125,0.23388671875,0.9589843153953552,0.988399033656702,1.0585784912109375,-0.3414154052734375,-1.7604827880859375,2.0824150758576656
1785339806.429606,0.0424804724752903,0.25244140625,0.9648436903953552,0.998225726490221,1.4858245849609375,-1.6841888427734375,-1.8177032470703125,2.8893272313476075
1785339806.44022,0.03857421875,0.23779296875,0.9750975966453552,1.004414650093605,1.1196136474609375,-2.2945404052734375,-1.7604827880859375,3.1012497542377995
1785339806.450834,0.05859375,0.23876953125,0.9736327528953552,1.0041936337694015,1.3027191162109375,-2.9659271240234375,-1.5735626220703125,3.6013747550534285
1785339806.461494,0.04541015625,0.23876953125,0.9501952528953552,0.9807874336311933,1.4247894287109375,-2.9659271240234375,-1.5735626220703125,3.6473069444127098
1785339806.472156,0.0546875,0.2499999850988388,0.9609374403953552,0.9944302286029154,1.850128173828125,-2.17437744140625,-1.1463165283203125,3.0765131399669525
1785339806.482818,0.0454101599752903,0.2416992038488388,0.9584960341453552,0.9895429425964888,1.6078948974609375,-2.0503997802734375,-1.2722015380859375,2.899648601767894
1785339806.490822,0.06591796875,0.240234375,0.9589843153953552,0.9908121167557776,2.2792816162109375,-1.5621185302734375,-1.3904571533203125,3.093333167287419
1785339806.498826,0.0571289099752903,0.2470702975988388,0.9545897841453552,0.9876988915176627,2.0961761474609375,-1.3790130615234375,-1.3904571533203125,2.8686238094696295
1785339806.50683,0.06591796875,0.24267578125,0.9516600966453552,0.9843239573212016,1.544952392578125,-1.19781494140625,-1.3294219970703125,2.364106887491204
1785339806.514834,0.0493164025247097,0.2460937350988388,0.9643554091453552,0.9964816050288043,1.544952392578125,-1.255035400390625,-1.3904571533203125,2.4280368297837156
1785339806.525505,0.0595703125,0.25439453125,0.9531249403953552,0.9882875855058103,1.4858245849609375,-1.1959075927734375,-1.2073516845703125,2.2573364299462035
1785339806.536176,0.0654296875,0.25048828125,0.9672850966453552,1.0013320534378898,1.4247894287109375,-1.3179779052734375,-1.6345977783203125,2.537518585517178
1785339806.546847,0.0625,0.25390625,0.9609374403953552,0.9958792086104817,1.2416839599609375,-1.0128021240234375,-1.3294219970703125,2.082044678950257
1785339806.554852,0.0537109375,0.2587890625,0.9746093153953552,1.0098118445196416,1.7299652099609375,-1.3179779052734375,-1.6345977783203125,2.7206167101144274
1785339806.562858,0.0498046875,0.2470703125,0.9785155653953552,1.0104538376080383,1.9741058349609375,-1.3179779052734375,-1.4553070068359375,2.7842553924813638
1785339806.570864,0.0449218787252903,0.2309570163488388,0.9809569716453552,1.0087793112512735,3.0727386474609375,-1.1348724365234375,-1.2722015380859375,3.513994165659491
1785339806.57887,0.044921875,0.259765625,0.9780272841453552,1.0129331287493246,3.986358642578125,-0.58746337890625,-1.0852813720703125,4.173008998956997
1785339806.589536,0.0576171875,0.25439453125,0.9536132216453552,0.9886427536386189,4.474639892578125,-0.40435791015625,-0.6580352783203125,4.540805866283164
1785339806.600202,0.06396484375,0.2587890625,0.9379882216453552,0.9751334185899931,4.535675048828125,-0.58746337890625,-0.8411407470703125,4.650266565101399
1785339806.610868,0.06787109375,0.2626953125,0.9643554091453552,1.0017967197611497,4.1103363037109375,-0.7076263427734375,-0.6580352783203125,4.2223938705555515
1785339806.61887,0.068359375,0.2509765625,0.9423827528953552,0.9776233896697313,3.7441253662109375,-1.3179779052734375,-0.5970001220703125,4.013969315085146
1785339806.626873,0.06396484375,0.26171875,0.9633788466453552,1.0003434447734734,3.6220550537109375,-1.0128021240234375,-1.4553070068359375,4.032737214186551
1785339806.634876,0.06787109375,0.26123046875,0.9633788466453552,1.0004732107027658,3.314971923828125,-0.766754150390625,-1.3904571533203125,3.6756389754884276
1785339806.642879,0.06787109375,0.25732421875,0.9702147841453552,1.0060511747899992,3.7441253662109375,-0.4024505615234375,-2.2487640380859375,4.386043879324886
1785339806.653528,0.0463867224752903,0.25634765625,0.9589843153953552,0.9937387816026735,3.6830902099609375,0.0247955322265625,-2.3670196533203125,4.378190305632352
1785339806.664177,0.0673828125,0.25146484375,0.9526366591453552,0.9875685370698308,3.7441253662109375,0.1468658447265625,-2.7370452880859375,4.640200560674599
1785339806.674826,0.05126953125,0.2587890625,0.9643554091453552,0.9997908275495075,3.314971923828125,0.026702880859375,-2.8553009033203125,4.375213725992905
1785339806.6855,0.0634765625,0.25390625,0.9682616591453552,1.0030096202663237,3.1337738037109375,-0.0362396240234375,-2.7942657470703125,4.198782279235813
1785339806.696172,0.0517578162252903,0.255859375,0.9497069716453552,0.9849295524592574,3.009796142578125,-0.40435791015625,-3.0384063720703125,4.295845833037025
1785339806.706844,0.06494140625,0.259765625,0.9374999403953552,0.9749880534748427,3.1948089599609375,-0.4634857177734375,-3.2215118408203125,4.56067559049886
1785339806.717493,0.06396484375,0.27001953125,0.9472655653953552,0.9870735027728247,2.7675628662109375,-0.2803802490234375,-3.8318634033203125,4.735102368922733
1785339806.728144,0.06494140625,0.267578125,0.9433593153953552,0.9827218513737427,2.4013519287109375,-0.5245208740234375,-4.1370391845703125,4.812141565610912
1785339806.738795,0.0498046875,0.25927734375,0.9531249403953552,0.9890158744341153,2.4013519287109375,-0.3414154052734375,-4.1370391845703125,4.795638516313752
1785339806.746835,0.0405273474752903,0.25048828125,0.9536132216453552,0.9867953290494414,2.1572113037109375,-0.0362396240234375,-4.1980743408203125,4.720032000978542
1785339806.754874,0.0410156287252903,0.271484375,0.9472655653953552,0.9862545812581321,2.0351409912109375,0.3299713134765625,-4.0149688720703125,4.513386197249028
1785339806.762913,0.0380859412252903,0.27001953125,0.9531249403953552,0.9913668534801511,2.0961761474609375,0.3299713134765625,-3.5915374755859375,4.171567684628865
1785339806.770952,0.0419921875,0.26904296875,0.9492186903953552,0.9875037139376853,2.0961761474609375,0.5130767822265625,-3.1604766845703125,3.8269851187791017
1785339806.781586,0.05029296875,0.251953125,0.9560546278953552,0.9899748539347251,1.9741058349609375,0.6961822509765625,-2.9773712158203125,3.6395745535703674
1785339806.79222,0.0400390625,0.25537109375,0.9487304091453552,0.9833142484913271,1.8520355224609375,0.5130767822265625,-2.4318695068359375,3.099560075106722
1785339806.802854,0.03173828125,0.25341796875,0.9501952528953552,0.9839202223793087,1.8520355224609375,0.8182525634765625,-2.0008087158203125,2.8465432284431675
1785339806.813502,0.0332031287252903,0.27001953125,0.9331054091453552,0.9719561201977889,-0.1621246337890625,1.6727447509765625,-1.5735626220703125,2.3022725130569746
1785339806.824153,0.0307617224752903,0.27001953125,0.9526366591453552,0.9906429403037909,-1.3828277587890625,1.4896392822265625,-0.4787445068359375,2.0881652483593425
1785339806.834804,0.03466796875,0.271484375,0.9663085341453552,1.004319579162199,-1.8100738525390625,2.0389556884765625,-0.0476837158203125,2.7268995925722987
1785339806.842823,0.0380859412252903,0.283203125,0.9731444716453552,1.014231093796034,-1.8711090087890625,2.5882720947265625,0.4405975341796875,3.224023502742658
1785339806.850844,0.0537109337747097,0.2705078125,0.9667968153953552,1.0053633289955861,-1.201629638671875,2.70843505859375,0.8640289306640625,3.0864348767111407
1785339806.858865,0.056640625,0.26904296875,0.9536132216453552,0.9924567778654331,-0.95367431640625,2.03704833984375,0.0743865966796875,2.2504652866460066
1785339806.866886,0.06787109375,0.255859375,0.9414061903953552,0.9779141682463282,-0.713348388671875,1.54876708984375,-0.2956390380859375,1.7305917667214927
1785339806.877772,0.06787109375,0.27587890625,0.9404296278953552,0.9824070140750797,-1.0776519775390625,1.1844635009765625,-1.4553070068359375,2.1638405796142384
1785339806.888658,0.07958984375,0.25732421875,0.9487304091453552,0.9862249672466016,-1.0166168212890625,0.7572174072265625,-2.3059844970703125,2.6314354379052163
1785339806.899544,0.06640625,0.25537109375,0.9472655653953552,0.9833291600201408,-1.3217926025390625,-0.5245208740234375,-3.4656524658203125,3.7460652483986063
1785339806.909983,0.07666015625,0.2475585788488388,0.9589843153953552,0.9933845915315122,-1.506805419921875,-0.58746337890625,-6.0329437255859375,6.245957555983599
1785339806.920422,0.07861328125,0.2646484375,0.9443358778953552,0.9838643675530049,-1.5048980712890625,-0.3414154052734375,-7.0667266845703125,7.233250218148525
1785339806.930861,0.05615234375,0.244140625,0.9394530653953552,0.9722807169561363,-1.8100738525390625,-0.5245208740234375,-8.169174194335938,8.383728079818436
1785339806.938893,0.0620117224752903,0.2485351413488388,0.9565429091453552,0.9902471950204651,-2.178192138671875,-0.09918212890625,-8.840560913085938,9.10548600271557
1785339806.946926,0.044921875,0.26513671875,0.9575194716453552,0.9945647254266725,-2.11334228515625,0.38909912109375,-8.897781372070312,9.153585477037225
1785339806.954959,0.03369140625,0.2490234375,0.9477538466453552,0.9805024921490442,-2.1152496337890625,0.6351470947265625,-8.962631225585938,9.230734062415213
1785339806.962992,0.0253906287252903,0.2607421875,0.9604491591453552,0.995536920295963,-2.5424957275390625,1.1234283447265625,-8.592605590820312,9.031015812724831
1785339806.973589,0.0229492224752903,0.251953125,0.9682616591453552,1.0007685469579877,-2.2373199462890625,2.2830963134765625,-7.8601837158203125,8.485317752749156
1785339806.984186,0.02197265625,0.25390625,0.9809569716453552,1.0135224524554793,-2.0542144775390625,3.2596588134765625,-6.2732696533203125,7.362002773924774
1785339806.994783,0.0234375037252903,0.2626953125,0.9633788466453552,0.9988277859341321,-1.6269683837890625,4.2972564697265625,-5.5446624755859375,7.201161104754342
1785339807.005487,0.02587890625,0.25927734375,0.9428710341453552,0.9782127814545686,-2.2373199462890625,2.7713775634765625,-4.4422149658203125,5.693804347179673
1785339807.016193,0.0375976599752903,0.2548828125,0.9384765028953552,0.9731993519470835,-2.544403076171875,2.40325927734375,-3.8318634033203125,5.189683931597109
1785339807.026899,0.0175781287252903,0.25537109375,0.9394530653953552,0.9737019298601003,-3.215789794921875,1.42669677734375,-3.6487579345703125,5.068550302078152
1785339807.037558,0.03125,0.24853515625,0.9716796278953552,1.0034478489981769,-3.1528472900390625,0.7572174072265625,-4.0149688720703125,5.160794442700381
1785339807.048217,0.0449218787252903,0.27099609375,0.9589843153953552,0.9975508885216166,-2.727508544921875,-0.278472900390625,-4.3849945068359375,5.171559420895709
1785339807.058876,0.0424804724752903,0.26318359375,0.9565429091453552,0.9929977500463676,-2.1152496337890625,-1.9283294677734375,-5.0563812255859375,5.810312095575082
1785339807.066867,0.0620117224752903,0.2499999850988388,0.9716796278953552,1.0052396458261224,-1.0776519775390625,-2.5997161865234375,-7.3719024658203125,7.890805028685819
1785339807.074859,0.04541015625,0.263671875,0.9667968153953552,1.0031355951292256,-0.8335113525390625,-3.1490325927734375,-7.9212188720703125,8.564861695579431
1785339807.082851,0.0458984412252903,0.2499999850988388,0.9648436903953552,0.9977624999728438,-0.1621246337890625,-3.7593841552734375,-8.474349975585938,9.272209075108023
1785339807.090843,0.0493164025247097,0.26611328125,0.9550780653953552,0.9926844901654076,-0.1010894775390625,-4.2476654052734375,-8.840560913085938,9.808587958294952
1785339807.101527,0.0385742150247097,0.25048828125,0.9458007216453552,0.9791687056749855,-0.286102294921875,-4.550933837890625,-9.634017944335938,10.658665726619082
1785339807.112211,0.0458984375,0.25244140625,0.9707030653953552,1.0040407219442637,-0.286102294921875,-5.28717041015625,-9.817123413085938,11.154009932618468
1785339807.122895,0.0385742150247097,0.255859375,0.9589843153953552,0.9932788666907503,-0.286102294921875,-5.710601806640625,-9.935379028320312,11.463183848894417
1785339807.133521,0.0380859412252903,0.265625,0.9477538466453552,0.9850099153689184,-0.4673004150390625,-5.5904388427734375,-10.122299194335938,11.572913078060322
1785339807.14415,0.0449218787252903,0.2509765625,0.9477538466453552,0.9814502350825505,-0.6504058837890625,-5.8956146240234375,-10.122299194335938,11.732102990867427
1785339807.154779,0.04443359375,0.251953125,0.9550780653953552,0.988751147888153,-0.5283355712890625,-5.9566497802734375,-9.996414184570312,11.648566934614724
1785339807.162791,0.0517578162252903,0.265625,0.9404296278953552,0.9785925593365234,-0.9555816650390625,-6.2007904052734375,-10.122299194335938,11.908983119827818
1785339807.170803,0.05419921875,0.2499999850988388,0.9467772841453552,0.9807266559221202,-1.2607574462890625,-6.2007904052734375,-10.850906372070312,12.561109826919775
1785339807.178815,0.0527343787252903,0.25244140625,0.9638671278953552,0.9977712255453456,-1.6880035400390625,-6.0787200927734375,-10.850906372070312,12.551588067368527
1785339807.186827,0.05908203125,0.259765625,0.9428710341453552,0.9797829623843223,-2.2983551025390625,-5.6514739990234375,-11.281967163085938,12.82592599417113
1785339807.197496,0.0546875,0.27099609375,0.9448241591453552,0.98444009324526,-2.6645660400390625,-5.7125091552734375,-11.400222778320312,13.026808988625941
1785339807.208165,0.0522460974752903,0.2568359375,0.9448241591453552,0.9805034651634991,-3.0918121337890625,-5.7125091552734375,-11.888504028320312,13.547272461684544
1785339807.218834,0.0556640625,0.2490234375,0.9628905653953552,0.9961272013180381,-3.8242340087890625,-5.7125091552734375,-11.644363403320312,13.522156842443705
1785339807.226976,0.0610351599752903,0.259765625,0.9472655653953552,0.9841318621346592,-4.0683746337890625,-5.7125091552734375,-12.376785278320312,14.225654531007969
1785339807.235117,0.05810546875,0.263671875,0.9628905653953552,1.0000286716349984,-4.4345855712890625,-6.1397552490234375,-12.376785278320312,14.51023630175065
1785339807.243258,0.06298828125,0.25732421875,0.9604491591453552,0.9963161468294824,-4.1904449462890625,-6.0787200927734375,-12.865066528320312,14.833091504884433
1785339807.259333,0.0712890625,0.25634765625,0.9477538466453552,0.9843950452577789,-4.5566558837890625,-6.5670013427734375,-14.329910278320312,16.408380421722544
1785339807.267268,0.0771484375,0.259765625,0.9516600966453552,0.9894882520209014,-4.375457763671875,-6.44683837890625,-15.245437622070312,17.121031628200793
1785339807.275203,0.095703125,0.2373046725988388,0.9477538466453552,0.9816872972607291,-5.046844482421875,-6.44683837890625,-16.836166381835938,18.72134778135253
1785339807.283138,0.0849609375,0.2416992038488388,0.9687499403953552,1.0020545459494936,-4.863739013671875,-6.44683837890625,-18.178939819335938,19.891996763318915
1785339807.293692,0.09814453125,0.25048828125,1.0078125,1.0431024701409308,-3.9463043212890625,-6.8111419677734375,-20.189285278320312,21.669614965448524
1785339807.304246,0.14599609375,0.26953125,1.00732421875,1.052931163845538,-2.0542144775390625,-6.3838958740234375,-21.348953247070312,22.377482619716154
1785339807.3148,0.1044921875,0.19775390625,1.01025390625,1.0347164731360243,0.0209808349609375,-6.9332122802734375,-24.156570434570312,25.131847681360927
1785339807.322806,0.08837890625,0.1923827975988388,0.8627929091453552,0.8883881898997799,0.1430511474609375,-5.4073333740234375,-26.597976684570312,27.14244059699797
1785339807.330814,0.078125,0.2460937350988388,0.8798827528953552,0.9169838062488378,-3.1528472900390625,-5.7125091552734375,-27.517318725585938,28.280311821634356
1785339807.338822,0.09619140625,0.234375,0.9204100966453552,0.9546408608833297,-6.9370269775390625,-7.0552825927734375,-28.429031372070312,30.101647471611162
1785339807.34683,0.10791015625,0.21826171875,0.9433593153953552,0.9742738719871311,-9.195327758789062,-7.7877044677734375,-29.958724975585938,32.29129287643546
1785339807.357508,0.12890625,0.220703125,0.9667968153953552,1.0000113864013893,-9.805679321289062,-7.4214935302734375,-32.88841247558594,35.11235663318717
1785339807.368186,0.12939453125,0.23486328125,0.9370116591453552,0.9746253408214128,-11.087417602539062,-6.3838958740234375,-36.54670715332031,38.72139924349352
1785339807.378864,0.13427734375,0.2314452975988388,0.9296874403953552,0.9674275516306313,-13.530731201171875,-5.95855712890625,-40.57884216308594,43.18827990547258
1785339807.386852,0.13671875,0.2138671875,0.9370116591453552,0.9707842396047919,-17.620086669921875,-6.44683837890625,-48.32649230957031,51.84090121020521
1785339807.39484,0.15625,0.1977538913488388,0.8935546278953552,0.9284182985469508,-20.547866821289062,-7.8487396240234375,-53.14826965332031,57.5200496499542
1785339807.402828,0.17724609375,0.21044921875,0.8774413466453552,0.919569664693727,-24.087905883789062,-9.069442749023438,-58.64143371582031,64.04139091158967
1785339807.410816,0.1962890625,0.2075195163488388,0.8901366591453552,0.9348459860732351,-28.116226196289062,-9.008407592773438,-65.96946716308594,72.2747824670535
1785339807.42149,0.193359375,0.20458984375,0.9008788466453552,0.9438366110715909,-32.08351135253906,-9.191513061523438,-73.59504699707031,80.80882721318041
1785339807.432164,0.18310546875,0.18896484375,0.9389647841453552,0.9751359857603209,-35.503387451171875,-10.04791259765625,-80.43098449707031,88.49064546745115
1785339807.442838,0.166015625,0.1796875,0.9467772841453552,0.9778732081277436,-38.30909729003906,-11.449813842773438,-87.32795715332031,96.04612055041054
1785339807.453547,0.15625,0.1933593600988388,0.9526366591453552,0.984539744746476,-40.93360900878906,-12.487411499023438,-93.79768371582031,103.09947266054964
1785339807.464254,0.1259765625,0.1831054538488388,0.9448241591453552,0.9706134108043394,-43.25294494628906,-13.708114624023438,-99.84016418457031,109.66671344338734
1785339807.474961,0.12451171875,0.16748046875,0.9628905653953552,0.9852467287163077,-44.963836669921875,-15.48004150390625,-105.33332824707031,115.57027443355463
1785339807.482984,0.10400390625,0.134765625,0.9472655653953552,0.9624399397264649,-48.31886291503906,-18.224716186523438,-114.06135559082031,125.2072107855503
1785339807.49101,0.09912109375,0.12646484375,0.9580077528953552,0.9713893156394692,-49.96681213378906,-18.590927124023438,-118.33381652832031,129.7890481523857
1785339807.499036,0.09375,0.1176757737994194,0.9702147841453552,0.9818112739287069,-51.18751525878906,-18.651962280273438,-122.85423278808594,134.39203819134048
1785339807.507062,0.07861328125,0.10400390625,0.9819335341453552,0.9905505166236288,-51.43165588378906,-19.079208374023438,-126.27220153808594,137.6731647794983
1785339807.517658,0.076171875,0.09326171875,1.00244140625,1.0096477978432365,-51.372528076171875,-20.36285400390625,-129.4422149658203,140.7446960967947
1785339807.528254,0.083984375,0.095703125,0.9853515028953552,0.9935441850451552,-51.30958557128906,-21.093368530273438,-132.6160430908203,143.75193443052402
1785339807.53885,0.076171875,0.08984375,0.9926757216453552,0.9996395061717023,-50.69923400878906,-21.947860717773438,-134.63401794433594,145.52814060174242
1785339807.549501,0.06005859375,0.0981445237994194,0.9980468153953552,1.0046575675103695,-49.663543701171875,-21.88873291015625,-136.1560821533203,146.57442788123745
1785339807.560153,0.0415039099752903,0.083984375,1.00048828125,1.0048645434614343,-48.80714416503906,-22.619247436523438,-136.5222930908203,146.73821651811576
1785339807.570805,0.0620117224752903,0.08740234375,1.00537109375,1.0110665950200397,-47.15919494628906,-22.802352905273438,-136.9495391845703,146.62575915869928
1785339807.578895,0.0517578125,0.0869140550494194,1.0322265625,1.0371714421687888,-45.38917541503906,-23.229598999023438,-137.6209259033203,146.76277035065738
1785339807.586985,0.05078125,0.0966796800494194,1.07080078125,1.076354964224921,-42.64259338378906,-23.168563842773438,-137.4378204345703,145.75433992453546
1785339807.595075,0.0537109375,0.0830078050494194,1.080078125,1.0845938947872455,-38.433074951171875,-23.35357666015625,-137.1936798095703,144.376579031071
1785339807.603165,0.02001953125,0.08642578125,1.07958984375,1.0832287053177145,-33.672332763671875,-22.98736572265625,-136.09886169433594,142.07443517786226
1785339807.611089,-0.0078124962747097015,0.06787109375,1.0732421875,1.075414484510344,-29.642105102539062,-20.605087280273438,-133.8367462158203,138.61997927562805
1785339807.619013,-0.0375976525247097,0.0610351525247097,1.08642578125,1.0887882491484542,-26.590347290039062,-18.651962280273438,-129.20188903808594,133.2218840766017
1785339807.626937,-0.0439453087747097,0.0605468712747097,1.07373046875,1.076333699791359,-23.782730102539062,-17.309188842773438,-124.19319152832031,127.62905269379328
1785339807.634861,-0.0566406212747097,0.0463867150247097,1.06494140625,1.067454957389255,-20.486831665039062,-16.088485717773438,-118.02864074707031,120.86897733067669
1785339807.64554,-0.0888671875,0.0244140587747097,1.0244140625,1.0285512115241364,-18.472671508789062,-13.586044311523438,-111.68479919433594,114.01453663364794
1785339807.656219,-0.08154296875,0.0571289025247097,0.9907225966453552,0.9957129258777132,-16.580581665039062,-10.595321655273438,-104.90608215332031,106.73547958429252
1785339807.666898,-0.0878906175494194,0.052734375,1.00390625,1.009125083301828,-14.749526977539062,-7.0552825927734375,-97.64289855957031,99.00232925360687
1785339807.677594,-0.1069335862994194,0.0791015550494194,0.9790038466453552,0.987998167830535,-11.819839477539062,-0.4634857177734375,-83.29963684082031,84.13532505492518
1785339807.68829,-0.0922851487994194,0.0727538987994194,0.9995116591453552,1.0063961621781692,-10.601043701171875,1.42669677734375,-75.67405700683594,76.42630761146644
1785339807.698986,-0.0883788987994194,0.0825195237994194,0.9990233778953552,1.0063140718197905,-8.647918701171875,0.93841552734375,-69.01741027832031,69.56342460726061
1785339807.706957,-0.07080078125,0.07861328125,1.015625,1.0211204332690156,-6.2656402587890625,0.5741119384765625,-62.85667419433594,63.170795017502805
1785339807.714928,-0.0454101525247097,0.09033203125,1.00927734375,1.014328701373043,-3.9463043212890625,0.5741119384765625,-56.50901794433594,56.64955455559564
1785339807.722899,-0.0458984337747097,0.0947265625,1.021484375,1.0268934298334849,-1.750946044921875,0.45013427734375,-51.43928527832031,51.47104528629944
1785339807.73087,-0.0302734337747097,0.10498046875,1.021484375,1.027310911058878,0.751495361328125,0.38909912109375,-46.80442810058594,46.81207785632947
1785339807.741532,-0.00439453125,0.0981445237994194,1.0263671875,1.0310583218389646,2.8896331787109375,0.1468658447265625,-43.13850402832031,43.235426206818666
1785339807.752194,-0.0024414025247097015,0.10205078125,1.0166015625,1.0217137854005223,5.207061767578125,0.38909912109375,-40.02571105957031,40.36486635926866
1785339807.762856,0.00048828125,0.1113281175494194,1.00048828125,1.006663294798343,6.4907073974609375,1.4896392822265625,-37.21809387207031,37.80918961285529
1785339807.773504,0.0410156287252903,0.11962890625,1.00830078125,1.0162006802200354,8.930206298828125,3.99017333984375,-34.35325622558594,35.718570535820554
1785339807.784154,0.03564453125,0.1249999925494194,1.03564453125,1.043769670882144,10.091781616210938,5.7010650634765625,-33.92219543457031,35.84775505033013
1785339807.794804,0.03466796875,0.1176757737994194,1.0595703125,1.0666483501735193,12.594223022460938,6.9217681884765625,-33.07151794433594,36.058988165740665
1785339807.802818,0.0332031287252903,0.1347656100988388,1.02001953125,1.0294192836516762,13.753890991210938,7.1659088134765625,-33.07151794433594,36.52731944262689
1785339807.810832,0.03076171875,0.14208984375,1.01806640625,1.0283943866883676,14.852523803710938,7.0438385009765625,-32.45735168457031,36.38258927761353
1785339807.818846,0.0390625,0.14990234375,1.03466796875,1.0461999795092924,14.608383178710938,6.4334869384765625,-32.76252746582031,36.44417400946581
1785339807.834879,0.04150390625,0.14501953125,1.0576171875,1.0683198743697455,17.538070678710938,5.9452056884765625,-32.76252746582031,37.63392883766436
1785339807.842898,0.0400390625,0.166015625,1.0712890625,1.0848154542142863,20.650863647460938,5.0907135009765625,-33.12873840332031,39.36860222983131
1785339807.850917,0.05419921875,0.19384765625,1.10986328125,1.1279676290628846,24.74212646484375,3.99017333984375,-33.67805480957031,41.97982469044795
1785339807.858936,-0.020019523799419403,0.14453125,1.07568359375,1.0855345491612107,30.599594116210938,4.2972564697265625,-35.02464294433594,46.706821628341174
1785339807.869561,0.0224609412252903,0.1201171875,0.9501952528953552,0.9580206945773688,35.23826599121094,6.4334869384765625,-33.74290466308594,49.21086017696692
1785339807.880186,0.01123046875,0.17822265625,0.9018554091453552,0.9193653341484475,34.992218017578125,6.98089599609375,-33.25080871582031,48.77298956342608
1785339807.890811,-0.0219726525247097,0.16650390625,0.9033202528953552,0.9188002108981086,32.306671142578125,6.435394287109375,-33.07151794433594,46.67826688179183
1785339807.901492,-0.0268554650247097,0.08935546875,0.8291015028953552,0.8343350153868423,28.646469116210938,8.081436157226562,-31.785964965820312,43.54626702712544
1785339807.912174,-0.0332031212747097,0.1279296875,0.8212890625,0.8318558627480843,23.334503173828125,9.23919677734375,-29.649734497070312,38.84544440737724
1785339807.922856,-0.0673828050494194,0.146484375,0.83642578125,0.8518252180319279,16.866683959960938,10.583877563476562,-27.391433715820312,33.864348998497576
1785339807.933524,-0.0693359375,0.14404296875,0.8608397841453552,0.8755575269750921,5.8193206787109375,10.278701782226562,-21.532058715820312,24.559025958517854
1785339807.944193,-0.0683593675494194,0.15869140625,0.8857421278953552,0.9024384093543176,1.2416839599609375,9.485244750976562,-18.972396850585938,21.247670208718787
1785339807.954862,-0.0722656175494194,0.1630859375,0.9008788466453552,0.9183692279378258,-2.2983551025390625,8.508682250976562,-16.222000122070312,18.461673753641627
1785339807.962854,-0.0791015550494194,0.1748046875,0.9365233778953552,0.9559758219367973,-5.1670074462890625,8.020401000976562,-13.292312622070312,16.361857260388327
1785339807.970844,-0.0727538987994194,0.1640625,0.9257811903953552,0.9430166733343621,-6.816864013671875,7.28607177734375,-10.423660278320312,14.429454962795111
1785339807.978834,-0.080078125,0.177734375,0.9394530653953552,0.9594655159206535,-8.890151977539062,6.3724517822265625,-7.9860687255859375,13.543272779883228
1785339807.986824,-0.0683593675494194,0.18017578125,0.9775390028953552,0.9963527575424528,-10.843276977539062,5.5789947509765625,-5.5446624755859375,13.395712747413759
1785339807.994828,-0.09130859375,0.1767578125,0.9995116591453552,1.019119296422106,-11.272430419921875,5.764007568359375,-3.2825469970703125,13.079242547183668
1785339808.002832,-0.08154296875,0.162109375,0.9829100966453552,0.9995203666273318,-11.089324951171875,6.37054443359375,-1.1463165283203125,12.840210505913669
1785339808.010836,-0.0722656175494194,0.1689453125,0.9570311903953552,0.9745119483541863,-10.660171508789062,6.7386627197265625,0.4978179931640625,12.621277851364678
1785339808.01884,-0.0722656175494194,0.162109375,0.9335936903953552,0.9503151833411417,-11.211395263671875,6.61468505859375,2.2716522216796875,13.214001891892169
1785339808.029492,-0.0698242112994194,0.18017578125,0.9580077528953552,0.977301175298711,-11.941909790039062,5.9452056884765625,4.0988922119140625,13.955486285924064
1785339808.040144,-0.0673828050494194,0.15234375,0.9775390028953552,0.9916307592859531,-10.965347290039062,5.7621002197265625,5.9299468994140625,13.733350296384723
1785339808.050796,-0.06884765625,0.14794921875,0.9663085341453552,0.9799903847803807,-9.441375732421875,5.33294677734375,7.2765350341796875,13.05863159578331
1785339808.061474,-0.0566406212747097,0.15380859375,0.9726561903953552,0.9863697624137426,-8.829116821289062,3.9310455322265625,10.019302368164062,13.920949779562667
1785339808.072154,-0.05126953125,0.150390625,0.9575194716453552,0.9706129215616726,-8.829116821289062,3.3206939697265625,11.304855346679688,14.723452947386361
1785339808.082834,-0.0502929650247097,0.13427734375,0.9487304091453552,0.9595046516889042,-9.866714477539062,2.2220611572265625,11.793136596679688,15.53601239558207
1785339808.090875,-0.0449218712747097,0.1376953125,0.9516600966453552,0.962618778723094,-11.394500732421875,1.91497802734375,12.220382690429688,16.817834012943685
1785339808.098914,-0.03662109375,0.13037109375,0.9506835341453552,0.960279599225205,-12.737274169921875,1.674652099609375,12.643814086914062,18.025222539512004
1785339808.106953,-0.04248046875,0.1215820237994194,0.9384765028953552,0.9472723606350383,-14.383316040039062,1.3065338134765625,12.948989868164062,19.39750369298117
1785339808.114992,-0.03271484375,0.1059570237994194,0.9511718153953552,0.9576142095314341,-16.02935791015625,1.36566162109375,13.315200805664062,20.88300551095014
1785339808.12561,-0.012695308774709702,0.1123046875,0.9521483778953552,0.958832648186384,-17.740249633789062,1.4896392822265625,12.948989868164062,22.01390062815132
1785339808.136228,-0.0473632775247097,0.12255859375,0.9819335341453552,0.9906852953582422,-18.596649169921875,1.24359130859375,13.132095336914062,22.799864202002738
1785339808.146846,-0.029785148799419403,0.1069335862994194,1.00439453125,1.01050993135781,-18.716812133789062,1.1234283447265625,13.132095336914062,22.891768731032748
1785339808.157553,-0.0219726525247097,0.09130859375,0.9877929091453552,0.9922473925939126,-18.045425415039062,1.8558502197265625,13.437271118164062,22.575247807074962
1785339808.16826,-0.0253906212747097,0.09716796875,0.9956054091453552,1.0006579977790648,-17.986297607421875,2.28118896484375,13.132095336914062,22.386662383077002
1785339808.178967,-0.00341796875,0.07666015625,0.9829100966453552,0.9859009687357204,-17.740249633789062,2.7103424072265625,13.132095336914062,22.237678407859118
1785339808.189616,-0.011718746274709702,0.07666015625,0.9863280653953552,0.9893721044971248,-17.740249633789062,2.8324127197265625,12.708663940429688,22.00566195402446
1785339808.200266,-0.015624996274709702,0.06396484375,0.9838866591453552,0.9860875213634716,-17.862319946289062,3.3206939697265625,12.281417846679688,21.929949991482353
1785339808.210916,-0.015624996274709702,0.0512695275247097,0.9936522841453552,0.9950967625052718,-17.862319946289062,3.6258697509765625,12.342453002929688,22.012395404502687
1785339808.218899,-0.0068359337747097015,0.0585937462747097,1.03369140625,1.0353733048751932,-17.129898071289062,3.9310455322265625,12.098312377929688,21.33672161563622
1785339808.226883,-0.0195312462747097,0.0610351525247097,1.03857421875,1.0405494545080165,-15.361785888671875,4.41741943359375,11.854171752929688,19.90023738777119
1785339808.234867,-0.0019531212747097015,0.0419921837747097,1.0517578125,1.0525975747338903,-12.979507446289062,4.9076080322265625,11.732101440429688,18.17125296601146
1785339808.242851,-0.015136715024709702,0.0405273400247097,1.03564453125,1.0365477222681307,-10.601043701171875,5.21087646484375,11.610031127929688,16.562855547203046
1785339808.253592,-0.01904296875,0.04638671875,1.0283203125,1.0295421445649044,-9.012222290039062,4.6024322509765625,11.732101440429688,15.493377212165154
1785339808.264333,-0.00927734375,0.0336913987994194,1.0400390625,1.0406259803531699,-7.0590972900390625,4.1141510009765625,11.667251586914062,14.243660084452381
1785339808.275074,-0.0029296837747097015,0.0449218712747097,1.03955078125,1.0405250522516634,-5.046844482421875,3.74603271484375,11.548995971679688,13.148486919957953
1785339808.283014,0.02001953125,0.044921875,1.01904296875,1.020229056949369,-2.9697418212890625,2.9544830322265625,11.484146118164062,12.224317917011593
1785339808.290956,0.0039062537252902985,0.0468749962747097,1.0166015625,1.0176891769943128,-1.9931793212890625,1.4896392822265625,10.084152221679688,10.3866219257261
1785339808.298898,0.008789066225290298,0.0454101525247097,1.0283203125,1.0293599927807218,-1.262664794921875,0.63323974609375,8.680343627929688,8.794525596034587
1785339808.30684,-0.00341796875,0.05615234375,1.0224609375,1.0240073910535865,-0.2231597900390625,-0.2803802490234375,7.5778961181640625,7.586364277677331
1785339808.317509,0.010742191225290298,0.0444335900247097,1.00390625,1.0049465146881535,1.1196136474609375,-0.5855560302734375,6.8492889404296875,6.964852444500371
1785339808.328178,0.0,0.06689453125,0.9960936903953552,0.9983373770207119,1.6689300537109375,-0.7686614990234375,5.9947967529296875,6.270068271813065
1785339808.338847,0.0043945349752902985,0.0561523400247097,0.9956054091453552,0.9971973365123825,2.4623870849609375,-1.1348724365234375,5.1403045654296875,5.811541674008744
1785339808.346835,-0.0024414025247097015,0.0585937462747097,0.9941405653953552,0.9958687922178249,2.338409423828125,-0.83160400390625,4.2247772216796875,4.899843510315878
1785339808.354823,-0.0073242150247097015,0.07080078125,0.9736327528953552,0.976231085482288,3.2558441162109375,-0.9517669677734375,3.6754608154296875,5.001539110690737
1785339808.362811,-0.0175781212747097,0.083984375,0.9946288466453552,0.9983230480013764,3.009796142578125,-0.52642822265625,3.4313201904296875,4.594557404444699
1785339808.370799,-0.008300777524709702,0.0605468712747097,0.9809569716453552,0.9828587928834422,3.2558441162109375,-0.0362396240234375,3.3702850341796875,4.6862197378089645
1785339808.381541,-0.0073242150247097015,0.076171875,0.9736327528953552,0.9766353138082463,3.0727386474609375,-0.4024505615234375,3.7937164306640625,4.898568526249385
1785339808.392283,-0.0239257775247097,0.08984375,0.9897460341453552,0.9941033921834705,2.7675628662109375,-0.5245208740234375,3.3054351806640625,4.34285943812227
1785339808.403025,-0.013183590024709702,0.0732421875,0.9687499403953552,0.9716041745956678,2.4623870849609375,-0.4024505615234375,3.6106109619140625,4.388829927092977
1785339808.410975,-0.0209960900247097,0.07177734375,0.9926757216453552,0.995488780055435,2.338409423828125,-0.70953369140625,4.0416717529296875,4.722997697555917
1785339808.418926,-0.0322265587747097,0.0751953125,0.9790038466453552,0.9824161123774562,2.338409423828125,-0.34332275390625,5.5675506591796875,6.0484419059233865
1785339808.426877,-0.0273437462747097,0.07177734375,1.001953125,1.0048928959015517,2.1572113037109375,-0.5245208740234375,5.5675506591796875,5.993855445260315
1785339808.434828,-0.0249023400247097,0.068359375,0.9956054091453552,0.9982601171080547,2.8896331787109375,-0.2803802490234375,5.9299468994140625,6.60248916859543
1785339808.445514,-0.0307617150247097,0.0771484375,1.00146484375,1.0049029792906203,3.3779144287109375,0.0247955322265625,6.5441131591796875,7.364532418712045
1785339808.4562,-0.0283203125,0.0712890625,0.9882811903953552,0.9912536919585656,3.62396240234375,0.38909912109375,6.9065093994140625,7.809249240729343
1785339808.466886,-0.0380859337747097,0.07568359375,0.9956054091453552,0.9992040209256049,3.7441253662109375,0.6351470947265625,7.9479217529296875,8.80859505145609
1785339808.477603,-0.0478515625,0.06640625,1.00048828125,1.0038308438135048,3.3779144287109375,0.5130767822265625,8.802413940429688,9.442247870651585
1785339808.488321,-0.0434570275247097,0.0703125,0.9887694716453552,0.9922184381250775,4.169464111328125,0.26702880859375,9.531021118164062,10.406541160018614
1785339808.499039,-0.0493164025247097,0.06982421875,0.9882811903953552,0.9919713909036325,4.5375823974609375,1.4286041259765625,10.995864868164062,11.980801641018404
1785339808.506982,-0.0507812462747097,0.08203125,0.9824218153953552,0.9871476507161837,4.7817230224609375,1.6117095947265625,13.803482055664062,14.696890818887729
1785339808.514926,-0.0278320275247097,0.07763671875,0.9780272841453552,0.9814985738080021,4.5375823974609375,0.8182525634765625,15.085220336914062,15.77412640638552
1785339808.52287,-0.0224609337747097,0.08544921875,0.9843749403953552,0.9883319714596793,4.718780517578125,0.87738037109375,16.126632690429688,16.82572339665344
1785339808.530814,-0.015624996274709702,0.095703125,0.9892577528953552,0.9939990595100772,5.146026611328125,0.45013427734375,16.492843627929688,17.28288464601549
1785339808.541505,0.008300784975290298,0.09033203125,0.9921874403953552,0.9963255972719177,5.695343017578125,-0.09918212890625,15.394210815429688,16.414277194334897
1785339808.552196,0.0361328162252903,0.09033203125,1.0048828125,1.0095815584369752,6.3686370849609375,-0.4634857177734375,13.746261596679688,15.156980742049866
1785339808.562887,0.04931640625,0.0961913987994194,0.9897460341453552,0.9956315107683478,6.916046142578125,-0.34332275390625,11.060714721679688,13.049481787182252
1785339808.573548,0.0439453125,0.10009765625,0.9990233778953552,1.0049867864101059,8.138656616210938,-0.4634857177734375,8.371353149414062,11.684695292534537
1785339808.584209,0.05517578125,0.095703125,0.9951171278953552,1.0012300201262516,8.504867553710938,-1.0738372802734375,4.9533843994140625,9.900601780650948
1785339808.59487,0.04931640625,0.099609375,0.9931640028953552,0.9993642339809999,8.687973022460938,-2.0503997802734375,1.6574859619140625,9.079222114911419
1785339808.605511,0.0576171912252903,0.12158203125,1.00439453125,1.0133658300201733,9.359359741210938,-3.9424896240234375,-4.0149688720703125,10.92065997294239
1785339808.616151,0.0537109375,0.1108398362994194,1.00341796875,1.0109490363655267,9.603500366210938,-4.4307708740234375,-7.0095062255859375,12.688267310725923
1785339808.626791,0.0375976599752903,0.11376953125,0.9877929091453552,0.9950336283936871,9.847640991210938,-5.0411224365234375,-9.634017944335938,14.669807437849508
1785339808.634819,0.044921875,0.11474609375,0.9843749403953552,0.9920577927534053,9.359359741210938,-5.9566497802734375,-12.010574340820312,16.35032682751641
1785339808.642848,0.04443359375,0.13134765625,0.9970702528953552,1.0066656049874336,8.38470458984375,-6.62994384765625,-14.085769653320312,17.68243007079121
1785339808.650877,0.05126953125,0.1298828125,1.01171875,1.0213094236905227,8.930206298828125,-7.30133056640625,-16.099929809570312,19.805699999057303
1785339808.658906,0.0546875,0.1337890625,1.03076171875,1.0408457891260035,9.906768798828125,-8.09478759765625,-18.301010131835938,22.32927733112215
1785339808.669541,0.06591796875,0.14208984375,1.03759765625,1.0493538957646837,11.922836303710938,-9.008407592773438,-21.413803100585938,26.112380131142576
1785339808.680176,0.0600585974752903,0.12939453125,1.02294921875,1.0328480449656385,14.486312866210938,-10.168075561523438,-24.644851684570312,30.34158426379656
1785339808.690811,0.0556640625,0.12744140625,1.00732421875,1.0168784989177808,16.500473022460938,-11.205673217773438,-27.639389038085938,34.084726031276105
1785339808.698816,0.0517578125,0.130859375,0.9731444716453552,0.9832666016264833,17.110824584960938,-13.097763061523438,-32.82356262207031,39.264716711038204
1785339808.706821,0.0605468787252903,0.14794921875,1.0029296875,1.015589904400865,17.354965209960938,-13.219833374023438,-34.41047668457031,40.743584986292696
1785339808.714826,0.0283203162252903,0.13427734375,0.9858397841453552,0.9953454301695551,18.331527709960938,-13.830184936523438,-36.85569763183594,43.42420260049484
1785339808.722831,0.0180664099752903,0.14208984375,0.9506835341453552,0.961413075093842,18.634796142578125,-15.66314697265625,-38.92707824707031,45.91195074505123
1785339808.730833,0.00537109375,0.13671875,0.9282225966453552,0.9382526600935803,16.866683959960938,-16.820907592773438,-40.63606262207031,47.103264700810776
1785339808.738835,-0.015624992549419403,0.15478515625,0.9536132216453552,0.9662198308275087,15.096664428710938,-16.576766967773438,-41.18537902832031,46.89279183076411
1785339808.746837,-0.012695308774709702,0.1435546875,0.9672850966453552,0.9779619508755553,13.936996459960938,-16.393661499023438,-40.39192199707031,45.765700806247246
1785339808.754839,-0.0361328087747097,0.14794921875,0.9501952528953552,0.9623230070114468,12.777328491210938,-16.332626342773438,-38.86604309082031,44.05206138380438
1785339808.765488,-0.0410156212747097,0.16552734375,0.9531249403953552,0.9682606749843404,11.739730834960938,-16.027450561523438,-36.48948669433594,41.547359612802474
1785339808.776137,-0.0439453050494194,0.1572265625,0.9394530653953552,0.9535320885382843,10.517120361328125,-15.537261962890625,-33.55979919433594,38.448360848835954
1785339808.786786,-0.0654296875,0.1645507663488388,0.9443358778953552,0.9607956333126879,8.687973022460938,-14.806747436523438,-30.565261840820312,35.05646696810602
1785339808.794814,-0.0502929612994194,0.16943359375,0.9423827528953552,0.9588130045018857,7.404327392578125,-13.706207275390625,-26.845932006835938,31.038496215636993
1785339808.802842,-0.0571289025247097,0.17626953125,0.9355468153953552,0.9537203483973503,5.5141448974609375,-11.999130249023438,-23.363113403320312,26.836914662077476
1785339808.81087,-0.07470703125,0.15380859375,0.9267577528953552,0.9424002104102001,3.4389495849609375,-10.717391967773438,-19.517898559570312,22.530806222158905
1785339808.818898,-0.0688476487994194,0.1572265625,0.9306640028953552,0.9463591691244821,1.4858245849609375,-8.642196655273438,-15.066146850585938,17.43226946352982
1785339808.829538,-0.0712890625,0.1596679538488388,0.9301757216453552,0.9464686255005293,-0.7114410400390625,-6.5059661865234375,-10.362625122070312,12.256334843426927
1785339808.840178,-0.0849609300494194,0.1552734375,0.9384765028953552,0.955021647144516,-2.727508544921875,-4.49371337890625,-5.1746368408203125,7.376288309763773
1785339808.850818,-0.0830078050494194,0.1591796875,0.9321288466453552,0.9492590033073799,-5.046844482421875,-2.597808837890625,-0.1697540283203125,5.678738100855306
1785339808.861513,-0.0732421875,0.158203125,0.9379882216453552,0.9540516499304253,-7.488250732421875,-0.83160400390625,4.7702789306640625,8.917456213924861
1785339808.872208,-0.07177734375,0.146484375,0.9516600966453552,0.9655395376378915,-9.195327758789062,1.6727447509765625,9.531021118164062,13.348876025657203
1785339808.882903,-0.0590820237994194,0.14990234375,0.9702147841453552,0.9835029870682633,-10.417938232421875,3.86810302734375,13.315200805664062,17.343305063910403
1785339808.890906,-0.009765621274709702,0.14208984375,0.9584960341453552,0.9690198855173997,-11.331558227539062,7.0438385009765625,19.845962524414062,23.914056561202564
1785339808.89891,-0.013183590024709702,0.13916015625,0.9296874403953552,0.9401372734671949,-12.308120727539062,7.7152252197265625,21.375656127929688,25.84440386107367
1785339808.906914,-0.009765617549419403,0.1357421875,0.9394530653953552,0.9492593801665256,-14.444351196289062,8.569717407226562,22.718429565429688,28.25254643108916
1785339808.914918,0.009765625,0.140625,0.9570311903953552,0.9673569441763424,-16.580581665039062,10.278701782226562,23.694992065429688,30.692345098733544
1785339808.925547,0.0219726599752903,0.13427734375,0.9965819716453552,1.0058274350202867,-17.007827758789062,11.621475219726562,23.694992065429688,31.397094456910025
1785339808.936176,0.03955078125,0.1357421875,1.02978515625,1.0394458493820673,-16.826629638671875,11.989593505859375,23.206710815429688,31.07148603307794
1785339808.946805,0.0537109375,0.12744140625,1.03857421875,1.0477416593255606,-14.507293701171875,10.76507568359375,21.070480346679688,27.75452336188423
1785339808.957477,0.06298828125,0.1220703050494194,1.0322265625,1.0413262501638254,-12.125015258789062,9.485244750976562,18.445968627929688,24.025811570774508
1785339808.968151,0.07275390625,0.1074218675494194,1.005859375,1.0141921271523604,-10.112762451171875,7.46917724609375,14.844894409179688,19.45321215499103
1785339808.978825,0.068359375,0.080078125,1.00927734375,1.014754288909863,-8.647918701171875,6.252288818359375,11.793136596679688,15.904580601770224
1785339808.986817,0.07275390625,0.0751953125,1.02490234375,1.0302292366851415,-6.328582763671875,3.07464599609375,4.5909881591796875,8.401284430113538
1785339808.994809,0.05078125,0.0624999925494194,1.01123046875,1.0144318830501065,-4.863739013671875,2.09808349609375,1.7833709716796875,5.58912547473436
1785339809.002801,0.0278320349752903,0.07568359375,0.9887694716453552,0.9920522650503932,-3.5190582275390625,1.8558502197265625,-0.4138946533203125,3.999907452793957
1785339809.010793,0.011718753725290298,0.07080078125,0.9863280653953552,0.9889353529938286,-3.1528472900390625,1.6727447509765625,-1.8177032470703125,4.005317232209736
1785339809.021476,-0.0039062462747097015,0.07421875,0.9604491591453552,0.96332043937339,-3.032684326171875,1.42669677734375,-2.4318695068359375,4.140848610486752
1785339809.032159,0.008300784975290298,0.1064453125,0.9677733778953552,0.9736451194082034,-3.9463043212890625,0.3299713134765625,-2.3670196533203125,4.6135648801275995
1785339809.042842,0.013183597475290298,0.10595703125,1.005859375,1.0115106435372268,-4.55474853515625,-0.58746337890625,-2.4318695068359375,5.1966178172290505
1785339809.053536,0.0034179724752902985,0.1064453125,1.03466796875,1.0401346512093113,-4.192352294921875,-1.01470947265625,-1.4553070068359375,4.552293000541685
1785339809.064231,-0.00048827752470970154,0.1123046875,1.0107421875,1.0169623153498357,-3.2749176025390625,-1.5621185302734375,-1.0242462158203125,3.7701962703108807
1785339809.074926,-0.0014648400247097015,0.1171875,0.9936522841453552,1.0005398131507959,-2.1762847900390625,-1.3179779052734375,-0.5970001220703125,2.613367634278861
1785339809.082933,0.008300784975290298,0.111328125,0.9960936903953552,1.0023300327200912,-1.4438629150390625,-1.3179779052734375,0.7457733154296875,2.0923631888897885
1785339809.09094,-0.0014648400247097015,0.09716796875,0.9824218153953552,0.9872164824758571,-1.079559326171875,-0.52642822265625,1.4781951904296875,1.904635406933083
1785339809.098947,-0.01904296875,0.09521484375,0.9794921278953552,0.9842933148904961,-1.2607574462890625,-0.1583099365234375,2.0275115966796875,2.3927755116278644
1785339809.106954,-0.012207027524709702,0.10302734375,0.9755858778953552,0.9810868719078961,-2.11334228515625,1.54876708984375,3.6754608154296875,4.513746483639903
1785339809.117586,-0.02392578125,0.1030273362994194,0.9902343153953552,0.9958669963503581,-2.2373199462890625,3.4427642822265625,5.3844451904296875,6.771297988848169
1785339809.128218,-0.0356445275247097,0.11376953125,0.9931640028953552,1.0002943442959324,-1.80816650390625,3.99017333984375,6.7234039306640625,8.024656366643828
1785339809.13885,-0.0019531212747097015,0.12255859375,0.9877929091453552,0.9953689039459367,-1.079559326171875,4.17327880859375,8.066177368164062,9.145759765468611
1785339809.149575,-0.02392578125,0.13525390625,1.0205078125,1.0297097928726529,-0.4062652587890625,4.2972564697265625,9.531021118164062,10.462878580103808
1785339809.1603,-0.0073242150247097015,0.1201171875,1.0009765625,1.008184438251729,0.4482269287109375,4.6024322509765625,10.450363159179688,11.427746066621838
1785339809.171025,-0.012695308774709702,0.11767578125,0.9970702528953552,1.0040706397293422,1.361846923828125,4.66156005859375,11.610031127929688,12.58481593092696
1785339809.17903,0.0180664099752903,0.1142578125,0.9833983778953552,0.9901785760830701,1.5468597412109375,3.3206939697265625,11.426925659179688,11.999767227741406
1785339809.187038,0.0126953125,0.130859375,0.9824218153953552,0.991180089766521,1.6689300537109375,2.7713775634765625,11.667251586914062,12.107461365450215
1785339809.195046,0.02490234375,0.1376953125,0.9853515028953552,0.9952375143988751,1.850128173828125,1.54876708984375,10.572433471679688,10.844261305928988
1785339809.203054,0.03125,0.1166992112994194,0.9887694716453552,0.9961226513214833,2.4013519287109375,0.8182525634765625,9.290695190429688,9.63083825347685
1785339809.213652,0.02490234375,0.126953125,0.9726561903953552,0.981222343501163,2.704620361328125,0.08392333984375,7.3375701904296875,7.820610636348262
1785339809.22425,0.0424804724752903,0.126953125,0.9692382216453552,0.9784397870013465,2.7675628662109375,-0.7076263427734375,5.2013397216796875,5.934144770709554
1785339809.234848,0.0332031287252903,0.13720703125,0.9755858778953552,0.9857464290224123,2.4013519287109375,-1.4400482177734375,3.2482147216796875,4.288487942523896
1785339809.245503,0.0380859412252903,0.13232421875,0.9799804091453552,0.9896069119077089,2.5844573974609375,-1.8672943115234375,1.6574859619140625,3.5935313827877637
1785339809.256157,0.0332031287252903,0.1249999850988388,0.9931640028953552,1.0015498892611308,2.6454925537109375,-2.9659271240234375,-0.2307891845703125,3.981032303872023
1785339809.266811,0.0302734375,0.14453125,0.9790038466453552,0.9900779236964287,2.6454925537109375,-3.0879974365234375,-1.7604827880859375,4.430988452576036
1785339809.277511,0.0273437537252903,0.138671875,0.9648436903953552,0.9751414854673823,1.8520355224609375,-2.7828216552734375,-4.0798187255859375,5.274377003510236
1785339809.28821,0.02490234375,0.1396484375,0.9658202528953552,0.9761816294743937,1.056671142578125,-2.66265869140625,-4.5680999755859375,5.392016561308658
1785339809.298909,0.0234375037252903,0.1450195163488388,0.9726561903953552,0.9836869631225829,0.690460205078125,-3.02886962890625,-4.8732757568359375,5.779238974629107
1785339809.306928,0.014160159975290298,0.14404296875,0.9990233778953552,1.0094536128808915,0.8144378662109375,-3.0879974365234375,-4.8732757568359375,5.826478679962575
1785339809.314949,0.0146484375,0.1494140625,0.9897460341453552,1.0010676055593868,0.9975433349609375,-3.0879974365234375,-5.0563812255859375,6.0081454685749955
1785339809.32297,0.009277347475290298,0.12890625,0.9887694716453552,0.9971800030701953,1.4858245849609375,-3.1490325927734375,-5.0563812255859375,6.139305503563223
1785339809.330991,0.010742191225290298,0.1484375,0.9799804091453552,0.9912167716434527,1.3027191162109375,-2.9048919677734375,-4.9304962158203125,5.869009062388169
1785339809.341625,0.00537109375,0.13525390625,0.9736327528953552,0.9829970525462134,1.0585784912109375,-2.5997161865234375,-4.2591094970703125,5.1008946647192115
1785339809.352259,0.0019531287252902985,0.1376953125,0.9692382216453552,0.978972187600108,0.568389892578125,-1.86920166015625,-3.1604766845703125,3.715588081317466
1785339809.362893,0.00537109375,0.13818359375,0.9838866591453552,0.9935575032548165,0.080108642578125,-1.74713134765625,-1.9435882568359375,2.6146549777531667
1785339809.373551,0.0024414099752902985,0.11767578125,0.9765624403953552,0.9836298846448277,-0.6504058837890625,-0.8907318115234375,-0.2956390380859375,1.141855251145098
1785339809.384209,-0.009765617549419403,0.13037109375,0.9638671278953552,0.9726930808887939,-0.896453857421875,-0.09918212890625,0.5626678466796875,1.0630436109906742
1785339809.394867,-0.0185546875,0.13720703125,0.9755858778953552,0.9853617868587721,-1.4438629150390625,0.1468658447265625,1.2950897216796875,1.9451393474434464
1785339809.402855,-0.00048827752470970154,0.126953125,0.9829100966453552,0.9910749681278346,-1.5048980712890625,0.5130767822265625,2.4547576904296875,2.924688241189682
1785339809.410845,-0.0170898400247097,0.1318359375,0.9892577528953552,0.9981501283434981,-1.6880035400390625,0.4520416259765625,3.2482147216796875,3.6884409255045134
1785339809.418835,0.0009765625,0.134765625,1.0048828125,1.0138797730568783,-1.6269683837890625,0.9403228759765625,4.3468475341796875,4.735643221183165
1785339809.426825,-0.011718746274709702,0.12646484375,1.0087890625,1.016752702646318,-1.567840576171875,0.87738037109375,5.1403045654296875,5.445241171265865
1785339809.437518,0.009277351200580597,0.1298828125,0.9912108778953552,0.9997272721529056,-1.5659332275390625,1.1844635009765625,5.3234100341796875,5.673957617947242
1785339809.448211,0.008789066225290298,0.13720703125,0.9907225966453552,1.0002171167367944,-1.750946044921875,1.54876708984375,5.7468414306640625,6.204085587740356
1785339809.458904,0.01953125,0.1376953125,1.0146484375,1.0241352061774982,-1.3217926025390625,1.4286041259765625,5.6896209716796875,6.013304601819332
1785339809.466885,0.0288085974752903,0.11181640625,0.9492186903953552,0.9562159621084724,-1.8711090087890625,0.9403228759765625,4.7130584716796875,5.1573419695932605
1785339809.474867,0.007812503725290298,0.115234375,0.9575194716453552,0.9644602298571459,-2.849578857421875,1.24359130859375,4.5909881591796875,5.544708403983367
1785339809.482849,0.008789066225290298,0.12353515625,0.9907225966453552,0.9984334960419445,-3.032684326171875,1.36566162109375,4.2819976806640625,5.421965512869791
1785339809.490831,0.009277347475290298,0.1103515625,0.9975585341453552,1.0036864876885603,-2.7866363525390625,0.8182525634765625,4.3468475341796875,5.227806701125455
1785339809.502837,0.013183597475290298,0.1162109375,0.9863280653953552,0.9932380589886614,-2.3593902587890625,0.3299713134765625,4.1637420654296875,4.797119077989919
1785339809.514845,0.012695316225290298,0.115234375,0.9775390028953552,0.9843894729309868,-2.1152496337890625,-0.1583099365234375,3.7364959716796875,4.296596931948045
1785339809.526853,0.008300784975290298,0.11376953125,0.9980468153953552,1.0045446007982228,-2.6035308837890625,-0.4634857177734375,3.7364959716796875,4.577618837321642
1785339809.538861,0.013671882450580597,0.1157226487994194,0.9956054091453552,1.0024015076477022,-2.2373199462890625,0.0247955322265625,3.7364959716796875,4.355182832770609
1785339809.54694,0.00732421875,0.1166992112994194,0.9951171278953552,1.0019632968970995,-1.4438629150390625,0.5130767822265625,4.0416717529296875,4.3223949912421
1785339809.555019,0.012207034975290298,0.1123046875,0.9985350966453552,1.004904818263854,-0.8335113525390625,0.7572174072265625,4.0988922119140625,4.2507689588482895
1785339809.563098,-0.011718746274709702,0.1005859375,1.0146484375,1.0196893210964781,0.1430511474609375,1.0623931884765625,4.4078826904296875,4.536361177232358
1785339809.571177,0.0068359375,0.1157226487994194,1.0078125,1.0144577352669295,0.9975433349609375,1.1844635009765625,4.8961639404296875,5.135218381124079
1785339809.581741,0.011230472475290298,0.0947265625,1.00439453125,1.0089140793744489,2.0961761474609375,1.1844635009765625,5.3234100341796875,5.842568152647842
1785339809.592305,0.0166015662252903,0.10546875,1.00537109375,1.011024384164777,2.8896331787109375,0.8182525634765625,5.1403045654296875,5.953339247054575
1785339809.602869,0.013671878725290298,0.109375,0.9999999403953552,1.0060565052140924,3.803253173828125,0.81634521484375,5.1403045654296875,6.446230312315042
1785339809.610865,0.015625,0.1103515625,1.01171875,1.017839101760565,5.0868988037109375,1.1234283447265625,4.7702789306640625,7.063582077194849
1785339809.618861,-0.0019531212747097015,0.09814453125,0.9965819716453552,1.001404908069428,5.8193206787109375,1.1234283447265625,4.4078826904296875,7.386204317509599
1785339809.626857,0.0039062537252902985,0.1123046875,0.9838866591453552,0.9902830704888614,6.427764892578125,0.81634521484375,4.2247772216796875,7.735071014339927
1785339809.634853,0.0273437537252903,0.103515625,1.00634765625,1.012027060273982,6.9789886474609375,0.8182525634765625,4.2247772216796875,8.199058627174717
1785339809.644745,0.012695316225290298,0.10546875,1.0009765625,1.0065976887291859,8.260726928710938,0.6351470947265625,3.7364959716796875,9.08869756175483
1785339809.654637,0.0239257849752903,0.095703125,0.9907225966453552,0.9956218131525467,9.052276611328125,0.63323974609375,3.1223297119140625,9.596543505550967
1785339809.664529,0.01611328125,0.1171874925494194,0.9946288466453552,1.0016382025570567,9.66644287109375,0.38909912109375,2.7599334716796875,10.060255895068128
1785339809.674421,0.02099609375,0.1171874925494194,0.9882811903953552,0.9954262683152576,10.580062866210938,0.8182525634765625,2.6340484619140625,10.93368550902775
1785339809.684313,0.0214843787252903,0.11279296875,0.9873046278953552,0.9939588827472875,10.824203491210938,0.6961822509765625,2.5157928466796875,11.1345078289578
1785339809.693638,0.014648433774709702,0.119140625,0.9897460341453552,0.9969986345245921,11.129379272460938,0.6961822509765625,2.3288726806640625,11.391725096735847
1785339809.702965,0.0146484375,0.126953125,0.9770507216453552,0.9853729168878991,10.883331298828125,0.93841552734375,2.5157928466796875,11.209671605779377
1785339809.712292,0.009277351200580597,0.13525390625,0.9697265028953552,0.9791573820478698,10.395050048828125,0.75531005859375,2.4547576904296875,10.707632517086967
1785339809.721619,-0.0019531212747097015,0.13427734375,0.9599608778953552,0.9693085715172906,9.723663330078125,1.54876708984375,2.5768280029296875,10.177836244112582
1785339809.730946,0.0019531287252902985,0.1376953125,0.9428710341453552,0.9528743887977165,8.199691772460938,2.4662017822265625,2.5768280029296875,8.941875583494978
1785339809.738946,0.0107421875,0.15185546875,0.9560546278953552,0.968099132063289,6.427764892578125,2.70843505859375,3.4313201904296875,7.773399528528688
1785339809.746946,0.025390625,0.15771484375,0.9599608778953552,0.9731616221710547,5.146026611328125,1.54876708984375,3.2482147216796875,6.279424198222075
1785339809.754946,0.03466796875,0.14404296875,0.9775390028953552,0.9887025574383884,4.4155120849609375,0.8182525634765625,3.0040740966796875,5.4028460470768485
1785339809.762946,0.03125,0.14013671875,0.9785155653953552,0.9889932123948113,4.0493011474609375,-0.0362396240234375,2.0275115966796875,4.5286815264322176
1785339809.773581,0.0400390625,0.15966796875,0.9624022841453552,0.976378586050937,3.2558441162109375,-0.4024505615234375,1.3523101806640625,3.5484123475525755
1785339809.784216,0.0498046875,0.158203125,0.9541015028953552,0.9684102506086528,2.8896331787109375,-0.3414154052734375,0.7457733154296875,3.003784650149223
1785339809.794851,0.0571289099752903,0.162109375,0.9575194716453552,0.9728240850214677,2.4623870849609375,-0.8907318115234375,-0.6580352783203125,2.699956248489286
1785339809.80551,0.0429687537252903,0.15576171875,0.9755858778953552,0.9888760447970765,1.7299652099609375,-1.5010833740234375,-2.4318695068359375,3.3406616443039012
1785339809.816169,0.0288085974752903,0.15625,0.9384765028953552,0.9518309431171005,1.1196136474609375,-1.3179779052734375,-3.6487579345703125,4.037825521671232
1785339809.826828,0.0244140625,0.1630859375,0.9472655653953552,0.9615118932399067,-0.1621246337890625,-0.7686614990234375,-3.9539337158203125,4.0312177720960225
1785339809.83484,-0.01220703125,0.15576171875,0.9365233778953552,0.9494665670703835,-4.0683746337890625,0.2079010009765625,-4.9915313720703125,6.442847229713544
1785339809.842853,-0.009765621274709702,0.14892578125,0.9570311903953552,0.9685984488266304,-5.1059722900390625,1.1844635009765625,-3.6487579345703125,6.386496792207933
1785339809.850866,-0.0214843712747097,0.1708984375,0.9702147841453552,0.985385498941013,-6.2046051025390625,2.4051666259765625,-2.4318695068359375,7.084909334313582
1785339809.858879,-0.014648433774709702,0.1684570163488388,0.9746093153953552,0.9891691769483155,-6.5708160400390625,2.8324127197265625,-1.1463165283203125,7.246532055404418
1785339809.869534,-0.024414055049419403,0.15625,0.9682616591453552,0.9810916109899586,-7.3642730712890625,3.2596588134765625,0.5626678466796875,8.073071816506765
1785339809.880189,-0.0390624925494194,0.1591796875,0.9599608778953552,0.9738526265952113,-8.401870727539062,3.3206939697265625,2.6988983154296875,9.42881181697277
1785339809.890844,-0.04736328125,0.154296875,0.9716796278953552,0.9849934544515452,-9.378433227539062,2.9544830322265625,3.9196014404296875,10.585237609186763
1785339809.901495,-0.0205078087747097,0.13916015625,0.9550780653953552,0.9653808731830141,-10.538101196289062,2.3441314697265625,5.3844451904296875,12.063945423423167
1785339809.912146,-0.0361328087747097,0.1416015625,0.9423827528953552,0.9536465987602637,-11.819839477539062,2.2220611572265625,6.4182281494140625,13.632307715100074
1785339809.922797,-0.011230465024709702,0.15185546875,0.9536132216453552,0.9656937315892585,-13.042449951171875,1.857757568359375,7.4596405029296875,15.139451784809411
1785339809.930808,-0.00927734375,0.1455078125,0.9648436903953552,0.9757981038623301,-15.972137451171875,0.87738037109375,8.314132690429688,18.02786103420978
1785339809.93882,0.013183597475290298,0.138671875,0.9794921278953552,0.9893475247694195,-16.946792602539062,0.9403228759765625,8.008956909179688,18.76756183945199
1785339809.946832,0.00048828125,0.1249999925494194,0.9951171278953552,1.0029373533709045,-17.00592041015625,0.87738037109375,7.5778961181640625,18.638552381819665
1785339809.954844,0.0219726599752903,0.13427734375,0.9882811903953552,0.9976035856592567,-16.397476196289062,1.1234283447265625,7.2765350341796875,17.97462875714672
1785339809.965494,0.014160159975290298,0.11767578125,0.9907225966453552,0.9977872333954965,-15.909194946289062,1.0013580322265625,6.2999725341796875,17.14044502570317
1785339809.976144,0.014160159975290298,0.11181640625,1.00244140625,1.0087577468360123,-15.54107666015625,1.06048583984375,5.5675506591796875,16.54228866620017
1785339809.986794,0.0161132849752903,0.09326171875,1.01123046875,1.0156497659455466,-14.932632446289062,1.5506744384765625,4.6520233154296875,15.717169717140898
1785339809.997498,0.0229492224752903,0.09814453125,1.0234375,1.0283887067800543,-13.835906982421875,0.87738037109375,4.1637420654296875,14.475457378930715
1785339810.008203,0.0234375037252903,0.09326171875,1.013671875,1.0182228316685364,-13.042449951171875,1.06048583984375,3.3054351806640625,13.496519280129377
1785339810.018908,0.013671878725290298,0.08642578125,1.0205078125,1.024252181499306,-11.941909790039062,0.8182525634765625,2.6340484619140625,12.256302786353583
1785339810.026893,0.00634765625,0.0810546875,1.0068359375,1.0101132412492644,-8.890151977539062,-0.0362396240234375,1.6574859619140625,9.043416124896236
1785339810.03488,0.01953125,0.0966796800494194,1.01513671875,1.0199171476230493,-8.035659790039062,-0.5245208740234375,0.7457733154296875,8.087220056765114
1785339810.042867,0.0219726599752903,0.09130859375,1.02197265625,1.0262787960401758,-6.9980621337890625,-0.6465911865234375,-0.2956390380859375,7.034085315924345
1785339810.050854,0.009765625,0.0869140550494194,1.02490234375,1.028627354594956,-5.5942535400390625,-1.2569427490234375,-0.7190704345703125,5.77863652035974
1785339810.061509,0.005859375,0.09521484375,1.02099609375,1.0254429395136944,-4.7397613525390625,-1.3179779052734375,-1.3294219970703125,5.096053991482655
1785339810.072164,0.0166015625,0.0874023362994194,1.0029296875,1.0068677859266757,-4.1904449462890625,-1.4400482177734375,-1.7604827880859375,4.7678996806286555
1785339810.082819,0.01025390625,0.0810546875,1.0068359375,1.010145341028018,-3.2138824462890625,-1.3179779052734375,-1.8177032470703125,3.920478444241708
1785339810.093962,0.0239257849752903,0.07275390625,1.021484375,1.0243514545459766,-2.361297607421875,-1.56402587890625,-2.0008087158203125,3.4677281984041466
1785339810.105108,-0.0009765587747097015,0.0908203125,1.009765625,1.0138421476054735,-1.3828277587890625,-2.1724700927734375,-2.9201507568359375,3.8934713761786033
1785339810.116254,0.0239257849752903,0.0810546875,1.0009765625,1.0045378958639255,-0.0400543212890625,-2.5997161865234375,-2.9201507568359375,3.909911641172392
1785339810.123907,-0.0053710900247097015,0.07861328125,1.0087890625,1.0118617836525767,1.9741058349609375,-2.2945404052734375,-3.9539337158203125,4.979518184338705
1785339810.131559,0.0039062537252902985,0.0732421875,0.9882811903953552,0.9909991867490164,2.826690673828125,-1.86920166015625,-3.5266876220703125,4.89097337914466
1785339810.139211,0.0,0.0937499925494194,0.9980468153953552,1.002440275938585,3.314971923828125,-0.83160400390625,-3.2825469970703125,4.73874654978054
1785339810.146863,-0.0175781212747097,0.10009765625,0.9956054091453552,1.0007790274849797,4.4155120849609375,-0.6465911865234375,-2.3670196533203125,5.051495736327062
1785339810.157558,-0.004882805049419403,0.0922851487994194,0.9995116591453552,1.0037748488787623,4.5986175537109375,-0.8296966552734375,-1.7604827880859375,4.993493726061657
1785339810.168253,-0.0126953125,0.0961913987994194,0.9956054091453552,1.0003219916016801,5.023956298828125,-0.40435791015625,-1.2073516845703125,5.182792712647834
1785339810.178948,-0.0058593712747097015,0.1005859375,0.9882811903953552,0.9934040337867313,5.2089691162109375,-0.7076263427734375,-0.4787445068359375,5.278568991445678
1785339810.189579,-0.0078124962747097015,0.09423828125,0.9614257216453552,0.9660648565144518,4.9037933349609375,-0.2803802490234375,0.5626678466796875,4.943925288850643
1785339810.200208,0.0009765662252902985,0.10009765625,0.9873046278953552,0.9923663248679498,4.840850830078125,-0.70953369140625,1.1692047119140625,5.030339399749354
1785339810.210837,0.009765625,0.1206054612994194,0.9702147841453552,0.9777309303183083,4.4155120849609375,-1.5010833740234375,1.4781951904296875,4.892347012346439
1785339810.218826,0.0283203162252903,0.11962890625,0.9912108778953552,0.9988053463912538,3.9272308349609375,-2.9659271240234375,0.6237030029296875,4.960732926891896
1785339810.226816,0.0229492224752903,0.1171875,0.9794921278953552,0.9867443466153942,3.5610198974609375,-2.7828216552734375,0.4405975341796875,4.5408242932640235
1785339810.234806,0.0278320349752903,0.12646484375,0.9853515028953552,0.9938237082771335,3.2558441162109375,-2.1724700927734375,-0.1087188720703125,3.915605573369801
1785339810.242796,0.00537109375,0.1230468675494194,0.9809569716453552,0.9886586673273147,2.9506683349609375,-1.6841888427734375,-0.5359649658203125,3.439504924498648
1785339810.253532,0.02001953125,0.1259765625,0.9775390028953552,0.9858262413389245,2.7065277099609375,-0.9517669677734375,-1.0852813720703125,3.067407417069643
1785339810.264268,0.03076171875,0.1298828125,0.9799804091453552,0.9890285287250626,2.4013519287109375,-0.6465911865234375,-1.2722015380859375,2.7933972151346023
1785339810.275004,0.02587890625,0.1171874925494194,0.9702147841453552,0.9776089983080837,1.7910003662109375,-0.5855560302734375,-1.6956329345703125,2.53490221214879
1785339810.282965,0.0239257849752903,0.12451171875,0.9506835341453552,0.9591010339833159,0.934600830078125,-0.58746337890625,-1.6345977783203125,1.9724355071911401
1785339810.290925,0.009277351200580597,0.1249999925494194,0.9536132216453552,0.961815597648264,0.2651214599609375,-0.7076263427734375,-1.8177032470703125,1.9685196275192907
1785339810.298885,0.00048828125,0.1171874925494194,0.9545897841453552,0.9617561036059377,-0.530242919921875,-0.58746337890625,-2.2487640380859375,2.383948505037765
1785339810.306845,0.01025390625,0.1298828125,0.9682616591453552,0.9769878853635853,-1.750946044921875,-0.03814697265625,-1.9435882568359375,2.616257356580379
1785339810.317528,0.00146484375,0.13037109375,0.9658202528953552,0.9745806938143353,-2.4814605712890625,0.6351470947265625,-2.1266937255859375,3.329246851954422
1785339810.328211,-0.0009765587747097015,0.1298827975988388,0.9633788466453552,0.9720953126843459,-3.1528472900390625,0.5130767822265625,-1.3294219970703125,3.4599214824994284
1785339810.338894,-0.005371086299419403,0.1249999925494194,0.9614257216453552,0.9695324981385012,-3.8242340087890625,0.6961822509765625,-0.7839202880859375,3.965345697240834
1785339810.349545,0.0034179724752902985,0.1181640625,0.9667968153953552,0.9739971819573947,-5.7163238525390625,-0.0362396240234375,-0.1087188720703125,5.71747247396965
1785339810.360194,-0.00390625,0.1020507737994194,0.9799804091453552,0.9852873801743431,-6.450653076171875,0.38909912109375,0.2574920654296875,6.467505345874934
1785339810.370843,0.013183597475290298,0.1171875,0.9824218153953552,0.9894742749376286,-6.7539215087890625,0.1468658447265625,0.8640289306640625,6.810548532699496
1785339810.381503,0.0068359412252902985,0.0986328125,0.9765624403953552,0.9815545638348525,-7.0590972900390625,0.0247955322265625,0.9860992431640625,7.127682729051846
1785339810.392164,0.0166015625,0.1074218675494194,0.9814452528953552,0.9874461271057141,-7.305145263671875,-0.09918212890625,0.9288787841796875,7.364631709307746
1785339810.402825,-0.0058593712747097015,0.09228515625,0.9697265028953552,0.9741254399272596,-7.610321044921875,0.08392333984375,0.9860992431640625,7.674400383816318
1785339810.411002,0.0019531287252902985,0.1083984375,0.9868163466453552,0.9927540168494635,-9.012222290039062,1.4896392822265625,1.6574859619140625,9.283664982654834
1785339810.419181,0.02001953125,0.0986328050494194,1.00341796875,1.0084526919363954,-9.073257446289062,2.0999908447265625,2.6340484619140625,9.678438589684141
1785339810.42736,0.01220703125,0.1015624925494194,1.0009765625,1.006189857919024,-8.890151977539062,1.4286041259765625,3.1871795654296875,9.551639938502264
1785339810.435539,0.0283203162252903,0.0927734375,0.9956054091453552,1.0003194898312024,-9.012222290039062,0.1468658447265625,2.8820037841796875,9.462962854912314
1785339810.445989,0.0400390625,0.0981445237994194,1.001953125,1.0075443110726987,-8.403778076171875,-0.58746337890625,2.6340484619140625,8.826483471621914
1785339810.456439,0.03076171875,0.0922851487994194,0.9995116591453552,1.0042342300464,-8.035659790039062,-0.6465911865234375,2.0275115966796875,8.312683784338908
1785339810.466889,0.0332031287252903,0.08203125,0.9843749403953552,0.9883448775665657,-7.1811676025390625,-0.6465911865234375,0.9860992431640625,7.277337426257982
1785339810.477565,0.0556640625,0.08154296875,0.9990233778953552,1.0038901599218977,-6.4487457275390625,-0.0362396240234375,0.1354217529296875,6.450269282748529
1785339810.488241,0.02978515625,0.0932617112994194,0.9936522841453552,0.9984637019514605,-5.8994293212890625,-0.5245208740234375,-0.9021759033203125,5.9910190973408906
1785339810.498917,0.02587890625,0.1030273362994194,0.9980468153953552,1.0036841114287205,-4.9228668212890625,-0.7686614990234375,-1.3904571533203125,5.172893710047527
1785339810.506938,0.0258789099752903,0.08935546875,1.0048828125,1.0091796592455435,-3.8242340087890625,-0.2803802490234375,-2.9201507568359375,4.81981942407294
1785339810.514959,0.01611328125,0.0771484300494194,0.9858397841453552,0.988985135426965,-3.3359527587890625,0.2689361572265625,-2.9773712158203125,4.47946948000893
1785339810.52298,0.0068359412252902985,0.08251953125,0.9785155653953552,0.9820126856874849,-3.76129150390625,0.38909912109375,-3.2825469970703125,5.007377226789349
1785339810.531001,0.009277347475290298,0.08447265625,0.9853515028953552,0.9890092431763432,-4.4956207275390625,1.4286041259765625,-2.8553009033203125,5.514005687622919
1785339810.540586,-0.00048827752470970154,0.0908203125,0.9897460341453552,0.9939043111306025,-4.55474853515625,2.52532958984375,-2.4890899658203125,5.772225966972861
1785339810.550171,-0.0068359337747097015,0.0849609375,1.01220703125,1.015789429460353,-4.192352294921875,2.70843505859375,-2.1839141845703125,5.448019768404283
1785339810.559756,0.00048828125,0.08984375,1.0087890625,1.012782064637931,-3.2749176025390625,3.3206939697265625,-1.1463165283203125,4.802721658299478
1785339810.569341,-0.0068359337747097015,0.07666015625,1.0078125,1.0107470230988052,-2.3593902587890625,2.9544830322265625,-0.4787445068359375,3.8111531960561447
1785339810.578926,-0.011230465024709702,0.0830078125,0.9926757216453552,0.9962035477877165,-1.9931793212890625,2.0999908447265625,-0.0476837158203125,2.8956862902434963
1785339810.588536,-0.0053710900247097015,0.06640625,0.9892577528953552,0.991498633539494,-1.567840576171875,1.36566162109375,0.3757476806640625,2.1128989694596827
1785339810.598149,-0.0185546837747097,0.0654296875,0.9707030653953552,0.9730826077287922,-1.1997222900390625,1.2454986572265625,0.6809234619140625,1.858563219090159
1785339810.607762,-0.00439453125,0.0776367112994194,0.9755858778953552,0.9786800171634994,-1.3217926025390625,1.2454986572265625,1.3523101806640625,2.2643200776409302
1785339810.617375,0.0024414099752902985,0.07080078125,0.9711913466453552,0.973771709851491,-1.5048980712890625,0.5741119384765625,1.4781951904296875,2.1861801718706344
1785339810.626988,0.0195312462747097,0.07421875,0.9921874403953552,0.9951511489773261,-1.2607574462890625,-0.1583099365234375,0.9860992431640625,1.6084038957127995
