timestamp,accel_x,accel_y,accel_z,accel_rms,gyro_x,gyro_y,gyro_z,gyro_rms
1784902554.091404,0.02001953125,-0.1689453125,0.9760741591453552,0.9907896166182327,-0.530242919921875,-0.58746337890625,0.4787445068359375,0.9249146330925948
1784902554.102045,0.03076171875,-0.1796875,0.9804686903953552,0.997272647695848,-0.1621246337890625,-0.4673004150390625,-0.0095367431640625,0.49471711537715674
1784902554.112686,0.0180664099752903,-0.17578125,0.9702147841453552,0.9861755271731174,0.0209808349609375,-0.5283355712890625,0.2346038818359375,0.5784614530783263
1784902554.123397,0.0229492224752903,-0.16455078125,0.9770507216453552,0.9910760511130895,0.02288818359375,-0.09918212890625,0.1125335693359375,0.15173914415892642
1784902554.134108,0.012695316225290298,-0.171875,0.9721679091453552,0.9873259999873961,0.3261566162109375,-0.2231597900390625,-0.0095367431640625,0.39530922030560395
1784902554.144819,0.0332031287252903,-0.17333984375,0.9702147841453552,0.9861368447445014,0.1430511474609375,-0.1621246337890625,-0.1316070556640625,0.253117452522919
1784902554.155458,0.01708984375,-0.15869140625,0.9760741591453552,0.9890378098578002,-0.0400543212890625,-0.3452301025390625,-0.4367828369140625,0.5581822453068134
1784902554.166098,0.013671878725290298,-0.16650390625,0.9663085341453552,0.9806439997402385,0.1430511474609375,-0.2231597900390625,-0.2536773681640625,0.3669007083651034
1784902554.176738,0.0175781287252903,-0.16552734375,0.9799804091453552,0.9940170493744619,-0.102996826171875,-0.46539306640625,-0.3147125244140625,0.5711768775813352
1784902554.184869,0.0244140587747097,-0.16162109375,0.9702147841453552,0.9838872656890216,-0.1621246337890625,-0.4024505615234375,-0.2536773681640625,0.5025963176053054
1784902554.193003,0.011718753725290298,-0.15234375,0.9648436903953552,0.9768670811572394,-0.16021728515625,-0.58746337890625,-0.1926422119140625,0.638665657312126
1784902554.201137,0.0175781287252903,-0.1748046875,0.9750975966453552,0.9907981592458696,-0.3452301025390625,-0.0972747802734375,-0.1926422119140625,0.4071329369966519
1784902554.209271,0.009277347475290298,-0.16796875,0.9755858778953552,0.98998352274247,-0.286102294921875,-0.28228759765625,0.0514984130859375,0.40520722784825824
1784902554.218911,0.02490234375,-0.1630859375,0.9804686903953552,0.9942514785405552,-0.4673004150390625,-0.3452301025390625,0.0514984130859375,0.5832714532232668
1784902554.228551,0.0332031287252903,-0.16796875,0.9770507216453552,0.9919395452352023,-0.286102294921875,0.08392333984375,-0.2536773681640625,0.3914714002947577
1784902554.238191,0.0273437537252903,-0.16650390625,0.9731444716453552,0.9876646163340143,-0.286102294921875,-0.16021728515625,0.3566741943359375,0.4845003431656089
1784902554.247831,0.0146484375,-0.16259765625,0.9687499403953552,0.9824098032670423,-0.286102294921875,0.02288818359375,0.2956390380859375,0.4120446977551867
1784902554.257471,0.0180664099752903,-0.162109375,0.9711913466453552,0.9847936212380259,0.02288818359375,0.20599365234375,0.4177093505859375,0.46630285793791204
1784902554.266931,0.0229492224752903,-0.177734375,0.9829100966453552,0.9991138238240138,-0.4673004150390625,0.3261566162109375,0.0514984130859375,0.5721886950510459
1784902554.276394,0.02978515625,-0.16845703125,0.9716796278953552,0.9866236497151568,-0.3452301025390625,0.3261566162109375,-0.0095367431640625,0.4750293795834924
1784902554.285857,0.0278320349752903,-0.1708984375,0.9721679091453552,0.9874671344823881,-0.286102294921875,0.08392333984375,-0.0705718994140625,0.3063952400364628
1784902554.29532,0.0234375037252903,-0.177734375,0.9868163466453552,1.0029682580440915,-0.286102294921875,0.57220458984375,-0.0095367431640625,0.6398152587020687
1784902554.304783,0.0312500037252903,-0.14794921875,0.9765624403953552,0.9882002499759336,0.1430511474609375,0.2651214599609375,0.0514984130859375,0.30562248914646273
1784902554.315482,0.0185546912252903,-0.16796875,0.9804686903953552,0.9949254396127437,0.1430511474609375,-0.0400543212890625,-0.0705718994140625,0.1644638940032945
1784902554.326183,0.02099609375,-0.1650390625,0.9799804091453552,0.994002178273436,-0.286102294921875,0.02288818359375,-0.0705718994140625,0.29556519601382925
1784902554.336884,0.01513671875,-0.1611328125,0.9755858778953552,0.9889189596056532,0.0209808349609375,-0.1621246337890625,-0.2536773681640625,0.3017893295587852
1784902554.344854,0.0244140625,-0.17431640625,0.9785155653953552,0.9942207841604704,0.3871917724609375,-0.2231597900390625,0.0514984130859375,0.44985536242451385
1784902554.352825,0.013671878725290298,-0.1611328125,0.9848632216453552,0.9980512355995094,0.51116943359375,-0.46539306640625,-0.0095367431640625,0.6913579720880817
1784902554.360796,0.0107421875,-0.15283203125,0.9716796278953552,0.9836840568165889,0.3261566162109375,-0.5283355712890625,0.4177093505859375,0.7483299511274653
1784902554.368767,0.012695316225290298,-0.16796875,0.9736327528953552,0.9880968624285832,0.3261566162109375,-0.4024505615234375,0.2956390380859375,0.5964453316181436
1784902554.376934,0.0214843787252903,-0.16259765625,0.9721679091453552,0.9859056851034264,0.1430511474609375,-0.4673004150390625,0.8449554443359375,0.9761060452627637
1784902554.385101,0.0205078162252903,-0.1669921875,0.9638671278953552,0.9784410056051446,0.2651214599609375,-0.1621246337890625,0.9670257568359375,1.0157325434370872
1784902554.393268,0.029296875,-0.15283203125,0.9819335341453552,0.9941878102953959,0.263214111328125,-0.09918212890625,1.2722015380859375,1.302925752529612
1784902554.401435,0.0341796837747097,-0.1572265625,0.9770507216453552,0.9902103591693105,0.202178955078125,0.08392333984375,1.0280609130859375,1.05110831880549
1784902554.412185,0.02734375,-0.1689453125,0.9653319716453552,0.9803856459376046,0.202178955078125,0.75531005859375,0.8449554443359375,1.151225137582705
1784902554.422935,0.03466796875,-0.1650390625,0.9697265028953552,0.9842810831392551,-0.1621246337890625,0.9975433349609375,0.8449554443359375,1.3173180348416886
1784902554.433685,0.0166015662252903,-0.1484375,0.9804686903953552,0.991780296362539,-0.0400543212890625,1.1196136474609375,0.4787445068359375,1.218333029618871
1784902554.444095,0.015625,-0.16064453125,0.9770507216453552,0.9902923400255309,0.02288818359375,1.54876708984375,0.3566741943359375,1.5894715626385045
1784902554.454506,0.0185546912252903,-0.15771484375,0.9697265028953552,0.9826432409187009,-0.102996826171875,1.36566162109375,0.0514984130859375,1.370507970090017
1784902554.464917,0.013183597475290298,-0.173828125,0.9750975966453552,0.9905580988851457,-0.46539306640625,1.18255615234375,0.0514984130859375,1.2718812233284351
1784902554.472882,0.0239257849752903,-0.173828125,0.9775390028953552,0.993162203474007,-0.46539306640625,0.99945068359375,-0.6198883056640625,1.2648137754998119
1784902554.480847,0.0268554724752903,-0.171875,0.9848632216453552,1.000108892759453,-0.896453857421875,0.87738037109375,-0.6809234619140625,1.4272640242969055
1784902554.488812,0.0283203162252903,-0.1513671875,0.9741210341453552,0.986217955082535,-0.8945465087890625,0.6313323974609375,-0.7419586181640625,1.322609785060734
1784902554.496777,0.008789066225290298,-0.1591796875,0.9682616591453552,0.9812981510064238,-0.8335113525390625,0.4482269287109375,-0.7419586181640625,1.2025602461004032
1784902554.508771,0.0234375037252903,-0.16748046875,0.9819335341453552,0.9963897277033622,-0.774383544921875,0.32806396484375,-0.4367828369140625,0.9476682364084318
1784902554.520765,0.014160159975290298,-0.171875,0.9746093153953552,0.9897498893209985,-0.95367431640625,0.20599365234375,0.0514984130859375,0.9770261885585338
1784902554.532759,0.0019531287252902985,-0.16259765625,0.9858397841453552,0.9991605939655402,-1.1386871337890625,0.0209808349609375,-0.0095367431640625,1.1389203367938363
1784902554.544753,0.014160159975290298,-0.158203125,0.9746093153953552,0.9874674964502348,-1.0166168212890625,-0.4673004150390625,0.2346038818359375,1.1432053274001344
1784902554.552757,0.005859375,-0.1650390625,0.9663085341453552,0.980318523536312,-1.201629638671875,-0.58746337890625,0.8449554443359375,1.5820798693503406
1784902554.560762,0.01220703125,-0.154296875,0.9785155653953552,0.9906812045091478,-0.896453857421875,-0.95367431640625,0.8449554443359375,1.5579069045268492
1784902554.568767,0.0190429724752903,-0.17626953125,0.9692382216453552,0.9853204112094909,-0.8335113525390625,-1.0166168212890625,1.2722015380859375,1.8294118425460135
1784902554.576772,0.0239257849752903,-0.17431640625,0.9824218153953552,0.9980537440635671,-0.286102294921875,-1.07574462890625,0.9059906005859375,1.4352351717158678
1784902554.587452,0.0190429724752903,-0.1767578125,0.9692382216453552,0.9854078797019692,-0.4673004150390625,-0.8335113525390625,0.6618499755859375,1.1623924650866777
1784902554.598132,0.0175781287252903,-0.14892578125,0.9614257216453552,0.9730505111101364,-0.225067138671875,-0.95367431640625,0.7228851318359375,1.217666962889416
1784902554.608812,0.0180664099752903,-0.1630859375,0.9658202528953552,0.979659215790112,-0.0400543212890625,-0.7114410400390625,0.6618499755859375,0.9725215125069967
1784902554.616795,0.0312500037252903,-0.15673828125,0.9589843153953552,0.9722110721012865,-0.3452301025390625,-0.1621246337890625,0.2346038818359375,0.44778030545442676
1784902554.624781,0.0229492224752903,-0.17138671875,0.9785155653953552,0.9936763989836448,-0.3452301025390625,-0.7114410400390625,0.5397796630859375,0.9574415187530583
1784902554.632767,0.0205078125,-0.16845703125,0.9667968153953552,0.9815775180848934,-0.225067138671875,-0.58746337890625,0.2956390380859375,0.6951049412184261
1784902554.640753,0.0205078162252903,-0.1611328125,0.9682616591453552,0.9817917265700534,-0.225067138671875,-0.58746337890625,0.2956390380859375,0.6951049412184261
1784902554.651399,0.02783203125,-0.16357421875,0.9780272841453552,0.9920022759731518,-0.225067138671875,-0.58746337890625,0.3566741943359375,0.723176962693837
1784902554.662045,0.0312500037252903,-0.1728515625,0.9736327528953552,0.9893507784916884,-0.0400543212890625,-0.4673004150390625,0.3566741943359375,0.58922873950173
1784902554.672691,0.0180664099752903,-0.15087890625,0.9721679091453552,0.9839721963006085,-0.286102294921875,-0.16021728515625,0.5397796630859375,0.6315743711579587
1784902554.680726,0.02490234375,-0.1484375,0.9770507216453552,0.9885757081772759,-0.591278076171875,-0.16021728515625,0.0514984130859375,0.6147612775498491
1784902554.68876,0.01953125,-0.1572265625,0.9785155653953552,0.9912589840213911,0.080108642578125,0.02288818359375,0.6618499755859375,0.6670731996917857
1784902554.696794,0.0273437537252903,-0.15576171875,0.9736327528953552,0.9863924834498341,-0.102996826171875,-0.34332275390625,0.6008148193359375,0.6996122545274105
1784902554.704828,0.011718753725290298,-0.16796875,0.9711913466453552,0.9856791881561947,-0.225067138671875,0.08392333984375,0.3566741943359375,0.4300172377773531
1784902554.715474,0.0268554724752903,-0.16552734375,0.9794921278953552,0.9937430988639733,-0.16021728515625,-0.09918212890625,-0.3147125244140625,0.3668114586272994
1784902554.72612,0.0317382849752903,-0.16650390625,0.9750975966453552,0.9897202597265701,0.1430511474609375,0.0858306884765625,0.3566741943359375,0.3937601030823739
1784902554.736766,0.0239257849752903,-0.16064453125,0.9750975966453552,0.9885314519987535,-0.0400543212890625,0.0209808349609375,0.4787445068359375,0.48087508452317484
1784902554.744778,0.025390625,-0.1650390625,0.9653319716453552,0.979667490258546,-0.1621246337890625,0.3261566162109375,-0.1316070556640625,0.38727632548345897
1784902554.752789,0.0166015662252903,-0.1630859375,0.9814452528953552,0.995041415943183,-0.286102294921875,0.20599365234375,-0.1316070556640625,0.3763088160886547
1784902554.7608,0.0312500037252903,-0.17236328125,0.9687499403953552,0.9844603143205426,-0.1621246337890625,0.5092620849609375,-0.1926422119140625,0.5681049989844671
1784902554.768811,0.01171875,-0.1689453125,0.9755858778953552,0.9901755666881182,-0.7114410400390625,0.2651214599609375,0.2346038818359375,0.7946550971057648
1784902554.779474,0.02001953125,-0.16357421875,0.9804686903953552,0.9942213835543497,-0.5283355712890625,0.3261566162109375,0.1735687255859375,0.6447035882396152
1784902554.790137,0.0185546912252903,-0.162109375,0.9619140028953552,0.9756547929444728,-0.5283355712890625,0.3261566162109375,-0.0095367431640625,0.6209730780458088
1784902554.8008,0.011230472475290298,-0.171875,0.9848632216453552,0.9998113344459976,-0.713348388671875,0.20599365234375,0.1125335693359375,0.7509747749786037
1784902554.808793,0.0229492224752903,-0.1650390625,0.9707030653953552,0.9849005026554909,-0.5283355712890625,0.1430511474609375,0.0514984130859375,0.5497764938860161
1784902554.816786,0.0268554724752903,-0.16162109375,0.9794921278953552,0.9930999058281036,-0.286102294921875,0.02288818359375,0.3566741943359375,0.4578153263194395
1784902554.824779,0.0234375037252903,-0.16162109375,0.9809569716453552,0.9944582820538252,-0.1621246337890625,0.0209808349609375,0.0514984130859375,0.1713962626992362
1784902554.832772,0.0317382849752903,-0.162109375,0.9658202528953552,0.9798446453897226,-0.1621246337890625,-0.0400543212890625,-0.1316070556640625,0.21262446386935047
1784902554.843438,0.021484375,-0.1796875,0.9697265028953552,0.9864677726327638,-0.286102294921875,0.14495849609375,0.0514984130859375,0.32483776766209793
1784902554.854104,0.0170898474752903,-0.166015625,0.9760741591453552,0.9902393724661637,-0.2231597900390625,-0.1621246337890625,-0.3147125244140625,0.41848376527003767
1784902554.86477,0.0278320349752903,-0.1572265625,0.9882811903953552,1.0010966613747607,-0.1010894775390625,-0.2231597900390625,-0.1926422119140625,0.3116574981779544
1784902554.87285,0.0234375037252903,-0.1689453125,0.9838866591453552,0.9985613617804386,-0.16021728515625,-0.28228759765625,-0.4367828369140625,0.544182977385431
1784902554.88093,0.012695316225290298,-0.16015625,0.9628905653953552,0.9762015347229841,-0.5893707275390625,-0.0400543212890625,-0.4367828369140625,0.7346709806141439
1784902554.88901,0.0312500037252903,-0.1572265625,0.9663085341453552,0.979514644020467,-0.3452301025390625,-0.0400543212890625,-0.4367828369140625,0.5581822453068134
1784902554.89709,0.01953125,-0.1611328125,0.9799804091453552,0.9933311911439309,-0.1621246337890625,-0.3452301025390625,-0.3147125244140625,0.4944817424369085
1784902554.906626,0.0205078162252903,-0.1767578125,0.9711913466453552,0.9873583577429899,-0.64849853515625,-0.28228759765625,-0.2536773681640625,0.7513912729124449
1784902554.916162,0.02490234375,-0.17138671875,0.9843749403953552,0.9994936504883329,-0.1621246337890625,-0.4673004150390625,-0.4367828369140625,0.6598737162515372
1784902554.925698,0.0244140625,-0.16748046875,0.9711913466453552,0.9858287811071922,-0.4673004150390625,-0.3452301025390625,0.0514984130859375,0.5832714532232668
1784902554.935234,0.02099609375,-0.17333984375,0.9799804091453552,0.9954140543978325,-0.7114410400390625,-0.2231597900390625,0.0514984130859375,0.747395967270704
1784902554.94477,0.0190429724752903,-0.1689453125,0.9770507216453552,0.9917324569076716,-0.1621246337890625,-0.2231597900390625,0.0514984130859375,0.28060074005940533
1784902554.954355,0.014160159975290298,-0.1640625,0.9882811903953552,1.0019065452057074,-0.286102294921875,-0.52642822265625,-0.4978179931640625,0.7789762198465858
1784902554.963944,0.0185546912252903,-0.16162109375,0.9799804091453552,0.9933917942182279,-0.4062652587890625,-0.2231597900390625,-0.0095367431640625,0.46361913448368336
1784902554.973533,0.0263671912252903,-0.16064453125,0.9794921278953552,0.9929283573363257,-0.1621246337890625,-0.2231597900390625,-0.1926422119140625,0.33644570227996473
1784902554.983122,0.0219726599752903,-0.1748046875,0.9780272841453552,0.9937690099269054,-0.2231597900390625,-0.0400543212890625,-0.3757476806640625,0.43885186574586665
1784902554.992711,0.01953125,-0.1533203125,0.9819335341453552,0.9940231654397435,-0.0400543212890625,-0.2231597900390625,-0.4367828369140625,0.4921218214699511
1784902555.000722,0.0273437537252903,-0.15234375,0.9731444716453552,0.9853763046297437,-0.102996826171875,-0.34332275390625,-0.3147125244140625,0.47699353514940096
1784902555.008733,0.0190429724752903,-0.1591796875,0.9824218153953552,0.9954162099734953,-0.1621246337890625,-0.1621246337890625,-0.3147125244140625,0.3893748409765931
1784902555.016744,0.0253906287252903,-0.16162109375,0.9741210341453552,0.9877640665343259,-0.102996826171875,-0.40435791015625,-0.2536773681640625,0.4883296763724837
1784902555.024755,0.02099609375,-0.16015625,0.9707030653953552,0.9840504568032884,-0.286102294921875,-0.16021728515625,-0.0705718994140625,0.3354168967260165
1784902555.032766,0.02490234375,-0.162109375,0.9721679091453552,0.9859056850222466,-0.591278076171875,-0.28228759765625,-0.0095367431640625,0.6552762780859901
1784902555.040777,0.0229492224752903,-0.17578125,0.9741210341453552,0.9901199441624228,-0.5893707275390625,-0.2231597900390625,-0.2536773681640625,0.6793455332074008
1784902555.05039,0.025390625,-0.1630859375,0.9672850966453552,0.981265593527236,-0.102996826171875,0.20599365234375,0.1125335693359375,0.2563309096361253
1784902555.060003,0.0190429724752903,-0.17431640625,0.9824218153953552,0.9979486297667406,-0.46539306640625,0.20599365234375,-0.2536773681640625,0.5686618487146604
1784902555.069616,0.0190429724752903,-0.162109375,0.9799804091453552,0.9934805919454507,-0.5283355712890625,0.2651214599609375,0.1735687255859375,0.6160795134742637
1784902555.079229,0.0341796837747097,-0.1572265625,0.9814452528953552,0.9945467445873689,-0.5283355712890625,0.1430511474609375,0.2346038818359375,0.5955174960080698
1784902555.088842,0.009277347475290298,-0.1494140625,0.9736327528953552,0.985074296060718,-0.4062652587890625,0.1430511474609375,-0.0705718994140625,0.4364578837364991
1784902555.096829,0.013671878725290298,-0.1572265625,0.9746093153953552,0.9873046287133715,-0.3452301025390625,-0.0400543212890625,0.1125335693359375,0.36531079450318094
1784902555.104816,0.0341796875,-0.15869140625,0.9853515028953552,0.9986334651479167,-0.5893707275390625,0.4482269287109375,-0.0705718994140625,0.7438048313156296
1784902555.112803,0.021484375,-0.17431640625,0.9863280653953552,1.0018437205690316,-0.2841949462890625,0.2651214599609375,0.1125335693359375,0.4046232324713305
1784902555.12079,0.021484375,-0.1591796875,0.9638671278953552,0.9771589387192747,-0.591278076171875,0.20599365234375,-0.1926422119140625,0.6550985956163957
1784902555.128777,0.0170898474752903,-0.16259765625,0.9760741591453552,0.989672079456642,-0.7114410400390625,0.2651214599609375,-0.4367828369140625,0.8759092353699546
1784902555.136764,0.0214843787252903,-0.16796875,0.9760741591453552,0.9906542503099083,-0.6504058837890625,0.1430511474609375,-0.3147125244140625,0.7365700356927332
1784902555.146362,0.0073242224752902985,-0.162109375,0.9765624403953552,0.9899531775234068,-0.286102294921875,-0.03814697265625,-0.2536773681640625,0.38426803380068647
1784902555.15596,0.0156250037252903,-0.181640625,0.9624022841453552,0.9795180518602008,-0.3452301025390625,0.2651214599609375,-0.4978179931640625,0.6612835749879511
1784902555.165558,0.0185546912252903,-0.1591796875,0.9672850966453552,0.9804707581928579,-0.408172607421875,-0.16021728515625,-0.5588531494140625,0.7103459006163318
1784902555.175156,0.0190429724752903,-0.1787109375,0.9716796278953552,0.988160681898283,-0.102996826171875,0.08392333984375,-0.0705718994140625,0.15043891171807094
1784902555.184754,0.014160159975290298,-0.16650390625,0.9809569716453552,0.9950882579684381,-0.225067138671875,0.20599365234375,-0.0095367431640625,0.3052532574536102
1784902555.19542,0.02587890625,-0.17431640625,0.9873046278953552,1.0029089467844015,-0.408172607421875,-0.28228759765625,0.0514984130859375,0.4989421327072698
1784902555.206086,0.011718753725290298,-0.15771484375,0.9824218153953552,0.9950698088539649,0.080108642578125,0.20599365234375,0.1735687255859375,0.2810282582288728
1784902555.216752,0.00634765625,-0.169921875,0.9785155653953552,0.9931799676112962,-0.225067138671875,0.20599365234375,0.1735687255859375,0.3510195211343512
1784902555.224815,0.0180664099752903,-0.1689453125,0.9794921278953552,0.9941195815363908,-0.3452301025390625,0.2651214599609375,0.1125335693359375,0.44959650405495466
1784902555.232877,0.0288085974752903,-0.1689453125,0.9721679091453552,0.9871590031379279,-0.3452301025390625,0.3910064697265625,0.0514984130859375,0.5241392654796344
1784902555.240939,0.0190429724752903,-0.16162109375,0.9750975966453552,0.9885845111720033,-0.3452301025390625,0.0209808349609375,0.1735687255859375,0.38697560858058766
1784902555.249001,0.0288085974752903,-0.166015625,0.9663085341453552,0.9808890386760263,-0.5283355712890625,-0.0400543212890625,0.1125335693359375,0.5416702214177495
1784902555.25959,0.0224609412252903,-0.16455078125,0.9565429091453552,0.9708531251054253,-0.102996826171875,-0.09918212890625,-0.1926422119140625,0.2399092801602264
1784902555.270179,0.0190429724752903,-0.15478515625,0.9638671278953552,0.9764020276675344,-0.1621246337890625,-0.5283355712890625,-0.2536773681640625,0.6080913417318347
1784902555.280768,0.009277347475290298,-0.1689453125,0.9873046278953552,1.001698066313141,-0.2231597900390625,-0.1621246337890625,-0.3757476806640625,0.466123383125046
1784902555.288757,0.0170898474752903,-0.17236328125,0.9672850966453552,0.982670657851454,-0.3452301025390625,-0.4673004150390625,-0.3147125244140625,0.6607552304884794
1784902555.296746,0.012207034975290298,-0.17138671875,0.9697265028953552,0.9848309040055734,-0.16021728515625,-0.58746337890625,-0.0705718994140625,0.612995263444748
1784902555.304735,0.01611328125,-0.15966796875,0.9868163466453552,0.999779975836623,-0.4673004150390625,-0.5283355712890625,-0.1316070556640625,0.7175155544555001
1784902555.312724,0.0229492224752903,-0.15673828125,0.9829100966453552,0.9955931968976114,-0.16021728515625,-0.58746337890625,0.0514984130859375,0.6110931897584502
1784902555.322332,0.01953125,-0.1572265625,0.9726561903953552,0.9854753809185364,-0.102996826171875,-0.58746337890625,0.2346038818359375,0.640906037676287
1784902555.33194,0.008789066225290298,-0.158203125,0.9692382216453552,0.9821039694162369,-0.286102294921875,-0.64849853515625,0.0514984130859375,0.7106735958298546
1784902555.341548,0.021484375,-0.16845703125,0.9794921278953552,0.9941047119673435,0.0209808349609375,-0.1621246337890625,0.4177093505859375,0.448559576738499
1784902555.351156,0.014160159975290298,-0.1630859375,0.9790038466453552,0.9925956200221628,-0.0400543212890625,-0.6504058837890625,0.3566741943359375,0.7428651581724297
1784902555.360764,0.01806640625,-0.16845703125,0.9877929091453552,1.0022170412491485,0.202178955078125,-0.52642822265625,0.9059906005859375,1.0671560203810728
1784902555.371436,0.0229492224752903,-0.1689453125,0.9741210341453552,0.9889292060569146,0.202178955078125,-0.16021728515625,1.0890960693359375,1.1192301624698606
1784902555.382106,0.0278320349752903,-0.15673828125,0.9692382216453552,0.982224129859535,0.02288818359375,-0.28228759765625,0.7228851318359375,0.7763846151027329
1784902555.392776,0.02587890625,-0.15869140625,0.9765624403953552,0.9897105032266913,-0.102996826171875,0.08392333984375,0.7228851318359375,0.7349927802376495
1784902555.403461,0.0356445349752903,-0.1611328125,0.9692382216453552,0.9831871878925272,-0.102996826171875,1.12152099609375,0.2346038818359375,1.1504158692634099
1784902555.414146,0.0283203162252903,-0.15625,0.9785155653953552,0.9913167074815658,-0.591278076171875,1.18255615234375,-0.1316070556640625,1.3286719813061958
1784902555.424831,0.0239257849752903,-0.16455078125,0.9628905653953552,0.97714259129569,-0.408172607421875,0.99945068359375,-0.0095367431640625,1.0796284063768253
1784902555.432811,0.03173828125,-0.17431640625,0.9663085341453552,0.9824182974409446,-0.4673004150390625,0.8144378662109375,-0.1926422119140625,0.9585352041657351
1784902555.44079,0.02587890625,-0.1787109375,0.9692382216453552,0.9859158418795572,-0.774383544921875,0.75531005859375,-0.0705718994140625,1.0840403831248964
1784902555.448769,0.0288085974752903,-0.16796875,0.9746093153953552,0.9893971669256278,-0.64849853515625,0.69427490234375,-0.2536773681640625,0.9833210041704952
1784902555.456748,0.0234375037252903,-0.16259765625,0.9707030653953552,0.9845058433380705,-0.7114410400390625,0.6313323974609375,-0.1316070556640625,0.9602340166002253
1784902555.467396,0.011718753725290298,-0.16259765625,0.9667968153953552,0.9804444957596874,-1.079559326171875,0.20599365234375,-0.3757476806640625,1.1614938842090443
1784902555.478044,0.017578125,-0.173828125,0.9838866591453552,0.999278822733545,-1.0166168212890625,0.2651214599609375,-0.1926422119140625,1.0681339670990897
1784902555.488692,0.0048828125,-0.16796875,0.9716796278953552,0.9861027543320872,-0.8335113525390625,0.2040863037109375,-0.0095367431640625,0.858186077517031
1784902555.499389,0.0019531287252902985,-0.16015625,0.9746093153953552,0.9876827207060388,-0.8335113525390625,-0.2841949462890625,0.2346038818359375,0.9113434718481451
1784902555.510087,0.011230472475290298,-0.15625,0.9658202528953552,0.9784421019737786,-0.896453857421875,-0.40435791015625,0.5397796630859375,1.121827492386266
1784902555.520785,0.009765625,-0.16845703125,0.9726561903953552,0.9871844830241253,-0.46539306640625,-0.46539306640625,0.4787445068359375,0.8138659074710093
1784902555.531444,0.0307617224752903,-0.1669921875,0.9755858778953552,0.9902527351159061,-0.102996826171875,-0.64849853515625,1.0280609130859375,1.2198639011448666
1784902555.542104,0.02001953125,-0.16748046875,0.9873046278953552,1.0016091639495794,-0.3452301025390625,-0.7114410400390625,1.4553070068359375,1.6562761428266635
1784902555.552764,0.0205078125,-0.1650390625,0.9672850966453552,0.9814779267597556,-0.1621246337890625,-0.9555816650390625,1.0890960693359375,1.457926940447653
1784902555.560766,0.01953125,-0.17822265625,0.9716796278953552,0.9880820230093371,-0.0400543212890625,-0.4024505615234375,1.0280609130859375,1.104753386118164
1784902555.568767,0.029296875,-0.1611328125,0.9687499403953552,0.9824960748852537,0.0820159912109375,-0.3452301025390625,1.0280609130859375,1.087575141095334
1784902555.576768,0.01513671875,-0.16552734375,0.9833983778953552,0.9973468761823356,-0.1621246337890625,0.0209808349609375,0.7839202880859375,0.8007843719689058
1784902555.584769,0.0327148474752903,-0.16650390625,0.9741210341453552,0.9887899681966118,-0.0400543212890625,0.0209808349609375,0.5397796630859375,0.5416702214177495
1784902555.595466,0.03515625,-0.17236328125,0.9887694716453552,1.0042958382345135,0.2651214599609375,0.1430511474609375,0.4177093505859375,0.5150088551555551
1784902555.606163,0.01318359375,-0.17333984375,0.9750975966453552,0.9904725294317795,0.2651214599609375,0.1430511474609375,0.3566741943359375,0.4668720383862156
1784902555.61686,0.03466796875,-0.162109375,0.9682616591453552,0.9823502217086622,0.1430511474609375,0.1430511474609375,0.2346038818359375,0.30978418770536414
1784902555.624851,0.0244140625,-0.16845703125,0.9648436903953552,0.9797434177992957,-0.0400543212890625,0.1430511474609375,0.4177093505859375,0.4433385625126061
1784902555.632842,0.012207034975290298,-0.1669921875,0.9750975966453552,0.989368852032684,0.0209808349609375,0.1430511474609375,0.3566741943359375,0.3848640112179094
1784902555.640833,0.0273437537252903,-0.17431640625,0.9721679091453552,0.9880507749745233,-0.286102294921875,0.38909912109375,0.5397796630859375,0.7243029296341832
1784902555.648824,0.02685546875,-0.1494140625,0.9721679091453552,0.9839492984125695,-0.2231597900390625,0.4482269287109375,0.2956390380859375,0.5814723659403744
1784902555.658412,0.02001953125,-0.16552734375,0.9697265028953552,0.9839560831551659,0.0209808349609375,0.1430511474609375,0.3566741943359375,0.3848640112179094
1784902555.667999,0.0166015662252903,-0.16552734375,0.9584960341453552,0.972825555278251,0.202178955078125,0.14495849609375,0.2956390380859375,0.3863828882166272
1784902555.677586,0.0229492224752903,-0.15380859375,0.9780272841453552,0.9903136467081085,0.080108642578125,0.02288818359375,0.1735687255859375,0.1925288707323072
1784902555.687173,0.0214843787252903,-0.17236328125,0.9829100966453552,0.9981397383832886,-0.102996826171875,0.08392333984375,0.1125335693359375,0.17411282950861273
1784902555.69676,0.0175781287252903,-0.166015625,0.9741210341453552,0.9883228053212371,0.1430511474609375,-0.2231597900390625,0.2346038818359375,0.3539815024159594
1784902555.706359,0.0288085974752903,-0.15576171875,0.9804686903953552,0.9931820080740641,-0.16021728515625,-0.09918212890625,0.2956390380859375,0.35058396140952247
1784902555.715958,0.0332031287252903,-0.16357421875,0.9838866591453552,0.9979438515472849,-0.1621246337890625,-0.4024505615234375,0.2956390380859375,0.5250269442534794
1784902555.725557,0.0341796875,-0.1806640625,0.9780272841453552,0.995160852852111,-0.0400543212890625,-0.5283355712890625,0.2346038818359375,0.5794668290038335
1784902555.735156,0.0234375037252903,-0.1611328125,0.9658202528953552,0.979449774489678,-0.408172607421875,-0.28228759765625,0.4177093505859375,0.6486696129826297
1784902555.744755,0.0214843787252903,-0.15771484375,0.9746093153953552,0.9875215785610467,-0.0400543212890625,-0.3452301025390625,0.4177093505859375,0.5433868547544969
1784902555.752756,0.013671878725290298,-0.166015625,0.9711913466453552,0.9853734012093275,-0.3452301025390625,-0.2231597900390625,0.2346038818359375,0.47331078263853293
1784902555.760757,0.03076171875,-0.16357421875,0.9667968153953552,0.9810193120620652,-0.591278076171875,-0.16021728515625,0.4177093505859375,0.7414583220864666
1784902555.768758,0.01953125,-0.1650390625,0.9824218153953552,0.9963794383878798,-0.16021728515625,-0.09918212890625,-0.0095367431640625,0.18867332251113939
1784902555.776759,0.0170898474752903,-0.17138671875,0.9721679091453552,0.9873074059393416,-0.4673004150390625,-0.2231597900390625,0.4177093505859375,0.6653202772747003
1784902555.787407,0.0205078125,-0.1650390625,0.9760741591453552,0.9901410135307629,-0.286102294921875,-0.28228759765625,0.4787445068359375,0.6250896845858884
1784902555.798055,0.01123046875,-0.1591796875,0.9746093153953552,0.9875867627688948,-0.225067138671875,-0.46539306640625,0.5397796630859375,0.7474008347935701
1784902555.808703,0.02978515625,-0.15478515625,0.9804686903953552,0.9930581317192648,-0.3452301025390625,-0.7114410400390625,0.2956390380859375,0.8442361150717096
1784902555.816715,0.02099609375,-0.15966796875,0.9809569716453552,0.9940881633019961,-0.1621246337890625,-0.2231597900390625,0.0514984130859375,0.28060074005940533
1784902555.824728,0.014160159975290298,-0.15283203125,0.9765624403953552,0.988550625864684,-0.4062652587890625,-0.5283355712890625,-0.0095367431640625,0.6665439864393506
1784902555.832741,0.03076171875,-0.16455078125,0.9770507216453552,0.991287725949509,-0.3452301025390625,-0.2841949462890625,0.2346038818359375,0.5049649221162449
1784902555.84875,0.0244140625,-0.1708984375,0.9936522841453552,1.0085371506171585,-0.16021728515625,-0.28228759765625,-0.0095367431640625,0.32472575463543585
1784902555.856749,0.02001953125,-0.15966796875,0.9667968153953552,0.980097303401464,-0.4062652587890625,-0.0400543212890625,-0.1316070556640625,0.42892449947914496
1784902555.864748,0.012695316225290298,-0.15185546875,0.9775390028953552,0.9893451150255849,-0.1621246337890625,-0.4673004150390625,0.1735687255859375,0.5241947894422876
1784902555.872747,0.0302734375,-0.173828125,0.9594725966453552,0.9755615622668118,-0.1621246337890625,-0.1621246337890625,0.1125335693359375,0.255406730510301
1784902555.880863,0.0244140625,-0.17724609375,0.9755858778953552,0.991856859302913,-0.2231597900390625,-0.2231597900390625,0.0514984130859375,0.31976971453051456
1784902555.888979,0.0195312462747097,-0.16162109375,0.9697265028953552,0.9832966683273391,-0.4673004150390625,-0.2231597900390625,-0.0705718994140625,0.522637888765125
1784902555.897095,0.0219726599752903,-0.158203125,0.9746093153953552,0.9876104212702286,-0.286102294921875,-0.52642822265625,-0.0095367431640625,0.5992262896759113
1784902555.91309,0.01025390625,-0.16455078125,0.9711913466453552,0.985086155624059,-0.225067138671875,-0.40435791015625,-0.1316070556640625,0.48112467564700795
1784902555.920971,0.0322265662252903,-0.16796875,0.9794921278953552,0.9943122654157528,-0.102996826171875,-0.64849853515625,-0.1926422119140625,0.6843023586927229
1784902555.928852,0.014160159975290298,-0.16552734375,0.9716796278953552,0.9857794433474013,-0.2841949462890625,-0.7114410400390625,-0.2536773681640625,0.8070113555996293
1784902555.936733,0.0229492224752903,-0.16064453125,0.9697265028953552,0.9832104671180062,-0.3452301025390625,-0.7114410400390625,-0.2536773681640625,0.8304723862174105
1784902555.947391,0.0385742150247097,-0.17236328125,0.9736327528953552,0.9895240311880389,-0.0400543212890625,-0.7114410400390625,-0.1926422119140625,0.7381488494314226
1784902555.958049,0.0205078125,-0.1591796875,0.9790038466453552,0.9920722126098155,-0.102996826171875,-0.64849853515625,0.1125335693359375,0.6662000454283741
1784902555.968707,0.009765625,-0.16748046875,0.9755858778953552,0.9899054904349259,-0.225067138671875,-0.58746337890625,0.1735687255859375,0.6526059614862706
1784902555.976792,0.0229492224752903,-0.162109375,0.9736327528953552,0.9873028176733311,-0.286102294921875,-0.34332275390625,0.5397796630859375,0.7007760849162186
1784902555.984877,0.0341796837747097,-0.171875,0.9609374403953552,0.9767855602748825,-0.2231597900390625,-0.0400543212890625,0.5397796630859375,0.5854628299263533
1784902555.992962,0.0268554724752903,-0.17041015625,0.9824218153953552,0.9974534881986858,-0.225067138671875,-0.09918212890625,0.4177093505859375,0.4847405627459359
1784902556.001047,0.02734375,-0.1591796875,0.9790038466453552,0.992237061050968,-0.2231597900390625,-0.0400543212890625,0.4787445068359375,0.5297177959723375
1784902556.011611,0.02587890625,-0.158203125,0.9697265028953552,0.9828872961668176,0.0209808349609375,0.3261566162109375,0.2346038818359375,0.40231494516897753
1784902556.022175,0.02978515625,-0.169921875,0.9799804091453552,0.9950488437484114,0.0209808349609375,0.3261566162109375,0.0514984130859375,0.33086314434248604
1784902556.032739,0.0263671912252903,-0.166015625,0.9672850966453552,0.9817824986775155,-0.102996826171875,0.32806396484375,-0.0705718994140625,0.3510195211343512
1784902556.041199,0.011718753725290298,-0.1611328125,0.9824218153953552,0.9956172637202207,-0.3452301025390625,0.3910064697265625,-0.3757476806640625,0.6428500622941427
1784902556.049659,0.0317382849752903,-0.16015625,0.9741210341453552,0.9877090322112335,-0.0400543212890625,0.1430511474609375,-0.0705718994140625,0.1644638940032945
1784902556.058119,0.029296875,-0.1552734375,0.9707030653953552,0.9834798363188598,-0.286102294921875,0.51116943359375,-0.1926422119140625,0.616652037060822
1784902556.066579,0.029296875,-0.16845703125,0.9638671278953552,0.9789156850820044,-0.3452301025390625,0.0209808349609375,-0.4978179931640625,0.6061738805431032
1784902556.076631,0.012695316225290298,-0.1552734375,0.9692382216453552,0.9816790421239404,-0.102996826171875,0.14495849609375,-0.0705718994140625,0.19131572015427725
1784902556.086683,0.0180664099752903,-0.15869140625,0.9682616591453552,0.9813460134722686,-0.4673004150390625,0.2651214599609375,-0.3147125244140625,0.6226580437532072
1784902556.096735,0.0244140625,-0.1591796875,0.9721679091453552,0.9854159847152892,-0.286102294921875,0.14495849609375,-0.6809234619140625,0.7526780518484361
1784902556.107412,0.008789066225290298,-0.16015625,0.9707030653953552,0.9838656987958846,-0.286102294921875,0.02288818359375,-0.6809234619140625,0.738941914559471
1784902556.118089,0.014648433774709702,-0.171875,0.9819335341453552,0.9969699382209273,-0.408172607421875,-0.16021728515625,-0.3147125244140625,0.5397392230841511
1784902556.128766,0.0043945349752902985,-0.16552734375,0.9765624403953552,0.9905012940211191,-0.5283355712890625,0.0858306884765625,-0.3147125244140625,0.6209262081735418
1784902556.139427,0.029296875,-0.1650390625,0.9824218153953552,0.9966186945870271,-0.5283355712890625,-0.1621246337890625,0.1125335693359375,0.563991734866801
1784902556.150087,0.02490234375,-0.16064453125,0.9760741591453552,0.9895188509048666,-0.46539306640625,-0.46539306640625,0.1125335693359375,0.6677164194068547
1784902556.160747,0.029296875,-0.16845703125,0.9780272841453552,0.9928612424679838,-0.5283355712890625,-0.0400543212890625,-0.1926422119140625,0.5637852839108255
1784902556.171421,0.0195312462747097,-0.16650390625,0.9653319716453552,0.9797810142364778,-0.2841949462890625,-0.2231597900390625,0.1735687255859375,0.4008655159627079
1784902556.182096,0.0239257849752903,-0.1689453125,0.9741210341453552,0.9889523502003637,-0.3452301025390625,-0.0972747802734375,-0.1926422119140625,0.4071329369966519
1784902556.192771,0.0224609412252903,-0.1552734375,0.9697265028953552,0.9823359021696436,-0.591278076171875,0.08392333984375,-0.1926422119140625,0.6275061052636745
1784902556.20077,0.0317382849752903,-0.166015625,0.9760741591453552,0.990600459634774,-0.286102294921875,-0.03814697265625,-0.4978179931640625,0.5754411081946569
1784902556.208769,0.02099609375,-0.1728515625,0.9677733778953552,0.9833126713179466,-0.5283355712890625,-0.4673004150390625,-0.1926422119140625,0.7311765693703284
1784902556.216768,0.0263671912252903,-0.16064453125,0.9873046278953552,1.0006359590066853,-0.5283355712890625,-0.1621246337890625,-0.4367828369140625,0.7044161549774921
1784902556.224767,0.0263671912252903,-0.16064453125,0.9760741591453552,0.9895567989483754,-0.6504058837890625,-0.1621246337890625,-0.3147125244140625,0.7405107585793342
1784902556.235419,0.0229492224752903,-0.16015625,0.9702147841453552,0.9836124331262294,-0.4062652587890625,-0.5283355712890625,-0.2536773681640625,0.7131214086724148
1784902556.246071,0.0190429724752903,-0.1708984375,0.9697265028953552,0.9848545076092668,-0.4673004150390625,-0.1621246337890625,-0.3757476806640625,0.6211605221690606
1784902556.256723,0.01513671875,-0.16015625,0.9643554091453552,0.9776811851603183,-0.591278076171875,-0.34332275390625,-0.2536773681640625,0.729268457997417
1784902556.264735,0.01513671875,-0.17919921875,0.9731444716453552,0.9896219697182579,-0.4673004150390625,-0.1621246337890625,-0.5588531494140625,0.7463048421301675
1784902556.272747,0.0170898474752903,-0.16015625,0.9731444716453552,0.9863834193632356,-0.408172607421875,-0.28228759765625,-0.3147125244140625,0.5876522256089743
1784902556.280759,0.02099609375,-0.158203125,0.9638671278953552,0.9769897158874117,-0.286102294921875,-0.46539306640625,-0.5588531494140625,0.781512681937147
1784902556.288771,0.028808601200580597,-0.16357421875,0.9707030653953552,0.984810084082584,-0.3452301025390625,-0.4024505615234375,-0.0705718994140625,0.5349118349378431
1784902556.298467,0.0263671875,-0.15966796875,0.9780272841453552,0.9913256061225043,-0.225067138671875,-0.46539306640625,-0.3757476806640625,0.6390870384332478
1784902556.308166,0.0224609412252903,-0.16455078125,0.9707030653953552,0.9848075419383477,-0.3452301025390625,-0.2231597900390625,-0.5588531494140625,0.6937585734240886
1784902556.317865,0.0239257849752903,-0.1591796875,0.9848632216453552,0.9979309502410222,-0.2231597900390625,-0.5283355712890625,-0.5588531494140625,0.8007843719689058
1784902556.327564,0.0180664099752903,-0.1669921875,0.9731444716453552,0.9875337708399384,-0.16021728515625,-0.77056884765625,-0.3147125244140625,0.8476378356728728
1784902556.337263,0.02490234375,-0.158203125,0.9667968153953552,0.9799716514994754,0.080108642578125,-0.95367431640625,-0.6198883056640625,1.1402515546526126
1784902556.34675,0.0234375037252903,-0.158203125,0.9682616591453552,0.9813807548100557,0.1430511474609375,-0.8335113525390625,-0.1316070556640625,0.8558768735641545
1784902556.356237,0.0146484375,-0.16015625,0.9775390028953552,0.9906801215916766,0.4482269287109375,-1.1997222900390625,-0.0705718994140625,1.2826618205221207
1784902556.365724,0.0195312462747097,-0.1669921875,0.9770507216453552,0.9914111018819529,0.7534027099609375,-1.1997222900390625,0.0514984130859375,1.4176040713624616
1784902556.375211,0.02734375,-0.17333984375,0.9736327528953552,0.9893205343092424,0.690460205078125,-1.07574462890625,0.3566741943359375,1.3270939237003394
1784902556.384698,0.0327148474752903,-0.15576171875,0.9707030653953552,0.983664788147479,0.6313323974609375,-0.9555816650390625,-0.0705718994140625,1.147474316762476
1784902556.392702,0.021484375,-0.154296875,0.9687499403953552,0.9811959799244545,-0.0400543212890625,-0.8907318115234375,0.2956390380859375,0.939366781163849
1784902556.400707,0.025390625,-0.16796875,0.9711913466453552,0.9859365175371443,-0.0400543212890625,-0.2231597900390625,0.2956390380859375,0.37256822379878873
1784902556.408712,0.0375976599752903,-0.16259765625,0.9731444716453552,0.9873508720548781,-0.5893707275390625,-0.2231597900390625,0.2956390380859375,0.69610386237298
1784902556.416717,0.02978515625,-0.158203125,0.9780272841453552,0.9911875467464984,-0.713348388671875,0.20599365234375,0.3566741943359375,0.8237206986180864
1784902556.427404,0.0327148474752903,-0.16650390625,0.9609374403953552,0.9758045789990007,-0.6504058837890625,0.3261566162109375,0.2346038818359375,0.7644899824968872
1784902556.438091,0.0302734375,-0.16796875,0.9785155653953552,0.9932888269358618,-1.201629638671875,0.57220458984375,0.3566741943359375,1.377878210176119
1784902556.448778,0.0288085974752903,-0.16455078125,0.9638671278953552,0.9782365435495239,-1.262664794921875,0.57220458984375,0.0514984130859375,1.3872247703684233
1784902556.459444,0.0332031287252903,-0.15966796875,0.9726561903953552,0.9862334270933554,-1.201629638671875,0.38909912109375,-0.0705718994140625,1.2650266034979416
1784902556.47011,0.023925788700580597,-0.15869140625,0.9804686903953552,0.9935161088921157,-1.1997222900390625,0.4482269287109375,-0.0705718994140625,1.2826618205221207
1784902556.480776,0.0190429724752903,-0.17041015625,0.9873046278953552,1.0020841703257417,-1.201629638671875,0.38909912109375,-0.1926422119140625,1.2776630762379306
1784902556.491447,0.0234375037252903,-0.17626953125,0.9702147841453552,0.9863756848190176,-1.079559326171875,0.20599365234375,-0.3147125244140625,1.1432085096576488
1784902556.50212,0.0224609412252903,-0.16650390625,0.9648436903953552,0.9793627476951341,-1.079559326171875,0.08392333984375,0.0514984130859375,1.0840403831248964
1784902556.512793,0.011230472475290298,-0.1728515625,0.9741210341453552,0.9894016248900777,-0.896453857421875,0.08392333984375,-0.1316070556640625,0.9099412412665185
1784902556.520776,0.0224609412252903,-0.16455078125,0.9760741591453552,0.990102124854817,-0.46539306640625,-0.28228759765625,0.2346038818359375,0.5927191370472524
1784902556.52876,0.01171875,-0.16455078125,0.9819335341453552,0.9956946088991018,-0.6504058837890625,-0.3452301025390625,0.4787445068359375,0.8782983207271594
1784902556.536744,0.01025390625,-0.17333984375,0.9750975966453552,0.99043786630369,-0.225067138671875,-0.40435791015625,0.6618499755859375,0.8075926736907543
1784902556.544728,0.008789066225290298,-0.17578125,0.9760741591453552,0.9918150330016112,-0.286102294921875,-0.64849853515625,0.9059906005859375,1.1503146706920822
1784902556.555406,0.0234375037252903,-0.1689453125,0.9843749403953552,0.9990424708063991,-0.041961669921875,-0.77056884765625,0.9670257568359375,1.2372048921278282
1784902556.566084,0.03857421875,-0.16845703125,0.9697265028953552,0.9850051939697535,0.0820159912109375,-0.7114410400390625,1.0890960693359375,1.303458946230822
1784902556.576762,0.0332031287252903,-0.158203125,0.9624022841453552,0.9758836165471325,-0.1621246337890625,-0.8907318115234375,1.0280609130859375,1.3698893378503805
1784902556.584786,0.03076171875,-0.173828125,0.9648436903953552,0.9808597490350992,-0.2231597900390625,-0.8335113525390625,0.9059906005859375,1.2511436508458345
1784902556.592811,0.0332031287252903,-0.1748046875,0.9824218153953552,0.9984046023000025,0.02288818359375,-0.40435791015625,1.0280609130859375,1.1049608271197864
1784902556.600836,0.0317382849752903,-0.1796875,0.9731444716453552,0.9901035698770813,-0.3452301025390625,-0.6504058837890625,0.9670257568359375,1.2154630606277925
1784902556.608861,0.0336914025247097,-0.1767578125,0.9750975966453552,0.9915612728759706,-0.4062652587890625,-0.8335113525390625,0.6008148193359375,1.1048850992044903
1784902556.619518,0.03369140625,-0.1630859375,0.9667968153953552,0.9810342583844649,-0.102996826171875,-0.77056884765625,0.7839202880859375,1.1040451590639306
1784902556.630175,0.03466796875,-0.16357421875,0.9628905653953552,0.9773006876209137,-0.225067138671875,-1.07574462890625,0.6008148193359375,1.252541484608101
1784902556.640832,0.015625,-0.16552734375,0.9785155653953552,0.9925402530249956,-0.3452301025390625,-0.5855560302734375,0.6618499755859375,0.9487386776514514
1784902556.651468,0.03466796875,-0.1630859375,0.9863280653953552,1.0003209203320946,-0.1354217529296875,-0.1125335693359375,0.5435943603515625,0.5713997584879258
1784902556.662106,0.0312500037252903,-0.16162109375,0.9643554091453552,0.9783042961296258,-0.0762939453125,0.133514404296875,0.2384185791015625,0.2837080913666442
1784902556.672744,0.02978515625,-0.16162109375,0.9731444716453552,0.9869238553058188,-0.2574920654296875,0.0705718994140625,0.5435943603515625,0.6056214868646748
1784902556.683407,0.0317382849752903,-0.17529296875,0.9741210341453552,0.9902760891745178,0.1068115234375,0.133514404296875,0.3643035888671875,0.4024324819833779
1784902556.69407,0.0302734375,-0.16796875,0.9672850966453552,0.9822272854013184,0.1697540283203125,0.2536773681640625,0.3643035888671875,0.47527438612987716
1784902556.704733,0.0214843787252903,-0.16064453125,0.9663085341453552,0.9798063212247046,0.2899169921875,0.011444091796875,0.4863739013671875,0.5663412412382139
1784902556.712767,0.0283203162252903,-0.17578125,0.9721679091453552,0.9883377619694163,0.4119873046875,0.316619873046875,0.4863739013671875,0.7117171173739106
1784902556.720802,0.0185546912252903,-0.15966796875,0.9770507216453552,0.9901849572069484,0.0457763671875,0.255584716796875,0.3643035888671875,0.4473657654699747
1784902556.728837,0.0170898474752903,-0.16650390625,0.9799804091453552,0.9941716230067801,0.0457763671875,0.438690185546875,0.1811981201171875,0.47684097288513194
1784902556.736872,0.0214843787252903,-0.17578125,0.9804686903953552,0.9963330162281872,0.4138946533203125,0.2536773681640625,0.3032684326171875,0.5723921150643784
1784902556.747525,0.02197265625,-0.17431640625,0.9755858778953552,0.991280390333354,0.4119873046875,0.499725341796875,0.4863739013671875,0.8099497073206541
1784902556.758178,0.0185546912252903,-0.15576171875,0.9736327528953552,0.9861879775707103,0.4119873046875,0.438690185546875,0.4253387451171875,0.7369502467715757
1784902556.768831,0.0190429724752903,-0.17724609375,0.9775390028953552,0.9936605631361113,0.2918243408203125,0.5588531494140625,0.4253387451171875,0.760520437991702
1784902556.776822,0.0234375037252903,-0.16552734375,0.9682616591453552,0.9825880411854806,0.1087188720703125,0.5588531494140625,0.1201629638671875,0.5818726438316244
1784902556.784811,0.0205078125,-0.1630859375,0.9829100966453552,0.9965590055140592,0.3528594970703125,0.6198883056640625,-0.0629425048828125,0.716053835331324
1784902556.7928,0.0288085974752903,-0.16552734375,0.9716796278953552,0.9860986441955388,0.0457763671875,0.377655029296875,0.1811981201171875,0.421368669552105
1784902556.800789,0.0283203162252903,-0.16162109375,0.9711913466453552,0.9849548467086525,0.2899169921875,0.499725341796875,0.0553131103515625,0.5803764466015265
1784902556.811475,0.02587890625,-0.1787109375,0.9721679091453552,0.9887961167717422,-0.0133514404296875,0.6198883056640625,-0.0019073486328125,0.6200350074305617
1784902556.822161,0.029296875,-0.16259765625,0.9707030653953552,0.9846627574305317,0.1697540283203125,0.8029937744140625,-0.0629425048828125,0.8231507703936374
1784902556.832847,0.0366210974752903,-0.162109375,0.9750975966453552,0.9891591768905211,0.1068115234375,0.682830810546875,-0.4329681396484375,0.8155538163246928
1784902556.840822,0.0244140625,-0.16943359375,0.9804686903953552,0.9953002772954386,0.2307891845703125,0.5588531494140625,-0.2498626708984375,0.6542261418142408
1784902556.848797,0.0273437537252903,-0.162109375,0.9736327528953552,0.9874147395300861,0.2899169921875,0.804901123046875,-0.6732940673828125,1.0886884684858469
1784902556.856772,0.02490234375,-0.166015625,0.9716796278953552,0.9860743449330988,0.1068115234375,0.988006591796875,-0.7953643798828125,1.272859074587398
1784902556.864747,0.0214843787252903,-0.162109375,0.9692382216453552,0.9829362941159274,0.0457763671875,0.743865966796875,-0.6732940673828125,1.0043689329745449
1784902556.875409,0.015625,-0.17529296875,0.9770507216453552,0.9927738303288911,0.4138946533203125,0.7419586181640625,-0.4901885986328125,0.9808650454291188
1784902556.886071,0.013671878725290298,-0.17529296875,0.9697265028953552,0.9855374348946482,0.0457763671875,0.560760498046875,-0.6732940673828125,0.87742390731935
1784902556.896733,0.011718753725290298,-0.16748046875,0.9780272841453552,0.9923328096633373,0.2899169921875,0.988006591796875,-0.6732940673828125,1.230257610814099
1784902556.907401,0.012695316225290298,-0.16748046875,0.9770507216453552,0.9913823637398889,0.1068115234375,0.194549560546875,-0.6122589111328125,0.651244352996292
1784902556.918071,0.0263671912252903,-0.16650390625,0.9638671278953552,0.9784981450196321,0.0457763671875,0.560760498046875,-0.7953643798828125,0.9742444809949067
1784902556.928741,0.012207034975290298,-0.1630859375,0.9780272841453552,0.9916064760003744,0.1697540283203125,0.3147125244140625,-0.4329681396484375,0.5615352287298404
1784902556.939401,0.01171875,-0.16455078125,0.9819335341453552,0.9956946088991018,0.1697540283203125,0.1964569091796875,-0.4329681396484375,0.5048496382548355
1784902556.950061,0.011718753725290298,-0.17529296875,0.9711913466453552,0.9869536898359927,0.2288818359375,0.194549560546875,-0.6122589111328125,0.681980498689398
1784902556.960721,0.0161132849752903,-0.15673828125,0.9609374403953552,0.9737696293864765,-0.0133514404296875,0.1964569091796875,-0.5512237548828125,0.5853385397127806
1784902556.968758,0.0258789099752903,-0.16259765625,0.9770507216453552,0.9908258315502335,-0.133514404296875,-0.171661376953125,-0.6122589111328125,0.649734329363725
1784902556.976795,0.0190429724752903,-0.1708984375,0.9687499403953552,0.9838929605178809,0.0457763671875,0.011444091796875,-0.1239776611328125,0.1326533206893164
1784902556.984832,0.0224609412252903,-0.16943359375,0.9731444716453552,0.9880396749451328,0.4138946533203125,-0.4177093505859375,-0.1850128173828125,0.6164573206719126
1784902556.992869,0.0175781287252903,-0.16455078125,0.9775390028953552,0.9914476548971779,0.2307891845703125,-0.6008148193359375,-0.4901885986328125,0.8090284031342198
1784902557.003541,0.0180664099752903,-0.17529296875,0.9658202528953552,0.9817651353380968,0.1697540283203125,-0.4177093505859375,-0.3070831298828125,0.5455250501640813
1784902557.014213,0.0273437537252903,-0.166015625,0.9746093153953552,0.9890258774508041,0.4749298095703125,-0.5397796630859375,-0.3681182861328125,0.8077323079368688
1784902557.024885,0.0273437537252903,-0.16015625,0.9726561903953552,0.9861327344715098,0.4138946533203125,-0.4177093505859375,-0.3070831298828125,0.6633927451161127
1784902557.032846,0.0219726599752903,-0.15576171875,0.9746093153953552,0.9872222791599402,0.5340576171875,0.011444091796875,-0.1239776611328125,0.5483784880655039
1784902557.040807,0.0234375037252903,-0.1708984375,0.9702147841453552,0.9854300177562243,0.4730224609375,-0.171661376953125,-0.1239776611328125,0.5182550890717563
1784902557.048768,0.0307617224752903,-0.181640625,0.9746093153953552,0.9918683974577678,0.5340576171875,-0.110626220703125,0.1201629638671875,0.55847545789264
1784902557.056729,0.02490234375,-0.16845703125,0.9785155653953552,0.9932223365504818,0.1068115234375,-0.293731689453125,0.0553131103515625,0.3174059657674865
1784902557.067403,0.0200195349752903,-0.15673828125,0.9785155653953552,0.9911913953978932,0.2918243408203125,-0.4177093505859375,0.1201629638671875,0.5235281132350799
1784902557.078077,0.02001953125,-0.1669921875,0.9682616591453552,0.982760302865567,0.3528594970703125,-0.2346038818359375,-0.0019073486328125,0.42373629066202423
1784902557.088751,0.0244140625,-0.16552734375,0.9702147841453552,0.9845364774100057,0.5340576171875,-0.110626220703125,0.1201629638671875,0.55847545789264
1784902557.096739,0.0205078162252903,-0.15673828125,0.9736327528953552,0.9863813648108536,0.2307891845703125,-0.1125335693359375,0.1201629638671875,0.2834900171566241
1784902557.104725,0.0224609375,-0.15869140625,0.9658202528953552,0.9790282003261344,0.2288818359375,-0.171661376953125,0.1811981201171875,0.33865510758523376
1784902557.112711,0.0219726599752903,-0.146484375,0.9770507216453552,0.988214846363502,0.1697540283203125,0.0705718994140625,0.4253387451171875,0.4633679652454902
1784902557.120697,0.0361328125,-0.1591796875,0.9667968153953552,0.9804793905586993,0.1087188720703125,-0.2346038818359375,0.1201629638671875,0.2851278878013838
1784902557.131468,0.01611328125,-0.1748046875,0.9814452528953552,0.9970211136357354,0.2288818359375,0.011444091796875,0.2384185791015625,0.3306981719332358
1784902557.142239,0.0307617224752903,-0.16748046875,0.9829100966453552,0.9975511260430455,0.354766845703125,0.316619873046875,0.4253387451171875,0.6379817449709889
1784902557.15301,0.0341796875,-0.1533203125,0.9760741591453552,0.9886334676784959,0.2918243408203125,-0.1125335693359375,0.3643035888671875,0.48014826354388596
1784902557.163571,0.0229492224752903,-0.16259765625,0.9775390028953552,0.9912351723036561,0.2899169921875,0.316619873046875,0.3643035888671875,0.5630427259354115
1784902557.174135,0.0253906287252903,-0.15234375,0.9711913466453552,0.9833951057382514,0.1068115234375,0.011444091796875,0.1811981201171875,0.21064763827324914
1784902557.184699,0.01708984375,-0.1689453125,0.9672850966453552,0.9820769010456036,0.2899169921875,0.316619873046875,0.1201629638671875,0.44580168713522517
1784902557.192707,0.0224609412252903,-0.16748046875,0.9829100966453552,0.9973296643441562,0.0457763671875,0.316619873046875,0.7266998291015625,0.7940001646204767
1784902557.200716,0.02978515625,-0.166015625,0.9829100966453552,0.9972765922071766,0.0457763671875,0.743865966796875,0.5435943603515625,0.9224569805457373
1784902557.208725,0.02978515625,-0.16455078125,0.9736327528953552,0.9878890892470724,0.2288818359375,0.743865966796875,0.5435943603515625,0.949325181371902
1784902557.216734,0.0229492224752903,-0.162109375,0.9780272841453552,0.9916367706009345,0.1087188720703125,0.5588531494140625,0.6694793701171875,0.8788283465880943
1784902557.224728,0.0278320349752903,-0.16748046875,0.9697265028953552,0.9844764192205118,-0.0133514404296875,0.5588531494140625,0.3643035888671875,0.6672422411936139
1784902557.232722,0.0234375037252903,-0.1669921875,0.9663085341453552,0.9809117648540328,0.2288818359375,0.621795654296875,0.6694793701171875,0.9419232227401051
1784902557.240716,0.01953125,-0.15625,0.9682616591453552,0.9809822489716512,0.354766845703125,0.499725341796875,0.1201629638671875,0.6245190709093642
1784902557.24871,0.03125,-0.1533203125,0.9785155653953552,0.9909472198084464,0.1068115234375,0.621795654296875,0.3032684326171875,0.7000073424354948
1784902557.259379,0.0327148474752903,-0.16650390625,0.9682616591453552,0.9830180326996837,0.2899169921875,0.682830810546875,0.4253387451171875,0.8551156800626527
1784902557.270048,0.0366210974752903,-0.1669921875,0.9775390028953552,0.9923759356453457,-0.0133514404296875,0.5588531494140625,0.2384185791015625,0.607732278583565
1784902557.280717,0.03857421875,-0.158203125,0.9780272841453552,0.991490578696882,0.354766845703125,0.804901123046875,0.5435943603515625,1.0340310253074083
1784902557.288723,0.03564453125,-0.16064453125,0.9853515028953552,0.9989968880265342,0.5340576171875,0.682830810546875,0.1201629638671875,0.8751654656083269
1784902557.296729,0.0185546912252903,-0.1708984375,0.9824218153953552,0.9973480715733664,0.1087188720703125,0.5588531494140625,0.5435943603515625,0.7871667322494529
1784902557.304735,0.0229492224752903,-0.16796875,0.9711913466453552,0.9858766655051743,0.3528594970703125,0.5588531494140625,0.1201629638671875,0.6717632061731852
1784902557.312741,0.013183597475290298,-0.1650390625,0.9692382216453552,0.9832773920372216,0.2899169921875,0.682830810546875,0.4253387451171875,0.8551156800626527
1784902557.323423,0.0180664099752903,-0.16015625,0.9775390028953552,0.9907365551775623,0.1068115234375,0.133514404296875,0.0553131103515625,0.1797062544002104
1784902557.334105,0.013671878725290298,-0.166015625,0.9697265028953552,0.9839296714855564,0.0457763671875,-0.354766845703125,0.5435943603515625,0.6507302199906303
1784902557.344787,0.0234375037252903,-0.162109375,0.9936522841453552,1.007061878849083,0.3528594970703125,-0.4177093505859375,0.3643035888671875,0.6570449231986747
1784902557.355529,0.03369140625,-0.15869140625,0.9736327528953552,0.9870556269954054,0.3528594970703125,-0.2918243408203125,0.4253387451171875,0.6249674540852408
1784902557.366271,0.0166015625,-0.17431640625,0.9799804091453552,0.9955015940087963,0.4119873046875,-0.293731689453125,0.6694793701171875,0.8391748754730233
1784902557.377013,0.0278320349752903,-0.17529296875,0.9780272841453552,0.994001818708997,0.354766845703125,-0.354766845703125,0.4863739013671875,0.6987693478905814
1784902557.384945,0.0229492224752903,-0.15478515625,0.9775390028953552,0.9899836430917445,0.7171630859375,-0.293731689453125,0.9136199951171875,1.1980411899005454
1784902557.392879,0.0307617224752903,-0.15625,0.9785155653953552,0.9913894581801032,0.3528594970703125,-0.1125335693359375,0.6084442138671875,0.7123047032616449
1784902557.400813,0.0283203162252903,-0.17236328125,0.9721679091453552,0.9877355843576856,0.4119873046875,0.133514404296875,0.6084442138671875,0.746835990540681
1784902557.408747,0.0214843787252903,-0.1630859375,0.9653319716453552,0.979246862144666,-0.0743865966796875,0.2536773681640625,0.7266998291015625,0.7732905110632562
1784902557.419493,0.0205078125,-0.15771484375,0.9731444716453552,0.9860551227018395,0.3528594970703125,0.8678436279296875,0.5435943603515625,1.083123822938495
1784902557.430239,0.02490234375,-0.15625,0.9726561903953552,0.985441146867051,-0.2593994140625,0.988006591796875,0.2384185791015625,1.048946376279957
1784902557.440985,0.0229492224752903,-0.16796875,0.9790038466453552,0.9935737011088734,-0.0762939453125,1.110076904296875,-0.0019073486328125,1.1126972353355997
1784902557.449021,0.0332031287252903,-0.171875,0.9721679091453552,0.9878025647639309,0.1087188720703125,0.9250640869140625,-0.0629425048828125,0.9335550958370438
1784902557.457057,0.02099609375,-0.15869140625,0.9687499403953552,0.9818860653794643,-0.1354217529296875,0.8678436279296875,-0.1239776611328125,0.8870524641556855
1784902557.465093,0.013671878725290298,-0.15771484375,0.9711913466453552,0.9840089044341949,-0.5645751953125,0.926971435546875,-0.4329681396484375,1.1685386615053053
1784902557.473129,0.0234375037252903,-0.1572265625,0.9687499403953552,0.98170563589726,-0.4425048828125,0.926971435546875,-0.6732940673828125,1.2281740572107969
1784902557.483946,0.01171875,-0.16357421875,0.9692382216453552,0.9830140306422315,-0.4425048828125,0.621795654296875,-0.5512237548828125,0.9414287200646102
1784902557.494763,0.00537109375,-0.16748046875,0.9731444716453552,0.9874658063724073,-0.621795654296875,0.621795654296875,-0.6122589111328125,1.0715039177093544
1784902557.50558,0.004394538700580597,-0.15869140625,0.9780272841453552,0.9908277564343526,-0.7476806640625,0.133514404296875,-0.6732940673828125,1.0149765380246885
1784902557.51598,0.009765625,-0.17138671875,0.9614257216453552,0.976631042429445,-0.3185272216796875,-0.3566741943359375,-0.2498626708984375,0.5395437203458787
1784902557.526383,0.0234375037252903,-0.15185546875,0.9814452528953552,0.9934003142746548,-0.4425048828125,-0.415802001953125,-0.1850128173828125,0.6347689490964857
1784902557.536786,0.0043945349752902985,-0.1767578125,0.9838866591453552,0.9996477350855363,-0.1983642578125,-0.476837158203125,0.3643035888671875,0.6320119928310292
1784902557.547465,0.011718753725290298,-0.1630859375,0.9833983778953552,0.9968985514315606,-0.0152587890625,-0.659942626953125,0.3643035888671875,0.7539722848851662
1784902557.558146,0.03125,-0.1689453125,0.9736327528953552,0.9886757904522142,0.2918243408203125,-0.7228851318359375,0.3643035888671875,0.8604890845247157
1784902557.568827,0.0332031287252903,-0.16162109375,0.9785155653953552,0.9923288454051339,0.0457763671875,-0.720977783203125,0.5435943603515625,0.904101359511975
1784902557.576798,0.0278320349752903,-0.162109375,0.9711913466453552,0.9850211690276381,0.5340576171875,-0.659942626953125,0.4253387451171875,0.9495550839438677
1784902557.58477,0.0205078162252903,-0.16162109375,0.9716796278953552,0.9852427354404256,0.0457763671875,-0.354766845703125,0.5435943603515625,0.6507302199906303
1784902557.592742,0.0327148474752903,-0.1669921875,0.9731444716453552,0.9879103272186622,0.0457763671875,-0.293731689453125,0.1811981201171875,0.348147296292639
1784902557.600714,0.02685546875,-0.16943359375,0.9790038466453552,0.9939202637230133,0.5340576171875,-0.232696533203125,0.1201629638671875,0.5948145533912989
1784902557.60872,0.009765625,-0.17236328125,0.9829100966453552,0.9979562747146233,0.5340576171875,-0.415802001953125,-0.2498626708984375,0.7214847175184779
1784902557.616726,0.0258789099752903,-0.1708984375,0.9707030653953552,0.9859718226650241,0.6580352783203125,-0.2346038818359375,-0.0019073486328125,0.698607935014618
1784902557.624732,0.029296875,-0.1728515625,0.9746093153953552,0.9902521331453218,0.4749298095703125,-0.1125335693359375,-0.0629425048828125,0.4921218214699511
1784902557.632738,0.0209960974752903,-0.16650390625,0.9790038466453552,0.9932839063692227,0.2918243408203125,-0.1125335693359375,-0.0019073486328125,0.31277609899335856
1784902557.643417,0.0356445349752903,-0.1572265625,0.9614257216453552,0.9748487795912057,0.2288818359375,-0.171661376953125,-0.2498626708984375,0.3798498090930999
1784902557.654096,0.0302734375,-0.1650390625,0.9770507216453552,0.9913538650939203,0.0457763671875,0.133514404296875,-0.3070831298828125,0.3379668927665231
1784902557.664775,0.01953125,-0.16552734375,0.9819335341453552,0.9959790342846985,0.1697540283203125,0.6847381591796875,-0.1850128173828125,0.7293233297815767
1784902557.675442,0.0234375037252903,-0.15966796875,0.9638671278953552,0.9772834885860218,0.5340576171875,0.560760498046875,-0.1850128173828125,0.7961781316022788
1784902557.686109,0.02587890625,-0.17041015625,0.9687499403953552,0.9839643215878562,0.2918243408203125,0.3795623779296875,-0.0629425048828125,0.48289833666701704
1784902557.696776,0.0278320349752903,-0.1708984375,0.9731444716453552,0.9884285815397715,-0.0133514404296875,0.4367828369140625,-0.1850128173828125,0.4745389869970327
1784902557.707428,0.0234375037252903,-0.171875,0.9790038466453552,0.9942529174974922,0.1068115234375,0.377655029296875,-0.0629425048828125,0.3974843161851622
1784902557.718081,0.0180664099752903,-0.16796875,0.9609374403953552,0.9756744644088696,-0.0762939453125,0.499725341796875,0.3032684326171875,0.5895065101824032
1784902557.728734,0.0214843787252903,-0.162109375,0.9760741591453552,0.98967762031048,-0.0762939453125,0.621795654296875,-0.0019073486328125,0.6264616826052753
1784902557.736726,0.0288085974752903,-0.1748046875,0.9858397841453552,1.0016320152951514,-0.133514404296875,0.499725341796875,-0.2498626708984375,0.5744413527047421
1784902557.74472,0.015625,-0.1787109375,0.9741210341453552,0.9905016552088872,0.0457763671875,0.438690185546875,-0.2498626708984375,0.5069279130177557
1784902557.752714,0.03466796875,-0.16357421875,0.9809569716453552,0.995105508635416,0.0457763671875,0.438690185546875,-0.3070831298828125,0.5374426512165374
1784902557.760708,0.0244140625,-0.1689453125,0.9741210341453552,0.988964283595668,0.0457763671875,0.194549560546875,-0.1239776611328125,0.2351924058336695
1784902557.771421,0.0190429724752903,-0.1630859375,0.9814452528953552,0.9950851432122662,0.4730224609375,0.011444091796875,-0.1239776611328125,0.4891335975460963
1784902557.782134,0.021484375,-0.16357421875,0.9809569716453552,0.994733473664398,0.2288818359375,-0.232696533203125,0.1811981201171875,0.3733193406734728
1784902557.792847,0.0185546912252903,-0.173828125,0.9736327528953552,0.9892023206190276,0.0476837158203125,-0.1125335693359375,0.1811981201171875,0.2185641775678743
1784902557.803544,0.01513671875,-0.15625,0.9848632216453552,0.9972957174801187,0.0476837158203125,-0.1125335693359375,0.1811981201171875,0.2185641775678743
1784902557.814242,0.02099609375,-0.16796875,0.9765624403953552,0.9911248846236548,0.5950927734375,0.011444091796875,0.4863739013671875,0.7686520332151145
1784902557.82494,0.0229492224752903,-0.17236328125,0.9716796278953552,0.9871155285995368,-0.0743865966796875,-0.2346038818359375,0.5435943603515625,0.5967136463531745
1784902557.832897,0.0351562537252903,-0.171875,0.9780272841453552,0.9936369288295078,0.1068115234375,-0.293731689453125,0.7915496826171875,0.8510216842004655
1784902557.840855,0.0244140625,-0.16943359375,0.9721679091453552,0.9871242235457732,-0.1964569091796875,0.0705718994140625,0.3643035888671875,0.41987237943553435
1784902557.848813,0.0263671912252903,-0.1708984375,0.9809569716453552,0.9960813646146979,-0.0743865966796875,0.2536773681640625,0.4863739013671875,0.5535748773340157
1784902557.856771,0.0327148474752903,-0.16064453125,0.9716796278953552,0.9854127185766985,-0.0133514404296875,0.1316070556640625,0.7266998291015625,0.7386415366592589
1784902557.867446,0.0361328162252903,-0.16748046875,0.9658202528953552,0.9808996119501415,0.1068115234375,-0.171661376953125,0.1811981201171875,0.2714941778574362
1784902557.878121,0.02197265625,-0.1640625,0.9863280653953552,1.0001211697166872,0.2899169921875,0.499725341796875,0.3643035888671875,0.6830039417562415
1784902557.888796,0.0288085974752903,-0.16796875,0.9780272841453552,0.9927642241729883,-0.0133514404296875,0.4367828369140625,0.1201629638671875,0.4532070668795788
1784902557.896801,0.02587890625,-0.1689453125,0.9633788466453552,0.9784227299936127,-0.0762939453125,-0.049591064453125,0.1811981201171875,0.2027629120400066
1784902557.904806,0.0229492224752903,-0.171875,0.9736327528953552,0.9889531940126429,-0.0762939453125,0.011444091796875,-0.0629425048828125,0.09956652172956991
1784902557.912811,0.0268554724752903,-0.171875,0.9726561903953552,0.988090227024474,0.2288818359375,0.133514404296875,-0.1239776611328125,0.2925464944873422
1784902557.920816,0.021484375,-0.169921875,0.9687499403953552,0.9837740944895127,-0.0762939453125,-0.293731689453125,-0.4329681396484375,0.528734793096655
1784902557.928794,0.0229492224752903,-0.16162109375,0.9731444716453552,0.9867412059152513,-0.2593994140625,-0.354766845703125,-0.0019073486328125,0.43948971410593934
1784902557.936772,0.0224609412252903,-0.17626953125,0.9702147841453552,0.9863529636504565,-0.0743865966796875,-0.4177093505859375,0.0553131103515625,0.42787148480504783
1784902557.94475,0.012695316225290298,-0.17578125,0.9833983778953552,0.9990658579657492,0.0457763671875,-0.354766845703125,-0.2498626708984375,0.4363328373060302
1784902557.952728,0.0166015625,-0.16455078125,0.9677733778953552,0.9818033827861935,-0.0743865966796875,-0.4177093505859375,-0.3070831298828125,0.5237504329269203
1784902557.963418,0.02978515625,-0.15771484375,0.9663085341453552,0.9795475030002726,-0.0133514404296875,-0.4177093505859375,-0.0019073486328125,0.41792702773005747
1784902557.974108,0.01953125,-0.1630859375,0.9760741591453552,0.9897975837958631,0.1068115234375,-0.843048095703125,-0.0629425048828125,0.8521153396862586
1784902557.984798,0.025390625,-0.1611328125,0.9750975966453552,0.9886474549027063,0.1697540283203125,-0.5397796630859375,0.1811981201171875,0.5941475183371082
1784902557.992769,0.017578125,-0.1787109375,0.9794921278953552,0.9958169602239236,0.1697540283203125,-0.3566741943359375,0.4863739013671875,0.6265720094029913
1784902558.00074,0.01513671875,-0.16357421875,0.9731444716453552,0.9869122595185993,0.2288818359375,-0.171661376953125,0.5435943603515625,0.6142876783442656
1784902558.008711,0.0322265625,-0.173828125,0.9804686903953552,0.9962798910031081,0.3528594970703125,-0.2918243408203125,0.6694793701171875,0.8110942593684349
1784902558.016682,0.0322265625,-0.173828125,0.9658202528953552,0.9818673684741895,0.2307891845703125,-0.1125335693359375,0.4863739013671875,0.5499882033946316
1784902558.027395,0.0224609412252903,-0.16162109375,0.9731444716453552,0.9867299704172311,-0.0133514404296875,-0.2918243408203125,0.6694793701171875,0.7304398222093751
1784902558.038109,0.0288085974752903,-0.16796875,0.9770507216453552,0.9918021722766921,0.1697540283203125,0.0705718994140625,0.6084442138671875,0.6356108750692847
1784902558.048823,0.0302734375,-0.1748046875,0.9736327528953552,0.9896635273165456,0.1087188720703125,0.2536773681640625,0.2384185791015625,0.36471278990966893
1784902558.056785,0.0263671912252903,-0.1669921875,0.9736327528953552,0.9882015770933247,0.1068115234375,0.194549560546875,0.4253387451171875,0.47976169203666685
1784902558.064747,0.0302734412252903,-0.16650390625,0.9799804091453552,0.9944856129421017,0.0457763671875,0.316619873046875,0.0553131103515625,0.3246585282691157
1784902558.072709,0.0327148474752903,-0.16650390625,0.9770507216453552,0.9916763205348557,0.1068115234375,0.377655029296875,0.0553131103515625,0.3963477801994446
1784902558.080671,0.0244140625,-0.1708984375,0.9746093153953552,0.9897806019735376,0.1697540283203125,0.1964569091796875,-0.0629425048828125,0.26715820447130634
1784902558.09136,0.02978515625,-0.1494140625,0.9775390028953552,0.9893402952408419,0.2288818359375,0.133514404296875,0.1201629638671875,0.2909503890050967
1784902558.102049,0.02490234375,-0.15625,0.9707030653953552,0.9835134113941622,0.1697540283203125,0.3147125244140625,-0.0629425048828125,0.36307321861432884
1784902558.112738,0.0327148474752903,-0.16748046875,0.9750975966453552,0.9899168104652022,-0.0762939453125,0.316619873046875,-0.0019073486328125,0.325687807690698
1784902558.123412,0.01318359375,-0.17822265625,0.9638671278953552,0.9802943244669999,-0.0133514404296875,0.1964569091796875,-0.3070831298828125,0.36479258049555746
1784902558.134088,0.02099609375,-0.17529296875,0.9790038466453552,0.994794950023546,0.1697540283203125,-0.0514984130859375,-0.2498626708984375,0.3064308584164529
1784902558.144764,0.01171875,-0.16455078125,0.9833983778953552,0.9971392371974757,0.0457763671875,0.133514404296875,-0.2498626708984375,0.2869719955956245
1784902558.15275,0.0190429724752903,-0.158203125,0.9682616591453552,0.9812856384006526,-0.0133514404296875,0.2536773681640625,-0.1850128173828125,0.3142613731849951
1784902558.160738,0.0283203162252903,-0.162109375,0.9765624403953552,0.990331101079292,-0.3185272216796875,-0.2918243408203125,0.4863739013671875,0.6505233345371474
1784902558.168726,0.008300784975290298,-0.17041015625,0.9760741591453552,0.9908729931407292,0.1068115234375,0.011444091796875,0.2384185791015625,0.2615016015952922
1784902558.176714,0.02099609375,-0.1650390625,0.9755858778953552,0.9896699112595515,-0.133514404296875,0.133514404296875,0.4863739013671875,0.5217391726146672
1784902558.187387,0.0209960974752903,-0.1611328125,0.9726561903953552,0.9861362401249422,-0.316619873046875,0.316619873046875,0.2384185791015625,0.5072866121604694
1784902558.19806,0.0224609412252903,-0.17919921875,0.9853515028953552,1.0017656602916032,0.0457763671875,-0.049591064453125,0.4253387451171875,0.4306597236384459
1784902558.208733,0.0214843787252903,-0.16259765625,0.9687499403953552,0.9825355074312628,0.1068115234375,0.011444091796875,0.3032684326171875,0.3217318930385679
1784902558.21939,0.0166015625,-0.16943359375,0.9711913466453552,0.9859999930868661,-0.0762939453125,0.011444091796875,0.1201629638671875,0.14279660785098872
1784902558.230048,0.02490234375,-0.17626953125,0.9897460341453552,1.00562830433406,-0.0743865966796875,-0.1125335693359375,0.3643035888671875,0.38847686527589453
1784902558.240706,0.0239257849752903,-0.16064453125,0.9775390028953552,0.990939761432985,0.0476837158203125,-0.1125335693359375,0.2384185791015625,0.2679196891658517
1784902558.248716,0.01953125,-0.1689453125,0.9799804091453552,0.9946283681109156,-0.1964569091796875,-0.1125335693359375,0.3032684326171875,0.37845853618858677
1784902558.256727,0.0332031287252903,-0.1552734375,0.9755858778953552,0.9884230335737151,-0.0743865966796875,-0.1125335693359375,0.2384185791015625,0.2739353734987155
1784902558.264738,0.01513671875,-0.17431640625,0.9609374403953552,0.9767374745017253,-0.0133514404296875,-0.2918243408203125,0.3643035888671875,0.46696553589988865
1784902558.272749,0.0239257849752903,-0.1630859375,0.9804686903953552,0.9942274986352574,-0.0133514404296875,0.0133514404296875,0.1201629638671875,0.12163741122056979
1784902558.283627,0.0244140625,-0.166015625,0.9736327528953552,0.9879868276968485,-0.3185272216796875,-0.0514984130859375,0.1201629638671875,0.3443120900966123
1784902558.294505,0.02490234375,-0.16015625,0.9990233778953552,1.0120858959197838,0.1697540283203125,-0.3566741943359375,0.4253387451171875,0.5804704636189746
1784902558.305383,0.0244140625,-0.16845703125,0.9750975966453552,0.989842987957618,-0.0133514404296875,0.0133514404296875,0.1201629638671875,0.12163741122056979
1784902558.313207,0.0322265662252903,-0.1533203125,0.9716796278953552,0.9842291242706784,-0.133514404296875,-0.171661376953125,0.1811981201171875,0.2830662170344511
1784902558.321032,0.0190429724752903,-0.1650390625,0.9721679091453552,0.9862611066668021,-0.0133514404296875,0.1964569091796875,0.1811981201171875,0.26759360392204107
1784902558.328857,0.025390625,-0.16748046875,0.9819335341453552,0.9964375829573059,0.1068115234375,0.194549560546875,-0.2498626708984375,0.3341999212395519
1784902558.336682,0.0253906287252903,-0.171875,0.9809569716453552,0.9962240108889625,0.0457763671875,0.072479248046875,-0.0629425048828125,0.10635072219429512
1784902558.347388,0.0205078125,-0.17333984375,0.9687499403953552,0.9843493885916799,0.0457763671875,0.133514404296875,-0.1850128173828125,0.23270435007442414
1784902558.358094,0.0258789099752903,-0.16162109375,0.9785155653953552,0.9921107839588517,-0.3814697265625,0.133514404296875,-0.2498626708984375,0.4751595550411659
1784902558.3688,0.0166015625,-0.1640625,0.9750975966453552,0.9889425861834645,-0.0133514404296875,0.3147125244140625,-0.4901885986328125,0.582672374679133
1784902558.376793,0.0322265625,-0.1591796875,0.9736327528953552,0.9870853366116589,0.2918243408203125,0.1316070556640625,-0.4901885986328125,0.5854628299263533
1784902558.384787,0.0288085974752903,-0.1630859375,0.9580077528953552,0.9722169577344119,0.1068115234375,0.133514404296875,-0.0019073486328125,0.1709925018022606
1784902558.392781,0.013183597475290298,-0.16552734375,0.9716796278953552,0.9857658992063872,0.2288818359375,-0.354766845703125,-0.1239776611328125,0.44001917014174285
1784902558.400775,0.0166015662252903,-0.1611328125,0.9663085341453552,0.9797915994880942,-0.133514404296875,-0.171661376953125,0.3032684326171875,0.37318288641667086
1784902558.411532,0.02001953125,-0.16650390625,0.9692382216453552,0.9836397016825974,0.1697540283203125,-0.3566741943359375,0.3643035888671875,0.5373546462976535
1784902558.422289,0.0205078125,-0.1630859375,0.9863280653953552,0.9999303205575543,0.2288818359375,-0.537872314453125,0.4253387451171875,0.7229153266981866
1784902558.433046,0.02197265625,-0.16845703125,0.9765624403953552,0.9912289185607812,0.4749298095703125,-0.5397796630859375,0.5435943603515625,0.9013407997564994
1784902558.440962,0.0263671912252903,-0.16650390625,0.9838866591453552,0.9982242922378859,0.3528594970703125,-0.6008148193359375,0.7266998291015625,1.0067675567988021
1784902558.448878,0.0224609412252903,-0.16796875,0.9731444716453552,0.9877895309989907,0.4119873046875,-0.720977783203125,0.6694793701171875,1.0666513629619894
1784902558.456794,0.0332031287252903,-0.17138671875,0.9692382216453552,0.9848342933810188,0.2918243408203125,-0.7801055908203125,0.5435943603515625,0.9945959015250079
1784902558.46471,0.0229492224752903,-0.1728515625,0.9711913466453552,0.9867203054917489,0.5950927734375,-0.537872314453125,0.7915496826171875,1.1269396326796157
1784902558.475378,0.0288085974752903,-0.1611328125,0.9726561903953552,0.9863335050919942,0.2288818359375,0.011444091796875,0.6694793701171875,0.707616060495861
1784902558.486046,0.04052734375,-0.1640625,0.9794921278953552,0.9939636804766316,-0.0133514404296875,0.3795623779296875,0.6084442138671875,0.7172518533190738
1784902558.496714,0.0273437537252903,-0.1572265625,0.9809569716453552,0.9938533357809803,0.1697540283203125,1.1730194091796875,0.3643035888671875,1.2399629306171815
1784902558.507378,0.0302734375,-0.15966796875,0.9707030653953552,0.9842127729463567,0.1087188720703125,0.9250640869140625,0.3032684326171875,0.9795586252310143
1784902558.518045,0.0263671912252903,-0.17138671875,0.9663085341453552,0.9817437645837878,0.1068115234375,1.171112060546875,0.4253387451171875,1.2505299708504594
1784902558.528712,0.02490234375,-0.158203125,0.9653319716453552,0.978526530536969,-0.2593994140625,1.476287841796875,0.3643035888671875,1.542540421744194
1784902558.536714,0.0185546912252903,-0.16259765625,0.9760741591453552,0.9896984583880947,-0.8068084716796875,1.2302398681640625,0.1201629638671875,1.476099312742808
1784902558.544718,0.0180664099752903,-0.1728515625,0.9775390028953552,0.9928678461959235,-0.6237030029296875,1.2302398681640625,0.0553131103515625,1.3804184544045344
1784902558.552722,0.0146484375,-0.166015625,0.9746093153953552,0.9887563310142368,-0.6866455078125,1.171112060546875,-0.4901885986328125,1.4433538630519662
1784902558.560726,0.01171875,-0.173828125,0.9702147841453552,0.9857333683693559,-0.6866455078125,0.804901123046875,-0.6122589111328125,1.2223783561331343
1784902558.571418,0.0166015662252903,-0.16259765625,0.9677733778953552,0.9814779267931153,-0.5645751953125,0.682830810546875,-0.7381439208984375,1.1531953498664347
1784902558.58211,0.02001953125,-0.17578125,0.9843749403953552,1.0001469155886007,-0.7476806640625,0.194549560546875,-0.9212493896484375,1.2023212319715317
1784902558.592802,0.008789066225290298,-0.1669921875,0.9658202528953552,0.9801899812148641,-0.6237030029296875,-0.1125335693359375,-0.3681182861328125,0.7329258575574716
1784902558.603465,0.0175781287252903,-0.16943359375,0.9780272841453552,0.9927507752871626,-0.3814697265625,-0.476837158203125,-0.1850128173828125,0.6380615725169684
1784902558.61413,0.013671878725290298,-0.158203125,0.9746093153953552,0.987460615256653,-0.5645751953125,-0.537872314453125,-0.0019073486328125,0.779779081404545
1784902558.624795,0.021484375,-0.17333984375,0.9755858778953552,0.9910984234420243,-0.1354217529296875,-0.7801055908203125,0.2384185791015625,0.8268900790652082
1784902558.632772,0.0205078125,-0.16552734375,0.9775390028953552,0.9916664631236206,-0.0133514404296875,-0.5397796630859375,0.5435943603515625,0.7661822069512839
1784902558.64075,0.012207034975290298,-0.18017578125,0.9770507216453552,0.9935997365738606,0.1697540283203125,-0.7228851318359375,0.9136199951171875,1.1773193447142385
1784902558.648728,0.012695316225290298,-0.16650390625,0.9755858778953552,0.9897739777340178,0.1087188720703125,-0.7228851318359375,0.7915496826171875,1.077466290435609
1784902558.656706,0.0107421875,-0.17041015625,0.9829100966453552,0.9976308305344298,0.1697540283203125,-0.5397796630859375,0.8525848388671875,1.0232689882324832
1784902558.667399,0.0322265662252903,-0.15185546875,0.9785155653953552,0.9907529190877749,0.354766845703125,-0.476837158203125,0.9136199951171875,1.0899241651286142
1784902558.678092,0.0244140587747097,-0.16650390625,0.9824218153953552,0.9967307662689404,0.1697540283203125,-0.4177093505859375,0.4863739013671875,0.6632172371320258
1784902558.688785,0.0317382849752903,-0.162109375,0.9697265028953552,0.9836952061557069,0.1697540283203125,-0.2346038818359375,0.4863739013671875,0.5660521031094246
1784902558.696786,0.02978515625,-0.1611328125,0.9760741591453552,0.9897331473424084,0.1087188720703125,-0.2346038818359375,0.2384185791015625,0.35171322604863686
1784902558.704787,0.025390625,-0.15966796875,0.9760741591453552,0.9893731895669873,0.2288818359375,-0.354766845703125,0.1201629638671875,0.43895961946130374
1784902558.712788,0.0336914025247097,-0.16650390625,0.9775390028953552,0.9921900844002807,-0.0133514404296875,0.0705718994140625,0.2384185791015625,0.24900215422615135
1784902558.720789,0.0161132849752903,-0.15576171875,0.9775390028953552,0.9900019460396501,-0.0762939453125,-0.171661376953125,-0.0019073486328125,0.1878617374762533
1784902558.73148,0.02001953125,-0.1611328125,0.9760741591453552,0.989487407219992,-0.0133514404296875,0.1316070556640625,0.0553131103515625,0.14338137340280735
1784902558.742171,0.029296875,-0.15087890625,0.9794921278953552,0.9914774731908602,-0.1964569091796875,0.1316070556640625,-0.0019073486328125,0.2364727727325214
1784902558.752862,0.041015625,-0.16455078125,0.9814452528953552,0.9959889685809545,-0.0762939453125,0.621795654296875,-0.2498626708984375,0.6744493725271946
1784902558.760831,0.0219726599752903,-0.16748046875,0.9755858778953552,0.9901011616738769,-0.2593994140625,0.255584716796875,-0.4329681396484375,0.565749956629902
1784902558.768801,0.0185546912252903,-0.17236328125,0.9790038466453552,0.9942343330604384,-0.0762939453125,0.682830810546875,-0.0629425048828125,0.6899568398417193
1784902558.776771,0.03076171875,-0.16552734375,0.9838866591453552,0.99818762911268,-0.2593994140625,0.316619873046875,-0.1850128173828125,0.4491836401964273
1784902558.784741,0.0224609412252903,-0.16064453125,0.9643554091453552,0.9779020986014723,0.1068115234375,0.682830810546875,-0.5512237548828125,0.8840329435706844
1784902558.792722,0.011230472475290298,-0.1611328125,0.9711913466453552,0.9845316341159368,-0.0133514404296875,0.6847381591796875,-0.3681182861328125,0.7775317872496877
1784902558.800703,0.0209960974752903,-0.171875,0.9707030653953552,0.9860255031702432,0.0457763671875,0.499725341796875,-0.1850128173828125,0.5348370178127299
1784902558.808684,0.011718753725290298,-0.1630859375,0.9843749403953552,0.9978619020072301,-0.0133514404296875,0.3795623779296875,-0.4901885986328125,0.6201054119508932
1784902558.816665,0.02099609375,-0.16357421875,0.9726561903953552,0.9865381014977765,-0.0762939453125,0.377655029296875,-0.5512237548828125,0.6725263676553338
1784902558.827354,0.0190429724752903,-0.162109375,0.9584960341453552,0.9722945704548387,-0.1354217529296875,0.4367828369140625,-0.4901885986328125,0.670375387390413
1784902558.838043,0.0224609375,-0.1689453125,0.9726561903953552,0.9874751019866309,-0.0762939453125,0.499725341796875,-0.7381439208984375,0.8946522404178447
1784902558.848732,0.0190429724752903,-0.1708984375,0.9692382216453552,0.9843737303681396,-0.2593994140625,0.316619873046875,-0.2498626708984375,0.47954932419167107
1784902558.859398,0.0214843787252903,-0.166015625,0.9775390028953552,0.9917687575513748,-0.1964569091796875,0.3795623779296875,-0.3070831298828125,0.5262727093083007
1784902558.870066,0.01953125,-0.18017578125,0.9750975966453552,0.9917964029271119,-0.133514404296875,0.133514404296875,-0.3070831298828125,0.3604888916015625
1784902558.880734,0.0190429724752903,-0.171875,0.9785155653953552,0.9936781984861529,-0.06866455078125,0.370025634765625,-0.3452301025390625,0.5107030591418326
1784902558.891395,0.012695316225290298,-0.16943359375,0.9843749403953552,0.9989308970211399,0.05340576171875,0.431060791015625,0.1430511474609375,0.4573064746159485
1784902558.902054,0.0166015662252903,-0.1708984375,0.9711913466453552,0.9862527666576619,0.35858154296875,0.49591064453125,0.1430511474609375,0.6284677566169486
1784902558.912713,0.0,-0.1591796875,0.9765624403953552,0.9894505409082,0.05340576171875,0.553131103515625,-0.0400543212890625,0.557144991644994
1784902558.923449,0.02001953125,-0.16259765625,0.9780272841453552,0.9916532397880835,0.2346038818359375,0.0057220458984375,0.3261566162109375,0.40180823968644935
1784902558.934184,0.0273437537252903,-0.15673828125,0.9863280653953552,0.9990783864459973,-0.1926422119140625,0.1277923583984375,-0.0400543212890625,0.2346193882229359
1784902558.944919,0.01708984375,-0.1591796875,0.9780272841453552,0.9910436943973442,0.11444091796875,-0.118255615234375,0.0209808349609375,0.16589547816516523
1784902558.952917,0.0205078125,-0.1708984375,0.9804686903953552,0.9954625553776795,-0.0705718994140625,0.0667572021484375,-0.2231597900390625,0.24338695305187244
1784902558.960913,0.0327148474752903,-0.1640625,0.9765624403953552,0.9907880525836559,-0.12969970703125,-0.240325927734375,-0.4062652587890625,0.48952019983277917
1784902558.968909,0.015136722475290298,-0.16650390625,0.9843749403953552,0.9984721801042641,-0.06866455078125,-0.301361083984375,-0.4062652587890625,0.5104750571508585
1784902558.976905,0.01220703125,-0.154296875,0.9892577528953552,1.0012928836810295,-0.2536773681640625,-0.1773834228515625,-0.7114410400390625,0.7758643175665733
1784902558.987544,0.013671878725290298,-0.1728515625,0.9677733778953552,0.9831835504571649,-0.0705718994140625,-0.1773834228515625,-0.8945465087890625,0.9146905094490404
1784902558.998183,0.0253906287252903,-0.15234375,0.9799804091453552,0.9920760578200776,0.0553131103515625,0.0057220458984375,-0.6504058837890625,0.652778749388688
1784902559.008822,0.01318359375,-0.17333984375,0.9707030653953552,0.9861465153532607,-0.06866455078125,-0.301361083984375,-0.7724761962890625,0.8320173058942023
1784902559.016924,0.0166015662252903,-0.16748046875,0.9658202528953552,0.9803744592331546,0.0553131103515625,-0.4825592041015625,-0.4673004150390625,0.6740123170503471
1784902559.025025,0.0161132849752903,-0.17578125,0.9824218153953552,0.9981539506353531,-0.12969970703125,-0.301361083984375,-0.2231597900390625,0.3967881157929356
1784902559.033126,0.0219726599752903,-0.15234375,0.9663085341453552,0.9784904696074446,-0.00762939453125,-0.423431396484375,-0.2841949462890625,0.5100187473866667
1784902559.041227,0.012695316225290298,-0.17529296875,0.9765624403953552,0.992251478173845,-0.1277923583984375,-0.3604888916015625,0.0820159912109375,0.3911646081222972
1784902559.051736,0.02001953125,-0.16943359375,0.9663085341453552,0.9812546598537277,0.17547607421875,-0.240325927734375,-0.0400543212890625,0.3002544800973663
1784902559.062245,0.01513671875,-0.16357421875,0.9775390028953552,0.9912457553381173,0.17547607421875,-0.423431396484375,-0.0400543212890625,0.4600981947431001
1784902559.072754,0.0219726599752903,-0.16015625,0.9804686903953552,0.993706030496965,0.0553131103515625,-0.5435943603515625,-0.2841949462890625,0.6158905229657554
1784902559.083479,0.014160163700580597,-0.17333984375,0.9721679091453552,0.9876019720714176,0.35858154296875,-0.301361083984375,-0.1010894775390625,0.47918504605966955
1784902559.094204,0.0332031287252903,-0.15576171875,0.9731444716453552,0.9860904235814381,-0.0705718994140625,-0.1773834228515625,-0.2841949462890625,0.3423624383393831
1784902559.104929,0.0327148474752903,-0.1689453125,0.9804686903953552,0.9954554900680578,0.41961669921875,-0.118255615234375,-0.1621246337890625,0.46513112310286986
1784902559.112882,0.03173828125,-0.1640625,0.9814452528953552,0.9955694887017088,0.0553131103515625,0.1277923583984375,-0.2231597900390625,0.2630412875045993
1784902559.120834,0.01953125,-0.17724609375,0.9580077528953552,0.9744621604166086,0.11444091796875,-0.118255615234375,-0.2231597900390625,0.2772749648458533
1784902559.128786,0.02978515625,-0.16357421875,0.9750975966453552,0.9891708667141677,-0.12969970703125,0.00762939453125,-0.4673004150390625,0.48502566897081395
1784902559.136738,0.009277347475290298,-0.15966796875,0.9692382216453552,0.9823454889799103,-0.2536773681640625,0.2498626708984375,-0.1621246337890625,0.39123900407344847
1784902559.147404,0.0317382849752903,-0.16064453125,0.9677733778953552,0.9815290597413258,-0.1926422119140625,0.0057220458984375,-0.0400543212890625,0.19684540196391134
1784902559.15807,0.01611328125,-0.1630859375,0.9858397841453552,0.9993681708192712,-0.00762939453125,0.247955322265625,-0.1621246337890625,0.2963518962011228
1784902559.168736,0.02490234375,-0.1669921875,0.9658202528953552,0.9804668675244086,-0.1277923583984375,0.3108978271484375,-0.4673004150390625,0.5756370589931945
1784902559.176774,0.014160159975290298,-0.17138671875,0.9794921278953552,0.9944741052955518,0.0553131103515625,0.3108978271484375,-0.2231597900390625,0.38667465781023497
1784902559.184811,0.0263671912252903,-0.1611328125,0.9755858778953552,0.9891545972122467,-0.00762939453125,0.370025634765625,-0.1621246337890625,0.4040564006742806
1784902559.192848,0.0219726599752903,-0.15966796875,0.9648436903953552,0.9782126583350211,0.1125335693359375,0.1888275146484375,0.1430511474609375,0.2622656388200387
1784902559.200885,0.0268554724752903,-0.1669921875,0.9667968153953552,0.9814803560675612,-0.31280517578125,-0.057220458984375,-0.1621246337890625,0.3569392886796841
1784902559.211502,0.0229492224752903,-0.15185546875,0.9814452528953552,0.9933889140876953,-0.0705718994140625,-0.0553131103515625,-0.1010894775390625,0.1351259250950509
1784902559.222119,0.0224609412252903,-0.16943359375,0.9833983778953552,0.9981405743776685,-0.12969970703125,0.064849853515625,-0.0400543212890625,0.15043891171807094
1784902559.232736,0.0156250037252903,-0.1572265625,0.9663085341453552,0.9791407027895056,0.0553131103515625,0.1277923583984375,-0.3452301025390625,0.37225562553295344
1784902559.24359,0.025390625,-0.1650390625,0.9702147841453552,0.9844792041292634,-0.19073486328125,-0.423431396484375,-0.2841949462890625,0.5444636839090998
1784902559.254444,0.008300784975290298,-0.17333984375,0.9736327528953552,0.9889774223778156,0.17547607421875,0.064849853515625,-0.2841949462890625,0.34024127265877874
1784902559.265298,0.0180664099752903,-0.16064453125,0.9770507216453552,0.9903338695902695,0.17547607421875,-0.240325927734375,-0.2841949462890625,0.41147924815336123
1784902559.273153,0.0312500037252903,-0.1611328125,0.9667968153953552,0.9806306278388368,-0.0095367431640625,-0.1773834228515625,-0.1010894775390625,0.20438911576166216
1784902559.281006,0.01611328125,-0.1591796875,0.9614257216453552,0.9746472330984843,-0.00762939453125,0.19073486328125,0.0820159912109375,0.20776096492397983
1784902559.288859,0.02490234375,-0.1689453125,0.9755858778953552,0.9904193306316355,-0.0095367431640625,-0.1773834228515625,0.0209808349609375,0.17887432350220536
1784902559.296712,0.0175781287252903,-0.16552734375,0.9765624403953552,0.9906475115445177,-0.0705718994140625,0.0667572021484375,-0.1621246337890625,0.18900083043953414
1784902559.304733,0.015625,-0.169921875,0.9790038466453552,0.9937636117180574,0.1125335693359375,0.0057220458984375,-0.2841949462890625,0.3057177023546285
1784902559.312754,0.0224609412252903,-0.17041015625,0.9604491591453552,0.9757083081212823,-0.00762939453125,0.431060791015625,0.0820159912109375,0.4388601554325049
1784902559.320775,0.0273437537252903,-0.16015625,0.9707030653953552,0.9842063535914565,0.1735687255859375,0.3108978271484375,-0.0400543212890625,0.358312587109459
1784902559.328796,0.0302734412252903,-0.171875,0.9785155653953552,0.993956844430186,-0.00762939453125,0.064849853515625,0.0820159912109375,0.10483479372910534
1784902559.339658,0.0185546912252903,-0.17431640625,0.9750975966453552,0.99072993748949,-0.2536773681640625,0.0667572021484375,-0.0400543212890625,0.2653546302804232
1784902559.35052,0.0263671875,-0.1748046875,0.9863280653953552,1.0020453881612235,-0.00762939453125,0.064849853515625,0.0820159912109375,0.10483479372910534
1784902559.361382,0.0234375037252903,-0.17333984375,0.9838866591453552,0.9993142529036378,-0.0705718994140625,0.0057220458984375,-0.5893707275390625,0.5936084477802656
1784902559.371949,0.01611328125,-0.17529296875,0.9794921278953552,0.9951844509108857,-0.0095367431640625,0.1277923583984375,-0.3452301025390625,0.36824673798194546
1784902559.382516,0.0229492224752903,-0.15966796875,0.9599608778953552,0.9734194440972466,-0.0705718994140625,-0.2384185791015625,-0.4062652587890625,0.4763142579712059
1784902559.393083,0.009765625,-0.16943359375,0.9692382216453552,0.9839846748912969,0.0553131103515625,0.0057220458984375,-0.1621246337890625,0.1713962626992362
1784902559.40369,0.0302734375,-0.17041015625,0.9697265028953552,0.9850510610059111,-0.06866455078125,-0.118255615234375,-0.4673004150390625,0.4868972057468922
1784902559.414298,0.02685546875,-0.15966796875,0.9755858778953552,0.9889301702321475,0.17547607421875,0.125885009765625,-0.0400543212890625,0.2196434314083697
1784902559.424906,0.0185546912252903,-0.16357421875,0.9819335341453552,0.9956376183558585,0.1125335693359375,0.1888275146484375,0.0820159912109375,0.2346193882229359
1784902559.432863,0.0268554724752903,-0.1630859375,0.9765624403953552,0.9904506244144918,-0.00762939453125,0.247955322265625,0.0820159912109375,0.26127891670602893
1784902559.44082,0.012695316225290298,-0.15966796875,0.9628905653953552,0.9761215458262347,-0.0705718994140625,0.1277923583984375,-0.0400543212890625,0.1513790887337835
1784902559.448777,0.011230472475290298,-0.15673828125,0.9814452528953552,0.9939455703166297,0.1125335693359375,0.1888275146484375,-0.1010894775390625,0.2419477567263494
1784902559.456734,0.0224609412252903,-0.166015625,0.9760741591453552,0.9903466291032543,0.17547607421875,0.19073486328125,-0.1010894775390625,0.27819188191473526
1784902559.467397,0.0312500037252903,-0.166015625,0.9848632216453552,0.9992463739371984,-0.00762939453125,-0.423431396484375,-0.4673004150390625,0.6306520697542358
1784902559.47806,0.012207034975290298,-0.1552734375,0.9868163466453552,0.9990322087412599,0.35858154296875,-0.057220458984375,-0.5283355712890625,0.6410876537366572
1784902559.488723,0.013671878725290298,-0.16796875,0.9785155653953552,0.9929215140006954,0.11444091796875,-0.118255615234375,-0.7724761962890625,0.7898104760467596
1784902559.496865,0.0263671912252903,-0.1611328125,0.9770507216453552,0.9905993764913142,-0.0705718994140625,0.0667572021484375,-0.2841949462890625,0.3003392823488779
1784902559.505007,0.0146484375,-0.16015625,0.9799804091453552,0.9930892222977509,-0.2536773681640625,-0.3604888916015625,-0.4062652587890625,0.5994630168623518
1784902559.513149,0.0146484375,-0.1787109375,0.9702147841453552,0.9866452773299726,-0.31280517578125,-0.48065185546875,-0.4673004150390625,0.739758718810918
1784902559.521291,0.0234375037252903,-0.17626953125,0.9721679091453552,0.9882968723010406,-0.12969970703125,-0.545501708984375,-0.1621246337890625,0.5836767302112561
1784902559.531756,0.0161132849752903,-0.16552734375,0.9711913466453552,0.9853281541093019,-0.00762939453125,-0.606536865234375,0.1430511474609375,0.6232245240193511
1784902559.542221,0.02197265625,-0.16455078125,0.9633788466453552,0.9775779045152365,-0.00762939453125,-0.728607177734375,0.2040863037109375,0.7566887381673905
1784902559.552686,0.01611328125,-0.16357421875,0.9780272841453552,0.9917426739860769,0.54168701171875,-0.606536865234375,0.4482269287109375,0.9285575734303024
1784902559.563379,0.015625,-0.16796875,0.9746093153953552,0.9891010864704202,0.2346038818359375,-0.4215240478515625,0.2040863037109375,0.5238059981062168
1784902559.574075,0.0180664099752903,-0.169921875,0.9804686903953552,0.9952480553201266,0.35858154296875,-0.66375732421875,0.2040863037109375,0.781540611724226
1784902559.584771,0.0224609412252903,-0.16943359375,0.9741210341453552,0.9890015296935503,0.17547607421875,-0.057220458984375,0.3261566162109375,0.3747588182388449
1784902559.595419,0.0234375037252903,-0.16259765625,0.9765624403953552,0.9902835525190742,-0.0705718994140625,0.6771087646484375,-0.1010894775390625,0.688241058510579
1784902559.606068,0.0317382849752903,-0.17236328125,0.9829100966453552,0.9984130796137543,-0.0705718994140625,0.9212493896484375,-0.3452301025390625,0.9863390160658042
1784902559.616717,0.0332031287252903,-0.15869140625,0.9814452528953552,0.994746296603098,-0.00762939453125,1.16729736328125,-0.2841949462890625,1.2014192063890585
1784902559.624737,0.0205078125,-0.1630859375,0.9765624403953552,0.9902988404389459,-0.0095367431640625,1.2874603271484375,-0.5893707275390625,1.4159812491453632
1784902559.632759,0.0190429724752903,-0.15966796875,0.9765624403953552,0.9897124304748209,-0.4978179931640625,0.9822845458984375,-0.6504058837890625,1.2789579731547966
1784902559.640781,0.01953125,-0.17041015625,0.9760741591453552,0.9910307034754393,-0.12969970703125,0.858306884765625,-1.0166168212890625,1.3367956028383479
1784902559.648803,0.0058593787252902985,-0.1708984375,0.9741210341453552,0.989015873190822,-0.61798095703125,0.67901611328125,-0.8335113525390625,1.240042144509747
1784902559.659452,0.0063476599752902985,-0.16552734375,0.9814452528953552,0.9953262674856523,-0.7419586181640625,0.5550384521484375,-1.0166168212890625,1.3755290021512219
1784902559.670101,0.0175781287252903,-0.16455078125,0.9838866591453552,0.9977068248056022,-0.61798095703125,0.19073486328125,-0.5283355712890625,0.8351159962625053
1784902559.68075,0.008300784975290298,-0.16455078125,0.9785155653953552,0.9922895617521043,-0.4329681396484375,-0.1773834228515625,-0.8945465087890625,1.0095245143332903
1784902559.688736,0.009277347475290298,-0.169921875,0.9814452528953552,0.9960895026103431,-0.31280517578125,-0.17547607421875,-0.9555816650390625,1.020673919122846
1784902559.696723,0.010742191225290298,-0.162109375,0.9853515028953552,0.9986553101012113,-0.6160736083984375,-0.6656646728515625,-0.2231597900390625,0.9340537669416721
1784902559.70471,0.015625,-0.15771484375,0.9794921278953552,0.9922312941915599,-0.19073486328125,-0.789642333984375,-0.1010894775390625,0.8186170570909996
1784902559.712697,0.009765625,-0.16845703125,0.9741210341453552,0.9886278005263762,-0.2536773681640625,-1.0318756103515625,0.2040863037109375,1.0820215809860023
1784902559.723425,0.0224609375,-0.173828125,0.9750975966453552,0.9907250040944472,-0.00762939453125,-0.911712646484375,0.2040863037109375,0.9343068964654223
1784902559.734153,0.0175781287252903,-0.16015625,0.9765624403953552,0.9897642219308986,0.1125335693359375,-0.9098052978515625,0.5092620849609375,1.0486931655184073
1784902559.744881,0.015625,-0.17041015625,0.9716796278953552,0.9866331948829846,0.2346038818359375,-0.8487701416015625,0.8144378662109375,1.199482710406887
1784902559.755504,0.0351562537252903,-0.17626953125,0.9775390028953552,0.9939262608487297,0.5435943603515625,-0.6656646728515625,0.6313323974609375,1.0663887102611211
1784902559.766126,0.014160159975290298,-0.1650390625,0.9775390028953552,0.9914741068041313,0.17547607421875,-0.728607177734375,0.4482269287109375,0.8732511962149925
1784902559.776748,0.019042976200580597,-0.16357421875,0.9633788466453552,0.9773525270576546,0.2956390380859375,-0.5435943603515625,0.3871917724609375,0.7299415991076582
1784902559.784784,0.0175781287252903,-0.16796875,0.9804686903953552,0.9949077064892141,0.35858154296875,-0.240325927734375,0.0820159912109375,0.4393903700737536
1784902559.792823,0.0336914025247097,-0.17236328125,0.9863280653953552,1.0018419355935808,-0.00762939453125,-0.118255615234375,0.2040863037109375,0.23599537613641297
1784902559.800862,0.029296875,-0.1708984375,0.9609374403953552,0.9764555018936009,-0.0705718994140625,-0.3604888916015625,0.2040863037109375,0.42021881599641
1784902559.808901,0.0341796875,-0.16748046875,0.9809569716453552,0.9957381878134149,-0.31280517578125,0.00762939453125,0.0209808349609375,0.31360083082177936
1784902559.819632,0.02978515625,-0.1552734375,0.9755858778953552,0.9883141206492773,-0.4329681396484375,0.1277923583984375,0.0209808349609375,0.45192089158537657
1784902559.830363,0.0332031287252903,-0.15673828125,0.9765624403953552,0.9896178740085912,-0.2536773681640625,-0.0553131103515625,-0.1010894775390625,0.2786230962510647
1784902559.841094,0.01953125,-0.1591796875,0.9721679091453552,0.9853071024869413,-0.0705718994140625,0.2498626708984375,0.1430511474609375,0.29643781487067455
1784902559.851687,0.01953125,-0.17626953125,0.9746093153953552,0.9906138173017073,-0.31280517578125,0.553131103515625,-0.1010894775390625,0.6434439976727364
1784902559.862282,0.0332031287252903,-0.1708984375,0.9824218153953552,0.9977280927496204,0.0553131103515625,0.6160736083984375,-0.0400543212890625,0.6198472229475284
1784902559.872877,0.0268554724752903,-0.1708984375,0.9790038466453552,0.9941710235609438,-0.3757476806640625,0.6160736083984375,-0.0400543212890625,0.722729104951102
1784902559.880942,0.03173828125,-0.15966796875,0.9736327528953552,0.9871483760063848,0.0553131103515625,0.7991790771484375,0.0209808349609375,0.80136566744792
1784902559.88901,0.0195312462747097,-0.16162109375,0.9804686903953552,0.9938921975604661,-0.1926422119140625,0.4940032958984375,-0.3452301025390625,0.6327196076215699
1784902559.897078,0.0185546912252903,-0.1640625,0.9804686903953552,0.9942734197987487,-0.2536773681640625,0.4329681396484375,-0.1010894775390625,0.5118912966034828
1784902559.905146,0.0224609412252903,-0.162109375,0.9755858778953552,0.9892177457428003,-0.2536773681640625,0.3719329833984375,0.1430511474609375,0.4723875337561297
1784902559.915717,0.013671878725290298,-0.16845703125,0.9843749403953552,0.9987786115670487,-0.1926422119140625,0.1277923583984375,-0.0400543212890625,0.2346193882229359
1784902559.926288,0.014160159975290298,-0.16455078125,0.9858397841453552,0.9995786861194429,-0.0095367431640625,0.3108978271484375,0.0820159912109375,0.3216753506411543
1784902559.936859,0.012695316225290298,-0.16552734375,0.9785155653953552,0.9924984555675552,-0.00762939453125,0.247955322265625,-0.1621246337890625,0.2963518962011228
1784902559.947567,0.0312500037252903,-0.1669921875,0.9780272841453552,0.9926733208622085,0.2346038818359375,0.0667572021484375,0.0209808349609375,0.24481768899905082
1784902559.958273,0.0263671875,-0.154296875,0.9804686903953552,0.992885495440944,-0.0705718994140625,0.1277923583984375,0.2651214599609375,0.3026560232074727
1784902559.968979,0.0244140587747097,-0.16650390625,0.9770507216453552,0.9914371940421003,-0.00762939453125,0.19073486328125,0.0820159912109375,0.20776096492397983
1784902559.976922,0.0195312462747097,-0.181640625,0.9692382216453552,0.9863049814989706,-0.00762939453125,0.00762939453125,-0.0400543212890625,0.041482092229712574
1784902559.984865,0.01611328125,-0.1630859375,0.9814452528953552,0.9950333890245711,-0.12969970703125,-0.057220458984375,0.0209808349609375,0.14330523495683165
1784902559.992808,0.0239257849752903,-0.17578125,0.9653319716453552,0.9814974816671489,-0.2536773681640625,0.1888275146484375,0.0209808349609375,0.3169356919670129
1784902560.000751,0.0263671875,-0.16845703125,0.9765624403953552,0.9913360681147213,-0.1277923583984375,-0.3604888916015625,0.1430511474609375,0.40834637089491643
1784902560.011405,0.0258789099752903,-0.16748046875,0.9697265028953552,0.9844231386004111,-0.31280517578125,-0.118255615234375,-0.2841949462890625,0.4388601554325049
1784902560.022059,0.0278320349752903,-0.1708984375,0.9843749403953552,0.999487329278949,-0.00762939453125,-0.118255615234375,-0.1010894775390625,0.15576161486224593
1784902560.032713,0.0205078125,-0.17431640625,0.9687499403953552,0.9845218265114565,-0.31280517578125,0.125885009765625,-0.2841949462890625,0.4409771889513939
1784902560.043424,0.02490234375,-0.17138671875,0.9731444716453552,0.9884349734717264,-0.0095367431640625,0.1277923583984375,-0.5283355712890625,0.5436545890770647
1784902560.054133,0.0180664099752903,-0.16357421875,0.9741210341453552,0.9879244451745712,0.17547607421875,0.00762939453125,-0.7114410400390625,0.7328017560950578
1784902560.064842,0.0190429724752903,-0.16943359375,0.9780272841453552,0.9927777928743542,0.0553131103515625,0.0057220458984375,-0.5893707275390625,0.5919882908182829
1784902560.075455,0.013183597475290298,-0.1728515625,0.9770507216453552,0.9923102249643462,0.11444091796875,0.064849853515625,-0.5893707275390625,0.6038709147545128
1784902560.086069,0.0224609412252903,-0.16552734375,0.9672850966453552,0.9816029001596678,0.05340576171875,-0.240325927734375,-0.8945465087890625,0.9278050351840349
1784902560.096683,0.0175781287252903,-0.17041015625,0.9721679091453552,0.9871469270248903,-0.0705718994140625,-0.3604888916015625,-0.5283355712890625,0.6434835738730024
1784902560.10469,0.01611328125,-0.16015625,0.9741210341453552,0.9873304671745526,0.1125335693359375,-0.4825592041015625,-0.8945465087890625,1.022614612685209
1784902560.112698,0.019042976200580597,-0.16357421875,0.9726561903953552,0.9864984666468845,-0.12969970703125,-0.118255615234375,-0.5893707275390625,0.6149506151052916
1784902560.120706,0.0063476599752902985,-0.16064453125,0.9667968153953552,0.9800729771125692,-0.06866455078125,-0.301361083984375,-0.4062652587890625,0.5104750571508585
1784902560.128714,0.01611328125,-0.1689453125,0.9614257216453552,0.9762896981376257,-0.0705718994140625,-0.5435943603515625,-0.4673004150390625,0.7203088917184162
1784902560.14072,0.0327148474752903,-0.1650390625,0.9707030653953552,0.9851764281407416,-0.31280517578125,-0.911712646484375,-0.4062652587890625,1.046001189413294
1784902560.152727,0.0244140625,-0.1826171875,0.9707030653953552,0.9880331597603915,-0.06866455078125,-0.789642333984375,-0.2841949462890625,0.84203123674275
1784902560.164734,0.0209960974752903,-0.171875,0.9692382216453552,0.9845834561033628,-0.0705718994140625,-0.9098052978515625,-0.4673004150390625,1.0252296088590882
1784902560.176741,0.02001953125,-0.17333984375,0.9770507216453552,0.992509745912076,0.0553131103515625,-0.5435943603515625,-0.2841949462890625,0.6158905229657554
1784902560.184721,0.0244140625,-0.16259765625,0.9853515028953552,0.9989752892458763,0.0553131103515625,-1.0318756103515625,-0.7114410400390625,1.2545816708636535
1784902560.192703,0.01953125,-0.17333984375,0.9760741591453552,0.9915386706070264,0.0553131103515625,-0.4825592041015625,-0.6504058837890625,0.8117578082823281
1784902560.200685,0.0214843787252903,-0.1728515625,0.9697265028953552,0.985245518439723,-0.2536773681640625,-0.6046295166015625,-0.5283355712890625,0.8420614795570597
1784902560.208667,0.0336914025247097,-0.17138671875,0.9853515028953552,1.0007127970732206,0.11444091796875,-0.423431396484375,-0.4062652587890625,0.5978648105827788
1784902560.216688,0.0288085974752903,-0.16552734375,0.9707030653953552,0.9851363753234185,-0.12969970703125,-0.423431396484375,-0.2841949462890625,0.5261966638329658
1784902560.224709,0.009765625,-0.17236328125,0.9770507216453552,0.9921857592319175,-0.00762939453125,-0.545501708984375,-0.7724761962890625,0.9457006904930362
1784902560.23273,0.03125,-0.16943359375,0.9775390028953552,0.9926060685753867,-0.31280517578125,-0.606536865234375,-0.7724761962890625,1.0307538603939834
1784902560.240751,0.0317382849752903,-0.17041015625,0.9609374403953552,0.9764464677799285,-0.00762939453125,-0.057220458984375,-0.5893707275390625,0.5921910528429316
1784902560.251401,0.0175781287252903,-0.162109375,0.9663085341453552,0.9799697052636467,-0.12969970703125,-0.118255615234375,-0.6504058837890625,0.6736721889805783
1784902560.262051,0.0185546912252903,-0.17529296875,0.9736327528953552,0.9894607819263188,-0.00762939453125,0.064849853515625,-0.6504058837890625,0.6536753971424525
1784902560.272701,0.0073242224752902985,-0.1650390625,0.9682616591453552,0.9822536215034601,0.05340576171875,-0.301361083984375,-0.8945465087890625,0.9454544593536474
1784902560.283387,0.0244140625,-0.17333984375,0.9794921278953552,0.995011344904167,0.0553131103515625,-0.1773834228515625,-0.4673004150390625,0.5028857691116149
1784902560.294073,0.0283203162252903,-0.17041015625,0.9838866591453552,0.9989367445982044,-0.0705718994140625,-0.2384185791015625,-0.6504058837890625,0.6963128790386891
1784902560.304759,0.0288085974752903,-0.16015625,0.9946288466453552,1.0078524208839434,0.1125335693359375,0.1277923583984375,-0.4673004150390625,0.4973573855772135
1784902560.312764,0.0205078162252903,-0.1669921875,0.9707030653953552,0.9851758230794667,-0.12969970703125,-0.118255615234375,-0.0400543212890625,0.18002986750086794
1784902560.320767,0.0307617224752903,-0.15771484375,0.9687499403953552,0.9819861009834803,-0.1277923583984375,-0.1773834228515625,-0.2231597900390625,0.3124036770875935
1784902560.32877,0.03076171875,-0.17333984375,0.9790038466453552,0.9947067490060227,0.11444091796875,-0.118255615234375,-0.4062652587890625,0.43832929943015975
1784902560.336773,0.01123046875,-0.1591796875,0.9750975966453552,0.9880686308776786,0.29754638671875,-0.240325927734375,-0.1010894775390625,0.3956127984025448
1784902560.347559,0.009765625,-0.169921875,0.9736327528953552,0.9883974648620585,0.4787445068359375,0.0057220458984375,-0.1621246337890625,0.5054833741242994
1784902560.358345,0.02978515625,-0.1591796875,0.9731444716453552,0.9865269844962945,0.1125335693359375,0.1277923583984375,-0.0400543212890625,0.1749258121217346
1784902560.369131,0.0244140625,-0.16259765625,0.9707030653953552,0.9845295757028767,0.1125335693359375,-0.2384185791015625,-0.1621246337890625,0.30950221319003823
1784902560.37704,0.0229492224752903,-0.17236328125,0.9711913466453552,0.9866348865382297,0.11444091796875,-0.118255615234375,-0.2231597900390625,0.2772749648458533
1784902560.384949,0.011230472475290298,-0.17041015625,0.9790038466453552,0.993787842857604,0.0553131103515625,-0.0553131103515625,0.2040863037109375,0.2185641775678743
1784902560.392858,0.0180664099752903,-0.17431640625,0.9814452528953552,0.9969691013708188,-0.00762939453125,-0.057220458984375,-0.0400543212890625,0.07026191885526223
1784902560.400767,0.011230472475290298,-0.17236328125,0.9692382216453552,0.9845089915960826,-0.12969970703125,-0.240325927734375,0.0820159912109375,0.2851406466284537
1784902560.411449,0.0244140625,-0.154296875,0.9780272841453552,0.9904246264180121,-0.0705718994140625,-0.2384185791015625,-0.1010894775390625,0.26840807423927693
1784902560.422131,0.02490234375,-0.16455078125,0.9741210341453552,0.9882352328765883,-0.1926422119140625,-0.3604888916015625,-0.0400543212890625,0.41069162571592943
1784902560.432813,0.0234375037252903,-0.169921875,0.9760741591453552,0.9910315455805132,-0.12969970703125,-0.057220458984375,-0.1621246337890625,0.21536153744717798
1784902560.443492,0.0175781287252903,-0.1640625,0.9726561903953552,0.9865523601057059,-0.0095367431640625,-0.1773834228515625,0.2040863037109375,0.27056800907554934
1784902560.454169,0.02099609375,-0.16015625,0.9829100966453552,0.9960939305377796,-0.1926422119140625,-0.0553131103515625,0.0820159912109375,0.21655757849177035
1784902560.464846,0.0205078125,-0.16943359375,0.9702147841453552,0.985111689321974,-0.31280517578125,-0.057220458984375,0.1430511474609375,0.3486902489485649
1784902560.475503,0.010253909975290298,-0.17138671875,0.9687499403953552,0.983847039457698,-0.00762939453125,-0.301361083984375,0.0820159912109375,0.3124153219921577
1784902560.486161,0.0317382849752903,-0.181640625,0.9824218153953552,0.9995765397148278,-0.1926422119140625,-0.3604888916015625,-0.2841949462890625,0.49782530095959243
1784902560.496819,0.01953125,-0.15771484375,0.9848632216453552,0.9976026298157586,-0.12969970703125,-0.240325927734375,0.0820159912109375,0.2851406466284537
1784902560.507448,0.0224609375,-0.1689453125,0.9633788466453552,0.9783382924596361,0.2956390380859375,0.0057220458984375,-0.1621246337890625,0.3372233377613119
1784902560.518078,0.0341796875,-0.16943359375,0.9755858778953552,0.9907793896107693,0.1125335693359375,-0.2384185791015625,0.0209808349609375,0.26447574278930075
1784902560.528708,0.0263671912252903,-0.1728515625,0.9638671278953552,0.9795982501357602,0.0553131103515625,-0.0553131103515625,-0.2841949462890625,0.2947640545415458
1784902560.536725,0.03515625,-0.1728515625,0.9775390028953552,0.9933257908432657,0.17547607421875,-0.118255615234375,-0.1621246337890625,0.2665720166088752
1784902560.544743,0.0180664099752903,-0.1591796875,0.9741210341453552,0.9872063397519332,0.29754638671875,-0.118255615234375,0.0820159912109375,0.3305221106040518
1784902560.552761,0.01171875,-0.1689453125,0.9746093153953552,0.9892134073963454,0.2346038818359375,-0.0553131103515625,-0.2231597900390625,0.32847954797754625
1784902560.560779,0.0034179724752902985,-0.1748046875,0.9785155653953552,0.9940126121075156,0.2346038818359375,-0.1773834228515625,-0.1010894775390625,0.3110031230456495
1784902560.57142,0.0180664099752903,-0.162109375,0.9775390028953552,0.9910541593747191,-0.2536773681640625,0.0667572021484375,-0.4062652587890625,0.4835909342163856
1784902560.582061,0.015625,-0.1630859375,0.9746093153953552,0.9882836036738932,-0.2536773681640625,0.1277923583984375,-0.7724761962890625,0.8230446936934216
1784902560.592702,0.013183597475290298,-0.1708984375,0.9731444716453552,0.9881246105002393,0.2346038818359375,-0.1163482666015625,-0.4673004150390625,0.5356730144494483
1784902560.603397,0.012695316225290298,-0.15625,0.9833983778953552,0.9958150446751023,0.1125335693359375,-0.0553131103515625,-0.7724761962890625,0.7825872591842195
1784902560.614094,0.0327148474752903,-0.16064453125,0.9760741591453552,0.9897462759804535,-0.1277923583984375,-0.3604888916015625,-0.2841949462890625,0.47649752919548377
1784902560.624791,0.0166015625,-0.16357421875,0.9731444716453552,0.986935813318694,-0.00762939453125,-0.301361083984375,-0.2841949462890625,0.41429877877854543
1784902560.632807,0.015625,-0.16259765625,0.9794921278953552,0.9930191171633929,0.29754638671875,-0.606536865234375,-0.3452301025390625,0.7586861306474885
1784902560.640824,0.01513671875,-0.169921875,0.9804686903953552,0.9951991844367715,0.6008148193359375,-0.4825592041015625,-0.2841949462890625,0.8213456033199739
1784902560.648841,0.013671878725290298,-0.16943359375,0.9829100966453552,0.9975003363640037,0.48065185546875,-0.728607177734375,-0.2231597900390625,0.9009411287658488
1784902560.656858,0.0351562537252903,-0.1669921875,0.9838866591453552,0.9985766424798052,0.66375732421875,-0.66375732421875,0.0209808349609375,0.9389290528808488
1784902560.667496,0.0341796875,-0.16015625,0.9609374403953552,0.9747917930538998,0.54168701171875,-0.423431396484375,0.3261566162109375,0.7609842997668651
1784902560.678134,0.0214843787252903,-0.1513671875,0.9760741591453552,0.9879748823387081,0.41961669921875,-0.118255615234375,0.0209808349609375,0.43646621889140236
1784902560.688772,0.0419921912252903,-0.17236328125,0.9760741591453552,0.9920651233656388,-0.1277923583984375,0.1277923583984375,-0.0400543212890625,0.18511110821341015
1784902560.699426,0.0424804724752903,-0.169921875,0.9711913466453552,0.986858989898789,-0.31280517578125,0.431060791015625,-0.0400543212890625,0.5341018930882782
1784902560.710081,0.02099609375,-0.16552734375,0.9736327528953552,0.9878263384787214,-0.43487548828125,0.736236572265625,-0.2231597900390625,0.8837201324738341
1784902560.720736,0.0239257849752903,-0.158203125,0.9653319716453552,0.97850216526442,-0.43487548828125,0.919342041015625,-0.2841949462890625,1.055970286600373
1784902560.728901,0.0185546912252903,-0.17578125,0.9677733778953552,0.9837828192141873,-0.92315673828125,0.67901611328125,-0.4673004150390625,1.2375988540013003
1784902560.737066,0.0263671875,-0.173828125,0.9672850966453552,0.9831337161393103,-0.80108642578125,0.67901611328125,-0.8335113525390625,1.34072499733467
1784902560.745231,0.02685546875,-0.16943359375,0.9824218153953552,0.9972871112460683,-0.9212493896484375,0.4329681396484375,-0.9555816650390625,1.3961726850347254
1784902560.753396,0.00537109375,-0.1650390625,0.9755858778953552,0.9894617455706921,-1.10626220703125,0.431060791015625,-1.0166168212890625,1.5630544576516028
1784902560.763855,0.02001953125,-0.16943359375,0.9780272841453552,0.9927970048581176,-1.0471343994140625,0.1277923583984375,-0.8335113525390625,1.3444562142787624
1784902560.774314,0.0234375037252903,-0.169921875,0.9667968153953552,0.9818955354023101,-0.8640289306640625,0.2498626708984375,-0.9555816650390625,1.3122932850136098
1784902560.784773,0.0205078125,-0.16455078125,0.9584960341453552,0.9727343817589129,-0.6809234619140625,0.1277923583984375,-0.9555816650390625,1.1803067255628485
1784902560.795429,0.0073242224752902985,-0.1796875,0.9711913466453552,0.9877013079316722,-0.31280517578125,-0.17547607421875,-0.2231597900390625,0.4224206700778756
1784902560.806086,0.0244140625,-0.1611328125,0.9785155653953552,0.9919942244957406,-0.3757476806640625,-0.5435943603515625,-0.4062652587890625,0.7757142570749815
1784902560.816743,0.0126953125,-0.16845703125,0.9750975966453552,0.9896232946533666,-0.31280517578125,-0.48065185546875,-0.1621246337890625,0.5959510726916502
1784902560.824765,0.0190429724752903,-0.1708984375,0.9790038466453552,0.9939906651910964,0.35858154296875,-1.033782958984375,0.3261566162109375,1.1417819702300909
1784902560.832789,0.0161132849752903,-0.18115234375,0.9833983778953552,1.0000740868785818,0.4177093505859375,-0.9708404541015625,0.0209808349609375,1.0570962512102253
1784902560.840813,0.02099609375,-0.1728515625,0.9887694716453552,1.0039838478129441,0.4177093505859375,-0.9098052978515625,0.2040863037109375,1.0217034799432216
1784902560.848837,0.0283203162252903,-0.17626953125,0.9736327528953552,0.9898655087782294,0.6008148193359375,-0.6656646728515625,0.2651214599609375,0.9350814362118799
1784902560.859476,0.0273437537252903,-0.1484375,0.9765624403953552,0.988157665691549,0.48065185546875,-0.96893310546875,0.3261566162109375,1.129706026954374
1784902560.870115,0.0302734375,-0.16259765625,0.9682616591453552,0.9822856607967845,0.1735687255859375,-0.8487701416015625,0.2651214599609375,0.9059946160478449
1784902560.880754,0.02978515625,-0.162109375,0.9750975966453552,0.9889296880867089,0.2956390380859375,-0.7266998291015625,0.2651214599609375,0.8281210485118933
1784902560.891424,0.029296875,-0.177734375,0.9697265028953552,0.9863150132483341,0.0553131103515625,-0.8487701416015625,-0.1010894775390625,0.8565566974346889
1784902560.902093,0.02978515625,-0.16650390625,0.9653319716453552,0.9800390409621724,0.2956390380859375,-0.5435943603515625,0.2651214599609375,0.673191397730409
1784902560.912762,0.03173828125,-0.1591796875,0.9780272841453552,0.9914044885625852,0.41961669921875,-0.789642333984375,-0.1010894775390625,0.8999068131493676
1784902560.920762,0.0268554724752903,-0.15234375,0.9653319716453552,0.9776480195073494,-0.00762939453125,-0.240325927734375,-0.0400543212890625,0.24376034922896905
1784902560.928762,0.02490234375,-0.169921875,0.9741210341453552,0.9891437506713446,0.0553131103515625,-0.0553131103515625,-0.1621246337890625,0.18000965872631916
1784902560.936762,0.0327148474752903,-0.15625,0.9853515028953552,0.9981993328005517,-0.00762939453125,0.370025634765625,-0.2231597900390625,0.43217759073660406
1784902560.944762,0.0273437537252903,-0.16650390625,0.9799804091453552,0.9944007411365882,-0.12969970703125,0.431060791015625,0.0820159912109375,0.4575609712041893
1784902560.955422,0.0278320349752903,-0.16796875,0.9667968153953552,0.981674184954473,0.1125335693359375,0.1888275146484375,0.0209808349609375,0.22081628099270723
1784902560.966082,0.0205078125,-0.16552734375,0.9716796278953552,0.9858910544118563,0.05340576171875,0.553131103515625,-0.0400543212890625,0.557144991644994
1784902560.976742,0.0273437537252903,-0.16015625,0.9619140028953552,0.9755389557818884,0.05340576171875,0.553131103515625,-0.0400543212890625,0.557144991644994
1784902560.984732,0.0161132849752903,-0.1728515625,0.9736327528953552,0.9889883912978829,-0.19073486328125,0.553131103515625,-0.3452301025390625,0.6793508883091726
