timestamp,accel_x,accel_y,accel_z,accel_rms,gyro_x,gyro_y,gyro_z,gyro_rms
1782131075.664863,-0.0776367112994194,-0.1591796875,0.9794921278953552,0.995374532757875,0.3261566162109375,-0.2803802490234375,0.0514984130859375,0.4331781491384156
1782131075.67554,-0.0751953125,-0.158203125,0.9799804091453552,0.9955120120271961,0.4520416259765625,-0.4634857177734375,0.2956390380859375,0.7117324518636701
1782131075.686217,-0.0654296875,-0.16552734375,0.9736327528953552,0.9897681966227578,0.20599365234375,-0.40435791015625,-0.0095367431640625,0.45390489508488996
1782131075.694227,-0.064453125,-0.158203125,0.9760741591453552,0.9909102876816567,0.45013427734375,-0.09918212890625,0.3566741943359375,0.582815960007399
1782131075.702237,-0.0712890625,-0.16845703125,0.9741210341453552,0.9911466546248888,0.2040863037109375,-0.5245208740234375,-0.1316070556640625,0.5780084633889606
1782131075.710247,-0.07080078125,-0.15771484375,0.9804686903953552,0.9955930772209498,0.08392333984375,-0.22125244140625,0.0514984130859375,0.242173194943465
1782131075.718257,-0.0810546875,-0.1513671875,0.9702147841453552,0.9852911321998189,0.08392333984375,-0.34332275390625,-0.0705718994140625,0.36040814822532746
1782131075.728904,-0.0712890625,-0.154296875,0.9760741591453552,0.9907625448200021,0.1468658447265625,0.1468658447265625,0.1125335693359375,0.23622649496188988
1782131075.739551,-0.0820312425494194,-0.15234375,0.9780272841453552,0.9932145344541649,-0.03814697265625,-0.09918212890625,0.0514984130859375,0.11808629373294148
1782131075.750198,-0.0781249925494194,-0.1640625,0.9853515028953552,1.0019668670296598,0.2040863037109375,0.4520416259765625,0.0514984130859375,0.4986430963407568
1782131075.758209,-0.07568359375,-0.166015625,0.9785155653953552,0.995380282016902,0.3261566162109375,0.6961822509765625,-0.1316070556640625,0.779979667666745
1782131075.766222,-0.078125,-0.1669921875,0.9853515028953552,1.0024507422158808,-0.09918212890625,0.75531005859375,-0.1926422119140625,0.78577439581499
1782131075.774234,-0.07958984375,-0.16455078125,0.9667968153953552,0.9839245830330368,-0.1621246337890625,0.6961822509765625,0.1125335693359375,0.7236144883040397
1782131075.782246,-0.0810546875,-0.15478515625,0.9721679091453552,0.9877442738548836,0.08392333984375,0.45013427734375,0.3566741943359375,0.5804140552360011
1782131075.792899,-0.0791015625,-0.1484375,0.9648436903953552,0.9793947597837755,0.14495849609375,0.38909912109375,-0.0095367431640625,0.41533365032930786
1782131075.803552,-0.08544921875,-0.16357421875,0.9746093153953552,0.991928128283527,0.02288818359375,0.38909912109375,-0.0095367431640625,0.3898883743513356
1782131075.814205,-0.0991210862994194,-0.15478515625,0.9843749403953552,1.0013877658643893,0.2040863037109375,0.6351470947265625,0.4787445068359375,0.821132969821314
1782131075.824866,-0.083984375,-0.15625,0.9829100966453552,0.9987891147942703,0.2040863037109375,0.6351470947265625,0.2346038818359375,0.7071789255022215
1782131075.83553,-0.0771484300494194,-0.15625,0.9726561903953552,0.9881427060265615,-0.0362396240234375,0.3299713134765625,0.2956390380859375,0.4445186373001546
1782131075.846194,-0.07470703125,-0.15478515625,0.9653319716453552,0.9805128253083865,-0.5245208740234375,0.5130767822265625,0.1125335693359375,0.7423164661879463
1782131075.856941,-0.0810546875,-0.15478515625,0.9921874403953552,1.007454328413624,-0.4673004150390625,0.1468658447265625,0.1735687255859375,0.519678128022003
1782131075.867689,-0.083984375,-0.1376953125,0.9780272841453552,0.9912369761370652,-0.4673004150390625,0.0247955322265625,-0.1316070556640625,0.4861120379240183
1782131075.878437,-0.08642578125,-0.17431640625,0.9692382216453552,0.9885738998430207,-0.1621246337890625,-0.0362396240234375,-0.0705718994140625,0.18049404482560163
1782131075.886373,-0.0722656175494194,-0.15283203125,0.9848632216453552,0.9992674890165636,-0.1621246337890625,-0.3414154052734375,-0.0705718994140625,0.38448571992490405
1782131075.894312,-0.07373046875,-0.1611328125,0.9848632216453552,1.0006775357905877,0.1468658447265625,-0.3414154052734375,0.0514984130859375,0.3752147942920724
1782131075.902251,-0.0859375,-0.1611328125,0.9760741591453552,0.993010473923474,-0.03814697265625,-0.766754150390625,-0.1316070556640625,0.7789014929788295
1782131075.91019,-0.08642578125,-0.166015625,0.9819335341453552,0.9996119591561522,-0.09918212890625,-0.58746337890625,0.0514984130859375,0.5979986645475842
1782131075.920873,-0.08642578125,-0.12939453125,0.9853515028953552,0.9975620003990806,0.1468658447265625,-0.3414154052734375,-0.0095367431640625,0.3717862353227317
1782131075.931556,-0.0786132737994194,-0.15380859375,0.9799804091453552,0.9950872990032145,0.0820159912109375,-0.6465911865234375,0.2956390380859375,0.7156879390799301
1782131075.942239,-0.0810546875,-0.1552734375,0.9682616591453552,0.9839768001989199,0.1468658447265625,-0.3414154052734375,0.4787445068359375,0.6060778482429937
1782131075.952919,-0.07958984375,-0.14599609375,0.9765624403953552,0.9906177883570131,0.26702880859375,-0.09918212890625,0.4177093505859375,0.505591318042843
1782131075.963603,-0.0615234337747097,-0.14697265625,0.9760741591453552,0.9889928507021292,-0.03814697265625,-0.22125244140625,0.6618499755859375,0.6988942870951006
1782131075.974286,-0.076171875,-0.14404296875,0.9760741591453552,0.9895813738842508,-0.0362396240234375,0.3299713134765625,0.2956390380859375,0.4445186373001546
1782131075.983874,-0.0727538987994194,-0.1708984375,0.9736327528953552,0.9911912748007043,0.75531005859375,-0.461578369140625,0.3566741943359375,0.9543397489241466
1782131075.993464,-0.0678710862994194,-0.14892578125,0.9716796278953552,0.9853662628399869,0.8144378662109375,-0.5245208740234375,0.0514984130859375,0.9700944653769062
1782131076.003056,-0.0629882737994194,-0.150390625,0.9760741591453552,0.9895987201262103,0.26702880859375,0.026702880859375,0.1735687255859375,0.3195990159038573
1782131076.012647,-0.06591796875,-0.16796875,0.9814452528953552,0.9978945154732118,-0.1010894775390625,0.2079010009765625,-0.1316070556640625,0.2660118902920336
1782131076.022238,-0.07666015625,-0.15087890625,0.9809569716453552,0.9954485441885467,-0.1621246337890625,0.2079010009765625,0.1125335693359375,0.28665489236323966
1782131076.030229,-0.0639648362994194,-0.15869140625,0.9594725966453552,0.9746087042571467,-0.2841949462890625,-0.0362396240234375,0.1735687255859375,0.3349719097881637
1782131076.03822,-0.0844726487994194,-0.154296875,0.9829100966453552,0.9985266206352924,-0.2841949462890625,0.4520416259765625,0.1125335693359375,0.5456850770721734
1782131076.046211,-0.07568359375,-0.154296875,0.9868163466453552,1.0016696231812996,-0.70953369140625,0.57220458984375,0.3566741943359375,0.9788118474885885
1782131076.054202,-0.0937499925494194,-0.1591796875,0.9775390028953552,0.9948415633643677,-0.8335113525390625,0.9403228759765625,0.2956390380859375,1.2908720799276392
1782131076.063804,-0.0820312425494194,-0.1572265625,0.9760741591453552,0.9920534667350749,-0.3414154052734375,0.8182525634765625,0.2956390380859375,0.9346144538976325
1782131076.073406,-0.0859375,-0.16064453125,0.9663085341453552,0.9833331594576313,-0.8640289306640625,1.0738372802734375,0.6275177001953125,1.5144143955958522
1782131076.083008,-0.08447265625,-0.15380859375,0.9721679091453552,0.9878781082387315,-0.7419586181640625,1.0128021240234375,0.6885528564453125,1.4319133247558355
1782131076.09261,-0.0849609375,-0.1640625,0.9765624403953552,0.9938858409284542,-0.7419586181640625,0.8907318115234375,0.6885528564453125,1.348336303466887
1782131076.102211,-0.0839843675494194,-0.16455078125,0.9653319716453552,0.9828510309723291,-0.67901611328125,0.827789306640625,0.6885528564453125,1.2729505310117677
1782131076.112906,-0.0834960862994194,-0.17041015625,0.9765624403953552,0.9948293410286013,-0.2536773681640625,0.7076263427734375,0.0171661376953125,0.7519188283245275
1782131076.123598,-0.0908203125,-0.1591796875,0.9765624403953552,0.9936099345649313,-0.55694580078125,0.461578369140625,-0.2880096435546875,0.7785838237767884
1782131076.13429,-0.0791015550494194,-0.1591796875,0.9760741591453552,0.992127004508569,-0.0705718994140625,0.3414154052734375,-0.2880096435546875,0.45221059997022656
1782131076.142676,-0.09130859375,-0.166015625,0.9663085341453552,0.9847083985621775,-0.1926422119140625,0.5245208740234375,-0.3490447998046875,0.6588364299036201
1782131076.151063,-0.0820312425494194,-0.15576171875,0.9814452528953552,0.9971086310994322,-0.0705718994140625,0.5245208740234375,-0.4100799560546875,0.6695282747061798
1782131076.159452,-0.08544921875,-0.1572265625,0.9677733778953552,0.984178374027563,-0.00762939453125,0.278472900390625,-0.5931854248046875,0.655342896592004
1782131076.16784,-0.080078125,-0.15771484375,0.9653319716453552,0.9814032267744546,-0.0705718994140625,0.1583099365234375,-0.2880096435546875,0.3361428026441463
1782131076.179501,-0.09521484375,-0.14111328125,0.9760741591453552,0.9908075437575103,-0.31280517578125,0.09918212890625,-0.3490447998046875,0.4790787460956801
1782131076.191162,-0.0820312425494194,-0.16455078125,0.9750975966453552,0.9922809115103116,0.11444091796875,-0.209808349609375,-0.3490447998046875,0.4230230957548704
1782131076.202823,-0.0908203125,-0.14990234375,0.9736327528953552,0.989282456801357,-0.0705718994140625,-0.5130767822265625,-0.4711151123046875,0.7001268645672227
1782131076.214484,-0.09423828125,-0.15234375,0.9912108778953552,1.0072678274794133,-0.3757476806640625,-0.4520416259765625,-0.2269744873046875,0.6301153616816387
1782131076.222484,-0.08154296875,-0.16455078125,0.9926757216453552,1.0095203334785663,-0.6809234619140625,-0.9403228759765625,-0.7152557373046875,1.3636182170303892
1782131076.230488,-0.08984375,-0.15380859375,0.9677733778953552,0.9840296204324345,-0.43487548828125,-0.698089599609375,-0.3490447998046875,0.8934640740742336
1782131076.238492,-0.08056640625,-0.17431640625,0.9863280653953552,1.0048483506930284,-0.3757476806640625,-0.9403228759765625,-0.5321502685546875,1.1439306530258213
1782131076.246496,-0.0839843675494194,-0.15966796875,0.9755858778953552,0.9921265238800331,0.0553131103515625,-0.9403228759765625,-0.2880096435546875,0.9849955360518625
1782131076.257093,-0.080078125,-0.1689453125,0.9721679091453552,0.9899825595894556,0.1735687255859375,-1.2454986572265625,-0.3490447998046875,1.305076733347657
1782131076.26769,-0.0737304612994194,-0.1484375,0.9843749403953552,0.9982303820301375,0.2346038818359375,-0.8792877197265625,-0.1049041748046875,0.9160735567223196
1782131076.278287,-0.07958984375,-0.1552734375,0.9765624403953552,0.9920275115197902,-0.1926422119140625,-0.7572174072265625,-0.2880096435546875,0.8327297150928136
1782131076.286895,-0.0776367112994194,-0.15869140625,0.9726561903953552,0.9885699196685065,0.2956390380859375,-0.4520416259765625,-0.1049041748046875,0.5502262792227988
1782131076.295506,-0.0791015625,-0.14208984375,0.9755858778953552,0.9890472112268918,0.35858154296875,-0.698089599609375,-0.1659393310546875,0.8021506551960823
1782131076.304117,-0.0732421800494194,-0.16015625,0.9809569716453552,0.9966398655342261,0.4177093505859375,-0.1468658447265625,-0.0438690185546875,0.4449440062559826
1782131076.312727,-0.0932617112994194,-0.15478515625,0.9711913466453552,0.9878607306643238,0.35858154296875,0.034332275390625,-0.1049041748046875,0.3751857059947775
1782131076.321829,-0.07373046875,-0.15771484375,0.9653319716453552,0.9809056883522954,0.35858154296875,0.522613525390625,-0.4100799560546875,0.7548981323575263
1782131076.330931,-0.0727538987994194,-0.15234375,0.9750975966453552,0.9896045022826677,0.17547607421875,0.827789306640625,-0.1049041748046875,0.8526616413931398
1782131076.340033,-0.0810546875,-0.15673828125,0.9716796278953552,0.9875717950821513,-0.12969970703125,0.278472900390625,0.0782012939453125,0.3169930797835817
1782131076.349135,-0.0874023362994194,-0.1650390625,0.9638671278953552,0.9817926974564013,-0.12969970703125,0.522613525390625,0.2613067626953125,0.5985216246348279
1782131076.358237,-0.07861328125,-0.15771484375,0.9843749403953552,1.000024021314657,-0.43487548828125,0.644683837890625,-0.2269744873046875,0.8100934261135977
1782131076.367852,-0.0791015550494194,-0.15478515625,0.9785155653953552,0.9938351031874276,-0.55694580078125,0.278472900390625,-0.2269744873046875,0.662761796686457
1782131076.377467,-0.0869140550494194,-0.16796875,0.9653319716453552,0.9836835717965432,-0.4329681396484375,0.5855560302734375,-0.2269744873046875,0.7627940039272998
1782131076.387082,-0.07080078125,-0.15283203125,0.9750975966453552,0.9895381262918368,-0.43487548828125,0.461578369140625,-0.5321502685546875,0.8278618178713164
1782131076.396697,-0.0874023362994194,-0.15087890625,0.9687499403953552,0.9843170524570817,-0.61798095703125,0.278472900390625,-0.2269744873046875,0.7148181848501424
1782131076.406312,-0.0825195237994194,-0.16015625,0.9741210341453552,0.9906418552567632,-0.1926422119140625,0.4024505615234375,-0.1049041748046875,0.458347425184352
1782131076.416948,-0.0834960862994194,-0.17529296875,0.9780272841453552,0.9971141308061219,-0.12969970703125,0.522613525390625,-0.1049041748046875,0.5485907370860922
1782131076.427584,-0.07568359375,-0.1611328125,0.9672850966453552,0.9835305017228949,-0.19073486328125,0.278472900390625,0.2613067626953125,0.42685848773708185
1782131076.43822,-0.09033203125,-0.16015625,0.9819335341453552,0.9990011840648644,-0.19073486328125,-0.026702880859375,0.5054473876953125,0.5408973041577511
1782131076.446214,-0.0830078125,-0.16162109375,0.9692382216453552,0.9861208877106459,-0.0095367431640625,0.2193450927734375,0.0782012939453125,0.23306364274310648
1782131076.454207,-0.0874023362994194,-0.15966796875,0.9726561903953552,0.9895418603322212,0.1735687255859375,0.2193450927734375,0.0782012939453125,0.29043728169784877
1782131076.462199,-0.0947265625,-0.1552734375,0.9628905653953552,0.9799189777545487,-0.19073486328125,0.156402587890625,-0.1049041748046875,0.2680418688586808
1782131076.470193,-0.0683593675494194,-0.1640625,0.9819335341453552,0.9978892586440612,-0.00762939453125,-0.209808349609375,0.0782012939453125,0.2240383752874591
1782131076.478323,-0.08837890625,-0.16064453125,0.9819335341453552,0.9989048813423959,-0.3757476806640625,-0.1468658447265625,-0.1659393310546875,0.43622443473806716
1782131076.486453,-0.0791015625,-0.14599609375,0.9873046278953552,1.0011704874015144,-0.31280517578125,-0.209808349609375,-0.1659393310546875,0.41158532912656837
1782131076.494582,-0.0859375,-0.150390625,0.9667968153953552,0.9821907534958477,-0.0705718994140625,-0.2689361572265625,-0.3490447998046875,0.4462502906681331
1782131076.502712,-0.08056640625,-0.158203125,0.9819335341453552,0.9978540174068515,-0.2536773681640625,-0.3910064697265625,-0.2880096435546875,0.5478939872522537
1782131076.513235,-0.07958984375,-0.1533203125,0.9819335341453552,0.9970131026884423,-0.19073486328125,-0.209808349609375,-0.5321502685546875,0.6029786397208055
1782131076.523757,-0.07568359375,-0.15478515625,0.9814452528953552,0.9964543318130941,-0.49591064453125,-0.148773193359375,-0.2269744873046875,0.5653125226889738
1782131076.534279,-0.0742187425494194,-0.15478515625,0.9819335341453552,0.9968251259976051,-0.12969970703125,-0.514984130859375,-0.0438690185546875,0.5328744315783311
1782131076.545004,-0.0908203125,-0.16552734375,0.9770507216453552,0.9951259937109661,-0.2536773681640625,-0.3910064697265625,-0.1049041748046875,0.47774800091484104
1782131076.555728,-0.0820312425494194,-0.1533203125,0.9741210341453552,0.9895190913487802,0.05340576171875,-0.331878662109375,-0.1659393310546875,0.37487529038220935
1782131076.566452,-0.08447265625,-0.166015625,0.9775390028953552,0.9951277905775301,0.35858154296875,-0.57220458984375,0.0171661376953125,0.6754949976716912
1782131076.575091,-0.07421875,-0.16064453125,0.9804686903953552,0.9963101631107041,-0.31280517578125,-0.38909912109375,0.2002716064453125,0.5379162763661772
1782131076.583731,-0.07421875,-0.1513671875,0.9785155653953552,0.9929315988648032,0.1125335693359375,-0.3910064697265625,-0.0438690185546875,0.40923630628827035
1782131076.592371,-0.0703125,-0.16015625,0.9741210341453552,0.989699783386219,-0.0705718994140625,-0.3910064697265625,0.0782012939453125,0.4049467801201276
1782131076.601011,-0.07666015625,-0.17578125,0.9809569716453552,0.9995260915191074,0.05340576171875,-0.38909912109375,-0.1049041748046875,0.40651591274160603
1782131076.610784,-0.0874023362994194,-0.17333984375,0.9780272841453552,0.9971074357132287,0.29754638671875,-0.331878662109375,-0.0438690185546875,0.44788591114461745
1782131076.620557,-0.0820312425494194,-0.15771484375,0.9755858778953552,0.9916505946361044,-0.12969970703125,-0.331878662109375,0.0782012939453125,0.3648025530916991
1782131076.63033,-0.0732421800494194,-0.14453125,0.9692382216453552,0.982688368437932,-0.4978179931640625,-0.4520416259765625,0.0782012939453125,0.6769636831530552
1782131076.638307,-0.078125,-0.15185546875,0.9863280653953552,1.001002822973455,0.2346038818359375,-0.3299713134765625,-0.4100799560546875,0.5762687042064256
1782131076.646284,-0.0732421875,-0.1611328125,0.9794921278953552,0.9953557303310793,-0.0705718994140625,-0.5130767822265625,-0.4711151123046875,0.7001268645672227
1782131076.654261,-0.08544921875,-0.15966796875,0.9829100966453552,0.999453694433673,0.2346038818359375,-0.0247955322265625,-0.3490447998046875,0.42129095891270135
1782131076.662238,-0.0727538987994194,-0.15576171875,0.9829100966453552,0.9978311986031765,0.05340576171875,-0.514984130859375,-0.5931854248046875,0.7873561955191966
1782131076.670257,-0.07470703125,-0.1630859375,0.9707030653953552,0.9871385944721145,-0.0705718994140625,-0.3910064697265625,-0.4711151123046875,0.616292058521604
1782131076.678276,-0.0776367112994194,-0.15234375,0.9716796278953552,0.9866090291358112,-0.1926422119140625,-0.1468658447265625,-0.2880096435546875,0.37633781757735624
1782131076.686295,-0.0791015550494194,-0.15869140625,0.9760741591453552,0.9920487803430591,-0.12969970703125,-0.026702880859375,-0.1659393310546875,0.21229912727342812
1782131076.694314,-0.08984375,-0.162109375,0.9965819716453552,1.0136700523767568,0.2956390380859375,-0.4520416259765625,0.1392364501953125,0.5577910554310678
1782131076.704948,-0.0849609375,-0.16015625,0.9702147841453552,0.9870081624227631,0.48065185546875,0.09918212890625,0.2613067626953125,0.5560076663951968
1782131076.715582,-0.076171875,-0.16552734375,0.9809569716453552,0.9977364563298129,0.2346038818359375,0.0362396240234375,0.4444122314453125,0.5038397792751707
1782131076.726216,-0.0844726487994194,-0.15869140625,0.9814452528953552,0.9977742105524778,0.54168701171875,-0.026702880859375,0.3223419189453125,0.6309058370472773
1782131076.734235,-0.0849609375,-0.1611328125,0.9750975966453552,0.9919664647298249,0.1125335693359375,0.2193450927734375,0.4444122314453125,0.5082108867482831
1782131076.742254,-0.08056640625,-0.16455078125,0.9677733778953552,0.984963560944775,0.35858154296875,0.156402587890625,0.2613067626953125,0.4704505464839408
1782131076.750273,-0.0781249925494194,-0.1630859375,0.9716796278953552,0.988363210939155,0.54168701171875,-0.38909912109375,0.2613067626953125,0.7163128987607457
1782131076.758292,-0.07470703125,-0.146484375,0.9809569716453552,0.9946433495765984,0.5435943603515625,0.0362396240234375,-0.0438690185546875,0.5465643875558817
1782131076.766305,-0.0693359375,-0.1552734375,0.9658202528953552,0.9806763347429763,0.2956390380859375,-0.0858306884765625,-0.3490447998046875,0.4654047917624329
1782131076.77432,-0.0859375,-0.1708984375,0.9682616591453552,0.9869762765219372,-0.19073486328125,-0.026702880859375,-0.4100799560546875,0.4530545246158806
1782131076.782334,-0.07177734375,-0.1513671875,0.9755858778953552,0.9898645451152984,-0.0095367431640625,-0.2689361572265625,-0.3490447998046875,0.4407378794756153
1782131076.790348,-0.0869140550494194,-0.1611328125,0.9741210341453552,0.9911758801513029,0.2346038818359375,0.0972747802734375,-0.4100799560546875,0.48235561011306843
1782131076.799973,-0.0820312425494194,-0.16259765625,0.9809569716453552,0.9977192504867394,-0.0705718994140625,0.1583099365234375,-0.3490447998046875,0.3897110484187711
1782131076.809598,-0.08642578125,-0.1689453125,0.9711913466453552,0.9895577628815885,-0.2536773681640625,0.3414154052734375,-0.4100799560546875,0.5908318343103097
1782131076.819222,-0.0874023362994194,-0.15087890625,0.9746093153953552,0.9900843046918762,-0.31280517578125,0.278472900390625,-0.1659393310546875,0.4504776307857948
1782131076.828848,-0.0961913913488388,-0.15625,0.9702147841453552,0.9874125650627724,-0.3757476806640625,0.4024505615234375,-0.1049041748046875,0.5604976894567941
1782131076.838473,-0.0722656175494194,-0.1484375,0.9794921278953552,0.9933080285062735,-0.3757476806640625,0.1583099365234375,-0.0438690185546875,0.4100888273477206
1782131076.848022,-0.0820312425494194,-0.17626953125,0.9658202528953552,0.985194819974275,-0.2536773681640625,-0.3299713134765625,-0.0438690185546875,0.41851853677590517
1782131076.857573,-0.07470703125,-0.1533203125,0.9799804091453552,0.9947109434664846,-0.49591064453125,-0.026702880859375,-0.0438690185546875,0.4985628365557759
1782131076.867123,-0.07568359375,-0.1591796875,0.9750975966453552,0.990899340124445,-0.00762939453125,0.09918212890625,0.1392364501953125,0.17112010816464907
1782131076.876673,-0.0722656175494194,-0.15234375,0.9843749403953552,0.9987116505389434,-0.19073486328125,0.156402587890625,-0.0438690185546875,0.25053153166568337
1782131076.886223,-0.0737304612994194,-0.15966796875,0.9804686903953552,0.9961169078043797,-0.4329681396484375,-0.2689361572265625,-0.2880096435546875,0.5854379739946132
1782131076.895829,-0.0786132737994194,-0.16357421875,0.9702147841453552,0.9870427038539688,-0.37384033203125,-0.514984130859375,-0.1049041748046875,0.6449574674206614
1782131076.905437,-0.08056640625,-0.16259765625,0.9746093153953552,0.9913587954365646,-0.0705718994140625,-0.2689361572265625,-0.3490447998046875,0.4462502906681331
1782131076.915045,-0.0786132737994194,-0.16015625,0.9624022841453552,0.9787993807516032,-0.0705718994140625,-0.3299713134765625,-0.7152557373046875,0.7908553789736962
1782131076.924653,-0.08349609375,-0.166015625,0.9648436903953552,0.9825762730248362,0.1125335693359375,-0.5741119384765625,-0.6542205810546875,0.877651918931609
1782131076.934261,-0.07177734375,-0.1728515625,0.9873046278953552,1.0048880922759922,0.2346038818359375,-0.4520416259765625,-0.4711151123046875,0.693779548581452
1782131076.944063,-0.0825195237994194,-0.1669921875,0.9814452528953552,0.9989647876301475,-0.2536773681640625,-0.3910064697265625,-0.2880096435546875,0.5478939872522537
1782131076.953867,-0.07958984375,-0.169921875,0.9814452528953552,0.9992210822748351,-0.1277923583984375,-0.7572174072265625,-0.1049041748046875,0.77505740081842
1782131076.96367,-0.0732421800494194,-0.16064453125,0.9736327528953552,0.9895108993181994,0.1125335693359375,-0.3299713134765625,-0.1659393310546875,0.38610974286569266
1782131076.973475,-0.0795898362994194,-0.173828125,0.9956054091453552,1.0137952898897657,-0.0705718994140625,-0.3910064697265625,-0.4100799560546875,0.5709921389237791
1782131076.983279,-0.0786132737994194,-0.14453125,0.9794921278953552,0.9932140542969556,0.11444091796875,-0.026702880859375,-0.1049041748046875,0.1575266753384092
1782131076.992674,-0.0737304612994194,-0.1640625,0.9902343153953552,1.0064376206284138,0.05340576171875,-0.026702880859375,0.1392364501953125,0.1514992022881362
1782131077.002067,-0.0727538987994194,-0.15087890625,0.9838866591453552,0.9980433518569826,0.0553131103515625,0.2193450927734375,-0.1659393310546875,0.28054887540574674
1782131077.01146,-0.0820312425494194,-0.16064453125,0.9824218153953552,0.9988435380676192,0.2956390380859375,0.2193450927734375,-0.1049041748046875,0.38277878266123727
1782131077.020853,-0.0771484300494194,-0.16552734375,0.9819335341453552,0.9987715691123813,0.6008148193359375,0.0972747802734375,-0.4100799560546875,0.7338980858189611
1782131077.030246,-0.0810546875,-0.16064453125,0.9682616591453552,0.9848386509257092,0.2346038818359375,0.1583099365234375,-0.3490447998046875,0.4493698806609536
1782131077.039878,-0.06884765625,-0.14794921875,0.9829100966453552,0.9963640043614759,0.2956390380859375,-0.1468658447265625,0.0171661376953125,0.33055512924624175
1782131077.049509,-0.07421875,-0.16796875,0.9711913466453552,0.9883999977878104,0.35858154296875,-0.331878662109375,-0.1049041748046875,0.49972898176192526
1782131077.059139,-0.0678710862994194,-0.1533203125,0.9775390028953552,0.9918145515983349,0.4177093505859375,0.2193450927734375,0.0171661376953125,0.47211020702171647
1782131077.068771,-0.08056640625,-0.15625,0.9814452528953552,0.9970655909953305,0.1125335693359375,-0.2689361572265625,0.3223419189453125,0.43462026367925255
1782131077.078402,-0.0820312425494194,-0.15087890625,0.9658202528953552,0.9809700963883893,0.41961669921875,-0.209808349609375,0.4444122314453125,0.6462197376181346
1782131077.086497,-0.0722656175494194,-0.15966796875,0.9746093153953552,0.9902421407817145,-0.00762939453125,0.156402587890625,-0.0438690185546875,0.16261755117068286
1782131077.094592,-0.07275390625,-0.1416015625,0.9833983778953552,0.9962010354463054,0.2346038818359375,-0.0247955322265625,0.3833770751953125,0.4501464001591053
1782131077.102687,-0.083984375,-0.158203125,0.9829100966453552,0.999096522910218,-0.00762939453125,0.156402587890625,0.5054473876953125,0.529147464217503
1782131077.110782,-0.0830078050494194,-0.15283203125,0.9682616591453552,0.9837573715332655,-0.0705718994140625,0.0972747802734375,0.3833770751953125,0.40177202198444134
1782131077.118877,-0.06982421875,-0.15576171875,0.9780272841453552,0.9928114136555549,-0.4329681396484375,0.4024505615234375,0.0782012939453125,0.5962745230142574
1782131077.126972,-0.08544921875,-0.15576171875,0.9770507216453552,0.9930716966466464,-0.37384033203125,0.278472900390625,0.1392364501953125,0.48650851911163273
1782131077.13643,-0.08349609375,-0.162109375,0.9775390028953552,0.9944011008220198,-0.55694580078125,0.278472900390625,0.2613067626953125,0.6752903120067244
1782131077.145888,-0.07373046875,-0.16796875,0.9799804091453552,0.9970011460912946,-0.61798095703125,0.156402587890625,0.1392364501953125,0.652494461137515
1782131077.155346,-0.08447265625,-0.1611328125,0.9877929091453552,1.0044074095086788,-0.31280517578125,0.58746337890625,0.0171661376953125,0.6657739675256621
1782131077.164804,-0.0795898362994194,-0.1591796875,0.9853515028953552,1.0012943119846938,-0.12969970703125,0.09918212890625,-0.2880096435546875,0.33107199138384724
1782131077.174262,-0.0771484300494194,-0.1748046875,0.9833983778953552,1.0017888643213593,-0.4329681396484375,-0.0858306884765625,0.0171661376953125,0.44172728387361815
1782131077.183859,-0.0791015625,-0.1669921875,0.9770507216453552,0.9943699314358243,-0.4978179931640625,0.0362396240234375,0.0782012939453125,0.505224214623543
1782131077.193456,-0.07421875,-0.169921875,0.9770507216453552,0.9944898084559678,-0.61798095703125,0.09918212890625,-0.2880096435546875,0.6889754079269693
1782131077.203053,-0.08056640625,-0.169921875,0.9843749403953552,1.0021768370392097,-0.3757476806640625,0.0972747802734375,-0.0438690185546875,0.39060618683095555
1782131077.21265,-0.07958984375,-0.16796875,0.9736327528953552,0.9912158098594371,-0.2536773681640625,-0.2079010009765625,0.4444122314453125,0.5523379986782586
1782131077.222247,-0.07421875,-0.16259765625,0.9824218153953552,0.9985484685453486,-0.00762939453125,-0.331878662109375,0.0782012939453125,0.3410529231646363
1782131077.232912,-0.08447265625,-0.1552734375,0.9731444716453552,0.9890680627443769,0.0553131103515625,-0.2689361572265625,0.0171661376953125,0.27510156874130853
1782131077.24358,-0.0747070237994194,-0.1591796875,0.9770507216453552,0.9927474124797677,-0.1926422119140625,0.0362396240234375,0.0171661376953125,0.1967714624732893
1782131077.254248,-0.06640625,-0.1591796875,0.9760741591453552,0.9911956048646364,0.05340576171875,0.09918212890625,0.0782012939453125,0.13713027548232032
1782131077.262295,-0.07666015625,-0.16259765625,0.9843749403953552,1.0006541863464253,0.2346038818359375,0.2193450927734375,0.0782012939453125,0.33055512924624175
1782131077.270345,-0.0722656175494194,-0.15087890625,0.9819335341453552,0.996082441020914,0.4177093505859375,-0.3299713134765625,-0.0438690185546875,0.5341223268815161
1782131077.278394,-0.08056640625,-0.1640625,0.9775390028953552,0.9944797393129411,0.29754638671875,-0.026702880859375,0.0782012939453125,0.30880793135911366
1782131077.286443,-0.0825195237994194,-0.15478515625,0.9707030653953552,0.9864240252403421,0.0553131103515625,-0.0858306884765625,-0.1049041748046875,0.14639444372167026
1782131077.297073,-0.0849609375,-0.150390625,0.9721679091453552,0.9873936117682862,-0.06866455078125,-0.209808349609375,-0.1659393310546875,0.27617064596129287
1782131077.307703,-0.0751953125,-0.1552734375,0.9711913466453552,0.9863958673949611,0.05340576171875,-0.38909912109375,0.0171661376953125,0.3931220900738892
1782131077.318333,-0.0688476487994194,-0.15478515625,0.9755858778953552,0.990184956707279,-0.06866455078125,0.278472900390625,-0.2880096435546875,0.40646221419272904
1782131077.328994,-0.0732421875,-0.162109375,0.9814452528953552,0.9974360390137823,0.4177093505859375,0.0362396240234375,-0.2880096435546875,0.508668818286303
1782131077.339656,-0.07373046875,-0.17236328125,0.9580077528953552,0.9761783327614731,0.48065185546875,-0.026702880859375,0.0782012939453125,0.48770348818361275
1782131077.350317,-0.0786132737994194,-0.16455078125,0.9829100966453552,0.9996845825133193,-0.0705718994140625,0.0972747802734375,0.0782012939453125,0.14338137340280735
1782131077.359922,-0.0834960862994194,-0.16357421875,0.9770507216453552,0.9941610705186068,0.48065185546875,-0.148773193359375,-0.1049041748046875,0.5139694106844789
1782131077.369527,-0.0771484300494194,-0.1669921875,0.9643554091453552,0.9817431568862758,0.4177093505859375,0.0972747802734375,0.0782012939453125,0.4359574828109874
1782131077.379132,-0.078125,-0.162109375,0.9814452528953552,0.9978064689701698,-0.12969970703125,0.034332275390625,0.0171661376953125,0.1352604724997818
1782131077.388737,-0.0727538987994194,-0.17041015625,0.9794921278953552,0.9968638722276159,-0.12969970703125,0.278472900390625,0.0171661376953125,0.3076749039803758
1782131077.398342,-0.0917968675494194,-0.16552734375,0.9658202528953552,0.9841924239312474,-0.31280517578125,0.034332275390625,0.0782012939453125,0.32425487737851777
1782131077.40639,-0.076171875,-0.162109375,0.9726561903953552,0.9890104492462715,-0.1926422119140625,0.0362396240234375,-0.1659393310546875,0.25682716708202785
1782131077.414438,-0.0786132737994194,-0.154296875,0.9916991591453552,1.006704919378977,0.05340576171875,-0.026702880859375,-0.4100799560546875,0.4144041379966714
1782131077.422486,-0.0922851487994194,-0.15966796875,0.9575194716453552,0.9751174019130631,-0.37384033203125,-0.026702880859375,-0.1659393310546875,0.40988473903074557
1782131077.430534,-0.08056640625,-0.15966796875,0.9726561903953552,0.9889615112708869,-0.2536773681640625,-0.1468658447265625,-0.1659393310546875,0.33683474443229466
1782131077.441115,-0.0927734300494194,-0.15283203125,0.9711913466453552,0.9875105928029096,-0.06866455078125,-0.209808349609375,-0.0438690185546875,0.22507522051250356
1782131077.451696,-0.07958984375,-0.15966796875,0.9863280653953552,1.0023330065698948,0.05340576171875,-0.209808349609375,0.1392364501953125,0.2574072804206621
1782131077.462277,-0.08544921875,-0.1650390625,0.9707030653953552,0.9883339022333513,0.17547607421875,-0.514984130859375,0.2613067626953125,0.603557563029836
1782131077.471062,-0.0751953125,-0.15234375,0.9809569716453552,0.9955599095010111,-0.00762939453125,-0.514984130859375,0.2002716064453125,0.552607979535299
1782131077.479846,-0.07568359375,-0.1611328125,0.9819335341453552,0.9979405067970047,0.66375732421875,-0.38909912109375,0.2613067626953125,0.8125596197943065
1782131077.48863,-0.080078125,-0.1611328125,0.9736327528953552,0.9901197033077686,0.35858154296875,-0.08392333984375,0.4444122314453125,0.5771707558310462
1782131077.497414,-0.080078125,-0.1533203125,0.9667968153953552,0.9821485155449831,0.4177093505859375,-0.0247955322265625,-0.0438690185546875,0.42073793598185993
1782131077.507026,-0.07568359375,-0.14501953125,0.9833983778953552,0.996910748489603,0.1125335693359375,0.2193450927734375,0.3833770751953125,0.4558004560513147
1782131077.516638,-0.0703125,-0.1591796875,0.9755858778953552,0.990984271175733,0.48065185546875,-0.026702880859375,-0.2269744873046875,0.5322186279142885
1782131077.52625,-0.083984375,-0.15771484375,0.9716796278953552,0.9879719866727414,0.4177093505859375,0.1583099365234375,0.0171661376953125,0.4470322290980315
1782131077.536926,-0.07568359375,-0.1455078125,0.9824218153953552,0.9960186510433204,0.6008148193359375,-0.1468658447265625,0.1392364501953125,0.6339832904295772
1782131077.547603,-0.07958984375,-0.15185546875,0.9721679091453552,0.9871702336423457,0.35858154296875,-0.08392333984375,0.2002716064453125,0.41920468303272235
1782131077.55828,-0.0644531175494194,-0.13427734375,0.9682616591453552,0.9796505754488745,0.1125335693359375,0.0972747802734375,0.2002716064453125,0.24946924350091323
1782131077.56899,-0.07568359375,-0.162109375,0.9711913466453552,0.9875323223189326,0.2346038818359375,0.2803802490234375,0.3833770751953125,0.5297452663311374
1782131077.579698,-0.0722656175494194,-0.162109375,0.9843749403953552,1.000247865391898,-0.0095367431640625,0.7076263427734375,-0.1049041748046875,0.7154235642949848
1782131077.590406,-0.0820312425494194,-0.150390625,0.9746093153953552,0.9895502930611941,-0.00762939453125,1.010894775390625,0.2613067626953125,1.0441492607875944
1782131077.598375,-0.0874023362994194,-0.1630859375,0.9589843153953552,0.9766714435137073,-0.4329681396484375,0.8907318115234375,-0.0438690185546875,0.9913571812416577
1782131077.606346,-0.1074218675494194,-0.16064453125,0.9775390028953552,0.996458039874225,-0.2536773681640625,0.5245208740234375,0.1392364501953125,0.5990502011250375
1782131077.614316,-0.0927734375,-0.1669921875,0.9658202528953552,0.9845313922341173,-0.61798095703125,0.339508056640625,0.1392364501953125,0.7187161977026434
1782131077.622288,-0.0634765625,-0.1669921875,0.9804686903953552,0.9966115178535889,-0.31280517578125,0.339508056640625,0.2002716064453125,0.5032112030426377
1782131077.632947,-0.0673828050494194,-0.1533203125,0.9702147841453552,0.9845629934217739,-0.5588531494140625,0.2193450927734375,0.2613067626953125,0.6547597548445603
1782131077.643606,-0.07666015625,-0.15576171875,0.9824218153953552,0.9976427797307681,-0.3757476806640625,0.1583099365234375,0.0171661376953125,0.40809684121523354
1782131077.654265,-0.06689453125,-0.1708984375,0.9765624403953552,0.9936575638730026,-0.49591064453125,-0.026702880859375,-0.1659393310546875,0.523618441994232
1782131077.664901,-0.0703125,-0.17138671875,0.9741210341453552,0.9915790660277969,-0.0705718994140625,-0.1468658447265625,-0.1049041748046875,0.19379075113536184
1782131077.67554,-0.08056640625,-0.1669921875,0.9672850966453552,0.9848948140254823,0.0553131103515625,-0.2689361572265625,-0.4711151123046875,0.5452849217449651
1782131077.686178,-0.07470703125,-0.17236328125,0.9658202528953552,0.9839202214327658,0.17547607421875,-0.08392333984375,-0.0438690185546875,0.19939776925207897
1782131077.694252,-0.0844726487994194,-0.1640625,0.9790038466453552,0.9962432755345665,-0.12969970703125,-0.57220458984375,-0.1659393310546875,0.6097343423435516
1782131077.702329,-0.0771484300494194,-0.16796875,0.9819335341453552,0.9991790864078571,-0.12969970703125,-0.209808349609375,0.3833770751953125,0.4558722840391968
1782131077.710405,-0.076171875,-0.16455078125,0.9711913466453552,0.9879735552887129,0.1125335693359375,-0.2689361572265625,0.2613067626953125,0.3914992785709585
1782131077.718481,-0.07568359375,-0.16650390625,0.9682616591453552,0.985384289366509,0.05340576171875,-0.148773193359375,-0.1049041748046875,0.1897116874063333
1782131077.729071,-0.080078125,-0.1591796875,0.9687499403953552,0.9850010792035294,0.1125335693359375,-0.0858306884765625,0.3833770751953125,0.408666970890919
1782131077.739661,-0.07763671875,-0.15185546875,0.9804686903953552,0.9951916379939754,0.2956390380859375,0.0972747802734375,0.0171661376953125,0.3117041866914822
1782131077.750251,-0.0786132737994194,-0.14990234375,0.9765624403953552,0.9911230798796572,0.2956390380859375,-0.0858306884765625,0.3833770751953125,0.49167807527898927
1782131077.760911,-0.0722656175494194,-0.154296875,0.9799804091453552,0.9946815809208807,0.1735687255859375,-0.2689361572265625,0.3223419189453125,0.45426542007362086
1782131077.771571,-0.0776367112994194,-0.16357421875,0.9794921278953552,0.9960867495303977,-0.4329681396484375,0.0362396240234375,0.1392364501953125,0.4562472020330434
1782131077.782231,-0.06982421875,-0.1669921875,0.9848632216453552,1.001357767014243,-0.0095367431640625,-0.2689361572265625,0.2002716064453125,0.33544943356958257
1782131077.790256,-0.08056640625,-0.169921875,0.9770507216453552,0.9949836692565688,0.1125335693359375,0.0362396240234375,0.5664825439453125,0.5786878149499947
1782131077.798281,-0.08056640625,-0.1494140625,0.9912108778953552,1.005641343793539,0.17547607421875,0.09918212890625,0.3223419189453125,0.38017530170560354
1782131077.806306,-0.07470703125,-0.15380859375,0.9912108778953552,1.0058514942513244,0.1125335693359375,0.1583099365234375,0.6275177001953125,0.6568898722677609
1782131077.814331,-0.07568359375,-0.154296875,0.9672850966453552,0.9824337077838355,0.05340576171875,0.09918212890625,0.3833770751953125,0.3995838483528184
1782131077.825103,-0.07958984375,-0.15673828125,0.9584960341453552,0.9744824675230065,0.48065185546875,0.156402587890625,0.4444122314453125,0.6730454718090293
1782131077.835875,-0.0683593675494194,-0.16552734375,0.9780272841453552,0.9942885261298285,0.78582763671875,0.278472900390625,0.5054473876953125,0.9749611749249086
1782131077.846647,-0.0732421800494194,-0.15771484375,0.9731444716453552,0.9885588255492922,0.60272216796875,0.461578369140625,0.6885528564453125,1.024906648792205
1782131077.857177,-0.08447265625,-0.1708984375,0.9741210341453552,0.992599463408221,0.7228851318359375,0.7686614990234375,0.9326934814453125,1.408304137692209
1782131077.867707,-0.0859375,-0.15869140625,0.9663085341453552,0.9830159711245783,0.48065185546875,0.461578369140625,0.7495880126953125,1.0029770614528426
1782131077.878237,-0.07763671875,-0.15673828125,0.9702147841453552,0.9858555047681627,0.29754638671875,0.644683837890625,0.7495880126953125,1.0324888821983884
1782131077.888891,-0.0849609375,-0.16796875,0.9731444716453552,0.9911821349133362,0.1125335693359375,0.4024505615234375,0.6275177001953125,0.7539288578880838
1782131077.899547,-0.0825195237994194,-0.1533203125,0.9785155653953552,0.9938859601353529,-0.49591064453125,0.522613525390625,0.2613067626953125,0.7663768580215099
1782131077.910203,-0.08447265625,-0.1572265625,0.9750975966453552,0.9912977073478204,-0.4978179931640625,0.2193450927734375,0.2002716064453125,0.5796927982904986
1782131077.918199,-0.0825195237994194,-0.1533203125,0.9780272841453552,0.9934052338124256,-0.5588531494140625,-0.2689361572265625,0.3223419189453125,0.6989619531728127
1782131077.926193,-0.06591796875,-0.166015625,0.9863280653953552,1.0023718965208526,-0.7419586181640625,0.0972747802734375,0.2002716064453125,0.7746442346608905
1782131077.934187,-0.1010742112994194,-0.154296875,0.9741210341453552,0.9914309411093551,-0.9860992431640625,-0.2689361572265625,0.0171661376953125,1.0222587981112716
1782131077.942181,-0.0771484300494194,-0.16015625,0.9829100966453552,0.9988564275012372,-1.16729736328125,-0.514984130859375,0.1392364501953125,1.283424551122245
1782131077.950198,-0.07421875,-0.15234375,0.9746093153953552,0.9892322066486857,-0.6809234619140625,-0.6351470947265625,-0.0438690185546875,0.9321979852550509
1782131077.958215,-0.0883788987994194,-0.1650390625,0.9790038466453552,0.9967433238553841,-0.49591064453125,-0.698089599609375,0.1392364501953125,0.8675501400525326
1782131077.966232,-0.07666015625,-0.14892578125,0.9848632216453552,0.9990051217220387,-0.6809234619140625,-0.7572174072265625,-0.1049041748046875,1.0237381738918414
1782131077.974249,-0.0722656175494194,-0.14892578125,0.9682616591453552,0.9823094463414458,-0.2536773681640625,-0.5741119384765625,0.0171661376953125,0.6278944189139891
1782131077.98491,-0.0888671875,-0.16259765625,0.9868163466453552,1.0040626857117234,-0.2536773681640625,-0.5130767822265625,-0.1049041748046875,0.5818976520575256
1782131077.995573,-0.0678710862994194,-0.1572265625,0.9765624403953552,0.9914640065589679,0.1735687255859375,-0.7572174072265625,0.1392364501953125,0.7892344983409152
1782131078.006235,-0.0585937462747097,-0.16162109375,0.9707030653953552,0.9858088284324658,0.05340576171875,-0.331878662109375,0.0171661376953125,0.33658624159588435
1782131078.014282,-0.07666015625,-0.1611328125,0.9882811903953552,1.0042610587440375,0.1125335693359375,-0.3910064697265625,-0.1049041748046875,0.4201841851937885
1782131078.022329,-0.0727538987994194,-0.15771484375,0.9799804091453552,0.9952530854201361,0.35858154296875,-0.514984130859375,-0.1049041748046875,0.6362344409777639
1782131078.030376,-0.07275390625,-0.15673828125,0.9760741591453552,0.9912521292966538,0.1125335693359375,-0.8182525634765625,0.0171661376953125,0.8261330026980078
1782131078.038423,-0.0810546875,-0.15625,0.9843749403953552,0.9999889740112546,0.17547607421875,-0.820159912109375,-0.0438690185546875,0.8398682187363882
1782131078.046419,-0.08154296875,-0.1552734375,0.9819335341453552,0.9974730881707122,0.0553131103515625,-0.2689361572265625,0.0782012939453125,0.28548491941830423
1782131078.054415,-0.0751953125,-0.1474609375,0.9707030653953552,0.9847149355413936,-0.0095367431640625,-0.7572174072265625,0.4444122314453125,0.8780497609676214
1782131078.062411,-0.07080078125,-0.14501953125,0.9814452528953552,0.9946246525702085,-0.1926422119140625,-0.4520416259765625,0.3833770751953125,0.6232420358191425
1782131078.070407,-0.08837890625,-0.15576171875,0.9711913466453552,0.98756527677755,-0.31280517578125,-0.698089599609375,0.1392364501953125,0.7775364661167398
1782131078.080999,-0.0712890625,-0.146484375,0.9848632216453552,0.9982461459484517,-0.12969970703125,-0.331878662109375,0.0171661376953125,0.3567353874384699
1782131078.091591,-0.0654296875,-0.146484375,0.9765624403953552,0.9896529270994049,-0.12969970703125,-0.209808349609375,0.6885528564453125,0.7314004332024975
1782131078.102183,-0.07373046875,-0.1611328125,0.9775390028953552,0.9934699127139685,-0.12969970703125,-0.57220458984375,0.6275177001953125,0.8590800723452153
1782131078.110195,-0.0927734300494194,-0.16357421875,0.9838866591453552,1.0016967567118382,-0.2536773681640625,-0.2079010009765625,0.4444122314453125,0.5523379986782586
1782131078.118207,-0.0869140550494194,-0.1591796875,0.9799804091453552,0.9966212059686613,-0.19073486328125,0.278472900390625,0.6275177001953125,0.7125344962746002
1782131078.126219,-0.07421875,-0.16650390625,0.9833983778953552,1.0001521600713,-0.31280517578125,0.09918212890625,0.3223419189453125,0.4599874839593585
1782131078.134231,-0.06884765625,-0.1611328125,0.9721679091453552,0.9878330965336857,-0.2536773681640625,-0.0247955322265625,0.6885528564453125,0.7342152692882673
1782131078.145096,-0.0844726487994194,-0.1591796875,0.9741210341453552,0.9906490753401045,-0.0705718994140625,0.0972747802734375,0.6275177001953125,0.6389219357030781
1782131078.155961,-0.0786132737994194,-0.1787109375,0.9750975966453552,0.9944510892865165,-0.0705718994140625,0.1583099365234375,0.5054473876953125,0.5343402387215275
1782131078.166826,-0.07958984375,-0.15673828125,0.9746093153953552,0.9903356752600385,-0.2536773681640625,0.2803802490234375,0.4444122314453125,0.583495949102727
1782131078.174905,-0.080078125,-0.1611328125,0.9746093153953552,0.9910800204943487,0.17547607421875,0.034332275390625,0.4444122314453125,0.47903318174728143
1782131078.182986,-0.0874023362994194,-0.16015625,0.9726561903953552,0.989620764494695,-0.2536773681640625,-0.1468658447265625,0.2002716064453125,0.3550077461325009
1782131078.191067,-0.0810546875,-0.15185546875,0.9794921278953552,0.9945022746901969,0.1125335693359375,-0.1468658447265625,0.3833770751953125,0.42568927912274857
1782131078.199148,-0.0961913987994194,-0.1650390625,0.9814452528953552,0.9998627214696504,0.05340576171875,-0.148773193359375,0.3833770751953125,0.4146849650426432
1782131078.209582,-0.0771484300494194,-0.16064453125,0.9726561903953552,0.9888471117387297,-0.2536773681640625,-0.3910064697265625,0.1392364501953125,0.4864412148961746
1782131078.220016,-0.08837890625,-0.15673828125,0.9824218153953552,0.9987644082784768,-0.12969970703125,-0.453948974609375,-0.0438690185546875,0.47414784228323403
1782131078.23045,-0.0771484300494194,-0.1591796875,0.9824218153953552,0.998219753629627,-0.12969970703125,-0.38909912109375,0.2002716064453125,0.4564305603135125
1782131078.241039,-0.083984375,-0.1474609375,0.9746093153953552,0.989273178140357,-0.2536773681640625,-0.5130767822265625,0.2613067626953125,0.6291909215881243
1782131078.251628,-0.08544921875,-0.1572265625,0.9848632216453552,1.0009881749002931,-0.0705718994140625,-0.0247955322265625,0.2002716064453125,0.21378476969488072
1782131078.262217,-0.08544921875,-0.15673828125,0.9780272841453552,0.9941860119348536,0.2346038818359375,-0.0858306884765625,0.1392364501953125,0.2859941914092714
1782131078.270715,-0.0712890625,-0.142578125,0.9672850966453552,0.9803321428744743,0.48065185546875,0.278472900390625,0.5054473876953125,0.7510329048354237
1782131078.279212,-0.07666015625,-0.150390625,0.9726561903953552,0.9871951095698208,0.1125335693359375,0.0972747802734375,0.1392364501953125,0.20374733413648272
1782131078.287709,-0.0722656175494194,-0.16943359375,0.9829100966453552,1.0000211599052395,0.11444091796875,-0.026702880859375,0.4444122314453125,0.4596868488546547
1782131078.296206,-0.08154296875,-0.15576171875,0.9809569716453552,0.9965879534693081,0.4177093505859375,-0.0247955322265625,-0.0438690185546875,0.42073793598185993
1782131078.305406,-0.0781249925494194,-0.15478515625,0.9824218153953552,0.9976044218130196,0.2307891845703125,-0.0934600830078125,0.0972747802734375,0.26732156236955995
1782131078.314605,-0.0791015625,-0.15576171875,0.9931640028953552,1.0084113777943111,0.4138946533203125,-0.2765655517578125,0.1583099365234375,0.5223593824832667
1782131078.323804,-0.0732421800494194,-0.1533203125,0.9804686903953552,0.9950831060816339,0.354766845703125,-0.522613525390625,0.2193450927734375,0.668652885625382
1782131078.333003,-0.076171875,-0.14599609375,0.9702147841453552,0.9840903115596112,0.2288818359375,-0.339508056640625,-0.1468658447265625,0.4349967720492432
1782131078.342202,-0.0771484300494194,-0.16259765625,0.9833983778953552,0.9997310877052384,-0.1354217529296875,-0.0934600830078125,0.1583099365234375,0.22833281473417555
1782131078.35181,-0.07958984375,-0.158203125,0.9697265028953552,0.9857648108984062,-0.1354217529296875,-0.1544952392578125,-0.2117156982421875,0.2950107913315292
1782131078.36142,-0.07568359375,-0.16650390625,0.9858397841453552,1.0026622747282279,-0.4425048828125,-0.522613525390625,0.2193450927734375,0.7190603159387324
1782131078.371029,-0.07666015625,-0.15966796875,0.9716796278953552,0.9876902039950995,-0.3814697265625,-0.034332275390625,0.2765655517578125,0.472426038482501
1782131078.380638,-0.06689453125,-0.1630859375,0.9697265028953552,0.9856172643268108,-0.3795623779296875,-0.0934600830078125,0.2193450927734375,0.4482350450146151
1782131078.390247,-0.0771484300494194,-0.154296875,0.9838866591453552,0.9988955720885262,-0.5016326904296875,-0.1544952392578125,0.1583099365234375,0.5482391549890524
1782131078.39985,-0.0732421800494194,-0.158203125,0.9799804091453552,0.995366388827177,-0.3185272216796875,0.0896453857421875,-0.0286102294921875,0.33213616389583656
1782131078.409452,-0.09521484375,-0.15771484375,0.9877929091453552,1.0048256912356828,-0.5016326904296875,0.2727508544921875,0.1583099365234375,0.5925288353624657
1782131078.419054,-0.0888671875,-0.1611328125,0.9702147841453552,0.9875109557126638,-0.5016326904296875,0.0896453857421875,-0.0858306884765625,0.5167577366396685
1782131078.428656,-0.07080078125,-0.1572265625,0.9682616591453552,0.9834955938651138,-0.4425048828125,-0.034332275390625,-0.2117156982421875,0.4917446627352239
1782131078.438258,-0.0869140550494194,-0.16845703125,0.9814452528953552,0.9995832175329499,-0.6237030029296875,0.0896453857421875,-0.2117156982421875,0.6647294697322756
1782131078.446258,-0.0776367112994194,-0.177734375,0.9902343153953552,1.0090495361400935,-0.5016326904296875,-0.1544952392578125,-0.2689361572265625,0.5897718132675093
1782131078.454258,-0.0825195237994194,-0.15966796875,0.9726561903953552,0.9891225388025688,-0.0762939453125,-0.339508056640625,-0.4520416259765625,0.5704630735032505
1782131078.462258,-0.0727538987994194,-0.166015625,0.9809569716453552,0.9975624781206854,-0.1354217529296875,-0.4596710205078125,-0.5168914794921875,0.7048498420464216
1782131078.470258,-0.07470703125,-0.16064453125,0.9599608778953552,0.9761724709437066,-0.0743865966796875,-0.7038116455078125,-0.3910064697265625,0.8085606084184601
1782131078.478258,-0.0849609375,-0.15625,0.9746093153953552,0.9907046689383683,-0.0133514404296875,-0.3986358642578125,-0.3910064697265625,0.5585471086686868
1782131078.486258,-0.07861328125,-0.16162109375,0.9799804091453552,0.9963247604283132,-0.1964569091796875,-0.3986358642578125,-0.6999969482421875,0.829157160606712
1782131078.495859,-0.0722656175494194,-0.1513671875,0.9736327528953552,0.9879752438406779,0.0457763671875,-0.461578369140625,-0.5741119384765625,0.7380749179810409
1782131078.50546,-0.080078125,-0.1572265625,0.9682616591453552,0.9842069592468843,0.4119873046875,-0.522613525390625,-0.3299713134765625,0.7427916961452492
1782131078.515061,-0.076171875,-0.15771484375,0.9780272841453552,0.9935861789562302,0.3528594970703125,-0.5817413330078125,-0.4520416259765625,0.8168686766047251
1782131078.524662,-0.07421875,-0.15185546875,0.9912108778953552,1.0055185282723167,0.1087188720703125,-0.7038116455078125,-0.0286102294921875,0.7127335902904053
1782131078.534262,-0.0722656175494194,-0.15869140625,0.9677733778953552,0.9833567983496059,-0.0133514404296875,-0.4596710205078125,-0.0286102294921875,0.46075400517829135
1782131078.543852,-0.0595703087747097,-0.158203125,0.9692382216453552,0.9838696970359087,-0.2574920654296875,-0.7648468017578125,0.0972747802734375,0.8128684867773178
1782131078.553441,-0.07568359375,-0.15966796875,0.9785155653953552,0.9943412786003897,-0.0133514404296875,-0.7038116455078125,-0.2689361572265625,0.7535620412267012
1782131078.56303,-0.083984375,-0.17138671875,0.9755858778953552,0.9940797693127464,-0.1964569091796875,-0.6427764892578125,-0.0286102294921875,0.6727373020270471
1782131078.572619,-0.0712890625,-0.14794921875,0.9838866591453552,0.9974989021573271,0.1087188720703125,-0.4596710205078125,0.3414154052734375,0.5828222020453239
1782131078.582208,-0.0732421875,-0.16748046875,0.9741210341453552,0.9911235617252377,0.2899169921875,-1.010894775390625,0.3414154052734375,1.1056783385004585
1782131078.590307,-0.068359375,-0.146484375,0.9736327528953552,0.9869606951546344,0.0457763671875,-0.583648681640625,0.2193450927734375,0.625182796546348
1782131078.598408,-0.06494140625,-0.16943359375,0.9956054091453552,1.0120055630559832,-0.1354217529296875,-0.3986358642578125,0.0972747802734375,0.43210182401416447
1782131078.606508,-0.07568359375,-0.1630859375,0.9951171278953552,1.0112285239271437,-0.0762939453125,-0.522613525390625,0.2193450927734375,0.5718897907257587
1782131078.614608,-0.0576171837747097,-0.158203125,0.9843749403953552,0.9986701116506158,0.0457763671875,-0.278472900390625,0.2193450927734375,0.3574281770770733
1782131078.622944,-0.0722656175494194,-0.16064453125,0.9741210341453552,0.9899195795945989,0.3528594970703125,-0.1544952392578125,-0.2117156982421875,0.4395476544223841
1782131078.63128,-0.06982421875,-0.1611328125,0.9643554091453552,0.9802145479108711,0.354766845703125,0.148773193359375,0.2765655517578125,0.4737947681133617
1782131078.639616,-0.0776367112994194,-0.16552734375,0.9755858778953552,0.9925696779668272,-0.0133514404296875,0.2727508544921875,0.1583099365234375,0.31564747043152547
1782131078.647952,-0.07421875,-0.15283203125,0.9755858778953552,0.9902695884335813,0.5340576171875,0.209808349609375,-0.0858306884765625,0.5801758260442783
1782131078.658037,-0.0786132737994194,-0.1552734375,0.9799804091453552,0.9953147690651569,0.0457763671875,0.392913818359375,0.0362396240234375,0.3972279632654137
1782131078.668122,-0.08349609375,-0.15673828125,0.9770507216453552,0.9930592123073136,-0.0743865966796875,0.0896453857421875,0.0972747802734375,0.15176311748148044
1782131078.678207,-0.0820312425494194,-0.146484375,0.9794921278953552,0.9937764464316475,-0.1354217529296875,-0.2155303955078125,0.2765655517578125,0.37587352523609147
1782131078.688898,-0.06982421875,-0.15576171875,0.9819335341453552,0.9966597212846466,-0.2593994140625,-0.156402587890625,0.0362396240234375,0.30506251140415974
1782131078.699589,-0.0712890625,-0.16357421875,0.9702147841453552,0.9864863824939603,-0.3795623779296875,-0.3986358642578125,0.2193450927734375,0.5925288353624657
1782131078.71028,-0.0961913987994194,-0.15869140625,0.9716796278953552,0.9892406415465589,-0.3795623779296875,-0.4596710205078125,0.3414154052734375,0.6869712692626659
1782131078.718261,-0.0693359375,-0.16064453125,0.9819335341453552,0.9974004226631968,-0.5016326904296875,-0.3376007080078125,0.2193450927734375,0.6432121453135745
1782131078.726243,-0.07666015625,-0.173828125,0.9750975966453552,0.9934325943821443,-0.5626678466796875,-0.2765655517578125,-0.2117156982421875,0.6617455303879556
1782131078.734225,-0.07177734375,-0.15478515625,0.9736327528953552,0.9884691038073625,0.0457763671875,-0.644683837890625,0.0972747802734375,0.6535863443398401
1782131078.742207,-0.07080078125,-0.1572265625,0.9765624403953552,0.991668867400862,-0.1983642578125,-0.522613525390625,-0.0286102294921875,0.5597247724822594
1782131078.750221,-0.07080078125,-0.1513671875,0.9721679091453552,0.9864254759733865,-0.0762939453125,-0.522613525390625,-0.0858306884765625,0.5350818349532386
1782131078.758237,-0.0722656175494194,-0.1630859375,0.9750975966453552,0.9912793074979426,-0.0743865966796875,-0.2765655517578125,-0.2117156982421875,0.35615362846230664
1782131078.766252,-0.0810546875,-0.16357421875,0.9882811903953552,1.005000546614108,0.1068115234375,-0.522613525390625,0.0972747802734375,0.5422139626913923
1782131078.774267,-0.0849609375,-0.16064453125,0.9765624403953552,0.9933273510340601,0.2918243408203125,-0.1544952392578125,0.2193450927734375,0.3964120262710587
1782131078.784917,-0.0610351525247097,-0.16015625,0.9750975966453552,0.9900457753262346,0.2288818359375,-0.156402587890625,0.0362396240234375,0.279574631664544
1782131078.795567,-0.0849609375,-0.162109375,0.9697265028953552,0.9868471516812646,0.2918243408203125,-0.1544952392578125,0.1583099365234375,0.36618610138916174
1782131078.806217,-0.0722656175494194,-0.17138671875,0.9736327528953552,0.9912398621697366,-0.3185272216796875,-0.0934600830078125,0.3414154052734375,0.4761920379687522
1782131078.816881,-0.0624999962747097,-0.15087890625,0.9790038466453552,0.9925317252521136,-0.0762939453125,-0.156402587890625,-0.0286102294921875,0.1763549852480135
1782131078.827546,-0.06982421875,-0.14697265625,0.9687499403953552,0.9823201261428134,0.171661376953125,-0.034332275390625,0.1583099365234375,0.23602620505570013
1782131078.838211,-0.0727538987994194,-0.16064453125,0.9790038466453552,0.9947604369683439,-0.2593994140625,-0.213623046875,0.0362396240234375,0.3379884206914297
1782131078.846224,-0.0786132737994194,-0.15966796875,0.9633788466453552,0.9796799014096126,-0.2593994140625,0.026702880859375,-0.0286102294921875,0.26233498640813036
1782131078.854235,-0.0786132737994194,-0.15380859375,0.9829100966453552,0.9979726391120132,0.0457763671875,-0.156402587890625,-0.2117156982421875,0.2671718214444527
1782131078.862246,-0.07958984375,-0.15673828125,0.9775390028953552,0.9932189759660247,-0.1983642578125,0.148773193359375,-0.1468658447265625,0.2881864295679044
1782131078.870257,-0.06884765625,-0.1708984375,0.9765624403953552,0.9937909617731444,0.1087188720703125,-0.0934600830078125,-0.2117156982421875,0.2556914490988018
1782131078.880904,-0.0751953125,-0.14892578125,0.9667968153953552,0.9810857789212399,0.1087188720703125,0.2117156982421875,-0.2117156982421875,0.3185386427242305
1782131078.891551,-0.0727538987994194,-0.16259765625,0.9824218153953552,0.998440659715546,0.0457763671875,-0.156402587890625,-0.2117156982421875,0.2671718214444527
1782131078.902198,-0.0771484300494194,-0.14501953125,0.9697265028953552,0.9835405609941642,0.2288818359375,-0.156402587890625,-0.0858306884765625,0.2901991926338977
1782131078.910657,-0.07080078125,-0.16357421875,0.9760741591453552,0.9922147145737134,0.2288818359375,-0.034332275390625,-0.0858306884765625,0.24684510738513554
1782131078.919119,-0.0629882737994194,-0.173828125,0.9814452528953552,0.998708427974889,0.2288818359375,-0.213623046875,0.1583099365234375,0.3508329188949263
1782131078.927581,-0.0810546875,-0.1728515625,0.9750975966453552,0.9936110144357106,0.2918243408203125,0.0286102294921875,0.0972747802734375,0.30893749206603444
1782131078.936043,-0.0751953125,-0.1611328125,0.9843749403953552,1.0003060239569148,0.0457763671875,0.331878662109375,-0.0286102294921875,0.3362401929989768
1782131078.946218,-0.0722656175494194,-0.1669921875,0.9770507216453552,0.9938494970736482,-0.4425048828125,0.026702880859375,-0.0286102294921875,0.4442321019362401
1782131078.956393,-0.0654296875,-0.1591796875,0.9960936903953552,1.0108520450414014,-0.2593994140625,-0.461578369140625,0.0972747802734375,0.5383354249459467
1782131078.966568,-0.0791015625,-0.15087890625,0.9672850966453552,0.9821720621832775,-0.0762939453125,0.026702880859375,0.1583099365234375,0.17775220375452883
1782131078.978032,-0.0673828050494194,-0.16650390625,0.9907225966453552,1.0068740024037526,0.0457763671875,-0.396728515625,-0.0858306884765625,0.40847998480618536
1782131078.989498,-0.08056640625,-0.15869140625,0.9814452528953552,0.9974510978812297,0.0457763671875,-0.034332275390625,0.0362396240234375,0.06773102151704675
1782131079.000964,-0.07373046875,-0.15087890625,0.9785155653953552,0.9928208993037378,-0.0762939453125,-0.034332275390625,-0.0858306884765625,0.11985982775394421
1782131079.010025,-0.0839843675494194,-0.15478515625,0.9814452528953552,0.997119151866436,-0.2574920654296875,-0.0934600830078125,-0.0858306884765625,0.2870607217287562
1782131079.019086,-0.0820312425494194,-0.1572265625,0.9897460341453552,1.005508094853655,-0.1354217529296875,-0.1544952392578125,0.0362396240234375,0.20861721038600378
1782131079.028147,-0.0849609375,-0.15673828125,0.9780272841453552,0.9941441637120958,-0.0762939453125,-0.522613525390625,0.2765655517578125,0.5961829982745797
1782131079.037208,-0.06640625,-0.15673828125,0.9790038466453552,0.9936927143713337,0.2307891845703125,-0.0934600830078125,0.3414154052734375,0.42256705241710757
1782131079.046269,-0.0615234337747097,-0.146484375,0.9775390028953552,0.9903662490231667,0.0457763671875,-0.278472900390625,0.2193450927734375,0.3574281770770733
1782131079.055861,-0.07373046875,-0.1572265625,0.9843749403953552,0.9995751083615579,0.2918243408203125,0.3337860107421875,0.2765655517578125,0.5225543524663218
1782131079.065458,-0.08056640625,-0.14892578125,0.9858397841453552,1.0002749192800564,0.5950927734375,0.148773193359375,0.3414154052734375,0.7020209049721434
1782131079.075055,-0.0693359300494194,-0.15966796875,0.9736327528953552,0.9890713164131072,0.4749298095703125,0.3337860107421875,0.5855560302734375,0.8245285256285946
1782131079.084652,-0.0771484300494194,-0.13916015625,0.9633788466453552,0.9764303515921396,0.6580352783203125,-0.4596710205078125,0.2765655517578125,0.8489972785750778
1782131079.094249,-0.08056640625,-0.154296875,0.9687499403953552,0.9842636427638735,0.2288818359375,-0.156402587890625,0.3414154052734375,0.43978761155702295
1782131079.103834,-0.06689453125,-0.16064453125,0.9604491591453552,0.9760861289019066,0.0457763671875,-0.156402587890625,0.2193450927734375,0.2732572323206788
1782131079.113423,-0.08935546875,-0.15234375,0.9804686903953552,0.9962489000270854,-0.3814697265625,-0.034332275390625,0.0362396240234375,0.3847221955730217
1782131079.123012,-0.08642578125,-0.16650390625,0.9794921278953552,0.9972952396708572,-0.5035400390625,-0.034332275390625,-0.2117156982421875,0.5473160083121439
1782131079.132601,-0.080078125,-0.1552734375,0.9716796278953552,0.9872606777155859,-0.3795623779296875,0.2117156982421875,-0.0286102294921875,0.4355567481435818
1782131079.14219,-0.0825195237994194,-0.1708984375,0.9794921278953552,0.9977076607689225,-0.3795623779296875,0.0286102294921875,-0.0858306884765625,0.3901961699653077
1782131079.150209,-0.07470703125,-0.15625,0.9682616591453552,0.9836289155922088,-0.4425048828125,-0.034332275390625,0.0972747802734375,0.45436951847989054
1782131079.15823,-0.07470703125,-0.16552734375,0.9716796278953552,0.9885048008552993,-0.3795623779296875,-0.2155303955078125,0.0972747802734375,0.4471949608444158
1782131079.16625,-0.0727538987994194,-0.1650390625,0.9838866591453552,1.0002819502448315,-0.5016326904296875,-0.0934600830078125,0.2765655517578125,0.5803952512233859
1782131079.17427,-0.0732421800494194,-0.1748046875,0.9760741591453552,0.994304711776866,-0.6847381591796875,0.0286102294921875,-0.0286102294921875,0.6859325310115991
1782131079.183858,-0.07568359375,-0.158203125,0.9799804091453552,0.9955490130733787,-0.5016326904296875,0.0896453857421875,0.2193450927734375,0.5547827692136628
1782131079.193447,-0.0683593675494194,-0.16064453125,0.9589843153953552,0.9747464212432826,-0.4425048828125,0.091552734375,-0.1468658447265625,0.4751442421325238
1782131079.203036,-0.0571289025247097,-0.1630859375,0.9716796278953552,0.9869255462195655,-0.3795623779296875,0.0896453857421875,-0.2689361572265625,0.47374101636684873
1782131079.212625,-0.07568359375,-0.162109375,0.9775390028953552,0.9937756074725577,-0.4425048828125,0.392913818359375,-0.5168914794921875,0.785728096444483
1782131079.222214,-0.0751953125,-0.169921875,0.9799804091453552,0.9974414172943623,-0.0133514404296875,0.1506805419921875,-0.9403228759765625,0.9524127244957622
1782131079.232904,-0.08544921875,-0.1611328125,0.9819335341453552,0.9987286006359951,-0.2593994140625,0.453948974609375,-0.7572174072265625,0.9201825521991759
1782131079.243594,-0.07568359375,-0.16650390625,0.9829100966453552,0.9997818838360722,-0.2593994140625,0.148773193359375,-0.7572174072265625,0.8141251260618555
1782131079.254284,-0.07470703125,-0.1630859375,0.9887694716453552,1.0049095638843712,-0.0762939453125,-0.461578369140625,-0.2689361572265625,0.5396313682632397
1782131079.264992,-0.0791015625,-0.1572265625,0.9721679091453552,0.987971504000778,0.2288818359375,0.026702880859375,-0.0858306884765625,0.24590007269757233
1782131079.275701,-0.078125,-0.15185546875,0.9809569716453552,0.9957108913906227,0.2918243408203125,-0.0934600830078125,-0.6999969482421875,0.7641282356773716
1782131079.28641,-0.0737304612994194,-0.1650390625,0.9829100966453552,0.9993929813450191,-0.0133514404296875,-0.2765655517578125,-0.0858306884765625,0.2898856196243813
1782131079.294385,-0.0688476487994194,-0.1689453125,0.9760741591453552,0.9929769793465723,0.2918243408203125,-0.1544952392578125,-0.1468658447265625,0.36138594493392434
1782131079.302358,-0.06494140625,-0.15673828125,0.9731444716453552,0.9878230801863506,-0.0133514404296875,-0.0934600830078125,-0.2117156982421875,0.23181152896167975
1782131079.310331,-0.0751953125,-0.17529296875,0.9775390028953552,0.9959741272225933,0.0457763671875,-0.156402587890625,0.0972747802734375,0.18978837732857892
1782131079.318304,-0.0688476487994194,-0.15380859375,0.9736327528953552,0.9881082024591985,0.3528594970703125,-0.3986358642578125,-0.2689361572265625,0.5964453316181436
1782131079.328959,-0.0581054612994194,-0.1591796875,0.9785155653953552,0.9930796187951939,0.1087188720703125,-0.4596710205078125,-0.3299713134765625,0.5761929433413625
1782131079.339613,-0.0771484300494194,-0.15576171875,0.9780272841453552,0.9933533922123504,-0.0133514404296875,-0.5817413330078125,0.0972747802734375,0.5899691706932657
1782131079.350267,-0.08447265625,-0.1630859375,0.9833983778953552,1.000402430180675,0.2918243408203125,-0.5817413330078125,-0.0858306884765625,0.6564688351393974
1782131079.358267,-0.08154296875,-0.1591796875,0.9794921278953552,0.9956868269059966,0.2918243408203125,-0.6427764892578125,0.0972747802734375,0.7125906566290735
1782131079.366267,-0.064453125,-0.15576171875,0.9838866591453552,0.9982228590822934,0.2288818359375,-0.461578369140625,0.2193450927734375,0.5599587086602258
1782131079.374267,-0.0742187425494194,-0.16357421875,0.9799804091453552,0.9963064534037646,0.4749298095703125,-0.1544952392578125,0.1583099365234375,0.5239171107855486
1782131079.382267,-0.0825195237994194,-0.1513671875,0.9775390028953552,0.9926248029549677,0.2918243408203125,-0.3986358642578125,0.4024505615234375,0.6372114661855303
1782131079.39027,-0.080078125,-0.1572265625,0.9746093153953552,0.9904524298089662,0.4138946533203125,-0.2155303955078125,0.4024505615234375,0.6162212183180857
1782131079.398273,-0.0610351525247097,-0.1494140625,0.9726561903953552,0.9859563462095439,0.1697540283203125,0.0896453857421875,0.6427764892578125,0.6708310819114137
1782131079.406276,-0.0732421800494194,-0.1552734375,0.9755858778953552,0.990576631301339,-0.0743865966796875,0.2117156982421875,0.5855560302734375,0.6270827435333796
1782131079.414279,-0.0693359300494194,-0.1689453125,0.9721679091453552,0.9891715894543233,0.3528594970703125,0.6999969482421875,-0.0286102294921875,0.784425966839883
1782131079.424927,-0.0825195237994194,-0.1533203125,0.9697265028953552,0.9852340231898389,-0.0743865966796875,0.3948211669921875,0.0972747802734375,0.4133757401540454
1782131079.435575,-0.0673828050494194,-0.15234375,0.9736327528953552,0.9877802377507754,0.1697540283203125,0.5779266357421875,0.3414154052734375,0.6923728080949468
1782131079.446223,-0.0722656175494194,-0.15869140625,0.9721679091453552,0.9876819961249942,0.1087188720703125,0.5779266357421875,-0.2117156982421875,0.6250140209040922
1782131079.456937,-0.0781249925494194,-0.1494140625,0.9741210341453552,0.9886050099498874,-0.2593994140625,0.453948974609375,-0.1468658447265625,0.5430720982633135
1782131079.467651,-0.0683593675494194,-0.15478515625,0.9775390028953552,0.9920755767121469,-0.3185272216796875,0.5779266357421875,-0.3299713134765625,0.7377939109051468
1782131079.478365,-0.0722656175494194,-0.15234375,0.9785155653953552,0.9929368808564083,-0.4425048828125,0.392913818359375,-0.3299713134765625,0.6775491920798785
1782131079.486337,-0.0810546875,-0.15234375,0.9638671278953552,0.9791926882728579,-0.3185272216796875,0.2117156982421875,-0.2689361572265625,0.4675572526407307
1782131079.49431,-0.0795898362994194,-0.1640625,0.9765624403953552,0.9934411134734409,-0.3814697265625,-0.156402587890625,0.0362396240234375,0.41387707369690496
1782131079.502282,-0.0776367112994194,-0.15087890625,0.9746093153953552,0.9892700445014944,-0.0762939453125,-0.461578369140625,0.1583099365234375,0.4939001852114662
1782131079.510254,-0.0810546875,-0.15869140625,0.9804686903953552,0.9965298177319674,-0.1964569091796875,0.0286102294921875,0.4596710205078125,0.5007108042480464
1782131079.521211,-0.07666015625,-0.15673828125,0.9829100966453552,0.9982764779623229,-0.6847381591796875,-0.0934600830078125,0.0972747802734375,0.6978993599580529
1782131079.532168,-0.08154296875,-0.16943359375,0.9741210341453552,0.9921032141909529,-0.1354217529296875,-0.1544952392578125,0.2765655517578125,0.3445233439681284
1782131079.543125,-0.0961913913488388,-0.16162109375,0.9882811903953552,1.0060188233844494,-0.4425048828125,-0.278472900390625,0.4024505615234375,0.6597910139092541
1782131079.550904,-0.07470703125,-0.15673828125,0.9780272841453552,0.9933203903374439,-0.3185272216796875,0.0286102294921875,0.4596710205078125,0.5599781989303425
1782131079.558683,-0.07568359375,-0.1640625,0.9853515028953552,1.0017794640175552,0.1087188720703125,0.0896453857421875,0.0362396240234375,0.14549707446703758
1782131079.566462,-0.0693359300494194,-0.15380859375,0.9716796278953552,0.9862179545992997,0.1087188720703125,-0.0934600830078125,0.1583099365234375,0.21358046788534524
1782131079.574241,-0.0673828050494194,-0.1640625,0.9755858778953552,0.9915769014410476,0.2899169921875,-0.339508056640625,0.2193450927734375,0.4974232127743223
1782131079.584916,-0.0688476487994194,-0.1650390625,0.9785155653953552,0.9947213693377049,0.2288818359375,-0.701904296875,-0.0286102294921875,0.7388335956257704
1782131079.595591,-0.07080078125,-0.1689453125,0.9843749403953552,1.0012738349321288,0.2918243408203125,-0.2765655517578125,-0.2689361572265625,0.48371128473305597
1782131079.606266,-0.07568359375,-0.1708984375,0.9868163466453552,1.0043608835022113,0.4749298095703125,-0.3376007080078125,-0.2689361572265625,0.6417625875116592
1782131079.61691,-0.07177734375,-0.158203125,0.9848632216453552,1.00006788828821,0.2288818359375,0.026702880859375,-0.2117156982421875,0.31292726878699406
1782131079.627555,-0.0781249925494194,-0.16845703125,0.9692382216453552,0.9868657538574641,-0.0762939453125,-0.034332275390625,-0.1468658447265625,0.16902380770794162
1782131079.6382,-0.08154296875,-0.16259765625,0.9809569716453552,0.9976792238942249,0.2918243408203125,-0.1544952392578125,-0.3910064697265625,0.5117775729910093
1782131079.646282,-0.08154296875,-0.166015625,0.9804686903953552,0.9977621441717895,0.2288818359375,0.026702880859375,-0.5741119384765625,0.618631115099804
1782131079.654366,-0.06494140625,-0.158203125,0.9892577528953552,1.0039305337866067,0.3528594970703125,0.0286102294921875,-0.4520416259765625,0.5741689660020332
1782131079.66245,-0.0693359375,-0.166015625,0.9770507216453552,0.9934771122883778,0.1087188720703125,0.0896453857421875,-0.2117156982421875,0.2543218929059855
1782131079.670534,-0.0791015625,-0.1611328125,0.9716796278953552,0.9881205087037499,0.2288818359375,0.148773193359375,-0.3910064697265625,0.47687148924264267
1782131079.681119,-0.0859375,-0.1640625,0.9677733778953552,0.9853360182067262,0.2899169921875,0.148773193359375,-0.6999969482421875,0.772127614432853
1782131079.691704,-0.0693359375,-0.1708984375,0.9804686903953552,0.9976635710571616,0.1697540283203125,0.2117156982421875,-0.3910064697265625,0.47594750380811923
1782131079.702289,-0.0751953125,-0.162109375,0.9711913466453552,0.9874950208905774,0.1697540283203125,0.0896453857421875,-0.0858306884765625,0.21028464613518452
1782131079.71334,-0.08642578125,-0.16796875,0.9843749403953552,1.0023357421141852,-0.0152587890625,-0.034332275390625,-0.2689361572265625,0.2715477719314632
1782131079.724392,-0.0830078125,-0.15625,0.9814452528953552,0.9972658341018522,-0.2593994140625,-0.034332275390625,-0.0286102294921875,0.26322102192085967
1782131079.735444,-0.0683593675494194,-0.15869140625,0.9697265028953552,0.9850002314553101,-0.0133514404296875,-0.3376007080078125,-0.0858306884765625,0.3485963368902268
1782131079.74315,-0.06591796875,-0.1591796875,0.9799804091453552,0.9950100269974276,-0.1354217529296875,0.0286102294921875,-0.1468658447265625,0.20180974393074216
1782131079.750855,-0.0927734300494194,-0.150390625,0.9707030653953552,0.9866553048450935,0.1068115234375,-0.339508056640625,-0.2117156982421875,0.4141231205150353
1782131079.75856,-0.0786132737994194,-0.15966796875,0.9799804091453552,0.9960097938127472,-0.0152587890625,-0.522613525390625,-0.0286102294921875,0.523618441994232
1782131079.766265,-0.0712890625,-0.16162109375,0.9809569716453552,0.9967347132495694,0.1697540283203125,-0.6427764892578125,0.1583099365234375,0.6834033079197284
1782131079.776981,-0.0771484300494194,-0.15234375,0.9833983778953552,0.9981146567756475,0.1087188720703125,-0.5817413330078125,-0.0286102294921875,0.592504275854228
1782131079.787697,-0.0776367112994194,-0.14990234375,0.9829100966453552,0.9973015740940722,0.0457763671875,-0.396728515625,0.2193450927734375,0.4556328133779311
1782131079.798413,-0.0722656175494194,-0.1689453125,0.9775390028953552,0.9946594091834485,0.1087188720703125,-0.4596710205078125,0.0362396240234375,0.47374101636684873
1782131079.807757,-0.083984375,-0.15673828125,0.9785155653953552,0.9945415907715154,0.4749298095703125,-0.3986358642578125,0.4596710205078125,0.7718590048614838
1782131079.817101,-0.06787109375,-0.171875,0.9814452528953552,0.9986902850346794,0.2899169921875,-0.522613525390625,0.3414154052734375,0.6882886300370579
1782131079.826447,-0.0834960862994194,-0.17041015625,0.9829100966453552,1.0010611748878542,0.2918243408203125,-0.0934600830078125,0.2193450927734375,0.3768401554171543
1782131079.835792,-0.0673828050494194,-0.1552734375,0.9770507216453552,0.9916039509184621,0.354766845703125,0.453948974609375,0.3414154052734375,0.6696966965104976
1782131079.8443,-0.0620117150247097,-0.1552734375,0.9868163466453552,1.000880509951042,0.5340576171875,0.453948974609375,0.3414154052734375,0.7796484393513007
1782131079.852808,-0.07177734375,-0.15087890625,0.9741210341453552,0.9883462048247154,0.7171630859375,-0.339508056640625,0.5855560302734375,0.9861361350974208
1782131079.861315,-0.06396484375,-0.15234375,0.9741210341453552,0.9880343660847232,0.5340576171875,-0.213623046875,0.5855560302734375,0.8208094841202407
1782131079.869824,-0.0781249925494194,-0.154296875,0.9731444716453552,0.9883932429906277,0.2288818359375,0.148773193359375,0.5855560302734375,0.6460620887144312
1782131079.878332,-0.07275390625,-0.16650390625,0.9667968153953552,0.9837239266835707,0.354766845703125,-0.034332275390625,0.0972747802734375,0.36945987985285783
1782131079.889011,-0.0727538987994194,-0.15576171875,0.9746093153953552,0.9896555766901297,-0.3185272216796875,0.0896453857421875,0.2765655517578125,0.43125907591023477
1782131079.89969,-0.0634765550494194,-0.1533203125,0.9926757216453552,1.0064499389488613,-0.0133514404296875,0.3948211669921875,0.2193450927734375,0.45185648671940987
1782131079.910369,-0.076171875,-0.162109375,0.9731444716453552,0.9894906602377932,-0.1964569091796875,0.5779266357421875,0.0972747802734375,0.6181075119604716
1782131079.918385,-0.0751953125,-0.1591796875,0.9809569716453552,0.9966288617906851,-0.1964569091796875,0.7610321044921875,0.1583099365234375,0.8017650636154575
1782131079.926401,-0.0654296875,-0.166015625,0.9770507216453552,0.9932121346511015,-0.1964569091796875,0.5779266357421875,0.2193450927734375,0.6486191356940582
1782131079.934417,-0.07275390625,-0.17138671875,0.9868163466453552,1.0042275838897332,-0.3185272216796875,0.6389617919921875,0.2765655517578125,0.7656502249695689
1782131079.942433,-0.0810546875,-0.166015625,0.9741210341453552,0.9914851684590544,-0.3795623779296875,0.5168914794921875,0.2193450927734375,0.6777585632325491
1782131079.953017,-0.06689453125,-0.1640625,0.9721679091453552,0.9881810693336818,-0.4425048828125,0.453948974609375,-0.1468658447265625,0.6507302199906303
1782131079.963601,-0.06689453125,-0.158203125,0.9819335341453552,0.9968433039099527,-0.133514404296875,-0.034332275390625,-0.1468658447265625,0.2014308259316182
1782131079.974185,-0.06494140625,-0.17138671875,0.9755858778953552,0.9926523050688343,-0.5645751953125,-0.156402587890625,-0.2117156982421875,0.6229209079355172
1782131079.982201,-0.0771484300494194,-0.16845703125,0.9731444716453552,0.9906259709550175,-0.3185272216796875,-0.1544952392578125,-0.2689361572265625,0.4445841051680771
1782131079.990217,-0.06640625,-0.1689453125,0.9716796278953552,0.9884905704768464,-0.0133514404296875,-0.1544952392578125,-0.1468658447265625,0.21358046788534524
1782131079.998233,-0.0712890625,-0.15576171875,0.9848632216453552,0.9996496430298722,0.3528594970703125,-0.2765655517578125,-0.0858306884765625,0.4564704110631683
1782131080.006249,-0.0634765625,-0.15576171875,0.9814452528953552,0.9957538709167031,0.4749298095703125,-0.3376007080078125,-0.1468658447265625,0.6009177467949472
1782131080.016992,-0.06591796875,-0.15478515625,0.9633788466453552,0.9779582942862123,0.4138946533203125,-0.2765655517578125,0.2193450927734375,0.543975696322945
1782131080.027735,-0.0751953125,-0.16162109375,0.9838866591453552,0.9999043309292781,0.7171630859375,-0.278472900390625,0.3414154052734375,0.8416855274040242
1782131080.038478,-0.0771484300494194,-0.16552734375,0.9931640028953552,1.0098147941257078,1.2683868408203125,-0.1544952392578125,0.0362396240234375,1.2782751140770994
1782131080.049076,-0.0698242112994194,-0.1640625,0.9780272841453552,0.9941475207043345,1.0852813720703125,-0.0934600830078125,-0.0858306884765625,1.0926744029046385
1782131080.059675,-0.06982421875,-0.1533203125,0.9794921278953552,0.9938749259127712,1.1463165283203125,0.2727508544921875,0.0362396240234375,1.17887570255558
1782131080.070274,-0.0732421875,-0.18212890625,0.9936522841453552,1.012857452116974,1.2664794921875,-0.034332275390625,-0.0286102294921875,1.267267751699143
1782131080.079916,-0.07421875,-0.166015625,0.9843749403953552,1.0010312851624878,1.2683868408203125,-0.2765655517578125,-0.0286102294921875,1.298503841972303
1782131080.08956,-0.0693359375,-0.171875,0.9887694716453552,1.005988844824752,1.5125274658203125,0.0286102294921875,0.0972747802734375,1.515922248325968
1782131080.099203,-0.0698242112994194,-0.1591796875,0.9785155653953552,0.9938341436664245,1.2054443359375,0.331878662109375,0.0362396240234375,1.2508208519834763
1782131080.108845,-0.06494140625,-0.166015625,0.9663085341453552,0.9826142463612123,1.5125274658203125,0.5168914794921875,-0.5168914794921875,1.679908610015456
1782131080.118489,-0.0732421875,-0.16650390625,0.9838866591453552,1.0005603064635846,0.843048095703125,0.637054443359375,-0.0286102294921875,1.0570652774091978
1782131080.128328,-0.0781249925494194,-0.15966796875,0.9868163466453552,1.002698297950128,1.0852813720703125,0.7610321044921875,-0.0286102294921875,1.325829576477393
1782131080.138166,-0.06689453125,-0.1494140625,0.9809569716453552,0.9945230116008063,1.0242462158203125,0.6999969482421875,0.0972747802734375,1.2444028371262466
1782131080.148004,-0.08056640625,-0.1640625,0.9775390028953552,0.9944797393129411,1.2054443359375,0.637054443359375,0.2193450927734375,1.3809586092897612
1782131080.157842,-0.06982421875,-0.15673828125,0.9790038466453552,0.993926980255418,1.0242462158203125,0.5168914794921875,0.6427764892578125,1.3150736585212448
1782131080.16768,-0.0776367112994194,-0.15869140625,0.9838866591453552,0.9996216181151748,0.8411407470703125,0.5779266357421875,0.4596710205078125,1.1192919189277568
1782131080.17699,-0.0615234337747097,-0.14599609375,0.9750975966453552,0.9878842620860188,0.6580352783203125,0.8831024169921875,0.3414154052734375,1.1530155182691861
1782131080.186303,-0.0624999962747097,-0.14599609375,0.9760741591453552,0.9889094362356493,1.0852813720703125,1.0051727294921875,0.5855560302734375,1.5909380054757574
1782131080.195616,-0.0722656100988388,-0.15185546875,0.9873046278953552,1.0015252518313382,1.0242462158203125,1.0662078857421875,0.2193450927734375,1.494654420247317
1782131080.204929,-0.0683593675494194,-0.1552734375,0.9716796278953552,0.9863793097950093,0.843048095703125,1.125335693359375,-0.5741119384765625,1.5187873558594722
1782131080.214242,-0.08154296875,-0.15673828125,0.9858397841453552,1.0015469158085049,0.7190704345703125,1.0662078857421875,-0.3299713134765625,1.327683175011799
1782131080.222274,-0.07177734375,-0.1552734375,0.9780272841453552,0.9928742095560804,0.7801055908203125,0.9441375732421875,-0.1468658447265625,1.2335031683720972
1782131080.230308,-0.08349609375,-0.15283203125,0.9775390028953552,0.9929308785757219,0.7171630859375,0.698089599609375,-0.3910064697265625,1.0744943184038735
1782131080.238342,-0.0737304612994194,-0.15478515625,0.9702147841453552,0.9852468487099972,0.7171630859375,0.148773193359375,-0.2689361572265625,0.780245481600204
1782131080.246376,-0.0825195237994194,-0.14990234375,0.9731444716453552,0.9880740595541124,0.2918243408203125,0.3337860107421875,-0.3299713134765625,0.5526803909854605
1782131080.25441,-0.0791015625,-0.15087890625,0.9663085341453552,0.9812103162438126,0.2288818359375,0.026702880859375,-0.0858306884765625,0.24590007269757233
1782131080.262444,-0.0751953125,-0.15234375,0.9804686903953552,0.9950787938809761,0.0457763671875,-0.095367431640625,0.2765655517578125,0.29610627691711866
1782131080.272005,-0.0786132737994194,-0.1435546875,0.9658202528953552,0.9795900959194784,0.1068115234375,-0.339508056640625,0.0362396240234375,0.3577537315141431
1782131080.281566,-0.07666015625,-0.1591796875,0.9853515028953552,1.0010657005047208,0.4138946533203125,-0.2765655517578125,0.1583099365234375,0.5223593824832667
1782131080.291126,-0.07470703125,-0.1708984375,0.9692382216453552,0.9870208441347025,0.5970001220703125,-0.2155303955078125,0.0362396240234375,0.6357482264930687
1782131080.300688,-0.07470703125,-0.16650390625,0.9750975966453552,0.9920282326114742,0.5340576171875,-0.339508056640625,-0.0858306884765625,0.6386314790896584
1782131080.310249,-0.07470703125,-0.15673828125,0.9780272841453552,0.9933203903374439,0.5340576171875,-0.213623046875,-0.0858306884765625,0.5815662057895984
1782131080.31825,-0.0693359375,-0.15771484375,0.9750975966453552,0.9902003671740577,0.4138946533203125,-0.7038116455078125,-0.3299713134765625,0.8806478774839602
1782131080.326251,-0.07080078125,-0.15283203125,0.9902343153953552,1.004457256327077,0.2288818359375,-0.278472900390625,-0.3299713134765625,0.488687137943629
1782131080.334252,-0.0722656175494194,-0.15966796875,0.9804686903953552,0.9960095544572516,0.4138946533203125,-0.2765655517578125,-0.3910064697265625,0.632995535398374
1782131080.342252,-0.0771484300494194,-0.15380859375,0.9770507216453552,0.9920872322725215,0.5340576171875,-0.278472900390625,-0.1468658447265625,0.6199469905364523
1782131080.350254,-0.0874023362994194,-0.1435546875,0.9804686903953552,0.9947693046829513,0.843048095703125,-0.034332275390625,-0.2689361572265625,0.8855706936580238
1782131080.358255,-0.0810546875,-0.16015625,0.9765624403953552,0.9929219943030353,0.8411407470703125,0.2727508544921875,-0.2117156982421875,0.9092493177838512
1782131080.367851,-0.08056640625,-0.1474609375,0.9848632216453552,0.9990952103048473,0.9002685546875,0.331878662109375,0.0972747802734375,0.9644113747773169
1782131080.377447,-0.0771484300494194,-0.1650390625,0.9829100966453552,0.9996509543322362,0.843048095703125,-0.034332275390625,-0.1468658447265625,0.8564335193985636
1782131080.387043,-0.0830078050494194,-0.15283203125,0.9731444716453552,0.9885636490226822,0.7801055908203125,-0.2765655517578125,0.1583099365234375,0.8426833766310255
1782131080.396639,-0.076171875,-0.1513671875,0.9780272841453552,0.9925983822903477,1.0242462158203125,-0.0934600830078125,0.2765655517578125,1.0650369017818868
1782131080.406235,-0.08154296875,-0.15625,0.9858397841453552,1.0014706177698496,0.7781982421875,-0.034332275390625,0.2765655517578125,0.8265952538554259
1782131080.414232,-0.0673828050494194,-0.171875,0.9760741591453552,0.9933791935573446,0.7801055908203125,-0.4596710205078125,0.0972747802734375,0.9106725881462823
1782131080.42223,-0.06689453125,-0.1552734375,0.9775390028953552,0.9920520252919546,0.7801055908203125,0.0896453857421875,0.0362396240234375,0.786075275252526
1782131080.430229,-0.0703125,-0.16650390625,0.9829100966453552,0.999389642001627,0.9632110595703125,-0.0934600830078125,0.3414154052734375,1.0261943341065654
1782131080.438227,-0.06640625,-0.150390625,0.9716796278953552,0.9854889291076836,1.0242462158203125,0.0286102294921875,0.0972747802734375,1.0292527574561416
1782131080.446225,-0.0712890625,-0.1552734375,0.9711913466453552,0.9861057765899224,0.9021759033203125,0.0896453857421875,-0.0858306884765625,0.9106725881462823
1782131080.454223,-0.0654296875,-0.15283203125,0.9682616591453552,0.9824303101763833,1.1463165283203125,0.3337860107421875,0.0972747802734375,1.1978802389824965
1782131080.463824,-0.07373046875,-0.15185546875,0.9838866591453552,0.998263103322759,1.0852813720703125,0.0896453857421875,0.0972747802734375,1.0933134658573136
1782131080.473425,-0.068359375,-0.15234375,0.9833983778953552,0.997473805150626,1.1463165283203125,0.2117156982421875,0.0972747802734375,1.1697553175171962
1782131080.483026,-0.0722656175494194,-0.14990234375,0.9755858778953552,0.9896771379042728,0.9632110595703125,0.3337860107421875,0.1583099365234375,1.0316252625095037
1782131080.492627,-0.07177734375,-0.14404296875,0.9785155653953552,0.9916617748219959,0.9632110595703125,0.2727508544921875,-0.0858306884765625,1.0047564286876414
1782131080.502228,-0.0781249925494194,-0.1591796875,0.9716796278953552,0.9877261698670844,0.9632110595703125,0.5779266357421875,0.2765655517578125,1.156833283579769
1782131080.511832,-0.08544921875,-0.16015625,0.9775390028953552,0.9942505195274948,0.7801055908203125,0.5779266357421875,0.5245208740234375,1.1034881405867951
1782131080.521436,-0.076171875,-0.15673828125,0.9863280653953552,1.0016047603405067,0.7171630859375,0.274658203125,0.0362396240234375,0.7688129361064445
1782131080.53104,-0.0771484300494194,-0.14501953125,0.9677733778953552,0.9816149222918557,1.2683868408203125,0.2727508544921875,-0.0858306884765625,1.3002173332472968
1782131080.540644,-0.0830078050494194,-0.1484375,0.9750975966453552,0.9898178166152195,1.2054443359375,0.026702880859375,0.0362396240234375,1.2062845440605423
1782131080.550248,-0.06640625,-0.16552734375,0.9829100966453552,0.9989601341672123,0.7114410400390625,0.0629425048828125,-0.3414154052734375,0.7916278111150539
1782131080.55854,-0.06494140625,-0.16015625,0.9843749403953552,0.9994305548351767,1.445770263671875,-0.18310546875,-0.3414154052734375,1.4967777881041746
1782131080.566831,-0.07568359375,-0.1513671875,0.9770507216453552,0.9915987820092785,1.201629638671875,-0.18310546875,-0.2765655517578125,1.2465672487435089
1782131080.575122,-0.08154296875,-0.1591796875,0.9892577528953552,1.0052951458794221,1.811981201171875,-0.30517578125,0.1468658447265625,1.8433604387664029
1782131080.583413,-0.07080078125,-0.14697265625,0.9775390028953552,0.9910581287151811,1.750946044921875,0.0,-0.0934600830078125,1.7534385758683946
1782131080.591704,-0.0791015625,-0.15771484375,0.9741210341453552,0.9899711199289829,1.323699951171875,0.18310546875,0.2727508544921875,1.363855638271441
1782131080.599995,-0.0874023362994194,-0.14892578125,0.9560546278953552,0.9715238073416655,0.957489013671875,0.431060791015625,0.4520416259765625,1.1432148741461032
1782131080.609247,-0.07861328125,-0.1572265625,0.9760741591453552,0.9917766906394656,0.957489013671875,0.3662109375,0.2117156982421875,1.0467660669553374
1782131080.618499,-0.0732421800494194,-0.15478515625,0.9726561903953552,0.9876147661148723,0.957489013671875,0.919342041015625,0.3948211669921875,1.384867774766309
1782131080.627751,-0.0727538987994194,-0.1591796875,0.9882811903953552,1.0036588135379343,0.957489013671875,0.54931640625,0.6999969482421875,1.3071072844361824
1782131080.637003,-0.0610351525247097,-0.15087890625,0.9790038466453552,0.9924405604071778,1.0166168212890625,-0.2422332763671875,0.6351470947265625,1.2229466682758707
1782131080.646255,-0.0703125,-0.142578125,0.9853515028953552,0.998093158799769,1.0166168212890625,-0.1201629638671875,0.2117156982421875,1.0453575637529016
1782131080.655849,-0.0737304612994194,-0.14990234375,0.9775390028953552,0.9917103386406807,0.7114410400390625,-0.0591278076171875,0.0896453857421875,0.7195003448715946
1782131080.665444,-0.0693359375,-0.1455078125,0.9785155653953552,0.9917019246974016,0.591278076171875,0.30517578125,-0.4596710205078125,0.8087270663936971
1782131080.675039,-0.0688476487994194,-0.1533203125,0.9838866591453552,0.9981383045522871,0.3452301025390625,0.1850128173828125,-0.7648468017578125,0.8593044841348217
1782131080.684633,-0.0600585900247097,-0.1328125,0.9853515028953552,0.996074183306716,0.225067138671875,0.1220703125,-0.9479522705078125,0.9819215270400734
1782131080.694229,-0.08154296875,-0.146484375,0.9780272841453552,0.9922924450001842,0.0400543212890625,0.0629425048828125,-1.1310577392578125,1.1335156448456476
1782131080.703833,-0.0751953125,-0.1435546875,0.9741210341453552,0.9875090240041413,-0.2040863037109375,0.0629425048828125,-0.5817413330078125,0.619706347242807
1782131080.713437,-0.08544921875,-0.15673828125,0.9707030653953552,0.986981711564165,-0.751495361328125,0.48828125,-0.2765655517578125,0.9378978417814783
1782131080.723041,-0.083984375,-0.162109375,0.9721679091453552,0.9891629129112569,-0.507354736328125,0.6103515625,0.0286102294921875,0.7942017398321212
1782131080.732645,-0.0922851487994194,-0.1591796875,0.9785155653953552,0.9956643175902812,-1.0585784912109375,0.4291534423828125,0.3948211669921875,1.208571409999639
1782131080.742249,-0.0781249925494194,-0.1591796875,0.9843749403953552,1.0002178316005987,-1.239776611328125,0.48828125,0.5779266357421875,1.4523993326210578
1782131080.752891,-0.07080078125,-0.15185546875,0.9819335341453552,0.9961256444315044,-0.690460205078125,0.9765625,0.8182525634765625,1.449119342510734
1782131080.763534,-0.06884765625,-0.14599609375,0.9838866591453552,0.9970395264008269,-0.9365081787109375,0.7343292236328125,0.2727508544921875,1.2209340711520278
1782131080.774177,-0.0532226487994194,-0.154296875,0.9765624403953552,0.9901082647725569,-0.4482269287109375,0.6732940673828125,0.3299713134765625,0.8735635915673106
1782131080.782196,-0.0722656175494194,-0.14892578125,0.9746093153953552,0.9885669048962366,-0.4482269287109375,0.9174346923828125,-0.6427764892578125,1.2065468948829898
1782131080.790215,-0.0751953125,-0.15185546875,0.9863280653953552,1.000778432520305,-0.4482269287109375,0.9174346923828125,-1.1310577392578125,1.5237734096459943
1782131080.798234,-0.0771484300494194,-0.16064453125,0.9746093153953552,0.9907683197069965,-0.446319580078125,0.6103515625,-1.2531280517578125,1.4635778460709346
1782131080.806252,-0.07177734375,-0.142578125,0.9843749403953552,0.9972334391117661,-0.1430511474609375,0.7343292236328125,-1.5010833740234375,1.6771864342525094
1782131080.817025,-0.08154296875,-0.15576171875,0.9731444716453552,0.9888989490713574,-0.2651214599609375,0.7343292236328125,-1.1920928955078125,1.4249962346382494
1782131080.827799,-0.08642578125,-0.14599609375,0.9716796278953552,0.9863800354436355,-0.507354736328125,0.919342041015625,-1.1310577392578125,1.543337366355247
1782131080.838572,-0.0908203125,-0.15087890625,0.9848632216453552,1.0004840522784268,-0.568389892578125,0.6103515625,-0.7038116455078125,1.0913051508096068
1782131080.849118,-0.0947265625,-0.14990234375,0.9692382216453552,0.9853256134918347,-1.0585784912109375,0.2460479736328125,0.2727508544921875,1.1205003596650278
1782131080.859663,-0.0859375,-0.14697265625,0.9824218153953552,0.9970651126963254,-1.2416839599609375,-0.1201629638671875,0.4520416259765625,1.326860891700843
1782131080.870208,-0.0771484300494194,-0.1474609375,0.9746093153953552,0.9887163020820846,-1.1196136474609375,-0.2422332763671875,0.3948211669921875,1.2116498808094025
1782131080.878216,-0.0610351525247097,-0.13818359375,0.9785155653953552,0.9901074220236769,-1.239776611328125,-0.3662109375,0.3948211669921875,1.3516805283224105
1782131080.886224,-0.0683593675494194,-0.154296875,0.9863280653953552,1.0006615718378848,-0.9937286376953125,-0.2422332763671875,0.1468658447265625,1.0333165739029886
1782131080.894232,-0.076171875,-0.1455078125,0.9648436903953552,0.9787226496486524,-0.9365081787109375,-0.4253387451171875,-0.2155303955078125,1.0509110182494497
1782131080.90224,-0.0624999962747097,-0.15185546875,0.9833983778953552,0.9970148958620613,-0.4482269287109375,-0.4253387451171875,-0.3414154052734375,0.7059638140000727
1782131080.912955,-0.0703125,-0.1494140625,0.9760741591453552,0.9899440256298919,-0.6313323974609375,-0.1201629638671875,-1.0700225830078125,1.248185908475109
1782131080.92367,-0.0629882737994194,-0.1591796875,0.9785155653953552,0.9933772733809748,-0.4482269287109375,-0.1201629638671875,-1.0700225830078125,1.1663167861493282
1782131080.934385,-0.08154296875,-0.14697265625,0.9799804091453552,0.9942896055709534,-0.6313323974609375,0.3070831298828125,-1.0700225830078125,1.2797769230960176
1782131080.945055,-0.07861328125,-0.15283203125,0.9814452528953552,0.9963796777311952,-0.2651214599609375,0.3681182861328125,-0.2765655517578125,0.5313087290232313
1782131080.955726,-0.0771484300494194,-0.14794921875,0.9765624403953552,0.9907144147425923,-0.2040863037109375,0.0629425048828125,-0.2765655517578125,0.34943022579968547
1782131080.966397,-0.0722656175494194,-0.15771484375,0.9858397841453552,1.000987697937715,-0.019073486328125,0.6103515625,-0.0362396240234375,0.6117239067391929
1782131080.974375,-0.07373046875,-0.1416015625,0.9790038466453552,0.9919353387549706,-0.568389892578125,0.30517578125,0.0286102294921875,0.6457692100728526
1782131080.982353,-0.0727538987994194,-0.14990234375,0.9692382216453552,0.9834564417148886,-0.507354736328125,0.431060791015625,0.3299713134765625,0.7430365413242107
1782131080.990331,-0.0727538987994194,-0.14794921875,0.9785155653953552,0.9923078216159757,-0.6313323974609375,0.1850128173828125,-0.3986358642578125,0.7692339637277297
1782131080.998309,-0.08349609375,-0.16162109375,0.9794921278953552,0.9962418402302856,-0.6313323974609375,0.1850128173828125,-0.3414154052734375,0.741198231000133
1782131081.006461,-0.0849609375,-0.14990234375,0.9829100966453552,0.9978984575847403,-0.5702972412109375,0.0629425048828125,-0.4596710205078125,0.7351857924010929
1782131081.014613,-0.08447265625,-0.158203125,0.9887694716453552,1.0049024462461673,-0.446319580078125,-0.3662109375,-1.0700225830078125,1.2158371381284805
1782131081.022764,-0.0693359300494194,-0.14453125,0.9663085341453552,0.9795146433742201,-0.6313323974609375,-0.1201629638671875,-0.7038116455078125,0.9530847634505217
1782131081.030917,-0.0727538987994194,-0.1552734375,0.9858397841453552,1.000641319448354,-0.507354736328125,-0.30517578125,-0.9479522705078125,1.1176558473416789
1782131081.042545,-0.07470703125,-0.14990234375,0.9760741591453552,0.9903396474600237,-0.873565673828125,-0.545501708984375,-0.8869171142578125,1.359158220575907
1782131081.054173,-0.0849609375,-0.15283203125,0.9936522841453552,1.0089206373467448,-0.6313323974609375,-0.0591278076171875,-0.7038116455078125,0.9473265150252077
1782131081.065801,-0.0820312425494194,-0.15478515625,0.9838866591453552,0.9993600589345899,-0.568389892578125,-0.18310546875,-0.5245208740234375,0.7948061587314484
1782131081.075261,-0.07470703125,-0.16259765625,0.9902343153953552,1.0062719004934448,-0.507354736328125,0.0,-0.0934600830078125,0.5158910888844742
1782131081.084721,-0.08740234375,-0.15185546875,0.9711913466453552,0.9868697405843863,-0.3871917724609375,0.0629425048828125,-0.1583099365234375,0.42301449571429595
1782131081.094181,-0.0732421800494194,-0.16796875,0.9790038466453552,0.9960052458001194,-0.0820159912109375,-0.0591278076171875,0.1468658447265625,0.17830394497928104
1782131081.104929,-0.0649413987994194,-0.173828125,0.9750975966453552,0.9925970608976176,-0.2651214599609375,0.0019073486328125,-0.0362396240234375,0.26759360392204107
1782131081.115679,-0.080078125,-0.16064453125,0.9760741591453552,0.9924414016330436,-0.080108642578125,-0.18310546875,-0.0362396240234375,0.20312143572559524
1782131081.126428,-0.0473632775247097,-0.1611328125,0.9799804091453552,0.9942679043551294,-0.446319580078125,0.1220703125,-0.3414154052734375,0.5750363533838422
1782131081.137034,-0.0732421800494194,-0.1533203125,0.9799804091453552,0.9946019995315649,-0.1430511474609375,0.0019073486328125,-0.5817413330078125,0.599074492278218
1782131081.147643,-0.083984375,-0.16064453125,0.9794921278953552,0.9961249265396603,0.1010894775390625,-0.2422332763671875,-0.4596710205078125,0.5293330612604853
1782131081.158252,-0.07421875,-0.146484375,0.9765624403953552,0.990272838646822,-0.385284423828125,0.0,-0.4596710205078125,0.599784573275492
1782131081.168902,-0.0722656175494194,-0.14990234375,0.9887694716453552,1.0026754710270802,-0.690460205078125,-0.1220703125,-0.6427764892578125,0.9512087421449473
1782131081.179552,-0.0791015625,-0.1474609375,0.9726561903953552,0.9869457178552049,-0.5054473876953125,0.0629425048828125,-0.5245208740234375,0.7311367641797595
1782131081.190202,-0.07861328125,-0.142578125,0.9853515028953552,0.9987122478349519,-0.2651214599609375,-0.2422332763671875,-0.3414154052734375,0.4955106736180632
1782131081.198238,-0.0810546875,-0.14404296875,0.9814452528953552,0.9952653031442742,-0.4482269287109375,0.1850128173828125,-0.3986358642578125,0.6277321677994039
1782131081.206276,-0.0776367112994194,-0.15234375,0.9882811903953552,1.0029635030222745,0.1010894775390625,0.0629425048828125,-0.2155303955078125,0.2462401120406616
1782131081.214314,-0.07373046875,-0.15576171875,0.9868163466453552,1.001750666112349,-0.202178955078125,0.48828125,0.0286102294921875,0.5292574555069023
1782131081.222352,-0.0825195237994194,-0.15087890625,0.9790038466453552,0.9939931830277717,0.1010894775390625,0.0629425048828125,-0.1583099365234375,0.19809815090529823
1782131081.231969,-0.06884765625,-0.1669921875,0.9829100966453552,0.9993691252708055,-0.1430511474609375,0.7343292236328125,0.0286102294921875,0.748679894683072
1782131081.241586,-0.06982421875,-0.14990234375,0.9750975966453552,0.9890204533624868,-0.1430511474609375,0.4901885986328125,-0.2765655517578125,0.580721101251362
1782131081.251203,-0.07080078125,-0.15869140625,0.9829100966453552,0.9981522785279782,-0.3871917724609375,0.5512237548828125,-0.6427764892578125,0.9310889923907103
1782131081.26082,-0.07470703125,-0.1533203125,0.9877929091453552,1.0024086442669626,-0.1430511474609375,0.3070831298828125,-0.6427764892578125,0.7265846781973275
1782131081.270437,-0.064453125,-0.158203125,0.9863280653953552,1.0010122310284602,0.1010894775390625,0.2460479736328125,-0.5245208740234375,0.5881163448538432
1782131081.281151,-0.0722656100988388,-0.16162109375,0.9702147841453552,0.9862354808675877,0.225067138671875,0.1220703125,-0.8296966552734375,0.8683046227423427
1782131081.291865,-0.0849609375,-0.14892578125,0.9750975966453552,0.9900568530167092,0.0400543212890625,-0.2422332763671875,-0.5817413330078125,0.6314303503659103
1782131081.302579,-0.07080078125,-0.16064453125,0.9824218153953552,0.9979839875523294,-0.0820159912109375,0.1850128173828125,-0.8296966552734375,0.8540216069761748
1782131081.310494,-0.0830078050494194,-0.16455078125,0.9750975966453552,0.9923621205450436,-0.3223419189453125,0.2460479736328125,-0.5817413330078125,0.7091310856025607
1782131081.318411,-0.0883788987994194,-0.14404296875,0.9750975966453552,0.9896335329721094,-0.4482269287109375,0.2460479736328125,-0.0934600830078125,0.5197901230941968
1782131081.326328,-0.06640625,-0.14794921875,0.9838866591453552,0.9971618321075102,-0.2651214599609375,0.0629425048828125,-0.0362396240234375,0.2748899012370261
1782131081.334244,-0.0776367112994194,-0.15966796875,0.9731444716453552,0.9892075019327633,0.286102294921875,0.18310546875,0.2727508544921875,0.43563191397318357
1782131081.342286,-0.0737304612994194,-0.14501953125,0.9687499403953552,0.9823152713784914,0.3452301025390625,0.1239776611328125,0.3299713134765625,0.4933916820098835
1782131081.350327,-0.07177734375,-0.140625,0.9824218153953552,0.9950276383425292,0.102996826171875,0.0,0.4520416259765625,0.4636269813298336
1782131081.358368,-0.06494140625,-0.14306640625,0.9809569716453552,0.9934595930699164,0.102996826171875,0.48828125,-0.0934600830078125,0.5077023856738012
1782131081.366409,-0.0654296875,-0.16015625,0.9775390028953552,0.9927303614789141,0.7114410400390625,0.2460479736328125,0.1468658447265625,0.7669794880750872
1782131081.375991,-0.0786132737994194,-0.154296875,0.9731444716453552,0.9884319577725852,0.652313232421875,0.6103515625,-0.0362396240234375,0.89406649271082
1782131081.385573,-0.06787109375,-0.14208984375,0.9711913466453552,0.9838743013528402,0.5283355712890625,0.3070831298828125,-0.0362396240234375,0.6121697762037297
1782131081.395155,-0.0771484300494194,-0.154296875,0.9887694716453552,1.0037053720847022,0.591278076171875,0.1220703125,-0.2765655517578125,0.6640778786968171
1782131081.404737,-0.0786132737994194,-0.15380859375,0.9760741591453552,0.9912405835518072,0.8373260498046875,-0.0591278076171875,-0.2155303955078125,0.8666396960114919
1782131081.414319,-0.07177734375,-0.14794921875,0.9736327528953552,0.9874217416662087,0.8373260498046875,-0.0591278076171875,-0.0934600830078125,0.8445980099615227
1782131081.425006,-0.0693359300494194,-0.13916015625,0.9707030653953552,0.9830755115713552,0.0400543212890625,0.3681182861328125,-0.0362396240234375,0.37206011824521956
1782131081.435693,-0.07470703125,-0.1484375,0.9648436903953552,0.9790496304172565,-0.6313323974609375,0.2460479736328125,0.2117156982421875,0.7098899480164269
1782131081.44638,-0.080078125,-0.1474609375,0.9843749403953552,0.9985746128708929,-0.7534027099609375,0.6732940673828125,-0.3414154052734375,1.0665388054390714
1782131081.457036,-0.0727538987994194,-0.169921875,0.9750975966453552,0.9924625415488383,-0.507354736328125,0.3662109375,-0.0362396240234375,0.6267635834735218
1782131081.467694,-0.083984375,-0.146484375,0.9785155653953552,0.9929772198214182,-0.4482269287109375,0.4291534423828125,0.2117156982421875,0.6556703391284638
1782131081.478352,-0.07666015625,-0.16357421875,0.9721679091453552,0.9888092577276969,-0.5702972412109375,0.2460479736328125,-0.0934600830078125,0.628102965904036
1782131081.486323,-0.0683593675494194,-0.15478515625,0.9804686903953552,0.9949624618912396,-0.446319580078125,0.30517578125,-0.3414154052734375,0.6394512522316985
1782131081.494294,-0.0917968600988388,-0.16162109375,0.9819335341453552,0.999370555373801,-0.4482269287109375,0.0629425048828125,-0.1583099365234375,0.4795113914649135
1782131081.502264,-0.06982421875,-0.16015625,0.9682616591453552,0.9838984126976862,-0.751495361328125,0.30517578125,-0.0934600830078125,0.8164633014870075
1782131081.510236,-0.0703125,-0.15380859375,0.9780272841453552,0.9925413340009281,-0.812530517578125,0.0,-0.6427764892578125,1.0360344864619007
1782131081.520906,-0.0869140550494194,-0.16015625,0.9707030653953552,0.9876580980010923,-0.6313323974609375,0.0629425048828125,-0.4596710205078125,0.7834792927061901
1782131081.531575,-0.0849609300494194,-0.15869140625,0.9746093153953552,0.9910926494066373,-0.324249267578125,0.18310546875,-0.3414154052734375,0.5052026119975364
1782131081.542246,-0.0732421875,-0.15673828125,0.9731444716453552,0.9884034953058932,-0.4482269287109375,-0.1201629638671875,-0.4596710205078125,0.6531798868624789
1782131081.552968,-0.07373046875,-0.15576171875,0.9916991591453552,1.006561035059302,-0.263214111328125,-0.3662109375,-0.2155303955078125,0.49984544664789893
1782131081.563688,-0.07958984375,-0.1552734375,0.9750975966453552,0.9905855372479268,-0.7534027099609375,-0.0591278076171875,0.0896453857421875,0.7610177633898996
1782131081.574408,-0.0678710862994194,-0.14453125,0.9736327528953552,0.9866389938030088,-0.7534027099609375,-0.2422332763671875,-0.1583099365234375,0.8070654493646234
1782131081.582381,-0.07666015625,-0.14599609375,0.9770507216453552,0.9908681807456745,-0.324249267578125,0.0,0.0896453857421875,0.33641326179242115
1782131081.590356,-0.0732421800494194,-0.158203125,0.9838866591453552,0.9992124917865897,-0.2651214599609375,-0.2422332763671875,-0.2765655517578125,0.4532712798429926
1782131081.598331,-0.0742187425494194,-0.14990234375,0.9746093153953552,0.9888591669508672,-0.2651214599609375,-0.3032684326171875,-0.1583099365234375,0.4328084642840981
1782131081.606306,-0.07373046875,-0.15185546875,0.9882811903953552,1.0025946223178326,-0.0171661376953125,0.0629425048828125,-0.3414154052734375,0.34759302950767423
1782131081.616986,-0.0654296800494194,-0.15869140625,0.9843749403953552,0.9992287169248745,-0.2651214599609375,-0.1201629638671875,-0.8869171142578125,0.9334615653472679
1782131081.627666,-0.0751953125,-0.14697265625,0.9765624403953552,0.9904188491229784,0.1659393310546875,0.0629425048828125,-0.3986358642578125,0.4363578494588738
1782131081.638346,-0.07666015625,-0.1376953125,0.9892577528953552,1.0017323396518227,-0.019073486328125,0.0,-0.5817413330078125,0.5820539291254856
1782131081.649006,-0.06982421875,-0.1376953125,0.9707030653953552,0.9829037907020503,-0.3223419189453125,0.0629425048828125,-0.7038116455078125,0.7766703959741764
1782131081.659664,-0.08984375,-0.14892578125,0.9882811903953552,1.0034692317277325,0.0400543212890625,-0.0591278076171875,-0.3414154052734375,0.3488049960157798
1782131081.670322,-0.07958984375,-0.15478515625,0.9809569716453552,0.9962778568467295,-0.263214111328125,-0.18310546875,-0.0362396240234375,0.32268032390862
1782131081.678331,-0.08056640625,-0.14501953125,0.9726561903953552,0.9867024247332198,0.164031982421875,-0.545501708984375,0.0286102294921875,0.5703482716671627
1782131081.68634,-0.0922851487994194,-0.15380859375,0.9721679091453552,0.9885767930577448,0.164031982421875,-0.3662109375,0.4520416259765625,0.6044489834695842
1782131081.694349,-0.0673828050494194,-0.15771484375,0.9770507216453552,0.9919891768679355,-0.019073486328125,-0.240325927734375,0.3948211669921875,0.46260577528514496
1782131081.702358,-0.0634765550494194,-0.14892578125,0.9687499403953552,0.9821835919917768,0.102996826171875,-0.545501708984375,0.3948211669921875,0.6812225881541407
1782131081.712994,-0.0781249925494194,-0.140625,0.9760741591453552,0.9892419669813645,0.1010894775390625,-0.4253387451171875,0.3299713134765625,0.5477346057028278
1782131081.723629,-0.0620117150247097,-0.1552734375,0.9707030653953552,0.9849973270833335,0.286102294921875,0.1220703125,0.0896453857421875,0.3237158932432524
1782131081.734266,-0.0678710862994194,-0.13818359375,0.9897460341453552,1.0016478433279767,-0.202178955078125,0.431060791015625,0.3299713134765625,0.5792847340858782
1782131081.744928,-0.07373046875,-0.146484375,0.9848632216453552,0.998423467017329,-0.2651214599609375,0.2460479736328125,0.0896453857421875,0.37264633239238754
1782131081.75559,-0.0693359375,-0.14111328125,0.9960936903953552,1.0084260361670474,-0.019073486328125,0.79345703125,0.2117156982421875,0.8214386131677459
1782131081.766252,-0.07177734375,-0.1552734375,0.9721679091453552,0.9871029688137524,0.0400543212890625,0.5512237548828125,0.3299713134765625,0.6436870701812195
1782131081.77593,-0.09130859375,-0.14599609375,0.9804686903953552,0.9954752490787726,-0.2651214599609375,0.4291534423828125,0.1468658447265625,0.5253871353469589
1782131081.78561,-0.0776367112994194,-0.15283203125,0.9750975966453552,0.9900507116814462,-0.3871917724609375,0.5512237548828125,0.0286102294921875,0.6742281823241631
1782131081.79529,-0.07666015625,-0.15283203125,0.9873046278953552,1.0020004179619195,-0.385284423828125,0.30517578125,-0.0362396240234375,0.49283836605471193
1782131081.80497,-0.0883788987994194,-0.15966796875,0.9785155653953552,0.9953880658912586,-0.324249267578125,0.48828125,0.2117156982421875,0.6232011741875091
1782131081.81465,-0.0683593675494194,-0.15576171875,0.9726561903953552,0.987418240095916,-0.507354736328125,0.18310546875,0.2727508544921875,0.6044249083111622
1782131081.822582,-0.07568359375,-0.1611328125,0.9829100966453552,0.9989014204186801,-0.5054473876953125,0.0629425048828125,-0.0362396240234375,0.5106389438715956
1782131081.830518,-0.08056640625,-0.15185546875,0.9750975966453552,0.9901345121693669,-0.2651214599609375,0.3681182861328125,-0.0934600830078125,0.4631794989342743
1782131081.838453,-0.09130859375,-0.150390625,0.9833983778953552,0.9990129974268148,-0.385284423828125,0.1220703125,0.1468658447265625,0.4300172377773531
1782131081.846388,-0.0732421800494194,-0.15966796875,0.9721679091453552,0.9879112919463944,-0.202178955078125,0.1220703125,0.4520416259765625,0.5100187473866667
1782131081.854323,-0.0732421800494194,-0.16552734375,0.9838866591453552,1.0003982589506695,-0.1430511474609375,-0.2422332763671875,-0.0934600830078125,0.29643781487067455
1782131081.862258,-0.0825195237994194,-0.1552734375,0.9721679091453552,0.9879421824040114,-0.019073486328125,-0.18310546875,0.2727508544921875,0.3290660103886222
1782131081.871886,-0.0800781175494194,-0.15869140625,0.9848632216453552,1.0007752158589507,-0.202178955078125,0.0,0.1468658447265625,0.24989178902822967
1782131081.881514,-0.07421875,-0.146484375,0.9785155653953552,0.9921989753530764,0.225067138671875,-0.18310546875,-0.2155303955078125,0.36143627513554355
1782131081.891142,-0.08447265625,-0.16259765625,0.9819335341453552,0.9988829225445349,0.225067138671875,0.1220703125,0.0896453857421875,0.27127969568078303
1782131081.900769,-0.0776367112994194,-0.14306640625,0.9692382216453552,0.9828113683901556,0.102996826171875,0.0,-0.2155303955078125,0.23887590416204293
1782131081.910398,-0.07421875,-0.16015625,0.9833983778953552,0.9991150168588404,-0.019073486328125,0.18310546875,-0.2765655517578125,0.3322347287475674
1782131081.918375,-0.0776367112994194,-0.16357421875,0.9741210341453552,0.9908056182448092,0.164031982421875,-0.057220458984375,-0.2155303955078125,0.27682850931829067
1782131081.926352,-0.06884765625,-0.15234375,0.9863280653953552,1.0003957569490811,0.1010894775390625,-0.4253387451171875,-0.3414154052734375,0.5547040738312726
1782131081.934329,-0.068359375,-0.1572265625,0.9731444716453552,0.9881312457360483,-0.0820159912109375,0.0629425048828125,-0.1583099365234375,0.18907780868544638
1782131081.942306,-0.0639648362994194,-0.1494140625,0.9716796278953552,0.9851788475309553,0.1010894775390625,-0.1201629638671875,-0.1583099365234375,0.22298039455638793
1782131081.950283,-0.0737304612994194,-0.15478515625,0.9697265028953552,0.9847660209087321,0.225067138671875,0.1220703125,-0.2765655517578125,0.3768884218477611
1782131081.95826,-0.0810546875,-0.16748046875,0.9653319716453552,0.983099885697863,-0.0820159912109375,-0.1201629638671875,-0.2155303955078125,0.2600367514168212
1782131081.96785,-0.07958984375,-0.15673828125,0.9809569716453552,0.9965831687606307,-0.080108642578125,0.0,-0.3414154052734375,0.3506877151736789
1782131081.97744,-0.08154296875,-0.1435546875,0.9833983778953552,0.9971607561988197,0.102996826171875,0.18310546875,-0.2765655517578125,0.34731032709486187
1782131081.98703,-0.0624999962747097,-0.16064453125,0.9785155653953552,0.9935822193839132,-0.1430511474609375,0.2460479736328125,-0.0362396240234375,0.28690860298719556
1782131081.99662,-0.06787109375,-0.15673828125,0.9819335341453552,0.9966779016589126,0.2841949462890625,0.0629425048828125,-0.0362396240234375,0.2933288883941132
1782131082.00621,-0.0737304612994194,-0.15380859375,0.9848632216453552,0.9995243017478093,0.0400543212890625,0.0019073486328125,0.1468658447265625,0.1522417911743727
1782131082.015827,-0.0727538987994194,-0.1484375,0.9760741591453552,0.9899735275996416,-0.0820159912109375,0.1850128173828125,0.1468658447265625,0.2500518781322893
1782131082.025444,-0.076171875,-0.14990234375,0.9882811903953552,1.0024832060897675,-0.324249267578125,0.30517578125,-0.2765655517578125,0.5241739686455267
1782131082.035061,-0.08447265625,-0.1572265625,0.9809569716453552,0.9970618846536675,-0.080108642578125,0.6103515625,-0.1583099365234375,0.6356165986378549
1782131082.044678,-0.06982421875,-0.15478515625,0.9804686903953552,0.995064178314629,-0.2651214599609375,0.2460479736328125,-0.3414154052734375,0.4973866431848143
1782131082.054295,-0.078125,-0.1572265625,0.9819335341453552,0.9975054752028952,-0.690460205078125,0.30517578125,-0.2765655517578125,0.8039627209499067
1782131082.063992,-0.08056640625,-0.1484375,0.9838866591453552,0.9982773138093936,-0.5054473876953125,0.0629425048828125,-0.3986358642578125,0.6467993297163437
1782131082.073688,-0.0693359375,-0.16015625,0.9853515028953552,1.00068730425703,0.0400543212890625,0.0019073486328125,-0.1583099365234375,0.16330959137414233
1782131082.083384,-0.0825195237994194,-0.15478515625,0.9858397841453552,1.001323122876517,-0.1430511474609375,-0.3032684326171875,-0.0934600830078125,0.3480950446757375
1782131082.09308,-0.080078125,-0.1484375,0.9877929091453552,1.0020883338646398,-0.202178955078125,-0.057220458984375,-0.2155303955078125,0.30100475443191776
1782131082.102776,-0.0771484300494194,-0.15283203125,0.9677733778953552,0.9827994815821166,-0.202178955078125,-0.18310546875,-0.2155303955078125,0.3476453565782143
1782131082.110686,-0.0732421800494194,-0.15576171875,0.9785155653953552,0.9935385456474939,-0.324249267578125,-0.545501708984375,0.1468658447265625,0.6513672377216028
1782131082.118597,-0.076171875,-0.1630859375,0.9785155653953552,0.9949331079385494,0.041961669921875,-0.8544921875,0.2117156982421875,0.881329233103807
1782131082.126508,-0.07177734375,-0.1494140625,0.9785155653953552,0.9924561757929421,0.164031982421875,-0.30517578125,0.3299713134765625,0.47845565775340776
1782131082.134419,-0.07470703125,-0.1533203125,0.9716796278953552,0.9865341139616725,-0.0820159912109375,-0.1201629638671875,0.1468658447265625,0.20672526949288603
1782131082.14233,-0.0810546875,-0.150390625,0.9833983778953552,0.9981280339219158,0.102996826171875,-0.057220458984375,0.3948211669921875,0.41202703920123346
1782131082.150241,-0.07861328125,-0.1572265625,0.9814452528953552,0.9970631997899059,0.4062652587890625,-0.0591278076171875,0.2117156982421875,0.4619210917621494
1782131082.159913,-0.0771484300494194,-0.138671875,0.9833983778953552,0.9961195404279155,0.5893707275390625,-0.4253387451171875,0.4520416259765625,0.8559278790840511
1782131082.169585,-0.068359375,-0.15087890625,0.9765624403953552,0.990510801805068,0.5283355712890625,-0.1811981201171875,0.3299713134765625,0.6487313021126625
1782131082.179257,-0.0712890625,-0.14599609375,0.9790038466453552,0.9923938339030477,0.8373260498046875,-0.3032684326171875,0.6351470947265625,1.093845733110113
1782131082.188929,-0.06494140625,-0.138671875,0.9702147841453552,0.9822240083280196,0.286102294921875,0.1220703125,0.5779266357421875,0.6563191911362141
1782131082.198601,-0.07080078125,-0.1376953125,0.9638671278953552,0.9762236372611166,0.0400543212890625,-0.0591278076171875,0.5168914794921875,0.5218019239703559
1782131082.20662,-0.0722656175494194,-0.13720703125,0.9736327528953552,0.9859050798199719,-0.202178955078125,0.18310546875,0.5779266357421875,0.6390642681788138
1782131082.214639,-0.06689453125,-0.15185546875,0.9868163466453552,1.0006705070636015,-0.3871917724609375,0.7343292236328125,0.5779266357421875,1.0115117763243762
1782131082.222657,-0.06982421875,-0.150390625,0.9819335341453552,0.9958344375904692,-0.1430511474609375,1.2226104736328125,0.2117156982421875,1.2490250349407406
1782131082.230677,-0.07373046875,-0.1416015625,0.9736327528953552,0.986634644655824,-0.2651214599609375,1.2226104736328125,0.3948211669921875,1.3118496532276638
1782131082.242591,-0.0712890625,-0.15673828125,0.9765624403953552,0.9916265523029649,-0.324249267578125,1.15966796875,0.3948211669921875,1.267221819246644
1782131082.254506,-0.07568359375,-0.14892578125,0.9702147841453552,0.9844915550973793,-0.3223419189453125,0.8563995361328125,0.1468658447265625,0.9267653718957618
1782131082.266421,-0.0825195237994194,-0.14892578125,0.9799804091453552,0.994660727302382,-0.6313323974609375,0.9784698486328125,0.1468658447265625,1.1736922156658196
1782131082.278336,-0.08154296875,-0.15869140625,0.9882811903953552,1.004256904113398,-0.5054473876953125,0.7343292236328125,0.1468658447265625,0.9034854989187328
1782131082.286312,-0.08447265625,-0.15966796875,0.9760741591453552,0.992648101821584,-0.3871917724609375,0.7343292236328125,0.0896453857421875,0.8349809414157171
1782131082.294286,-0.0791015625,-0.1513671875,0.9707030653953552,0.9856132729471234,-0.385284423828125,0.67138671875,0.1468658447265625,0.787891991142002
1782131082.302262,-0.0781249925494194,-0.1494140625,0.9775390028953552,0.9919730735837773,-0.3223419189453125,0.5512237548828125,-0.2155303955078125,0.673947543985589
1782131082.310237,-0.0830078050494194,-0.15283203125,0.9755858778953552,0.9909670683852084,-0.5702972412109375,-0.0591278076171875,0.0286102294921875,0.5740675798179313
1782131082.31824,-0.0859375,-0.1513671875,0.9799804091453552,0.9953184825303949,-0.0820159912109375,-0.0591278076171875,-0.2765655517578125,0.294467697493343
1782131082.326242,-0.09521484375,-0.15234375,0.9819335341453552,0.9982324128746707,-0.324249267578125,-0.057220458984375,-0.2155303955078125,0.39352905844306735
1782131082.334246,-0.08349609375,-0.15087890625,0.9741210341453552,0.9892663095380947,-0.202178955078125,-0.1220703125,-0.0934600830078125,0.253992673489133
1782131082.342249,-0.08154296875,-0.15380859375,0.9750975966453552,0.990515856636058,0.0400543212890625,0.0629425048828125,0.0286102294921875,0.07990402246724476
1782131082.352919,-0.07470703125,-0.1474609375,0.9780272841453552,0.991898803880369,0.1010894775390625,-0.1201629638671875,0.0896453857421875,0.18081624799595092
1782131082.363589,-0.07080078125,-0.1552734375,0.9716796278953552,0.9865515142583953,-0.0820159912109375,-0.3032684326171875,-0.0362396240234375,0.3162462258838171
1782131082.374259,-0.0859375,-0.1484375,0.9882811903953552,1.0030546628184132,-0.1430511474609375,-0.5474090576171875,-0.0934600830078125,0.5734588862918207
1782131082.384908,-0.07421875,-0.14306640625,0.9877929091453552,1.0008552596687976,0.102996826171875,-0.18310546875,-0.0362396240234375,0.21318834216953977
1782131082.39556,-0.0751953125,-0.14794921875,0.9863280653953552,1.0001931608130763,0.2231597900390625,-0.1201629638671875,-0.0934600830078125,0.27013740372531286
1782131082.406212,-0.07666015625,-0.15869140625,0.9775390028953552,0.9932986681535027,0.2231597900390625,-0.3032684326171875,-0.1583099365234375,0.408453265520572
1782131082.41431,-0.0810546875,-0.1484375,0.9907225966453552,1.0050546339755306,0.0400543212890625,-0.1811981201171875,0.0286102294921875,0.1877648865457165
1782131082.422409,-0.0781249925494194,-0.16064453125,0.9790038466453552,0.9951676801563549,0.041961669921875,0.1220703125,0.0286102294921875,0.1322137971925611
1782131082.430508,-0.083984375,-0.1572265625,0.9765624403953552,0.9926972182849304,-0.0820159912109375,-0.0591278076171875,-0.2765655517578125,0.294467697493343
1782131082.438607,-0.0781249925494194,-0.14501953125,0.9736327528953552,0.9874689445321327,0.0400543212890625,-0.2422332763671875,0.3299713134765625,0.41129354061419143
1782131082.449139,-0.0810546875,-0.14453125,0.9843749403953552,0.9982250086381549,0.2841949462890625,0.0629425048828125,0.2117156982421875,0.35993341509137905
1782131082.459671,-0.07763671875,-0.15185546875,0.9775390028953552,0.9923054195504498,0.102996826171875,-0.30517578125,0.3948211669921875,0.50953347050817
1782131082.470203,-0.07373046875,-0.13623046875,0.9721679091453552,0.9844314939141225,0.1010894775390625,0.0629425048828125,0.4520416259765625,0.4674638734764195
1782131082.48088,-0.0732421875,-0.1572265625,0.9741210341453552,0.9894424688428165,0.0400543212890625,0.3681182861328125,0.3948211669921875,0.5412939821800714
1782131082.491556,-0.0791015550494194,-0.154296875,0.9765624403953552,0.991836065908542,0.286102294921875,0.431060791015625,0.5779266357421875,0.7756720473311275
1782131082.502232,-0.0825195237994194,-0.14453125,0.9853515028953552,0.9993079296657165,0.3452301025390625,0.6122589111328125,-0.0362396240234375,0.7038168144553162
1782131082.513078,-0.0737304612994194,-0.1396484375,0.9721679091453552,0.9849103058612333,0.041961669921875,0.79345703125,0.2727508544921875,0.8400761101286682
1782131082.523926,-0.0820312425494194,-0.14453125,0.9819335341453552,0.9958975210632626,0.164031982421875,0.67138671875,-0.0934600830078125,0.6974248378764332
