timestamp,accel_x,accel_y,accel_z,accel_rms,gyro_x,gyro_y,gyro_z,gyro_rms
1784709496.034804,-0.011718746274709702,-0.012207034975290298,0.9936522841453552,0.9937963586693306,0.2155303955078125,0.1621246337890625,-0.0362396240234375,0.2721232415990075
1784709496.042807,-0.00244140625,-0.0263671875,0.9970702528953552,0.997421815607592,-0.213623046875,-0.08392333984375,-0.0934600830078125,0.24781589989852387
1784709496.05081,-0.024414055049419403,-0.0205078125,0.9887694716453552,0.989283419711119,0.2155303955078125,-0.2651214599609375,-0.0934600830078125,0.35422807206007867
1784709496.058813,-0.013183590024709702,-0.0288085974752903,0.9868163466453552,0.9873247917179628,-0.152587890625,-0.14495849609375,-0.0934600830078125,0.23028420933919003
1784709496.069468,-0.0029296875,-0.02197265625,0.9799804091453552,0.9802310865302254,0.152587890625,0.22125244140625,-0.0362396240234375,0.27119922113268163
1784709496.080123,-0.0126953125,-0.0166015625,0.9824218153953552,0.9826440892823909,0.0324249267578125,0.4062652587890625,-0.0934600830078125,0.4181358911765655
1784709496.090778,-0.00439453125,-0.0234375,0.9956054091453552,0.9958909373172583,0.091552734375,-0.019073486328125,0.3948211669921875,0.40574555445170474
1784709496.101432,-0.001953125,-0.01123046875,1.001953125,1.0020179653194228,0.0324249267578125,0.1010894775390625,-0.1583099365234375,0.19061084530116573
1784709496.112088,-0.0126953125,-0.0126953125,0.9877929091453552,0.9879560583734427,-0.1506805419921875,-0.0820159912109375,0.1468658447265625,0.22583362215715075
1784709496.122744,-0.011230465024709702,-0.0307617150247097,0.9960936903953552,0.9966318510369666,0.091552734375,-0.08392333984375,0.2117156982421875,0.24545583518068145
1784709496.133439,-0.0053710900247097015,-0.014160159975290298,0.9760741591453552,0.976191642501559,0.0324249267578125,-0.0209808349609375,0.2117156982421875,0.2152094519139078
1784709496.144136,-0.010742183774709702,-0.0229492224752903,0.9960936903953552,0.9964159278985396,-0.030517578125,0.22125244140625,0.0896453857421875,0.24066628469253262
1784709496.154833,-0.011230465024709702,-0.013671878725290298,0.9946288466453552,0.9947862012470919,0.2155303955078125,-0.2040863037109375,0.0286102294921875,0.2981997920551635
1784709496.162862,-0.00048827752470970154,-0.009277347475290298,0.9711913466453552,0.9712357795046149,-0.0896453857421875,-0.0209808349609375,-0.1583099365234375,0.18313526864746316
1784709496.170892,-0.0063476525247097015,-0.013671878725290298,0.9912108778953552,0.9913254851049348,0.0324249267578125,0.0400543212890625,-0.0362396240234375,0.06300027681317805
1784709496.178922,-0.0068359337747097015,-0.009765621274709702,0.9770507216453552,0.9771234364281529,-0.0286102294921875,0.1010894775390625,-0.1583099365234375,0.1899991150052312
1784709496.186952,-0.0058593712747097015,-0.0205078087747097,0.9765624403953552,0.9767953226973431,-0.0896453857421875,-0.0820159912109375,-0.0934600830078125,0.15328961189527937
1784709496.197569,-0.015136711299419403,-0.01123046875,0.9882811903953552,0.9884609019817461,-0.0896453857421875,-0.0820159912109375,0.0896453857421875,0.15099408327495406
1784709496.208186,-0.0170898400247097,-0.013671878725290298,0.9863280653953552,0.9865708466635801,0.1544952392578125,-0.0209808349609375,0.1468658447265625,0.21419278871202363
1784709496.218803,-0.00439453125,-0.021484375,0.9956054091453552,0.9958468863201502,0.0324249267578125,-0.0820159912109375,0.0896453857421875,0.1257548960256724
1784709496.2268,-0.01318359375,-0.01708984375,0.9750975966453552,0.9753364511219256,-0.0896453857421875,0.1010894775390625,0.0286102294921875,0.13810837369827308
1784709496.234799,-0.012695308774709702,-0.007812503725290298,0.9833983778953552,0.9835113500751065,0.1544952392578125,0.1621246337890625,-0.3414154052734375,0.40831073313420496
1784709496.242798,-0.0019531212747097015,-0.0239257849752903,0.9838866591453552,0.9841794632655194,0.0324249267578125,0.1621246337890625,-0.1583099365234375,0.22890567655377606
1784709496.250797,-0.0185546875,-0.00634765625,0.9819335341453552,0.9821293370260754,0.0324249267578125,-0.0820159912109375,0.0286102294921875,0.09271754915417964
1784709496.261453,-0.025390617549419403,-0.01220703125,0.9829100966453552,0.9833137612984275,0.3376007080078125,-0.0820159912109375,-0.1583099365234375,0.3817890737877967
1784709496.272109,-0.0263671837747097,-0.0185546912252903,0.9868163466453552,0.9873429024169673,-0.0286102294921875,-0.3261566162109375,0.0896453857421875,0.3394598337279832
1784709496.282765,-0.004882805049419403,-0.0107421875,0.9853515028953552,0.9854221535136963,-0.213623046875,-0.08392333984375,0.0286102294921875,0.231293057306707
1784709496.293459,-0.0170898400247097,-0.013183597475290298,0.9882811903953552,0.9885168593219444,-0.0286102294921875,-0.3261566162109375,0.0896453857421875,0.3394598337279832
1784709496.304155,-0.0029296875,-0.025390625,0.9873046278953552,0.9876354059926791,-0.1506805419921875,0.1010894775390625,-0.0362396240234375,0.18503247972596626
1784709496.314851,-0.00732421875,-0.02197265625,0.9858397841453552,0.9861118201333655,0.2155303955078125,0.0400543212890625,0.0896453857421875,0.23684170922062509
1784709496.322836,-0.01416015625,-0.02099609375,0.9931640028953552,0.9934868306247991,0.0324249267578125,-0.1430511474609375,-0.0934600830078125,0.17392467847021478
1784709496.330823,0.0029296912252902985,-0.013671878725290298,0.9853515028953552,0.9854507027835994,0.0324249267578125,-0.1430511474609375,0.2117156982421875,0.25756269828396616
1784709496.33881,-0.00439453125,-0.015625,0.9931640028953552,0.9932966269836178,-0.2117156982421875,0.1010894775390625,0.0286102294921875,0.23634966592507223
1784709496.346797,0.0048828125,-0.00537109375,0.9897460341453552,0.9897726519824843,-0.2117156982421875,-0.2040863037109375,0.0286102294921875,0.29545439830228565
1784709496.357469,-0.010253898799419403,-0.00537109375,0.9829100966453552,0.9829782546811712,0.1544952392578125,0.1621246337890625,-0.0362396240234375,0.22686226258222514
1784709496.368141,-0.011718746274709702,-0.009277347475290298,0.9926757216453552,0.9927882385154223,-0.0286102294921875,-0.0820159912109375,-0.0934600830078125,0.12759292755374577
1784709496.378813,-0.0073242150247097015,-0.0195312462747097,0.9785155653953552,0.9787378737066239,-0.0286102294921875,-0.2040863037109375,0.0286102294921875,0.20805842887416096
1784709496.389475,-0.010253902524709702,-0.014648433774709702,0.9882811903953552,0.9884429323022643,0.335693359375,-0.14495849609375,-0.1583099365234375,0.3984533010533222
1784709496.400135,-0.009765621274709702,-0.0190429724752903,0.9907225966453552,0.9909537151972795,0.1544952392578125,0.1010894775390625,0.1468658447265625,0.23591828621303632
1784709496.410795,-0.01171875,-0.0263671875,0.9995116591453552,0.999928054634794,-0.0286102294921875,0.1010894775390625,-0.0362396240234375,0.11113477426114819
1784709496.418781,0.0009765625,-0.01123046875,0.9877929091453552,0.9878572308084327,-0.0286102294921875,0.1010894775390625,-0.0934600830078125,0.14061441894963497
1784709496.426765,-0.005371086299419403,-0.01708984375,0.9829100966453552,0.9830733286051538,0.091552734375,-0.019073486328125,0.3299713134765625,0.3429675914276688
1784709496.434749,-0.00390625,-0.01708984375,0.9887694716453552,0.9889248655010636,-0.0286102294921875,-0.0209808349609375,-0.0934600830078125,0.09996763367751052
1784709496.442733,-0.0214843712747097,-0.009277347475290298,1.005859375,1.0061315667747621,0.274658203125,-0.08392333984375,-0.0934600830078125,0.3020182819469883
1784709496.453438,-0.0126953125,-0.017578125,0.9916991591453552,0.9919361792411813,0.2155303955078125,0.1010894775390625,0.0286102294921875,0.23977276552700963
1784709496.464143,-0.010742183774709702,-0.0034179724752902985,0.9926757216453552,0.9927397269134636,-0.030517578125,0.03814697265625,-0.0362396240234375,0.06082618224755087
1784709496.474848,-0.0024414025247097015,-0.014160159975290298,0.9829100966453552,0.9830151212795228,-0.0286102294921875,0.1621246337890625,0.4520416259765625,0.4810868671335434
1784709496.482829,-0.009765621274709702,-0.0185546912252903,0.9804686903953552,0.9806928656673963,-0.0286102294921875,0.1010894775390625,0.2117156982421875,0.23634966592507223
1784709496.490811,-0.011718746274709702,-0.0175781287252903,0.9921874403953552,0.9924123318973925,0.1544952392578125,-0.0820159912109375,0.0896453857421875,0.19654947711074405
1784709496.498793,-0.012695308774709702,-0.0185546912252903,0.9960936903953552,0.996347372896014,-0.0286102294921875,-0.0209808349609375,-0.0362396240234375,0.05071539230464299
1784709496.506775,-0.009765617549419403,-0.01513671875,0.9999999403953552,1.0001621710159567,-0.0286102294921875,-0.0209808349609375,0.2727508544921875,0.2750486671363309
1784709496.517432,-0.0014648400247097015,-0.0244140587747097,0.9858397841453552,0.9861431295840952,-0.030517578125,-0.14495849609375,-0.2155303955078125,0.2615294238745065
1784709496.528089,0.0034179724752902985,-0.0258789025247097,0.9912108778953552,0.9915545393924663,0.1544952392578125,0.1010894775390625,0.0896453857421875,0.20524170289518393
1784709496.538746,-0.0126953125,-0.0126953125,0.9921874403953552,0.9923498671321682,0.2155303955078125,0.1010894775390625,-0.1583099365234375,0.28589240958607054
1784709496.549403,-0.01416015625,-0.01416015625,0.9921874403953552,0.9923895086750643,0.1544952392578125,0.1010894775390625,0.0896453857421875,0.20524170289518393
1784709496.560062,-0.0053710900247097015,-0.0175781287252903,0.9794921278953552,0.9796645690370288,-0.152587890625,-0.14495849609375,0.2727508544921875,0.3445127843511285
1784709496.570721,0.0048828125,-0.0126953125,0.9858397841453552,0.9859336148144779,0.0324249267578125,0.1621246337890625,-0.1583099365234375,0.22890567655377606
1784709496.581403,-0.011230465024709702,-0.0224609412252903,0.9965819716453552,0.9968983114811364,-0.2727508544921875,-0.2651214599609375,0.0896453857421875,0.39079241592295905
1784709496.592084,-0.01318359375,-0.0224609375,0.9819335341453552,0.9822788638348743,0.091552734375,0.164031982421875,-0.0934600830078125,0.2098170191967678
1784709496.602765,-0.017578125,-0.02734375,0.9868163466453552,0.9873515955064154,0.1544952392578125,0.1010894775390625,0.2117156982421875,0.2809117268905418
1784709496.613525,-0.0053710900247097015,-0.0195312462747097,0.9882811903953552,0.9884887604208543,0.091552734375,0.22125244140625,0.0286102294921875,0.24114952048752042
1784709496.624285,-0.011718746274709702,-0.0239257849752903,0.9741210341453552,0.9744852802199483,-0.030517578125,0.03814697265625,0.0896453857421875,0.10209216072900876
1784709496.635045,-0.0068359337747097015,-0.015624996274709702,0.9790038466453552,0.9791523896950663,-0.030517578125,-0.14495849609375,0.2117156982421875,0.2583947078532264
1784709496.643041,-0.0170898400247097,-0.0224609412252903,0.9912108778953552,0.9916126062988897,0.2155303955078125,-0.0820159912109375,0.2117156982421875,0.3130551246733451
1784709496.651037,-0.0166015587747097,-0.0195312462747097,0.9829100966453552,0.9832442928500399,0.091552734375,-0.08392333984375,0.0896453857421875,0.15317090235072214
1784709496.659033,0.0034179724752902985,-0.011230465024709702,0.9799804091453552,0.9800507171515211,-0.1506805419921875,-0.2651214599609375,-0.0934600830078125,0.31894952795498155
1784709496.667029,-0.0063476525247097015,-0.008789066225290298,0.9877929091453552,0.9878524038213051,-0.2727508544921875,0.1010894775390625,-0.0362396240234375,0.29313038301189315
1784709496.677585,-0.0273437462747097,-0.013671878725290298,0.9912108778953552,0.9916822097760429,0.152587890625,0.03814697265625,-0.0362396240234375,0.1614049758761599
1784709496.688141,-0.00830078125,-0.017578125,0.9829100966453552,0.9831023098005912,-0.0896453857421875,-0.0209808349609375,-0.0362396240234375,0.09894342307543134
1784709496.698697,-0.0029296837747097015,-0.0185546912252903,0.9814452528953552,0.9816250017416597,-0.152587890625,-0.14495849609375,-0.1583099365234375,0.26335919569516364
1784709496.706717,-0.010742183774709702,-0.012695316225290298,0.9838866591453552,0.9840271965807237,-0.0896453857421875,-0.0820159912109375,0.0286102294921875,0.12482573144497815
1784709496.714737,-0.011230465024709702,-0.0161132775247097,0.9892577528953552,0.9894527086833546,-0.0896453857421875,-0.0209808349609375,0.0286102294921875,0.09641076626663293
1784709496.722757,-0.01416015625,-0.01220703125,0.9892577528953552,0.989434395652653,0.3376007080078125,-0.0209808349609375,0.0286102294921875,0.3394598337279832
1784709496.738828,-0.0004882737994194031,-0.01123046875,0.9941405653953552,0.9942041166703367,0.0324249267578125,0.1010894775390625,0.0286102294921875,0.10995000489297743
1784709496.746879,-0.0073242150247097015,-0.0288085974752903,0.9829100966453552,0.983359465049075,-0.1506805419921875,-0.0209808349609375,-0.1583099365234375,0.21956060022866644
1784709496.75493,-0.013671875,-0.01123046875,0.9970702528953552,0.9972272222533679,0.0324249267578125,0.2841949462890625,0.0286102294921875,0.28746597816626623
1784709496.762981,-0.0185546875,-0.01318359375,0.9902343153953552,0.9904958773053503,0.2155303955078125,0.0400543212890625,0.3299713134765625,0.3961549794703197
1784709496.773578,0.0039062537252902985,-0.0170898474752903,0.9946288466453552,0.9947833252944908,0.0324249267578125,0.1010894775390625,0.0286102294921875,0.10995000489297743
1784709496.784175,0.0039062537252902985,-0.0244140587747097,0.9863280653953552,0.9866379060580256,0.091552734375,-0.14495849609375,-0.2155303955078125,0.2754055557701317
1784709496.794772,-0.0078125,-0.01611328125,0.9990233778953552,0.9991838582414837,0.0324249267578125,0.0400543212890625,-0.1583099365234375,0.16648651756593313
1784709496.802778,0.0,-0.029296875,0.9746093153953552,0.975049549787173,-0.3337860107421875,-0.0209808349609375,-0.2765655517578125,0.4339836411916296
1784709496.810783,0.0009765625,-0.017578125,0.9863280653953552,0.9864851730965732,0.1544952392578125,0.1621246337890625,0.1468658447265625,0.2678110382000957
1784709496.818788,-0.0058593712747097015,-0.014160159975290298,0.9770507216453552,0.9771708934623309,-0.2117156982421875,0.1621246337890625,-0.2155303955078125,0.3428721119472517
1784709496.826793,-0.00341796875,-0.0107421875,0.9882811903953552,0.9883454802810208,-0.0286102294921875,0.1010894775390625,0.2117156982421875,0.23634966592507223
1784709496.838095,-0.015624992549419403,-0.021484375,0.9980468153953552,0.9984003027253749,0.0324249267578125,-0.0209808349609375,0.2117156982421875,0.2152094519139078
1784709496.849397,-0.0063476525247097015,-0.0166015662252903,1.00146484375,1.0016225526419216,0.0324249267578125,0.2841949462890625,-0.2155303955078125,0.3581501008784539
1784709496.860699,-0.0014648400247097015,-0.0068359412252902985,0.9926757216453552,0.992700339575272,-0.0896453857421875,0.2231597900390625,0.2727508544921875,0.3636339033992327
1784709496.870756,-0.020019523799419403,-0.0205078125,1.0048828125,1.0052914097736043,-0.030517578125,0.03814697265625,0.1468658447265625,0.1547775514882534
1784709496.880816,-0.029296867549419403,-0.01513671875,0.9931640028953552,0.993711307850449,0.091552734375,-0.08392333984375,-0.1583099365234375,0.20121398098572493
1784709496.890876,-0.00830078125,-0.0263671875,0.9848632216453552,0.9852510831740753,-0.0286102294921875,-0.0209808349609375,0.1468658447265625,0.15109042661433086
1784709496.901533,-0.0185546875,-0.01953125,0.9804686903953552,0.9808387222170463,-0.030517578125,0.03814697265625,-0.0934600830078125,0.1054575801603629
1784709496.912191,-0.00341796875,-0.01708984375,0.9985350966453552,0.9986871805036471,0.0324249267578125,-0.1430511474609375,0.0286102294921875,0.14944414306601655
1784709496.922849,-0.0068359337747097015,-0.0307617150247097,0.9868163466453552,0.9873193582161344,0.3376007080078125,-0.0209808349609375,-0.2765655517578125,0.43692440753766276
1784709496.930934,-0.014648430049419403,-0.0224609375,0.9946288466453552,0.9949902576384159,0.0324249267578125,-0.1430511474609375,0.0896453857421875,0.17190492095924997
1784709496.93902,-0.00732421875,-0.015625,0.9819335341453552,0.9820851542939061,-0.3337860107421875,-0.2040863037109375,-0.1583099365234375,0.4220501822433341
1784709496.947106,-0.0014648400247097015,-0.012207034975290298,0.9951171278953552,0.9951930745789416,-0.2727508544921875,-0.0209808349609375,-0.1583099365234375,0.31606211424960656
1784709496.955192,-0.01318359375,-0.009765625,0.9843749403953552,0.9845116545039804,-0.1506805419921875,-0.0820159912109375,-0.2155303955078125,0.2754715955178066
1784709496.965877,-0.020507805049419403,-0.01123046875,0.9775390028953552,0.9778185903724346,-0.2727508544921875,0.1010894775390625,0.0896453857421875,0.30438200715581837
1784709496.976562,-0.0034179650247097015,-0.0234375037252903,0.9804686903953552,0.9807547358597694,0.152587890625,-0.14495849609375,0.1468658447265625,0.25664295490504985
1784709496.987247,-0.0161132775247097,-0.0209960900247097,0.9926757216453552,0.9930284798801295,0.1544952392578125,-0.0209808349609375,-0.0362396240234375,0.16006962465860577
1784709496.997741,-0.0078124962747097015,-0.013671878725290298,0.9946288466453552,0.9947534860180138,0.0324249267578125,0.1621246337890625,-0.1583099365234375,0.22890567655377606
1784709497.008237,-0.0053710900247097015,-0.0034179724752902985,0.9804686903953552,0.9804893594473518,-0.0896453857421875,-0.0820159912109375,0.1468658447265625,0.19061084530116573
1784709497.018733,-0.0063476525247097015,-0.0034179724752902985,0.9892577528953552,0.9892840223575755,-0.0896453857421875,-0.2040863037109375,-0.0934600830078125,0.2417070575367749
1784709497.026758,-0.0068359375,-0.00634765625,1.005859375,1.0059026319961404,-0.1506805419921875,0.1621246337890625,0.2117156982421875,0.30628836004405063
1784709497.034781,-0.0058593712747097015,-0.012207034975290298,0.9824218153953552,0.9825151231911539,0.091552734375,0.03814697265625,-0.1583099365234375,0.18681309027054502
1784709497.042804,-0.004882805049419403,-0.0166015625,0.9916991591453552,0.99185012774723,0.1544952392578125,-0.2040863037109375,0.1468658447265625,0.29510942828545567
1784709497.050827,-0.0063476525247097015,-0.014648433774709702,0.9790038466453552,0.9791340056657356,-0.0896453857421875,-0.2651214599609375,-0.0362396240234375,0.2822038165334493
1784709497.061528,0.0014648474752902985,-0.0239257849752903,0.9848632216453552,0.9851548884893572,0.091552734375,0.03814697265625,-0.2155303955078125,0.23725607701833493
1784709497.072229,-0.00732421875,-0.0107421875,0.9980468153953552,0.9981314965942079,-0.087738037109375,0.03814697265625,-0.0362396240234375,0.102305742888671
1784709497.08293,-0.0068359337747097015,-0.010742183774709702,0.9902343153953552,0.9903161736987485,-0.0896453857421875,-0.0209808349609375,0.0286102294921875,0.09641076626663293
1784709497.093549,-0.009765617549419403,-0.021484375,0.9873046278953552,0.9875866412213401,-0.0286102294921875,-0.0820159912109375,0.0896453857421875,0.12482573144497815
1784709497.104169,-0.009765617549419403,-0.0166015625,0.9843749403953552,0.9845633562356066,0.1544952392578125,0.1010894775390625,0.0896453857421875,0.20524170289518393
1784709497.114789,-0.010253902524709702,-0.0200195275247097,0.9897460341453552,0.9900015838905297,0.2155303955078125,0.1621246337890625,0.1468658447265625,0.30709497654022033
1784709497.122791,-0.0014648400247097015,-0.0185546912252903,0.9916991591453552,0.9918738047616584,-0.0286102294921875,0.2841949462890625,0.0286102294921875,0.2870607217287562
1784709497.130796,-0.00439453125,-0.0166015625,0.9931640028953552,0.9933124686771397,-0.213623046875,-0.08392333984375,-0.0934600830078125,0.24781589989852387
1784709497.138801,-0.01318359375,-0.021484375,0.9877929091453552,0.9881144755903284,-0.030517578125,-0.14495849609375,-0.0934600830078125,0.17515443265930902
1784709497.146806,-0.011230465024709702,-0.013183597475290298,0.9882811903953552,0.9884329222948425,0.091552734375,0.164031982421875,-0.0934600830078125,0.2098170191967678
1784709497.15746,-0.0078125,-0.021484375,0.9985350966453552,0.9987967524766685,0.1544952392578125,-0.0209808349609375,-0.0934600830078125,0.1817794309178407
1784709497.168114,-0.01318359375,-0.01806640625,0.9833983778953552,0.9836526682860017,0.2765655517578125,-0.0209808349609375,0.1468658447265625,0.31384435027893703
1784709497.178768,-0.005371086299419403,-0.015625,0.9873046278953552,0.9874428679455949,0.0324249267578125,0.0400543212890625,0.0896453857421875,0.1034022229647049
1784709497.189436,-0.00830078125,-0.02490234375,0.9892577528953552,0.9896059475150557,0.0324249267578125,0.1010894775390625,-0.2155303955078125,0.2402577984834711
1784709497.200103,-0.0214843712747097,-0.014648433774709702,0.9858397841453552,0.9861826579416625,-0.0286102294921875,0.1010894775390625,-0.0362396240234375,0.11113477426114819
1784709497.21077,-0.01416015625,-0.0205078125,0.9873046278953552,0.9876191111264228,-0.152587890625,-0.14495849609375,-0.0934600830078125,0.23028420933919003
1784709497.218783,-0.010253902524709702,-0.008789066225290298,0.9877929091453552,0.9878852269165395,-0.0286102294921875,-0.0209808349609375,-0.1583099365234375,0.16223679197182292
1784709497.226798,-0.011230465024709702,-0.0278320349752903,0.9809569716453552,0.9814159799672936,-0.0286102294921875,0.1010894775390625,-0.0362396240234375,0.11113477426114819
1784709497.234813,-0.019531242549419403,-0.01806640625,0.9863280653953552,0.9866868383924347,-0.3337860107421875,-0.2651214599609375,-0.0934600830078125,0.43639119676596355
1784709497.242828,-0.013671875,-0.0224609375,0.9868163466453552,0.9871666099934095,-0.0286102294921875,-0.0209808349609375,0.2727508544921875,0.2750486671363309
1784709497.253513,-0.00390625,-0.01318359375,0.9794921278953552,0.9795886353680296,-0.335693359375,0.03814697265625,-0.0934600830078125,0.35054245130531164
1784709497.264198,-0.0087890625,-0.02001953125,0.9936522841453552,0.9938927965522139,0.0324249267578125,0.1010894775390625,-0.0934600830078125,0.14143990052385264
1784709497.274883,-0.0078125,-0.0166015625,0.9990233778953552,0.9991918517557763,0.217437744140625,-0.14495849609375,0.1468658447265625,0.2997694355900421
1784709497.285517,-0.01416015625,-0.01220703125,0.9848632216453552,0.9850406524538117,0.152587890625,0.03814697265625,-0.1583099365234375,0.2231597900390625
1784709497.296152,-0.0161132775247097,-0.0258789025247097,0.9814452528953552,0.981918601381652,0.0324249267578125,-0.0209808349609375,-0.0934600830078125,0.10112545884560824
1784709497.306787,-0.015136715024709702,-0.0190429724752903,0.9960936903953552,0.9963906839126265,0.0324249267578125,-0.1430511474609375,0.1468658447265625,0.20756826109110987
1784709497.317435,0.00634765625,-0.025390625,0.9965819716453552,0.996925575349686,-0.0896453857421875,-0.0820159912109375,0.0896453857421875,0.15099408327495406
1784709497.328083,-0.0063476525247097015,-0.0229492224752903,0.9868163466453552,0.9871035718258144,0.091552734375,0.34332275390625,0.0286102294921875,0.35647014146055267
1784709497.338731,-0.010253898799419403,-0.01123046875,0.9956054091453552,0.9957215457086502,-0.0896453857421875,0.1621246337890625,-0.0362396240234375,0.18876970735651238
1784709497.346741,-0.010742183774709702,-0.015624996274709702,0.9833983778953552,0.983581163233645,0.152587890625,-0.14495849609375,-0.0934600830078125,0.23028420933919003
1784709497.354751,-0.0063476525247097015,-0.0175781287252903,0.9921874403953552,0.9923634415779049,0.0324249267578125,0.1621246337890625,0.1468658447265625,0.22114553828583994
1784709497.362761,-0.0234375,-0.01708984375,0.9824218153953552,0.982849938968485,-0.0896453857421875,-0.0209808349609375,0.0896453857421875,0.1285020848289602
1784709497.370771,-0.011718746274709702,-0.015624996274709702,0.9848632216453552,0.9850568688519987,0.091552734375,-0.14495849609375,0.0896453857421875,0.1934713517453337
1784709497.381518,0.0009765662252902985,-0.0190429724752903,0.9936522841453552,0.9938352228964159,-0.2727508544921875,0.1621246337890625,0.2117156982421875,0.3814458839594852
1784709497.392265,-0.013183590024709702,-0.0043945349752902985,0.9843749403953552,0.9844730276965173,-0.0286102294921875,0.2841949462890625,-0.0362396240234375,0.287921209842552
1784709497.403012,-0.0205078087747097,-0.0224609412252903,0.9916991591453552,0.9921654531130736,0.0324249267578125,-0.2040863037109375,0.0286102294921875,0.20861721038600378
1784709497.411054,-0.01416015625,-0.015625,0.9829100966453552,0.9831362615311298,-0.2727508544921875,0.0400543212890625,-0.0934600830078125,0.2910878980582551
1784709497.419097,-0.010253898799419403,-0.0166015625,0.9843749403953552,0.984568320431035,-0.213623046875,0.03814697265625,0.0896453857421875,0.2347898908894093
1784709497.42714,-0.01806640625,-0.017578125,0.9887694716453552,0.9890907205970242,0.152587890625,-0.14495849609375,0.1468658447265625,0.25664295490504985
1784709497.435183,-0.00830078125,-0.021484375,0.9829100966453552,0.9831799120333381,0.0324249267578125,0.1621246337890625,-0.0362396240234375,0.16926040028857087
1784709497.445728,-0.011230465024709702,-0.0166015662252903,0.9916991591453552,0.9919016874647449,-0.335693359375,-0.14495849609375,-0.1583099365234375,0.3984533010533222
1784709497.456273,-0.0078124962747097015,-0.0190429724752903,0.9838866591453552,0.9841019398126118,-0.213623046875,-0.08392333984375,-0.2765655517578125,0.3593973254572038
1784709497.466818,-0.010253902524709702,-0.0244140587747097,0.9956054091453552,0.9959574888027758,-0.1506805419921875,0.0400543212890625,-0.1583099365234375,0.2221958829299986
1784709497.477476,-0.014648430049419403,-0.0068359375,0.9853515028953552,0.9854840895735212,-0.0896453857421875,-0.0820159912109375,0.1468658447265625,0.19061084530116573
1784709497.488132,0.0039062537252902985,-0.013671878725290298,0.9804686903953552,0.9805717882601092,-0.030517578125,0.03814697265625,0.0286102294921875,0.056613243406890223
1784709497.498788,-0.0058593712747097015,-0.0043945349752902985,0.9902343153953552,0.9902614016288284,-0.0286102294921875,-0.0820159912109375,0.0286102294921875,0.09145333934583169
1784709497.506786,0.00634765625,-0.0205078125,0.9814452528953552,0.9816800128067349,-0.0896453857421875,-0.2651214599609375,0.2117156982421875,0.35092623241767146
1784709497.514782,-0.015136715024709702,-0.008789066225290298,0.9921874403953552,0.9923418184804762,0.274658203125,0.03814697265625,0.0896453857421875,0.29142514519436385
1784709497.522778,-0.00390625,-0.029296875,0.9843749403953552,0.9848185563606056,-0.213623046875,0.03814697265625,0.0896453857421875,0.2347898908894093
1784709497.530774,-0.0048828087747097015,-0.0239257849752903,0.9858397841453552,0.9861421626783711,-0.2117156982421875,0.1010894775390625,0.0286102294921875,0.23634966592507223
1784709497.541457,-0.00830078125,-0.0166015625,0.9980468153953552,0.998219395006735,-0.1506805419921875,0.0400543212890625,-0.2155303955078125,0.2660118902920336
1784709497.55214,-0.005859367549419403,-0.01611328125,0.9760741591453552,0.9762247354846285,-0.213623046875,-0.14495849609375,-0.2155303955078125,0.3363051042337512
1784709497.562823,-0.012207027524709702,-0.0322265662252903,0.9829100966453552,0.9835140167679582,-0.1506805419921875,-0.2651214599609375,0.0896453857421875,0.31785265368051274
1784709497.57349,-0.0009765550494194031,-0.01171875,0.9790038466453552,0.9790744683157299,-0.152587890625,-0.14495849609375,-0.0934600830078125,0.23028420933919003
1784709497.58416,0.00048828125,-0.005859375,0.9892577528953552,0.9892752257878176,-0.0896453857421875,-0.0820159912109375,0.0896453857421875,0.15099408327495406
1784709497.59483,-0.017578125,-0.015625,0.9804686903953552,0.9807507246742664,0.0324249267578125,-0.0209808349609375,-0.0934600830078125,0.10112545884560824
1784709497.605505,-0.019531242549419403,-0.02197265625,0.9809569716453552,0.9813973951859823,-0.0896453857421875,-0.0209808349609375,0.1468658447265625,0.17333801362589354
1784709497.616179,-0.00927734375,-0.009765625,0.9882811903953552,0.9883729801183138,0.0324249267578125,0.1010894775390625,0.0896453857421875,0.13894874425210083
1784709497.626853,-0.0009765550494194031,-0.021484375,0.9785155653953552,0.9787518805856247,0.091552734375,-0.08392333984375,0.0286102294921875,0.12745028589087
1784709497.634826,0.0,-0.02099609375,0.9985350966453552,0.9987558135927459,-0.0896453857421875,-0.0209808349609375,0.0896453857421875,0.1285020848289602
1784709497.642798,-0.00244140625,-0.0166015625,0.9868163466453552,0.9869590033777517,-0.087738037109375,0.03814697265625,0.0896453857421875,0.1311085422980072
1784709497.65077,-0.013671871274709702,-0.0190429724752903,0.9887694716453552,0.9890473309820323,0.0324249267578125,0.2231597900390625,-0.0934600830078125,0.24410336925441067
1784709497.658742,-0.0087890625,-0.01806640625,0.9868163466453552,0.987020843073187,0.1544952392578125,-0.0209808349609375,0.1468658447265625,0.21419278871202363
1784709497.669415,-0.01904296875,-0.0185546875,0.9907225966453552,0.9910792978317887,-0.0286102294921875,0.1621246337890625,0.1468658447265625,0.22061849074835052
1784709497.680088,-0.011230465024709702,-0.0214843787252903,0.9843749403953552,0.9846734104017647,0.3376007080078125,-0.0209808349609375,-0.2765655517578125,0.43692440753766276
1784709497.690761,-0.0175781212747097,-0.012695316225290298,0.9829100966453552,0.9831492356143039,0.091552734375,0.03814697265625,0.2117156982421875,0.23379613250982786
1784709497.698798,-0.0170898400247097,-0.0229492224752903,0.9916991591453552,0.992111864506163,-0.2727508544921875,0.1621246337890625,0.1468658447265625,0.349638387272769
1784709497.706835,-0.009765621274709702,-0.0244140587747097,0.9790038466453552,0.979356903978901,0.2155303955078125,-0.0820159912109375,0.0896453857421875,0.24741921790138344
1784709497.714872,-0.0009765550494194031,-0.01123046875,0.9858397841453552,0.9859042332254537,-0.1506805419921875,0.1621246337890625,0.0896453857421875,0.23879974413965063
1784709497.722909,-0.0087890625,-0.0146484375,0.9799804091453552,0.9801292907823529,-0.0286102294921875,-0.0820159912109375,-0.0362396240234375,0.09411948998623144
1784709497.730883,-0.0087890625,-0.0205078125,0.9833983778953552,0.9836514563809581,0.274658203125,0.09918212890625,-0.0362396240234375,0.2942575973319803
1784709497.738857,-0.01708984375,-0.02685546875,0.9863280653953552,0.9868415939489609,-0.1506805419921875,0.0400543212890625,-0.1583099365234375,0.2221958829299986
1784709497.746831,-0.012207027524709702,-0.0180664099752903,0.9868163466453552,0.9870571962641629,0.274658203125,-0.14495849609375,-0.0362396240234375,0.3126714001679329
1784709497.754805,-0.0224609337747097,-0.015136715024709702,0.9970702528953552,0.9974380697048708,0.0324249267578125,-0.0209808349609375,0.2117156982421875,0.2152094519139078
1784709497.765467,-0.0214843712747097,-0.0205078087747097,0.9736327528953552,0.9740856666332779,0.274658203125,0.22125244140625,0.1468658447265625,0.3820462638468365
1784709497.776129,-0.0073242150247097015,-0.015136715024709702,0.9868163466453552,0.9869596072149829,-0.0896453857421875,0.1621246337890625,-0.0934600830078125,0.20749814259874816
1784709497.786791,-0.011718746274709702,-0.0302734337747097,0.9863280653953552,0.9868621293743655,0.0324249267578125,0.2841949462890625,-0.0362396240234375,0.28832525682092564
1784709497.797446,-0.01416015625,-0.01708984375,0.9829100966453552,0.9831606333004823,-0.1506805419921875,-0.2651214599609375,0.1468658447265625,0.3384724370079861
1784709497.808099,-0.010253898799419403,-0.005859375,0.9824218153953552,0.982492797979041,0.091552734375,0.09918212890625,0.0896453857421875,0.16203485134618692
1784709497.818752,-0.012207027524709702,-0.0253906212747097,0.9887694716453552,0.9891707452343805,-0.0896453857421875,-0.0820159912109375,0.0286102294921875,0.12482573144497815
1784709497.829431,-0.0009765587747097015,-0.0180664099752903,0.9809569716453552,0.9811238092392122,0.2765655517578125,-0.0209808349609375,0.0896453857421875,0.29148755554847783
1784709497.840111,-0.0058593712747097015,-0.0073242224752902985,0.9956054091453552,0.9956495905619067,0.0324249267578125,-0.0209808349609375,0.0286102294921875,0.048063671754280675
1784709497.850791,-0.0053710900247097015,-0.014160159975290298,0.9887694716453552,0.9888854467512475,0.2765655517578125,-0.2040863037109375,-0.2765655517578125,0.44116689381752067
1784709497.858796,-0.0078125,-0.02001953125,0.9926757216453552,0.9929083065076284,0.0324249267578125,-0.0820159912109375,0.3948211669921875,0.40455129785310895
1784709497.866804,-0.0063476525247097015,-0.0053710900247097015,0.9814452528953552,0.9814804764902131,-0.0896453857421875,-0.2040863037109375,-0.0362396240234375,0.22583362215715075
1784709497.874812,-0.0180664025247097,-0.014160159975290298,0.9741210341453552,0.9743914481332063,0.091552734375,0.09918212890625,0.1468658447265625,0.19947073522991302
1784709497.88282,-0.015136711299419403,-0.0224609375,0.9897460341453552,0.9901165718483856,-0.1506805419921875,0.1621246337890625,-0.1583099365234375,0.2721232415990075
1784709497.893459,-0.004882805049419403,-0.02587890625,0.9819335341453552,0.9822866308023511,-0.152587890625,-0.14495849609375,-0.1583099365234375,0.26335919569516364
1784709497.904098,-0.00390625,-0.025390625,0.9853515028953552,0.9856863227645438,0.0324249267578125,0.0400543212890625,-0.2155303955078125,0.22160567663516886
1784709497.914737,-0.0024414025247097015,-0.0185546912252903,0.9912108778953552,0.9913875334453396,-0.213623046875,-0.14495849609375,-0.0934600830078125,0.2745588440785461
1784709497.922764,-0.00927734375,-0.01953125,0.9926757216453552,0.992911187960809,-0.030517578125,-0.26702880859375,-0.1583099365234375,0.3119258616974038
1784709497.930791,-0.0068359337747097015,-0.015136715024709702,0.9882811903953552,0.9884207410923609,-0.0896453857421875,0.1010894775390625,0.1468658447265625,0.19956190518541603
1784709497.938818,-0.0058593712747097015,-0.012695316225290298,0.9829100966453552,0.9830095428698424,0.0324249267578125,0.0400543212890625,-0.0362396240234375,0.06300027681317805
1784709497.946845,-0.0014648400247097015,-0.009277347475290298,0.9907225966453552,0.9907671161459641,-0.0896453857421875,0.1621246337890625,-0.0362396240234375,0.18876970735651238
1784709497.957535,-0.0185546875,-0.01806640625,0.9794921278953552,0.9798344248249209,-0.2117156982421875,-0.2040863037109375,-0.0362396240234375,0.2962905104689148
1784709497.968225,-0.0166015587747097,-0.0185546912252903,0.9946288466453552,0.9949404157532679,-0.087738037109375,-0.14495849609375,0.1468658447265625,0.2242331489606623
1784709497.978915,-0.0014648400247097015,-0.013183597475290298,0.9907225966453552,0.9908113930019192,0.0324249267578125,0.0400543212890625,-0.0362396240234375,0.06300027681317805
1784709497.986875,-0.0073242150247097015,-0.012695316225290298,0.9814452528953552,0.9815546849822561,0.0324249267578125,0.2231597900390625,0.1468658447265625,0.26911195460769616
1784709497.994838,-0.00830078125,-0.01708984375,0.9868163466453552,0.9869992237764149,-0.1506805419921875,0.1010894775390625,-0.0362396240234375,0.18503247972596626
1784709498.002801,-0.0058593712747097015,-0.010253902524709702,0.9863280653953552,0.9863987668966671,-0.213623046875,-0.08392333984375,0.0286102294921875,0.231293057306707
1784709498.018763,-0.0048828087747097015,-0.0190429724752903,0.9838866591453552,0.9840830425662427,0.0324249267578125,-0.1430511474609375,0.0896453857421875,0.17190492095924997
1784709498.026763,-0.0087890625,-0.01953125,0.9848632216453552,0.9850960779009627,-0.030517578125,0.22125244140625,0.2117156982421875,0.30774584040246356
1784709498.034763,-0.0185546875,-0.01318359375,0.9858397841453552,0.9861025116975153,-0.087738037109375,0.03814697265625,-0.0934600830078125,0.1337458103809983
1784709498.042763,-0.010742183774709702,-0.0175781287252903,0.9936522841453552,0.9938658093067767,0.2155303955078125,0.0400543212890625,0.0286102294921875,0.22107972605663587
1784709498.053451,-0.009765621274709702,-0.014160159975290298,0.9858397841453552,0.9859898364045988,0.091552734375,0.22125244140625,-0.2155303955078125,0.3221612909514728
1784709498.064139,-0.00830078125,-0.02978515625,0.9833983778953552,0.9838843571016938,-0.087738037109375,-0.14495849609375,-0.0362396240234375,0.1732750388686377
1784709498.074827,-0.017578125,-0.03076171875,0.9824218153953552,0.9830604748354371,-0.0896453857421875,-0.0209808349609375,0.0286102294921875,0.09641076626663293
1784709498.082832,-0.0166015587747097,-0.0273437537252903,0.9965819716453552,0.9970952406014598,0.335693359375,0.03814697265625,0.2117156982421875,0.3987088661335318
1784709498.090835,-0.0068359337747097015,-0.0180664099752903,0.9916991591453552,0.9918872654740417,0.0324249267578125,0.1010894775390625,-0.0934600830078125,0.14143990052385264
1784709498.098838,-0.0068359375,-0.00634765625,1.00146484375,1.0015082905540942,-0.0286102294921875,0.1621246337890625,-0.0362396240234375,0.16857120887682264
1784709498.106841,-0.00439453125,-0.02001953125,0.9902343153953552,0.9904464109293772,0.1544952392578125,-0.0209808349609375,-0.0934600830078125,0.1817794309178407
1784709498.117478,-0.010253902524709702,-0.0190429724752903,0.9975585341453552,0.9977929676861381,-0.0896453857421875,0.2231597900390625,0.0286102294921875,0.24218821669672472
1784709498.128115,-0.0185546837747097,-0.009277347475290298,0.9999999403953552,1.000215089996582,0.152587890625,0.03814697265625,0.0286102294921875,0.15986494650116168
1784709498.138752,0.00146484375,-0.017578125,0.9887694716453552,0.9889267942085311,0.091552734375,-0.14495849609375,0.2117156982421875,0.2724305519641254
1784709498.149432,-0.00927734375,-0.0166015625,0.9902343153953552,0.9904169224983007,-0.213623046875,-0.26702880859375,-0.1583099365234375,0.3768305013891668
1784709498.160113,-0.0024414025247097015,-0.0200195275247097,0.9902343153953552,0.9904396707094825,-0.030517578125,-0.14495849609375,-0.0362396240234375,0.15250442129242456
1784709498.170794,-0.00244140625,-0.015625,0.9941405653953552,0.9942663450273644,0.1544952392578125,-0.0209808349609375,-0.1583099365234375,0.2221958829299986
1784709498.17888,-0.011718746274709702,-0.012695316225290298,0.9746093153953552,0.9747624416870575,-0.2727508544921875,-0.0209808349609375,-0.0362396240234375,0.275946615147272
1784709498.186964,-0.00439453125,-0.021484375,0.9829100966453552,0.983154691979563,0.2155303955078125,0.1010894775390625,0.1468658447265625,0.27971773308841447
1784709498.195048,-0.00830078125,-0.0244140625,0.9829100966453552,0.9832482939240199,-0.0286102294921875,-0.2040863037109375,-0.1583099365234375,0.25986881420448177
1784709498.203132,-0.0209960900247097,-0.014648433774709702,0.9848632216453552,0.9851959083136946,-0.030517578125,0.03814697265625,0.0286102294921875,0.056613243406890223
1784709498.213712,-0.010742180049419403,-0.01123046875,0.9868163466453552,0.9869387113023,0.0324249267578125,-0.1430511474609375,-0.1583099365234375,0.21581715100333246
1784709498.224292,-0.0024414025247097015,-0.009765621274709702,0.9780272841453552,0.9780790849097573,0.030517578125,0.34332275390625,-0.1697540283203125,0.3842112258320421
1784709498.234872,-0.0014648400247097015,-0.010742183774709702,0.9902343153953552,0.9902936633418672,-0.091552734375,-0.20599365234375,-0.0476837158203125,0.2304105569019991
1784709498.24552,-0.00927734375,-0.01708984375,0.9833983778953552,0.983590616828806,0.213623046875,-0.02288818359375,0.0743865966796875,0.2273588372374519
1784709498.256166,-0.00927734375,-0.013671875,0.9658202528953552,0.9659615676495206,0.030517578125,0.03814697265625,-0.2956390380859375,0.29964805178380616
1784709498.266812,-0.0224609375,-0.00048828125,0.9931640028953552,0.9934180735113909,0.091552734375,-0.08392333984375,0.0743865966796875,0.14477014853779546
1784709498.274805,-0.009765621274709702,-0.013671878725290298,0.9809569716453552,0.9811008448912815,0.091552734375,-0.14495849609375,0.0743865966796875,0.18689096962370208
1784709498.282798,-0.0029296875,-0.01171875,0.9936522841453552,0.9937257035810697,-0.0324249267578125,-0.0247955322265625,0.0743865966796875,0.08485022132696238
1784709498.290791,0.0,-0.01611328125,0.9882811903953552,0.9884125399456959,-0.0324249267578125,-0.1430511474609375,0.0095367431640625,0.14698964635414863
1784709498.298784,-0.012695308774709702,-0.014648433774709702,0.9897460341453552,0.9899358360941359,0.213623046875,0.09918212890625,-0.0476837158203125,0.24030322013024868
1784709498.309459,-0.0068359337747097015,-0.015136715024709702,0.9921874403953552,0.9923264417572466,-0.091552734375,0.09918212890625,0.0095367431640625,0.13531425400190694
1784709498.320134,-0.014648430049419403,-0.0068359375,0.9882811903953552,0.9884133840826301,-0.0324249267578125,-0.1430511474609375,-0.0476837158203125,0.15423599910388208
1784709498.330809,-0.0205078087747097,-0.0185546912252903,0.9858397841453552,0.9862276242282846,0.030517578125,-0.14495849609375,-0.1087188720703125,0.1837500511799063
1784709498.341804,-0.00927734375,-0.02490234375,0.9873046278953552,0.9876622014104238,0.1506805419921875,-0.2079010009765625,-0.0476837158203125,0.2611535730112616
1784709498.3528,-0.01904296875,-0.02783203125,0.9858397841453552,0.9864164113730444,-0.0324249267578125,0.1583099365234375,-0.0476837158203125,0.1684848617286925
1784709498.363796,-0.011718746274709702,-0.0229492224752903,0.9814452528953552,0.9817834691301841,-0.152587890625,-0.02288818359375,-0.1087188720703125,0.1887504343249285
1784709498.371566,-0.0087890625,-0.0302734375,0.9965819716453552,0.9970804154361066,-0.213623046875,0.16021728515625,0.0095367431640625,0.26719905330890464
1784709498.379339,0.00537109375,-0.0244140625,0.9970702528953552,0.9973835692975059,0.091552734375,-0.08392333984375,0.0095367431640625,0.12456315511517102
1784709498.387112,-0.009765617549419403,-0.0166015625,0.9858397841453552,0.9860279200749457,-0.152587890625,-0.02288818359375,-0.2956390380859375,0.33348069532431196
1784709498.402862,-0.0053710900247097015,-0.014648433774709702,0.9892577528953552,0.9893807795200356,0.274658203125,0.09918212890625,-0.1697540283203125,0.3377730796987871
1784709498.410836,-0.00390625,-0.0107421875,0.9936522841453552,0.9937180259855556,0.030517578125,0.03814697265625,0.0743865966796875,0.08899370687323155
1784709498.41881,-0.010742183774709702,-0.0229492224752903,0.9838866591453552,0.984212893315607,0.213623046875,0.03814697265625,-0.1087188720703125,0.2427133923442135
1784709498.426784,-0.0063476525247097015,-0.0288085974752903,0.9848632216453552,0.9853049240365827,0.091552734375,-0.14495849609375,-0.1087188720703125,0.20301394510117282
1784709498.437448,-0.00830078125,-0.009765625,1.0009765625,1.0010586142056406,-0.2117156982421875,-0.0858306884765625,-0.0476837158203125,0.2333756215224076
1784709498.448112,-0.0161132775247097,-0.009765621274709702,0.9936522841453552,0.9938309045601023,0.030517578125,-0.32806396484375,0.0095367431640625,0.3296183202945401
1784709498.458776,-0.011230465024709702,-0.012207034975290298,0.9833983778953552,0.983538257870417,-0.091552734375,-0.20599365234375,-0.0476837158203125,0.2304105569019991
1784709498.466773,-0.0014648400247097015,-0.012207034975290298,0.9926757216453552,0.9927518550994063,-0.152587890625,-0.14495849609375,-0.2307891845703125,0.31234544605256925
1784709498.47477,-0.0004882737994194031,-0.015625,0.9941405653953552,0.9942634674978759,-0.0324249267578125,-0.1430511474609375,-0.1087188720703125,0.18257820190094262
1784709498.482767,0.0,-0.03857421875,0.9907225966453552,0.9914732643172423,0.030517578125,-0.02288818359375,-0.1087188720703125,0.11521711967879453
1784709498.490764,-0.00732421875,-0.021484375,0.9873046278953552,0.9875655172255785,0.335693359375,0.03814697265625,-0.0476837158203125,0.34120222714065324
1784709498.501561,-0.015136715024709702,-0.0180664099752903,0.9960936903953552,0.9963724982939726,0.030517578125,0.03814697265625,0.3185272216796875,0.3222516176040594
1784709498.512358,-0.0048828087747097015,-0.013183597475290298,1.0009765625,1.0010752857493972,-0.0324249267578125,0.0972747802734375,-0.2307891845703125,0.25254189051942416
1784709498.523155,-0.004882805049419403,-0.01025390625,0.9936522841453552,0.9937171862083377,0.274658203125,-0.14495849609375,0.1354217529296875,0.33880546822648067
1784709498.531109,-0.0087890625,-0.015625,0.9829100966453552,0.9830735711695288,-0.091552734375,0.09918212890625,-0.1087188720703125,0.17331702458257317
1784709498.539062,-0.0058593712747097015,-0.0234375037252903,0.9848632216453552,0.9851594866630864,0.3337860107421875,-0.0858306884765625,-0.2956390380859375,0.4540731757018056
1784709498.547015,-0.014648430049419403,-0.01171875,0.9711913466453552,0.9713725018772632,0.152587890625,0.16021728515625,-0.1087188720703125,0.2465206603359383
1784709498.554968,-0.0234375,-0.01708984375,0.9907225966453552,0.9911471347228749,-0.1544952392578125,-0.0858306884765625,-0.1697540283203125,0.2450553328712985
1784709498.565641,0.00146484375,-0.01513671875,0.9794921278953552,0.9796101748301206,0.030517578125,0.03814697265625,0.0095367431640625,0.04977412548332172
1784709498.576314,-0.004882805049419403,-0.01513671875,0.9853515028953552,0.9854798558559188,-0.213623046875,-0.20599365234375,-0.1697540283203125,0.3418839292699346
1784709498.586987,-0.00048827752470970154,-0.0200195275247097,0.9858397841453552,0.9860431531637012,-0.0324249267578125,-0.1430511474609375,0.0743865966796875,0.1644638940032945
1784709498.597579,-0.0073242150247097015,-0.007812503725290298,0.9843749403953552,0.9844331884991205,0.1506805419921875,-0.2651214599609375,0.3757476806640625,0.48392182611585177
1784709498.608171,-0.014648430049419403,-0.02099609375,0.9858397841453552,0.9861721413928869,-0.0324249267578125,-0.0247955322265625,-0.1697540283203125,0.17459273875113324
1784709498.618763,0.0029296912252902985,-0.015136715024709702,0.9819335341453552,0.9820545650378101,-0.091552734375,-0.02288818359375,-0.0476837158203125,0.10573319665172728
1784709498.629417,-0.0185546875,-0.017578125,0.9780272841453552,0.9783611988624026,0.152587890625,-0.14495849609375,0.1926422119140625,0.2853192103001325
1784709498.640071,-0.013671875,-0.02001953125,0.9960936903953552,0.9963886499970396,0.030517578125,0.16021728515625,0.1926422119140625,0.2524122082003903
1784709498.650725,0.0024414099752902985,-0.010253902524709702,0.9775390028953552,0.9775958291550241,0.2117156982421875,-0.0858306884765625,-0.1087188720703125,0.2530024448711488
1784709498.658734,-0.00341796875,-0.02197265625,0.9897460341453552,0.9899958041524799,-0.091552734375,-0.08392333984375,0.0095367431640625,0.12456315511517102
1784709498.666745,-0.012207027524709702,-0.0180664099752903,0.9907225966453552,0.9909624968655976,0.030517578125,0.03814697265625,-0.1087188720703125,0.11919021453833004
1784709498.674756,-0.0053710900247097015,-0.010253902524709702,0.9960936903953552,0.9961609464190401,-0.1544952392578125,-0.0858306884765625,0.1354217529296875,0.22265385063869605
1784709498.682767,-0.0053710900247097015,-0.0297851525247097,0.9838866591453552,0.9843520518407944,-0.0324249267578125,0.0972747802734375,0.1926422119140625,0.21823102566692393
1784709498.693518,-0.01220703125,-0.0107421875,0.9824218153953552,0.982556374753596,0.0286102294921875,-0.0858306884765625,0.1926422119140625,0.21282968337874986
1784709498.704269,-0.0058593712747097015,-0.0200195275247097,0.9975585341453552,0.997776599625526,0.030517578125,-0.20599365234375,-0.0476837158203125,0.21363156165455877
1784709498.71502,0.0024414099752902985,-0.0180664099752903,0.9907225966453552,0.9908903164103371,0.1506805419921875,-0.0858306884765625,-0.1087188720703125,0.20467370608766794
1784709498.723145,-0.0087890625,-0.01806640625,0.9960936903953552,0.9962962825885966,0.213623046875,-0.26702880859375,0.1354217529296875,0.36780190584294875
1784709498.731269,-0.0209960900247097,-0.014648433774709702,0.9829100966453552,0.9832434441661736,0.030517578125,-0.20599365234375,-0.1087188720703125,0.23491381509986634
1784709498.739393,-0.0004882737994194031,-0.01171875,0.9790038466453552,0.9790741030480113,-0.1544952392578125,0.0972747802734375,0.1926422119140625,0.2654094641148217
1784709498.747517,-0.00390625,-0.01220703125,0.9951171278953552,0.9951996626967383,0.091552734375,-0.14495849609375,-0.0476837158203125,0.17795675181271814
1784709498.75799,-0.0224609337747097,-0.007812503725290298,0.9902343153953552,0.990519827235678,-0.274658203125,0.09918212890625,-0.4138946533203125,0.5065402326423553
1784709498.768463,-0.010253902524709702,-0.0239257849752903,0.9985350966453552,0.9988743289003972,0.091552734375,-0.08392333984375,-0.1087188720703125,0.16506005963378856
1784709498.778936,-0.00439453125,-0.01611328125,0.9951171278953552,0.9952572772747003,-0.0324249267578125,-0.2079010009765625,0.1926422119140625,0.2852809560651547
1784709498.789543,0.00146484375,-0.01123046875,0.9853515028953552,0.9854165887855206,0.030517578125,-0.26702880859375,-0.1087188720703125,0.2899232662927452
1784709498.80015,-0.0180664025247097,-0.013183597475290298,0.9819335341453552,0.9821882037683831,0.030517578125,-0.02288818359375,0.3185272216796875,0.32080333924979254
1784709498.810757,-0.010742183774709702,-0.0190429724752903,0.9819335341453552,0.9821769162386844,-0.0324249267578125,0.1583099365234375,-0.0476837158203125,0.1684848617286925
1784709498.82142,-0.0068359337747097015,-0.0219726599752903,0.9887694716453552,0.9890372064967005,0.1506805419921875,-0.2651214599609375,0.0743865966796875,0.3138907135174038
1784709498.832084,-0.011718746274709702,-0.0195312462747097,0.9907225966453552,0.9909843904416505,0.030517578125,0.03814697265625,0.0743865966796875,0.08899370687323155
1784709498.842748,-0.00830078125,-0.01611328125,1.005859375,1.006022675230232,-0.0324249267578125,-0.0247955322265625,-0.2307891845703125,0.23437116291958313
1784709498.853473,-0.0180664025247097,-0.013671878725290298,1.00146484375,1.001721093136845,-0.0324249267578125,0.0400543212890625,-0.0476837158203125,0.07021012237284073
1784709498.864197,-0.011718746274709702,-0.008300784975290298,0.9863280653953552,0.9864326052153797,-0.0324249267578125,-0.0247955322265625,0.1926422119140625,0.19691931369165028
1784709498.874921,-0.0029296875,-0.02001953125,0.9829100966453552,0.9831183157625022,0.396728515625,-0.08392333984375,0.0743865966796875,0.4122741901285259
1784709498.882942,-0.00341796875,-0.0205078125,0.9985350966453552,0.9987515167029585,0.030517578125,-0.02288818359375,-0.1697540283203125,0.1739874180905336
1784709498.890964,-0.011230465024709702,-0.0170898474752903,0.9785155653953552,0.9787292260642836,0.091552734375,0.09918212890625,-0.1087188720703125,0.17331702458257317
1784709498.898986,-0.010253902524709702,-0.0190429724752903,0.9902343153953552,0.9904704825002049,-0.2765655517578125,-0.0858306884765625,0.1926422119140625,0.3478022905539964
1784709498.907008,-0.00927734375,-0.01904296875,0.9819335341453552,0.9821619872735131,0.030517578125,0.22125244140625,0.2574920654296875,0.34086086481449884
1784709498.91761,-0.0014648400247097015,-0.0288085974752903,0.9790038466453552,0.9794287175650883,-0.091552734375,0.03814697265625,0.0743865966796875,0.1239776611328125
1784709498.928212,-0.013671875,-0.01513671875,0.9946288466453552,0.9948379682137196,0.1506805419921875,-0.0247955322265625,-0.1087188720703125,0.1874546273040462
1784709498.938814,-0.0068359337747097015,-0.015624996274709702,0.9863280653953552,0.9864755055680303,0.091552734375,0.16021728515625,-0.0476837158203125,0.19059175844933787
1784709498.949452,-0.010253898799419403,-0.03173828125,0.9882811903953552,0.9888438563426246,-0.091552734375,0.34332275390625,0.0743865966796875,0.3630231153616768
1784709498.960091,-0.024414055049419403,-0.0361328125,0.9985350966453552,0.9994868510669188,0.213623046875,-0.20599365234375,0.0095367431640625,0.2969160494689593
1784709498.97073,-0.01904296875,-0.01708984375,0.9936522841453552,0.9939816694514515,-0.091552734375,-0.14495849609375,-0.1697540283203125,0.24127017820749108
1784709498.978741,-0.009765621274709702,-0.0180664099752903,0.9824218153953552,0.9826364464505587,0.030517578125,-0.14495849609375,0.0095367431640625,0.1484427082566015
1784709498.986752,-0.013671875,-0.01708984375,0.9804686903953552,0.9807129222004766,-0.0324249267578125,0.1583099365234375,0.0095367431640625,0.16187761224913594
1784709498.994763,-0.00732421875,-0.015625,0.9921874403953552,0.9923374938414775,0.030517578125,-0.20599365234375,0.1354217529296875,0.24840241252266965
1784709499.002774,-0.00244140625,-0.02197265625,0.9936522841453552,0.9938981939184918,-0.1544952392578125,-0.0858306884765625,-0.0476837158203125,0.18305579147386122
1784709499.012363,-0.0087890625,-0.01513671875,0.9912108778953552,0.9913654080772771,-0.0324249267578125,-0.0858306884765625,0.0095367431640625,0.09224550086474416
1784709499.021952,0.0,-0.015625,0.9882811903953552,0.9884047004715529,-0.0324249267578125,0.0972747802734375,-0.1087188720703125,0.14944414306601655
1784709499.031541,-0.010742183774709702,-0.0234375037252903,0.9863280653953552,0.9866649703317062,0.213623046875,0.09918212890625,-0.0476837158203125,0.24030322013024868
1784709499.04113,0.0063476599752902985,-0.014160159975290298,0.9858397841453552,0.9859619074393535,0.091552734375,0.16021728515625,0.1354217529296875,0.22888978308550112
1784709499.050719,-0.0161132775247097,-0.0180664099752903,0.9858397841453552,0.986136964567166,0.274658203125,-0.02288818359375,0.4405975341796875,0.5196991289364413
1784709499.06034,-0.0058593712747097015,-0.012207034975290298,0.9892577528953552,0.989350415979187,-0.152587890625,-0.02288818359375,-0.1087188720703125,0.1887504343249285
1784709499.06996,-0.012207027524709702,-0.014160159975290298,0.9829100966453552,0.9830878799674505,-0.0324249267578125,0.0400543212890625,-0.1087188720703125,0.12031424551323058
1784709499.07958,-0.0029296875,-0.00732421875,0.9882811903953552,0.9883126724566501,0.091552734375,0.16021728515625,-0.2956390380859375,0.3485023995251063
1784709499.0892,-0.00244140625,-0.01171875,0.9824218153953552,0.9824947393908761,0.030517578125,-0.02288818359375,0.0743865966796875,0.08359759140324069
1784709499.09882,-0.014648430049419403,-0.02685546875,0.9951171278953552,0.9955872091059605,-0.274658203125,0.03814697265625,-0.1087188720703125,0.29784578763335134
1784709499.108412,-0.012695308774709702,-0.0278320349752903,0.9873046278953552,0.9877784272291721,-0.213623046875,-0.14495849609375,0.0095367431640625,0.25833838510004176
1784709499.118003,-0.00927734375,-0.00634765625,0.9985350966453552,0.9985983682539606,-0.091552734375,-0.02288818359375,0.0095367431640625,0.09485104949307523
1784709499.127594,-0.00341796875,-0.02685546875,0.9873046278953552,0.9876757195434867,0.030517578125,-0.26702880859375,-0.1087188720703125,0.2899232662927452
1784709499.137185,-0.0004882737994194031,-0.02099609375,0.9736327528953552,0.9738592361705308,0.152587890625,-0.32806396484375,0.1354217529296875,0.3863263912301844
1784709499.146776,-0.02294921875,-0.01123046875,0.9833983778953552,0.9837302271033436,-0.0324249267578125,0.0400543212890625,0.0095367431640625,0.05240872064221987
1784709499.157446,0.0029296875,-0.01171875,0.9838866591453552,0.9839608072553594,0.1506805419921875,-0.0247955322265625,0.0743865966796875,0.16986114893949228
1784709499.168114,0.0029296875,-0.01611328125,0.9936522841453552,0.9937872421644237,-0.1544952392578125,-0.0858306884765625,0.0743865966796875,0.19175257965220688
1784709499.178782,0.00048828125,-0.00927734375,0.9814452528953552,0.9814892215182307,0.030517578125,0.03814697265625,0.1354217529296875,0.14396376371851874
1784709499.189447,-0.0126953125,-0.02001953125,0.9912108778953552,0.9914943051016598,0.213623046875,0.28228759765625,0.1926422119140625,0.4030286785798721
1784709499.200114,0.0,-0.01806640625,0.9750975966453552,0.9752649476005676,0.1506805419921875,-0.0247955322265625,-0.1697540283203125,0.22833281473417555
1784709499.210781,-0.010253902524709702,-0.0249023400247097,0.9902343153953552,0.9906004585311882,-0.0324249267578125,0.2803802490234375,0.0095367431640625,0.28241000228014523
1784709499.218775,-0.0195312462747097,-0.0244140587747097,0.9785155653953552,0.9790149271425284,-0.091552734375,-0.08392333984375,0.1354217529296875,0.1837500511799063
1784709499.226772,-0.00830078125,-0.02099609375,0.9887694716453552,0.989027202345797,-0.0324249267578125,0.2803802490234375,-0.0476837158203125,0.2862484876329072
1784709499.234769,0.0043945349752902985,-0.0185546912252903,0.9999999403953552,1.000181718136674,0.091552734375,-0.02288818359375,0.0095367431640625,0.09485104949307523
1784709499.242766,-0.0019531212747097015,-0.013183597475290298,0.9960936903953552,0.9961828456516113,0.030517578125,-0.14495849609375,-0.1697540283203125,0.22530139434843865
1784709499.253449,-0.011718746274709702,-0.0170898474752903,0.9819335341453552,0.9821521559209485,0.0286102294921875,0.0972747802734375,-0.0476837158203125,0.11204760088138212
1784709499.264132,-0.00048827752470970154,-0.008789066225290298,0.9785155653953552,0.9785551582925949,-0.0324249267578125,0.0400543212890625,0.0095367431640625,0.05240872064221987
1784709499.274815,-0.010253902524709702,-0.0185546912252903,0.9887694716453552,0.9889967073460291,-0.1544952392578125,-0.0858306884765625,-0.1697540283203125,0.2450553328712985
1784709499.282831,-0.00390625,-0.0205078125,0.9946288466453552,0.9948479138751145,0.1506805419921875,0.0972747802734375,-0.0476837158203125,0.18558217955056258
1784709499.290849,-0.00341796875,-0.009765625,0.9902343153953552,0.9902883667541109,-0.091552734375,0.03814697265625,-0.1087188720703125,0.14716279366272225
1784709499.298867,0.0068359412252902985,-0.0185546912252903,0.9853515028953552,0.9855498926574122,-0.091552734375,0.09918212890625,0.0743865966796875,0.15411801851666077
1784709499.306885,-0.0024414025247097015,-0.0200195275247097,0.9936522841453552,0.9938569332232291,-0.0324249267578125,-0.0247955322265625,0.1354217529296875,0.14143990052385264
1784709499.317505,-0.0058593712747097015,-0.0185546912252903,0.9873046278953552,0.9874963478726322,0.091552734375,-0.02288818359375,0.3757476806640625,0.3874172061798273
1784709499.328125,-0.0078125,-0.01611328125,0.9833983778953552,0.9835614076589766,-0.0324249267578125,0.0972747802734375,0.2574920654296875,0.27715685542981167
1784709499.338745,-0.009765617549419403,-0.01025390625,0.9838866591453552,0.9839885507076359,0.030517578125,-0.02288818359375,-0.2956390380859375,0.29808997360396927
1784709499.349412,-0.0126953125,-0.0224609375,0.9877929091453552,0.9881297971575878,0.213623046875,0.09918212890625,-0.1087188720703125,0.25940642627887117
1784709499.360077,-0.017578125,-0.01025390625,0.9882811903953552,0.988490690073083,-0.0324249267578125,-0.2651214599609375,-0.0476837158203125,0.2713199240039345
1784709499.370742,-0.015136715024709702,-0.013183597475290298,0.9916991591453552,0.9919022883498829,-0.1544952392578125,0.0972747802734375,0.0743865966796875,0.1971408826097742
1784709499.37875,-0.004882805049419403,-0.02197265625,1.00146484375,1.0017177609861188,-0.396728515625,0.09918212890625,0.1354217529296875,0.43077797178005883
1784709499.386759,-0.00927734375,-0.02099609375,0.9790038466453552,0.9792729123212878,-0.091552734375,-0.08392333984375,-0.2956390380859375,0.3206672277961177
1784709499.394768,-0.010253898799419403,-0.0166015625,0.9985350966453552,0.9987257348995163,-0.152587890625,0.16021728515625,0.1354217529296875,0.25940642627887117
1784709499.402777,-0.00732421875,-0.03076171875,0.9853515028953552,0.9858587686777894,-0.1544952392578125,-0.2079010009765625,-0.1697540283203125,0.30969022472683705
1784709499.413465,-0.012207027524709702,-0.0224609412252903,0.9931640028953552,0.9934929501757122,-0.152587890625,0.03814697265625,0.0743865966796875,0.1739874180905336
1784709499.424153,-0.005371086299419403,-0.015625,0.9809569716453552,0.9810961061041176,-0.213623046875,-0.02288818359375,0.0095367431640625,0.21505725882786877
1784709499.434841,0.00048828125,-0.021484375,0.9882811903953552,0.9885148092350362,-0.1544952392578125,-0.3910064697265625,-0.0476837158203125,0.42311768466443267
1784709499.44551,-0.0068359337747097015,-0.013671878725290298,0.9824218153953552,0.9825407236461787,-0.0324249267578125,0.0400543212890625,0.0095367431640625,0.05240872064221987
1784709499.456178,-0.0087890625,-0.0146484375,0.9877929091453552,0.9879406134473186,-0.2765655517578125,-0.0858306884765625,0.0743865966796875,0.2989795599519313
1784709499.466846,-0.015624992549419403,-0.00634765625,0.9829100966453552,0.9830547752894643,-0.274658203125,-0.26702880859375,0.0095367431640625,0.3831872422628768
1784709499.474835,-0.015136715024709702,-0.012695316225290298,0.9868163466453552,0.9870140795359938,0.274658203125,-0.02288818359375,-0.1697540283203125,0.3236934160946874
1784709499.482825,-0.0019531212747097015,-0.013183597475290298,0.9912108778953552,0.9913004723004952,-0.091552734375,0.09918212890625,0.0095367431640625,0.13531425400190694
1784709499.490815,0.0,-0.02197265625,0.9956054091453552,0.9958478439712418,0.091552734375,-0.08392333984375,0.3757476806640625,0.3957415187549711
1784709499.498805,-0.010742183774709702,-0.010253902524709702,0.9892577528953552,0.989369212525235,-0.213623046875,0.03814697265625,0.0095367431640625,0.21721175647089738
1784709499.509457,-0.0058593712747097015,-0.0175781287252903,1.00390625,1.004077228917318,0.274658203125,-0.32806396484375,-0.1087188720703125,0.44145541871982497
1784709499.520109,-0.010253902524709702,-0.007812503725290298,0.9799804091453552,0.9800651917296838,0.1506805419921875,0.0972747802734375,-0.0476837158203125,0.18558217955056258
1784709499.530761,-0.019531242549419403,-0.005859375,0.9951171278953552,0.9953260269588129,0.091552734375,-0.08392333984375,0.0743865966796875,0.14477014853779546
1784709499.541462,-0.0004882737994194031,-0.005859375,0.9912108778953552,0.9912283163554069,-0.1544952392578125,0.0972747802734375,0.1926422119140625,0.2654094641148217
1784709499.552166,-0.0229492150247097,-0.009277347475290298,0.9794921278953552,0.9798048602938233,-0.152587890625,0.16021728515625,-0.1087188720703125,0.2465206603359383
1784709499.56287,0.007812503725290298,-0.0200195275247097,0.9858397841453552,0.9860739813525813,0.030517578125,0.16021728515625,0.0095367431640625,0.16337640743887075
1784709499.570984,-0.00439453125,-0.01171875,0.9868163466453552,0.9868957103022363,0.274658203125,-0.02288818359375,0.0095367431640625,0.2757751746663435
1784709499.579099,-0.0078125,-0.02099609375,0.9916991591453552,0.9919521628378122,0.213623046875,0.16021728515625,0.0095367431640625,0.26719905330890464
1784709499.587214,-0.010253902524709702,-0.007812503725290298,0.9951171278953552,0.9952006209614948,0.091552734375,0.03814697265625,-0.1697540283203125,0.19660499694908432
1784709499.595329,-0.00830078125,-0.02294921875,0.9775390028953552,0.9778435824774027,-0.091552734375,-0.02288818359375,-0.1697540283203125,0.19422204367870805
1784709499.605828,0.00048828125,-0.01708984375,0.9892577528953552,0.9894054794883371,0.0286102294921875,-0.0858306884765625,0.2574920654296875,0.2729241947413289
1784709499.616327,-0.012695308774709702,-0.0278320349752903,0.9892577528953552,0.9897306172385083,0.030517578125,-0.02288818359375,-0.3528594970703125,0.35491550571305075
1784709499.626826,-0.00830078125,-0.0107421875,0.9931640028953552,0.9932567816072391,-0.0324249267578125,0.2803802490234375,0.0743865966796875,0.29188666581959655
1784709499.637465,-0.0009765587747097015,-0.0170898474752903,0.9863280653953552,0.9864765933058489,0.518798828125,0.03814697265625,-0.0476837158203125,0.5223802756049871
1784709499.648104,-0.0024414025247097015,-0.0200195275247097,0.9985350966453552,0.9987387451987377,-0.0324249267578125,-0.0247955322265625,0.0095367431640625,0.04191829867522413
1784709499.658743,0.00048828125,-0.021484375,0.9975585341453552,0.9977899808245969,0.030517578125,0.03814697265625,0.2574920654296875,0.2620852492161637
1784709499.666741,-0.015624996274709702,-0.0185546912252903,0.9897460341453552,0.9900432461168094,-0.2117156982421875,-0.0858306884765625,-0.0476837158203125,0.2333756215224076
1784709499.67474,-0.01171875,-0.01171875,0.9946288466453552,0.9947669077639216,0.152587890625,0.34332275390625,0.0095367431640625,0.3758251284644705
1784709499.682739,-0.004882805049419403,-0.00537109375,0.9863280653953552,0.986354775433143,0.3337860107421875,0.0972747802734375,-0.1087188720703125,0.36427362927979046
1784709499.690738,-0.0058593712747097015,-0.0180664099752903,0.9936522841453552,0.9938337834811272,0.152587890625,-0.14495849609375,-0.1697540283203125,0.2703931583567198
1784709499.701427,-0.005371086299419403,-0.02099609375,0.9946288466453552,0.9948649290732205,-0.091552734375,-0.14495849609375,0.0743865966796875,0.18689096962370208
1784709499.712116,-0.0205078087747097,-0.0297851525247097,0.9833983778953552,0.984063054473074,-0.091552734375,-0.26702880859375,0.0095367431640625,0.2824486453511756
1784709499.722805,-0.00927734375,-0.015625,0.9824218153953552,0.9825898600620511,0.030517578125,0.03814697265625,0.0743865966796875,0.08899370687323155
1784709499.733501,-0.0024414025247097015,-0.0195312462747097,0.9960936903953552,0.9962881461067219,-0.091552734375,0.22125244140625,0.1926422119140625,0.307319976264004
1784709499.744199,-0.017578125,-0.02099609375,0.9877929091453552,0.9881723826282125,-0.1544952392578125,-0.2079010009765625,0.1354217529296875,0.29228523111326493
1784709499.754897,-0.0161132775247097,-0.0239257849752903,0.9960936903953552,0.9965112748708416,-0.0324249267578125,0.1583099365234375,-0.1697540283203125,0.23437116291958313
1784709499.762907,-0.01708984375,-0.01171875,0.9931640028953552,0.9933801530673376,-0.152587890625,0.03814697265625,-0.1697540283203125,0.2314188540702704
1784709499.770917,-0.015136711299419403,-0.01708984375,0.9892577528953552,0.9895211389616339,-0.0324249267578125,-0.1430511474609375,0.0743865966796875,0.1644638940032945
1784709499.778927,-0.0029296837747097015,-0.0185546912252903,0.9902343153953552,0.9904124691258654,-0.0324249267578125,-0.1430511474609375,0.0095367431640625,0.14698964635414863
1784709499.786937,-0.01416015625,-0.0029296875,0.9912108778953552,0.9913163458512892,0.030517578125,0.03814697265625,0.0743865966796875,0.08899370687323155
1784709499.797885,-0.020019523799419403,-0.0166015625,0.9951171278953552,0.9954569259597814,-0.152587890625,0.03814697265625,0.0095367431640625,0.15757285730226808
1784709499.808833,-0.01416015625,-0.0263671875,0.9941405653953552,0.9945909723933156,0.1506805419921875,0.0972747802734375,0.1354217529296875,0.22473553296898613
1784709499.819781,-0.01171875,-0.02099609375,0.9785155653953552,0.9788109504778301,-0.091552734375,-0.02288818359375,0.1354217529296875,0.16506005963378856
1784709499.83012,-0.00341796875,-0.01806640625,0.9990233778953552,0.9991925675897573,-0.152587890625,0.03814697265625,0.0095367431640625,0.15757285730226808
1784709499.840459,-0.010742183774709702,-0.0219726599752903,0.9941405653953552,0.9944413788973364,-0.0324249267578125,-0.2079010009765625,-0.1087188720703125,0.23684170922062509
1784709499.850798,-0.0024414025247097015,-0.0229492224752903,0.9829100966453552,0.9831810033487677,0.091552734375,-0.14495849609375,-0.2307891845703125,0.2875039416702505
1784709499.858788,-0.0161132775247097,-0.0185546912252903,0.9824218153953552,0.9827291272999694,-0.091552734375,0.16021728515625,0.0095367431640625,0.1847767060658776
1784709499.866779,-0.012207027524709702,-0.012695316225290298,0.9824218153953552,0.98257966900387,-0.335693359375,0.03814697265625,0.0095367431640625,0.3379884206914297
1784709499.87477,-0.0024414025247097015,-0.0180664099752903,0.9819335341453552,0.982102754855555,0.213623046875,-0.20599365234375,0.0743865966796875,0.305943714966761
1784709499.882761,-0.0078125,-0.0166015625,0.9873046278953552,0.9874751011024416,-0.091552734375,-0.02288818359375,-0.0476837158203125,0.10573319665172728
1784709499.893437,0.0009765625,-0.021484375,0.9848632216453552,0.9850980141047515,-0.1544952392578125,-0.0858306884765625,-0.1087188720703125,0.20749814259874816
1784709499.904113,0.0009765625,-0.02490234375,0.9897460341453552,0.9900597418868309,-0.091552734375,0.09918212890625,0.0743865966796875,0.15411801851666077
1784709499.914789,0.0039062537252902985,-0.0224609412252903,0.9848632216453552,0.9851270568046339,-0.213623046875,0.03814697265625,0.1354217529296875,0.2557910257330082
1784709499.922785,-0.0063476525247097015,-0.0170898474752903,0.9833983778953552,0.9835673465637821,0.152587890625,0.16021728515625,-0.1087188720703125,0.2465206603359383
1784709499.93078,-0.012207027524709702,-0.014648433774709702,0.9838866591453552,0.9840714131490913,0.091552734375,-0.14495849609375,-0.1697540283203125,0.24127017820749108
1784709499.938775,-0.00439453125,-0.01025390625,0.9746093153953552,0.9746731617079102,0.1506805419921875,0.0972747802734375,0.0095367431640625,0.17960500572779764
1784709499.94677,-0.01416015625,-0.01025390625,0.9736327528953552,0.9737897052901083,0.091552734375,0.03814697265625,0.0743865966796875,0.1239776611328125
1784709499.957443,-0.00927734375,-0.02734375,0.9931640028953552,0.9935836584899348,-0.0324249267578125,0.0972747802734375,0.1354217529296875,0.16986114893949228
1784709499.968116,-0.0078125,-0.0126953125,0.9902343153953552,0.9903465077952416,-0.091552734375,0.03814697265625,-0.1087188720703125,0.14716279366272225
1784709499.978789,-0.015136715024709702,-0.0029296912252902985,0.9868163466453552,0.9869367787446675,-0.091552734375,0.16021728515625,-0.2956390380859375,0.3485023995251063
1784709499.989454,-0.008789058774709702,-0.0190429724752903,0.9819335341453552,0.9821574964505578,-0.152587890625,0.03814697265625,-0.1697540283203125,0.2314188540702704
1784709500.000119,-0.0009765587747097015,-0.015624996274709702,0.9853515028953552,0.9854758639529232,-0.0324249267578125,-0.0858306884765625,-0.3528594970703125,0.36459307128951873
1784709500.010784,-0.013671875,-0.0224609375,0.9765624403953552,0.9769163801832408,0.1506805419921875,-0.2079010009765625,-0.0476837158203125,0.2611535730112616
1784709500.021445,-0.009765617549419403,-0.0048828125,0.9902343153953552,0.9902945059579698,-0.0324249267578125,-0.1430511474609375,-0.0476837158203125,0.15423599910388208
1784709500.032105,-0.0161132775247097,-0.014648433774709702,0.9912108778953552,0.9914500586427544,-0.0324249267578125,0.1583099365234375,0.0743865966796875,0.17789541209061804
1784709500.042765,-0.005371086299419403,-0.01220703125,0.9877929091453552,0.9878829341262143,-0.0324249267578125,0.0400543212890625,-0.0476837158203125,0.07021012237284073
1784709500.053443,-0.00390625,-0.01513671875,1.001953125,1.0020750689149216,0.1506805419921875,0.0400543212890625,0.0095367431640625,0.15620474979706642
1784709500.064122,-0.010253902524709702,-0.0048828087747097015,0.9824218153953552,0.9824874593109176,0.213623046875,0.16021728515625,0.0743865966796875,0.27719623082679906
1784709500.074801,-0.009765621274709702,-0.013183597475290298,0.9755858778953552,0.9757238235023896,0.091552734375,-0.26702880859375,-0.0476837158203125,0.2862866125842583
1784709500.082787,-0.00830078125,-0.02490234375,0.9790038466453552,0.9793556868880712,0.152587890625,0.16021728515625,-0.0476837158203125,0.22633245366641172
1784709500.090773,-0.00732421875,-0.0166015625,0.9848632216453552,0.9850303657285938,0.030517578125,-0.14495849609375,-0.1697540283203125,0.22530139434843865
1784709500.098759,-0.00390625,-0.0087890625,1.00146484375,1.0015110282347885,0.030517578125,-0.02288818359375,0.0743865966796875,0.08359759140324069
1784709500.106745,-0.009765617549419403,-0.017578125,0.9882811903953552,0.988485745498587,-0.091552734375,-0.02288818359375,0.1354217529296875,0.16506005963378856
1784709500.117438,-0.00927734375,-0.00830078125,0.9814452528953552,0.9815242006732405,-0.091552734375,-0.20599365234375,-0.1697540283203125,0.2821909249221713
1784709500.128131,-0.00390625,-0.013671875,0.9926757216453552,0.9927775517703877,-0.2117156982421875,-0.0858306884765625,0.0743865966796875,0.2402577984834711
1784709500.138824,-0.015136711299419403,-0.0107421875,0.9897460341453552,0.9899200607764779,-0.0324249267578125,-0.4482269287109375,0.2574920654296875,0.5179391076720659
1784709500.149458,0.0068359412252902985,-0.0195312462747097,0.9916991591453552,0.9919150275719607,-0.091552734375,0.16021728515625,0.1354217529296875,0.22888978308550112
1784709500.160095,-0.020019523799419403,-0.01025390625,0.9794921278953552,0.9797503521487043,0.030517578125,-0.14495849609375,-0.2956390380859375,0.3306761693934953
1784709500.170732,-0.0053710900247097015,-0.015136715024709702,0.9838866591453552,0.9840177471946333,0.030517578125,-0.20599365234375,0.0743865966796875,0.22112908706481768
1784709500.17875,-0.0048828087747097015,-0.0190429724752903,0.9916991591453552,0.9918939957837378,0.1506805419921875,-0.2651214599609375,-0.1697540283203125,0.349013530393668
1784709500.186768,-0.015624992549419403,-0.0166015625,0.9794921278953552,0.9797574091981044,-0.0324249267578125,0.0400543212890625,0.0743865966796875,0.09049359256192366
1784709500.194786,-0.014648430049419403,-0.0205078125,0.9941405653953552,0.9944599592950157,0.030517578125,-0.14495849609375,-0.1087188720703125,0.1837500511799063
1784709500.202804,-0.012207027524709702,-0.0073242224752902985,0.9873046278953552,0.9874072533759525,0.1506805419921875,0.0972747802734375,-0.0476837158203125,0.18558217955056258
1784709500.209274,-0.011718746274709702,-0.0249023400247097,0.9912108778953552,0.9915928902584155,0.335693359375,0.03814697265625,0.0743865966796875,0.3459459333723929
1784709500.215744,-0.0087890625,-0.017578125,0.9829100966453552,0.9831065538310311,-0.152587890625,0.22125244140625,0.1926422119140625,0.3306761693934953
1784709500.222214,-0.00927734375,-0.017578125,0.9931640028953552,0.9933628723848584,-0.0324249267578125,-0.0247955322265625,0.0743865966796875,0.08485022132696238
1784709500.228684,-0.0078125,-0.02001953125,0.9916991591453552,0.9919319729887349,-0.0324249267578125,0.1583099365234375,-0.0476837158203125,0.1684848617286925
1784709500.235154,-0.0078125,-0.01611328125,0.9829100966453552,0.983073207384004,0.091552734375,-0.20599365234375,0.0095367431640625,0.2256241065303846
1784709500.247077,-0.015624996274709702,-0.0175781287252903,0.9941405653953552,0.9944187221098887,-0.213623046875,0.09918212890625,-0.0476837158203125,0.24030322013024868
1784709500.259,-0.0073242150247097015,-0.0195312462747097,0.9785155653953552,0.9787378737066239,-0.091552734375,0.09918212890625,0.3185272216796875,0.3459459333723929
1784709500.270923,-0.0004882737994194031,-0.021484375,0.9873046278953552,0.9875384777536669,0.1506805419921875,-0.0858306884765625,0.1926422119140625,0.25919597726539406
1784709500.282846,-0.009765621274709702,-0.0244140587747097,0.9902343153953552,0.9905833700457746,0.091552734375,0.09918212890625,0.0095367431640625,0.13531425400190694
1784709500.291008,-0.013671875,-0.02490234375,0.9897460341453552,0.9901536542359057,-0.0324249267578125,0.0400543212890625,0.0743865966796875,0.09049359256192366
1784709500.29917,-0.0126953125,-0.01171875,0.9882811903953552,0.9884321986612412,0.030517578125,-0.14495849609375,0.2574920654296875,0.29706304368538283
1784709500.307332,-0.00341796875,-0.0126953125,0.9897460341453552,0.989833352426714,0.030517578125,-0.20599365234375,-0.1087188720703125,0.23491381509986634
1784709500.315494,-0.013671875,-0.01708984375,0.9941405653953552,0.9943814392324565,0.030517578125,-0.02288818359375,0.0095367431640625,0.03932099938981686
1784709500.325922,-0.010253902524709702,-0.0239257849752903,0.9863280653953552,0.9866714946172379,0.030517578125,-0.20599365234375,0.0095367431640625,0.2084602044772827
1784709500.33635,-0.009765617549419403,-0.021484375,0.9843749403953552,0.9846577928060191,-0.2765655517578125,-0.0858306884765625,0.0095367431640625,0.2897349840347922
1784709500.346778,-0.0068359375,-0.01611328125,0.9907225966453552,0.9908772029761613,-0.152587890625,-0.02288818359375,-0.0476837158203125,0.16149510849570797
1784709500.357443,-0.00439453125,-0.02294921875,0.9970702528953552,0.9973440067273429,-0.0324249267578125,-0.0247955322265625,0.0743865966796875,0.08485022132696238
1784709500.368108,-0.012695308774709702,-0.0029296912252902985,0.9970702528953552,0.9971553756383046,0.091552734375,0.16021728515625,-0.2956390380859375,0.3485023995251063
1784709500.378773,0.00048828125,-0.017578125,0.9794921278953552,0.9796499668279817,0.213623046875,0.16021728515625,0.0095367431640625,0.26719905330890464
1784709500.386815,-0.00927734375,-0.0244140625,0.9843749403953552,0.9847213508567633,-0.0324249267578125,0.1583099365234375,0.0743865966796875,0.17789541209061804
1784709500.394856,-0.010253902524709702,-0.012695316225290298,0.9853515028953552,0.9854866299596263,-0.213623046875,-0.02288818359375,0.0095367431640625,0.21505725882786877
1784709500.402897,-0.005371086299419403,-0.01611328125,0.9956054091453552,0.995750278493643,0.030517578125,0.03814697265625,0.1354217529296875,0.14396376371851874
1784709500.410938,-0.009765617549419403,-0.0166015625,0.9902343153953552,0.9904216165603772,0.091552734375,0.09918212890625,0.1354217529296875,0.19120159265148556
1784709500.421547,-0.011230465024709702,-0.0219726599752903,0.9848632216453552,0.9851723130908263,0.1506805419921875,-0.0858306884765625,-0.0476837158203125,0.17984790678195958
1784709500.432156,-0.01416015625,-0.01318359375,0.9819335341453552,0.9821241177409182,0.030517578125,0.16021728515625,0.0095367431640625,0.16337640743887075
1784709500.442765,0.0034179724752902985,-0.0185546912252903,0.9907225966453552,0.9909022265622491,0.0286102294921875,-0.0858306884765625,-0.1087188720703125,0.14143990052385264
1784709500.453451,-0.00439453125,-0.01708984375,0.9941405653953552,0.9942971580110763,-0.091552734375,-0.14495849609375,-0.2918243408203125,0.3384616886096726
1784709500.464137,-0.013671871274709702,-0.0288085974752903,0.9892577528953552,0.9897715680985251,0.1506805419921875,-0.0247955322265625,-0.1697540283203125,0.22833281473417555
1784709500.474823,-0.0053710900247097015,-0.015136715024709702,0.9892577528953552,0.9893881293068765,0.030517578125,-0.26702880859375,0.0743865966796875,0.27887106870236567
1784709500.485482,-0.0185546837747097,-0.013671878725290298,0.9999999403953552,1.000265503428251,0.030517578125,0.03814697265625,0.0133514404296875,0.050643608273894324
1784709500.496143,-0.010742183774709702,-0.0327148474752903,0.9799804091453552,0.980585161047361,-0.091552734375,0.16021728515625,-0.1697540283203125,0.2507347438337015
1784709500.506804,-0.0058593712747097015,-0.008789066225290298,1.00146484375,1.0015205505550344,0.091552734375,-0.26702880859375,-0.1697540283203125,0.329397507460986
1784709500.514811,-0.0214843712747097,-0.0195312462747097,0.9960936903953552,0.996516777498277,0.1506805419921875,-0.0247955322265625,0.1354217529296875,0.20410412862068028
1784709500.522819,-0.009765617549419403,-0.01123046875,0.9819335341453552,0.9820463106155706,0.091552734375,0.09918212890625,0.1964569091796875,0.23835753613081187
1784709500.530827,-0.014648430049419403,-0.02099609375,0.9916991591453552,0.9920295533426794,-0.0324249267578125,0.0400543212890625,0.0743865966796875,0.09049359256192366
1784709500.538835,-0.012695308774709702,-0.0195312462747097,0.9926757216453552,0.9929490061378053,-0.213623046875,-0.02288818359375,0.0133514404296875,0.21526015903071136
1784709500.549475,-0.004882805049419403,-0.025390625,0.9809569716453552,0.9812976642398918,0.213623046875,-0.20599365234375,0.0743865966796875,0.305943714966761
1784709500.560115,-0.0126953125,-0.01513671875,0.9956054091453552,0.9958013968324605,0.091552734375,-0.38909912109375,0.1354217529296875,0.4220415623774717
1784709500.570755,-0.011718746274709702,-0.008789066225290298,0.9941405653953552,0.994248480242218,0.030517578125,0.16021728515625,-0.1087188720703125,0.19601197458751232
1784709500.58145,0.0,-0.02099609375,0.9848632216453552,0.9850870018949732,-0.0324249267578125,0.0400543212890625,0.0743865966796875,0.09049359256192366
1784709500.592148,-0.0078124962747097015,-0.0234375037252903,0.9877929091453552,0.9881018080323299,-0.091552734375,0.09918212890625,0.0133514404296875,0.13563649519013235
1784709500.602846,-0.01318359375,-0.021484375,1.0009765625,1.0012938950116603,0.213623046875,0.09918212890625,-0.1697540283203125,0.290324527006431
1784709500.610843,-0.0053710900247097015,-0.013183597475290298,0.9863280653953552,0.9864307925227133,0.091552734375,0.03814697265625,-0.0476837158203125,0.11004922284509015
1784709500.618839,-0.009765621274709702,-0.0190429724752903,0.9824218153953552,0.9826548862771106,-0.1544952392578125,0.0972747802734375,0.0743865966796875,0.1971408826097742
1784709500.626835,-0.00048827752470970154,-0.0034179724752902985,0.9951171278953552,0.995123117599769,0.213623046875,0.16021728515625,-0.3528594970703125,0.44250899345856404
1784709500.634831,-0.01318359375,-0.0078125,0.9975585341453552,0.9976762357331385,-0.0324249267578125,-0.0858306884765625,-0.2307891845703125,0.24835847212092443
1784709500.64547,-0.0073242150247097015,-0.0239257849752903,0.9892577528953552,0.989574145264507,0.091552734375,-0.08392333984375,0.0743865966796875,0.14477014853779546
1784709500.656109,-0.00390625,-0.0048828125,0.9804686903953552,0.9804886299659755,-0.0324249267578125,-0.0858306884765625,0.0743865966796875,0.11811709751427488
1784709500.666748,-0.0029296875,-0.02001953125,0.9975585341453552,0.9977636963462577,0.1506805419921875,-0.0247955322265625,-0.1087188720703125,0.1874546273040462
1784709500.677437,0.0034179724752902985,-0.0219726599752903,0.9941405653953552,0.9943892316828598,0.030517578125,-0.14495849609375,-0.0476837158203125,0.15562141536051372
1784709500.688124,-0.0048828087747097015,-0.008789066225290298,0.9829100966453552,0.9829615188775319,-0.1544952392578125,-0.0858306884765625,-0.1087188720703125,0.20749814259874816
1784709500.698811,-0.011718746274709702,-0.0068359412252902985,0.9863280653953552,0.9864213661986599,0.274658203125,0.03814697265625,0.1354217529296875,0.3085958055989092
1784709500.706801,-0.0078124962747097015,-0.013671878725290298,0.9804686903953552,0.9805951296082926,-0.1544952392578125,0.0972747802734375,0.0133514404296875,0.18305579147386122
1784709500.714794,0.0039062537252902985,-0.0180664099752903,0.9848632216453552,0.9850366588798762,0.1506805419921875,-0.0247955322265625,0.0133514404296875,0.15328961189527937
1784709500.722787,-0.00927734375,-0.01513671875,0.9843749403953552,0.9845350235720065,0.1506805419921875,0.0972747802734375,-0.2307891845703125,0.29228523111326493
1784709500.73078,-0.01708984375,-0.03173828125,0.9833983778953552,0.984058814758203,0.213623046875,0.28228759765625,-0.1087188720703125,0.37032538002537213
1784709500.741452,0.0009765625,-0.017578125,0.9907225966453552,0.9908790075768823,0.1506805419921875,0.2231597900390625,0.0743865966796875,0.2793533307317533
1784709500.752124,-0.011718746274709702,-0.0200195275247097,0.9960936903953552,0.9963637641654786,0.1506805419921875,0.0972747802734375,-0.0476837158203125,0.18558217955056258
1784709500.762796,-0.010742183774709702,-0.0200195275247097,0.9921874403953552,0.9924475265085045,-0.0324249267578125,-0.0247955322265625,-0.1087188720703125,0.1161291842642881
1784709500.770854,-0.00830078125,-0.01806640625,0.9926757216453552,0.9928748090007506,-0.213623046875,-0.14495849609375,-0.0476837158203125,0.2625290622014113
1784709500.778913,-0.008789058774709702,-0.009277347475290298,0.9775390028953552,0.9776225339628623,0.0286102294921875,0.0972747802734375,-0.3528594970703125,0.367138601595576
1784709500.786972,-0.0029296837747097015,-0.0195312462747097,0.9775390028953552,0.9777384899909118,-0.0324249267578125,-0.0858306884765625,-0.1087188720703125,0.14226059223780563
1784709500.803003,-0.014648430049419403,-0.0068359375,0.9902343153953552,0.9903662483803275,0.091552734375,-0.20599365234375,-0.0476837158203125,0.2304105569019991
1784709500.810974,-0.0170898400247097,-0.0253906212747097,0.9892577528953552,0.9897310988063139,0.1506805419921875,0.0972747802734375,0.0133514404296875,0.17984790678195958
1784709500.818945,-0.015136711299419403,-0.0166015625,0.9985350966453552,0.9987878008560939,-0.0324249267578125,-0.0247955322265625,0.3185272216796875,0.32113203708852966
1784709500.826916,-0.0161132775247097,-0.0234375037252903,0.9882811903953552,0.9886903790280968,0.030517578125,-0.26702880859375,0.0133514404296875,0.2690984358095761
1784709500.837576,-0.01318359375,-0.02197265625,0.9902343153953552,0.9905658000119697,-0.274658203125,0.09918212890625,-0.1087188720703125,0.3115991276985074
1784709500.848236,-0.0014648400247097015,-0.012207034975290298,0.9863280653953552,0.9864046887792708,-0.1544952392578125,-0.0858306884765625,0.1964569091796875,0.26425556418385104
1784709500.858896,-0.0048828087747097015,-0.0180664099752903,0.9921874403953552,0.9923639220916952,-0.0324249267578125,-0.2079010009765625,0.1354217529296875,0.2502264039801865
1784709500.866871,-0.0175781212747097,-0.0034179724752902985,0.9824218153953552,0.9825850071358181,0.1506805419921875,0.0972747802734375,-0.1087188720703125,0.2097303071960414
1784709500.874846,-0.0087890625,-0.017578125,0.9877929091453552,0.9879883954055273,0.0286102294921875,0.0972747802734375,0.1964569091796875,0.22107972605663587
1784709500.882821,-0.0048828087747097015,-0.014648433774709702,0.9863280653953552,0.9864489196203352,-0.0324249267578125,-0.3299713134765625,0.0743865966796875,0.33980260351898994
1784709500.890796,-0.009765617549419403,-0.021484375,0.9970702528953552,0.9973495048698173,0.1506805419921875,0.0400543212890625,-0.4138946533203125,0.44228696390028105
1784709500.901615,-0.010742183774709702,-0.012207034975290298,0.9814452528953552,0.9815799461307089,-0.091552734375,-0.14495849609375,0.0743865966796875,0.18689096962370208
1784709500.912434,-0.005859367549419403,-0.0166015625,0.9838866591453552,0.9840441565853277,0.091552734375,-0.14495849609375,-0.0476837158203125,0.17795675181271814
1784709500.923253,-0.011718746274709702,-0.008789066225290298,0.9853515028953552,0.9854603802068852,0.091552734375,0.28228759765625,0.1964569091796875,0.35589817100753995
1784709500.933802,-0.01416015625,-0.0087890625,0.9902343153953552,0.9903745539093587,0.091552734375,0.09918212890625,0.1354217529296875,0.19120159265148556
1784709500.944352,0.00048828125,-0.01953125,0.9838866591453552,0.9840806197610793,0.091552734375,-0.14495849609375,0.1354217529296875,0.2184809372184456
1784709500.954902,-0.00830078125,-0.0126953125,0.9882811903953552,0.9883975845873427,-0.152587890625,0.03814697265625,0.1964569091796875,0.2516616241159141
1784709500.962857,-0.011230465024709702,-0.0239257849752903,0.9760741591453552,0.9764319385818283,-0.1544952392578125,-0.2651214599609375,0.1354217529296875,0.3354060504100918
1784709500.970813,-0.0068359337747097015,-0.0180664099752903,0.9848632216453552,0.9850526333702355,-0.0324249267578125,0.1583099365234375,0.0133514404296875,0.1621470716320582
1784709500.978769,-0.00341796875,-0.017578125,0.9916991591453552,0.9918608245305871,0.1506805419921875,-0.0858306884765625,-0.1087188720703125,0.20467370608766794
1784709500.986725,-0.015624996274709702,-0.010253902524709702,0.9877929091453552,0.9879696930490403,-0.091552734375,-0.02288818359375,0.1964569091796875,0.2179474461520403
1784709500.997417,-0.0185546837747097,-0.008789066225290298,0.9931640028953552,0.9933761929008653,0.030517578125,0.28228759765625,-0.1087188720703125,0.30403520110242716
1784709501.008109,-0.0229492150247097,-0.013183597475290298,0.9848632216453552,0.9852187772582843,0.091552734375,-0.20599365234375,0.0133514404296875,0.22581751247191734
1784709501.018801,-0.0126953125,-0.02734375,0.9882811903953552,0.9887408977648268,-0.152587890625,-0.02288818359375,0.0743865966796875,0.1712901021051557
1784709501.029461,-0.00830078125,-0.00732421875,0.9799804091453552,0.9800429324567144,-0.0324249267578125,-0.2079010009765625,-0.0476837158203125,0.2157497134105593
1784709501.04012,-0.015624996274709702,-0.0195312462747097,0.9951171278953552,0.9954314181902884,-0.091552734375,-0.14495849609375,-0.1697540283203125,0.24127017820749108
1784709501.050779,-0.0058593712747097015,-0.013671878725290298,0.9790038466453552,0.9791168389145476,0.091552734375,0.03814697265625,0.0133514404296875,0.10007674882770466
1784709501.061438,-0.00732421875,-0.01123046875,0.9824218153953552,0.9825133032042609,0.335693359375,-0.02288818359375,-0.2307891845703125,0.4080166028378305
1784709501.072099,-0.012207027524709702,-0.0185546912252903,0.9848632216453552,0.9851136246327745,0.0286102294921875,-0.0858306884765625,0.1354217529296875,0.1628634504193795
1784709501.08276,-0.017578125,-0.0166015625,0.9916991591453552,0.9919938631894664,-0.091552734375,0.22125244140625,0.0133514404296875,0.23981827903917768
1784709501.090776,-0.01904296875,-0.01513671875,0.9941405653953552,0.9944381422079136,0.091552734375,0.16021728515625,-0.2307891845703125,0.2954913354888908
1784709501.098793,-0.0185546875,-0.02490234375,0.9916991591453552,0.9921852777591846,-0.0324249267578125,-0.0858306884765625,-0.1087188720703125,0.14226059223780563
1784709501.10681,-0.010253898799419403,-0.01611328125,0.9946288466453552,0.9948122048167181,0.213623046875,0.03814697265625,-0.1087188720703125,0.2427133923442135
1784709501.114827,-0.0019531212747097015,-0.0024414099752902985,0.9970702528953552,0.9970751548274527,-0.0324249267578125,-0.1430511474609375,-0.1087188720703125,0.18257820190094262
1784709501.125467,0.00146484375,-0.0166015625,0.9877929091453552,0.9879334942203839,0.030517578125,-0.02288818359375,-0.2918243408203125,0.2943070461576593
1784709501.136107,-0.0063476525247097015,-0.0170898474752903,0.9951171278953552,0.9952841070819949,-0.091552734375,0.03814697265625,-0.1087188720703125,0.14716279366272225
1784709501.146747,-0.00341796875,-0.01513671875,0.9819335341453552,0.9820561431222148,-0.2117156982421875,-0.0858306884765625,0.0743865966796875,0.2402577984834711
1784709501.157426,-0.0185546875,-0.01318359375,0.9853515028953552,0.985614360604858,0.213623046875,-0.14495849609375,0.0133514404296875,0.25850731654533043
1784709501.168104,-0.0170898400247097,-0.013183597475290298,0.9829100966453552,0.9831470530708223,0.091552734375,-0.02288818359375,-0.0476837158203125,0.10573319665172728
1784709501.178782,-0.0126953125,-0.0224609375,0.9921874403953552,0.9925228367907402,0.030517578125,-0.32806396484375,-0.0476837158203125,0.33291293810551886
1784709501.186786,-0.01806640625,-0.0126953125,0.9887694716453552,0.9890159928191746,-0.0324249267578125,0.0972747802734375,-0.1087188720703125,0.14944414306601655
1784709501.194789,-0.014648430049419403,-0.025390625,0.9931640028953552,0.9935964960626262,-0.0324249267578125,-0.1430511474609375,0.1964569091796875,0.245174068428079
1784709501.202792,-0.0019531212747097015,-0.0200195275247097,0.9897460341453552,0.9899504069757661,0.152587890625,-0.14495849609375,-0.0476837158203125,0.21580029358084993
1784709501.210795,-0.0029296875,-0.01220703125,0.9887694716453552,0.9888491607614486,-0.1544952392578125,-0.0858306884765625,0.0743865966796875,0.19175257965220688
1784709501.221427,-0.00341796875,-0.01806640625,0.9951171278953552,0.9952869816167932,-0.0324249267578125,-0.0858306884765625,0.1354217529296875,0.1635766918792514
1784709501.232059,-0.01318359375,-0.02197265625,0.9833983778953552,0.9837321659954307,0.3337860107421875,0.0972747802734375,0.0743865966796875,0.35554022221123693
1784709501.242691,-0.008789058774709702,-0.0239257849752903,0.9863280653953552,0.9866573586242456,-0.213623046875,0.03814697265625,-0.3528594970703125,0.4142460891205963
1784709501.250742,0.01025390625,-0.01123046875,0.9848632216453552,0.9849806248710665,0.030517578125,-0.02288818359375,0.0133514404296875,0.04041599292834681
1784709501.258794,-0.00439453125,-0.0263671875,0.9921874403953552,0.9925474584924662,0.030517578125,0.16021728515625,0.1964569091796875,0.2553355012564657
1784709501.266846,-0.017578125,-0.015625,0.9946288466453552,0.9949068668385926,0.0286102294921875,0.0972747802734375,0.0743865966796875,0.1257548960256724
1784709501.274898,-0.0009765587747097015,-0.008300784975290298,0.9877929091453552,0.9878282685042428,0.091552734375,0.16021728515625,-0.1697540283203125,0.2507347438337015
1784709501.285511,-0.00341796875,-0.01318359375,0.9824218153953552,0.9825162151431631,0.030517578125,-0.14495849609375,-0.1087188720703125,0.1837500511799063
1784709501.296124,-0.00927734375,-0.01708984375,0.9960936903953552,0.9962834796943553,0.091552734375,-0.08392333984375,-0.1087188720703125,0.16506005963378856
1784709501.306737,-0.0063476525247097015,-0.0253906212747097,0.9765624403953552,0.976913085352132,0.091552734375,-0.08392333984375,-0.0476837158203125,0.13303671258904884
1784709501.317429,-0.01904296875,-0.02197265625,0.9951171278953552,0.9955418276055481,-0.152587890625,0.03814697265625,-0.0476837158203125,0.164353255649701
1784709501.328119,0.0048828125,-0.0087890625,0.9858397841453552,0.9858910535557667,-0.0324249267578125,-0.2651214599609375,0.0743865966796875,0.2772618440619895
1784709501.338809,-0.013671875,-0.025390625,0.9882811903953552,0.9887018333618921,-0.091552734375,-0.02288818359375,0.1964569091796875,0.2179474461520403
1784709501.346835,-0.010742183774709702,-0.0170898474752903,0.9819335341453552,0.9821409893076277,-0.0324249267578125,-0.1430511474609375,0.0743865966796875,0.1644638940032945
1784709501.354861,-0.012695308774709702,-0.0195312462747097,0.9882811903953552,0.9885556897490343,0.091552734375,0.28228759765625,-0.1087188720703125,0.31605060371136323
1784709501.362887,-0.0200195275247097,-0.008789066225290298,0.9829100966453552,0.9831532369141682,-0.152587890625,-0.32806396484375,-0.1087188720703125,0.3777946830470609
1784709501.370913,-0.009765621274709702,-0.0180664099752903,0.9897460341453552,0.9899590772525574,-0.152587890625,0.03814697265625,-0.2307891845703125,0.2792882088503799
1784709501.381518,-0.011230465024709702,-0.0297851525247097,0.9887694716453552,0.9892817327300785,-0.0324249267578125,0.0400543212890625,-0.0476837158203125,0.07021012237284073
1784709501.392123,-0.01416015625,-0.01123046875,0.9951171278953552,0.9952812324584795,-0.0324249267578125,-0.0858306884765625,-0.0476837158203125,0.1034022229647049
1784709501.402728,-0.0087890625,-0.009765625,0.9907225966453552,0.9908097085490154,-0.091552734375,-0.20599365234375,-0.0476837158203125,0.2304105569019991
1784709501.413411,-0.0073242150247097015,-0.0195312462747097,0.9853515028953552,0.9855722692755244,-0.0324249267578125,0.0400543212890625,0.0133514404296875,0.05323519034176965
1784709501.424097,-0.01416015625,-0.01708984375,1.0009765625,1.001222578380422,0.152587890625,0.16021728515625,0.2574920654296875,0.339491983097499
1784709501.434783,-0.0058593712747097015,-0.012695316225290298,0.9863280653953552,0.9864271670388742,0.1506805419921875,-0.2079010009765625,-0.1087188720703125,0.27883192981858623
1784709501.44544,-0.00927734375,-0.01611328125,0.9936522841453552,0.9938262266246444,-0.3376007080078125,0.0972747802734375,-0.0476837158203125,0.35455656485115905
1784709501.456096,-0.0063476525247097015,-0.0166015662252903,0.9853515028953552,0.9855117903667324,-0.1544952392578125,-0.0858306884765625,0.2574920654296875,0.3123105022200437
1784709501.466752,-0.0087890625,-0.01953125,0.9956054091453552,0.9958357535586285,0.0286102294921875,-0.0858306884765625,0.1354217529296875,0.1628634504193795
1784709501.474764,-0.017578125,-0.01171875,0.9882811903953552,0.9885069705719522,0.030517578125,-0.02288818359375,-0.0476837158203125,0.06106495129998063
1784709501.482777,-0.01318359375,-0.01611328125,0.9721679091453552,0.972390810604902,0.030517578125,-0.02288818359375,-0.1697540283203125,0.1739874180905336
1784709501.49079,-0.00439453125,-0.01318359375,0.9931640028953552,0.9932612222855564,0.091552734375,0.09918212890625,-0.0476837158203125,0.14315283657807001
1784709501.498803,-0.011230465024709702,-0.009765621274709702,0.9838866591453552,0.9839992117617578,0.213623046875,-0.32806396484375,0.1964569091796875,0.43801379926846556
1784709501.509458,-0.010253902524709702,-0.0283203162252903,0.9902343153953552,0.9906922742277717,0.091552734375,-0.14495849609375,-0.1087188720703125,0.20301394510117282
1784709501.520113,-0.0214843712747097,-0.013183597475290298,0.9882811903953552,0.9886025979840031,0.091552734375,-0.02288818359375,-0.0476837158203125,0.10573319665172728
1784709501.530768,-0.0205078087747097,-0.0205078087747097,0.9819335341453552,0.9823617490113647,0.030517578125,-0.14495849609375,-0.1087188720703125,0.1837500511799063
1784709501.541425,-0.0068359337747097015,-0.012695316225290298,0.9970702528953552,0.9971745034112334,0.213623046875,0.09918212890625,-0.0476837158203125,0.24030322013024868
1784709501.552082,-0.0058593712747097015,-0.010742183774709702,0.9912108778953552,0.9912864022077904,-0.0324249267578125,0.0972747802734375,0.1964569091796875,0.22160567663516886
1784709501.562739,-0.011230465024709702,-0.0166015662252903,1.0009765625,1.001177214093549,-0.0324249267578125,-0.0247955322265625,-0.1087188720703125,0.1161291842642881
1784709501.570759,-0.008789058774709702,-0.014160159975290298,0.9858397841453552,0.9859806477251122,0.091552734375,-0.14495849609375,0.0133514404296875,0.17196839745385933
1784709501.578782,-0.011718746274709702,-0.0024414099752902985,0.9946288466453552,0.9947008756787078,-0.152587890625,0.03814697265625,0.0133514404296875,0.1578496653457686
1784709501.586805,0.008789066225290298,-0.0190429724752903,0.9902343153953552,0.9904564007932479,0.091552734375,0.03814697265625,-0.0476837158203125,0.11004922284509015
1784709501.594828,-0.005371086299419403,-0.01220703125,0.9838866591453552,0.9839770415127492,0.274658203125,-0.45013427734375,0.0133514404296875,0.5274810490862978
1784709501.605487,-0.011230465024709702,-0.012207034975290298,0.9843749403953552,0.9845146816202988,0.213623046875,-0.02288818359375,0.1354217529296875,0.253964025544818
1784709501.616146,-0.00390625,-0.0263671875,0.9809569716453552,0.9813190447481129,-0.213623046875,0.03814697265625,0.0133514404296875,0.21741264599958907
1784709501.626805,-0.00341796875,-0.01171875,0.9853515028953552,0.9854271134234504,0.091552734375,0.16021728515625,0.0133514404296875,0.1850128173828125
1784709501.637467,-0.0068359337747097015,-0.0229492224752903,0.9873046278953552,0.9875949701504045,-0.152587890625,-0.02288818359375,0.1354217529296875,0.20529487202596536
1784709501.648131,-0.0019531212747097015,-0.0190429724752903,0.9931640028953552,0.9933484716505752,0.213623046875,-0.20599365234375,-0.1697540283203125,0.3418839292699346
1784709501.658795,-0.0063476525247097015,-0.0200195275247097,0.9863280653953552,0.9865516341081348,0.396728515625,0.22125244140625,-0.1697540283203125,0.48493565353479157
1784709501.669497,-0.0014648400247097015,-0.011230465024709702,1.00341796875,1.00348188280175,-0.0324249267578125,0.2231597900390625,-0.2918243408203125,0.3687995575658109
1784709501.680197,-0.01416015625,-0.0068359375,0.9794921278953552,0.9796183280622608,-0.1544952392578125,-0.0858306884765625,-0.2307891845703125,0.2906876910918645
1784709501.690897,-0.015624996274709702,-0.015136715024709702,0.9765624403953552,0.9768047198090597,-0.091552734375,-0.08392333984375,-0.1087188720703125,0.16506005963378856
1784709501.698976,-0.012207027524709702,-0.0229492224752903,0.9799804091453552,0.9803250892647333,0.213623046875,0.16021728515625,0.3185272216796875,0.41564886090302033
1784709501.707053,-0.00830078125,-0.01513671875,0.9902343153953552,0.9903847851266622,0.274658203125,-0.02288818359375,-0.1087188720703125,0.2962782317962559
1784709501.71513,-0.0126953125,-0.01220703125,0.9892577528953552,0.989414515880467,0.213623046875,0.03814697265625,-0.1087188720703125,0.2427133923442135
1784709501.723207,-0.0166015587747097,-0.013671878725290298,0.9848632216453552,0.9850980140936725,0.030517578125,0.03814697265625,0.0743865966796875,0.08899370687323155
1784709501.731164,-0.00341796875,-0.01953125,0.9877929091453552,0.987991894498524,-0.091552734375,-0.08392333984375,0.0743865966796875,0.14477014853779546
1784709501.739121,-0.0009765550494194031,-0.02587890625,0.9868163466453552,0.987156103893881,0.091552734375,0.16021728515625,-0.0476837158203125,0.19059175844933787
1784709501.747078,-0.0200195275247097,-0.007812503725290298,0.9887694716453552,0.9890029750989656,0.091552734375,-0.08392333984375,-0.0476837158203125,0.13303671258904884
1784709501.755035,0.003906257450580597,-0.0166015625,0.9731444716453552,0.9732939090627399,-0.457763671875,0.03814697265625,-0.1087188720703125,0.47204084988013517
1784709501.765698,-0.0161132775247097,-0.010742183774709702,0.9775390028953552,0.9777308087640909,-0.213623046875,0.03814697265625,0.0743865966796875,0.22939782789856933
1784709501.776361,-0.0048828087747097015,-0.0234375037252903,0.9936522841453552,0.9939406522472481,0.2117156982421875,-0.0858306884765625,-0.0476837158203125,0.2333756215224076
1784709501.787024,-0.013671875,-0.02978515625,0.9853515028953552,0.9858963738431072,-0.2765655517578125,-0.0858306884765625,-0.0476837158203125,0.29347767931802976
1784709501.79765,-0.019531242549419403,-0.01513671875,0.9965819716453552,0.9968882665066253,0.274658203125,-0.14495849609375,-0.0476837158203125,0.31420348643522056
1784709501.808275,-0.0014648400247097015,-0.0170898474752903,0.9721679091453552,0.9723192131265731,0.1506805419921875,0.0400543212890625,0.1354217529296875,0.2065139839224844
1784709501.8189,-0.0068359337747097015,-0.0175781287252903,0.9912108778953552,0.9913902990538771,-0.213623046875,0.16021728515625,-0.1697540283203125,0.31641873324752917
1784709501.826872,-0.0073242150247097015,-0.0278320349752903,0.9916991591453552,0.9921166708337273,-0.0324249267578125,-0.0247955322265625,-0.1697540283203125,0.17459273875113324
1784709501.834844,-0.00390625,-0.0205078125,0.9790038466453552,0.9792264094217434,0.0286102294921875,-0.0858306884765625,0.1354217529296875,0.1628634504193795
1784709501.842816,-0.008300777524709702,-0.014160159975290298,0.9946288466453552,0.9947642713814716,0.091552734375,-0.08392333984375,0.0743865966796875,0.14477014853779546
1784709501.850788,0.0029296875,-0.021484375,0.9916991591453552,0.9919361792411813,0.274658203125,0.22125244140625,-0.0476837158203125,0.35589817100753995
1784709501.861463,-0.0078124962747097015,-0.013183597475290298,0.9819335341453552,0.9820531084516867,-0.0324249267578125,0.0972747802734375,0.1964569091796875,0.22160567663516886
1784709501.872138,-0.0068359337747097015,-0.0205078087747097,0.9804686903953552,0.9807069659469617,-0.0324249267578125,-0.0247955322265625,-0.1087188720703125,0.1161291842642881
1784709501.882813,-0.011230465024709702,-0.010742183774709702,0.9848632216453552,0.9849858289369391,0.091552734375,-0.14495849609375,-0.3528594970703125,0.39230688680421466
1784709501.893481,-0.01416015625,-0.01708984375,0.9907225966453552,0.9909711581515069,0.030517578125,-0.26702880859375,-0.0476837158203125,0.27296418070517126
1784709501.90415,-0.0009765587747097015,-0.013183597475290298,0.9892577528953552,0.9893460782623028,-0.091552734375,0.09918212890625,-0.0476837158203125,0.14315283657807001
1784709501.914819,-0.01416015625,-0.021484375,0.9873046278953552,0.9876398719461214,-0.152587890625,0.03814697265625,-0.1087188720703125,0.19120159265148556
1784709501.922812,-0.0053710900247097015,-0.007812503725290298,0.9833983778953552,0.983444077449108,-0.091552734375,0.03814697265625,0.0133514404296875,0.10007674882770466
1784709501.930807,-0.01416015625,-0.0224609375,0.9916991591453552,0.9920545478893829,-0.091552734375,0.03814697265625,-0.1697540283203125,0.19660499694908432
1784709501.938802,-0.01220703125,-0.0107421875,0.9877929091453552,0.9879267369405829,-0.091552734375,0.03814697265625,0.1354217529296875,0.16785751654580536
1784709501.946797,-0.012207027524709702,-0.0229492224752903,0.9824218153953552,0.9827656392537921,-0.091552734375,0.16021728515625,-0.1697540283203125,0.2507347438337015
1784709501.957445,-0.0029296837747097015,-0.0239257849752903,0.9931640028953552,0.9934564725647665,-0.091552734375,-0.02288818359375,0.0133514404296875,0.09531019400519551
1784709501.968093,0.0009765662252902985,-0.0190429724752903,0.9873046278953552,0.9874887425919715,-0.1544952392578125,-0.3910064697265625,-0.1697540283203125,0.4533996784872387
1784709501.978741,-0.015136715024709702,-0.009277347475290298,0.9790038466453552,0.9791648079176042,0.1506805419921875,-0.0247955322265625,0.0743865966796875,0.16986114893949228
1784709501.986762,0.0034179724752902985,-0.0200195275247097,0.9873046278953552,0.9875134896707691,0.213623046875,0.16021728515625,-0.0476837158203125,0.2712528734841898
1784709501.994783,-0.012695308774709702,-0.0195312462747097,0.9907225966453552,0.990996419746128,-0.0324249267578125,-0.1430511474609375,-0.1087188720703125,0.18257820190094262
1784709502.002804,-0.00927734375,-0.021484375,0.9926757216453552,0.9929515274273579,-0.0324249267578125,-0.1430511474609375,-0.0476837158203125,0.15423599910388208
1784709502.010825,-0.009765617549419403,-0.005859375,0.9916991591453552,0.9917645495837794,-0.274658203125,0.09918212890625,0.1964569091796875,0.35195104830454155
1784709502.02147,-0.0024414025247097015,-0.013671878725290298,0.9863280653953552,0.9864258377094097,0.030517578125,-0.02288818359375,-0.0476837158203125,0.06106495129998063
1784709502.032115,-0.012207027524709702,-0.014648433774709702,0.9804686903953552,0.9806540883403403,-0.0324249267578125,0.0972747802734375,0.0133514404296875,0.1034022229647049
1784709502.04276,-0.0053710900247097015,-0.012695316225290298,0.9965819716453552,0.9966773027769105,0.091552734375,0.09918212890625,-0.0476837158203125,0.14315283657807001
1784709502.053468,-0.015136711299419403,-0.0166015625,0.9882811903953552,0.9885365158635586,0.030517578125,0.03814697265625,-0.1087188720703125,0.11919021453833004
1784709502.064178,-0.0019531212747097015,-0.010253902524709702,0.9809569716453552,0.981012506250214,0.030517578125,-0.02288818359375,-0.0476837158203125,0.06106495129998063
1784709502.074888,-0.0053710900247097015,-0.014648433774709702,0.9873046278953552,0.9874278978658094,0.091552734375,0.22125244140625,0.1964569091796875,0.30972546418433433
1784709502.082904,-0.0058593712747097015,-0.015624996274709702,0.9833983778953552,0.9835399546472606,0.152587890625,-0.32806396484375,-0.0476837158203125,0.36494214082347426
1784709502.09092,-0.01220703125,-0.01708984375,0.9926757216453552,0.9928978611697502,0.091552734375,0.28228759765625,-0.1087188720703125,0.31605060371136323
1784709502.098936,-0.01416015625,-0.01123046875,0.9926757216453552,0.9928402297436864,-0.396728515625,-0.02288818359375,0.0133514404296875,0.39761243066557234
1784709502.106952,-0.0209960900247097,-0.015136715024709702,0.9902343153953552,0.9905725391532781,0.091552734375,0.03814697265625,-0.2307891845703125,0.2511986114790561
1784709502.117545,-0.012207027524709702,-0.009277347475290298,0.9824218153953552,0.9825414515743708,-0.152587890625,-0.02288818359375,0.3795623779296875,0.4097249468280484
1784709502.128138,-0.009765617549419403,-0.0078125,0.9897460341453552,0.9898250423932656,0.213623046875,-0.20599365234375,0.0133514404296875,0.29706304368538283
1784709502.138731,0.00146484375,-0.00634765625,0.9848632216453552,0.9848847667908912,-0.0324249267578125,0.2231597900390625,0.0133514404296875,0.2258980494096296
1784709502.146752,-0.010253902524709702,-0.0185546912252903,0.9824218153953552,0.9826505189782161,-0.152587890625,-0.02288818359375,0.2574920654296875,0.30018177338548496
1784709502.154772,-0.010253902524709702,-0.0200195275247097,0.9892577528953552,0.9895134287430699,0.1506805419921875,0.0400543212890625,0.0743865966796875,0.17274935645198022
1784709502.162792,0.00048828125,-0.0302734375,0.9877929091453552,0.9882568243095969,-0.0324249267578125,0.0972747802734375,0.1964569091796875,0.22160567663516886
1784709502.170812,-0.0166015587747097,-0.013183597475290298,0.9897460341453552,0.9899730456444757,0.274658203125,-0.20599365234375,-0.1087188720703125,0.3601254038442893
1784709502.18144,0.0063476599752902985,-0.0190429724752903,0.9824218153953552,0.9826268625233904,-0.091552734375,-0.08392333984375,-0.1087188720703125,0.16506005963378856
1784709502.192068,-0.0200195275247097,-0.009277347475290298,0.9965819716453552,0.9968262019364426,-0.0324249267578125,-0.0858306884765625,0.0133514404296875,0.09271754915417964
1784709502.202696,-0.01416015625,-0.0048828125,0.9980468153953552,0.9981592045379057,-0.0324249267578125,0.0400543212890625,0.1964569091796875,0.20310352457210815
1784709502.213417,0.00048828125,-0.01513671875,0.9887694716453552,0.9888854467181376,0.1506805419921875,0.2231597900390625,0.0743865966796875,0.2793533307317533
1784709502.224139,-0.0166015587747097,-0.0048828087747097015,0.9956054091453552,0.9957557854688923,-0.0324249267578125,-0.1430511474609375,-0.1087188720703125,0.18257820190094262
1784709502.234861,-0.020996086299419403,-0.00634765625,0.9892577528953552,0.989500899465649,-0.457763671875,0.16021728515625,0.0743865966796875,0.49066335049288967
1784709502.245511,-0.024902336299419403,-0.0224609375,0.9882811903953552,0.9888500044778321,0.091552734375,-0.14495849609375,0.0133514404296875,0.17196839745385933
1784709502.256162,-0.008300777524709702,-0.013671878725290298,0.9863280653953552,0.9864577414983056,-0.3376007080078125,-0.0247955322265625,0.0133514404296875,0.33877325370714
1784709502.266813,-0.0078124962747097015,-0.0288085974752903,0.9921874403953552,0.992636331827937,0.213623046875,0.16021728515625,-0.1087188720703125,0.28831263892385733
1784709502.274791,-0.00830078125,-0.02685546875,0.9873046278953552,0.9877046863484694,0.213623046875,0.09918212890625,-0.1087188720703125,0.25940642627887117
1784709502.282769,-0.016113273799419403,-0.0263671875,0.9790038466453552,0.9794913975710033,-0.0324249267578125,0.0972747802734375,0.1354217529296875,0.16986114893949228
1784709502.290747,0.0024414099752902985,-0.0195312462747097,0.9951171278953552,0.9953117744176503,0.1506805419921875,0.0972747802734375,0.0133514404296875,0.17984790678195958
1784709502.298725,-0.0063476525247097015,-0.0239257849752903,0.9887694716453552,0.9890792708054765,0.0286102294921875,0.0972747802734375,0.0743865966796875,0.1257548960256724
1784709502.309481,-0.010742183774709702,-0.0239257849752903,0.9814452528953552,0.9817956111787021,-0.091552734375,0.09918212890625,-0.1697540283203125,0.216876527076788
1784709502.320237,-0.005371086299419403,-0.02197265625,0.9946288466453552,0.9948860179788366,0.091552734375,-0.08392333984375,0.0743865966796875,0.14477014853779546
1784709502.330993,-0.010742183774709702,-0.0219726599752903,0.9931640028953552,0.9934651120929031,0.1506805419921875,-0.2079010009765625,-0.0476837158203125,0.2611535730112616
1784709502.338934,-0.001953125,-0.02099609375,0.9916991591453552,0.9919233200704725,-0.274658203125,0.16021728515625,-0.0476837158203125,0.32152829387337784
1784709502.346875,-0.010253898799419403,-0.0166015625,0.9868163466453552,0.9870092483480162,-0.0324249267578125,-0.1430511474609375,0.2574920654296875,0.29633962007194864
1784709502.354816,-0.010253902524709702,-0.0190429724752903,0.9941405653953552,0.9943758047550622,-0.0324249267578125,-0.0858306884765625,-0.2307891845703125,0.24835847212092443
1784709502.362757,-0.0068359337747097015,-0.0175781287252903,0.9848632216453552,0.9850437990006958,-0.3376007080078125,0.2231597900390625,-0.2307891845703125,0.46587356401955726
1784709502.373505,-0.00830078125,-0.025390625,0.9843749403953552,0.9847373305027134,0.091552734375,0.09918212890625,0.0133514404296875,0.13563649519013235
1784709502.384253,-0.00341796875,-0.02099609375,0.9897460341453552,0.9899746110732303,-0.0324249267578125,0.1583099365234375,-0.1087188720703125,0.1947644860377407
1784709502.395001,-0.013183590024709702,-0.0244140587747097,0.9946288466453552,0.9950157767045024,0.030517578125,0.03814697265625,0.0743865966796875,0.08899370687323155
1784709502.402967,0.00048828125,-0.00927734375,0.9873046278953552,0.9873483355884186,0.213623046875,0.03814697265625,0.1964569091796875,0.2927205405218963
1784709502.410933,-0.01904296875,-0.0126953125,0.9829100966453552,0.9831765170637812,-0.152587890625,0.22125244140625,-0.2918243408203125,0.39673310057118116
1784709502.418899,-0.0073242150247097015,-0.0039062537252902985,0.9853515028953552,0.9853864659117405,-0.091552734375,-0.08392333984375,0.1354217529296875,0.1837500511799063
1784709502.426865,-0.0048828087747097015,-0.0185546912252903,0.9990233778953552,0.9992076000358694,0.0286102294921875,-0.0858306884765625,-0.1697540283203125,0.19235873374227075
1784709502.437681,-0.00244140625,-0.01220703125,0.9931640028953552,0.9932420192095888,-0.091552734375,-0.08392333984375,-0.0476837158203125,0.13303671258904884
1784709502.448497,-0.0073242150247097015,-0.014160159975290298,0.9887694716453552,0.9888979837749134,-0.1544952392578125,0.0972747802734375,-0.0476837158203125,0.18869260341891145
1784709502.459313,-0.00341796875,-0.0224609375,0.9848632216453552,0.9851252415674988,0.0286102294921875,0.0972747802734375,-0.1087188720703125,0.1486631132900228
1784709502.469805,-0.01318359375,-0.01708984375,0.9853515028953552,0.9855878723694299,-0.0324249267578125,0.1583099365234375,-0.2307891845703125,0.2817393469005245
1784709502.480297,-0.0014648400247097015,-0.0180664099752903,0.9843749403953552,0.9845418041932259,0.030517578125,-0.02288818359375,-0.0476837158203125,0.06106495129998063
1784709502.490789,-0.00390625,-0.01806640625,0.9921874403953552,0.9923595974757029,0.335693359375,-0.51116943359375,-0.0476837158203125,0.6133986942629243
1784709502.499187,-0.011230465024709702,-0.008789066225290298,0.9785155653953552,0.9786194780152169,-0.274658203125,-0.20599365234375,0.0133514404296875,0.34358226716656814
1784709502.507585,-0.0195312462747097,-0.014160159975290298,0.9931640028953552,0.993456952443685,0.030517578125,0.16021728515625,0.2574920654296875,0.30480004067700034
1784709502.515983,-0.0058593712747097015,-0.012695316225290298,0.9819335341453552,0.98203307926209,-0.152587890625,0.03814697265625,0.0743865966796875,0.1739874180905336
1784709502.524381,-0.011230465024709702,-0.009765621274709702,0.9912108778953552,0.9913225989362056,0.091552734375,-0.02288818359375,0.1964569091796875,0.2179474461520403
1784709502.534516,-0.0019531212747097015,-0.0229492224752903,0.9833983778953552,0.9836680594296787,-0.091552734375,-0.20599365234375,0.1964569091796875,0.29901606167878847
1784709502.544651,-0.00048827752470970154,-0.0229492224752903,0.9980468153953552,0.99831074868899,0.1506805419921875,-0.0247955322265625,0.1354217529296875,0.20410412862068028
1784709502.554786,-0.0161132775247097,-0.015136715024709702,0.9980468153953552,0.9982916425449718,0.1506805419921875,0.2803802490234375,0.3795623779296875,0.49536381429929166
1784709502.565455,-0.02294921875,-0.02490234375,0.9956054091453552,0.9961811703123928,-0.213623046875,0.03814697265625,-0.0476837158203125,0.2221795094814719
1784709502.576125,-0.00341796875,-0.00732421875,0.9814452528953552,0.981478533194436,0.152587890625,0.16021728515625,0.1354217529296875,0.25940642627887117
1784709502.586795,-0.010253902524709702,-0.0224609412252903,0.9897460341453552,0.9900539624203172,0.030517578125,-0.02288818359375,0.1964569091796875,0.2001262318819616
1784709502.597428,-0.010742183774709702,-0.014160159975290298,0.9863280653953552,0.9864881941662148,0.091552734375,-0.08392333984375,-0.0476837158203125,0.13303671258904884
1784709502.608062,-0.010742183774709702,-0.0219726599752903,0.9833983778953552,0.9837024763341075,0.030517578125,-0.14495849609375,-0.2918243408203125,0.32727012399482347
1784709502.618696,-0.01318359375,-0.01220703125,0.9887694716453552,0.9889327008517508,0.091552734375,0.22125244140625,-0.1697540283203125,0.2935148652636504
1784709502.626721,-0.0078124962747097015,-0.0288085974752903,0.9868163466453552,0.9872676802129307,0.213623046875,-0.02288818359375,-0.0476837158203125,0.2200736509871456
1784709502.634747,-0.0170898400247097,-0.0048828087747097015,0.9873046278953552,0.9874645982095694,0.030517578125,-0.26702880859375,0.1354217529296875,0.3009564060792898
1784709502.642773,-0.0078125,-0.02685546875,0.9838866591453552,0.9842841101035009,0.213623046875,-0.20599365234375,0.0743865966796875,0.305943714966761
1784709502.650799,-0.0224609375,-0.0224609375,0.9887694716453552,0.9892795638668539,-0.335693359375,0.03814697265625,-0.1087188720703125,0.35491550571305075
1784709502.662783,-0.015624996274709702,-0.013183597475290298,0.9916991591453552,0.9919098598161931,-0.091552734375,-0.32806396484375,0.1354217529296875,0.3665336537987881
1784709502.67477,-0.01318359375,-0.0263671875,0.9868163466453552,0.9872565713771223,-0.091552734375,0.03814697265625,0.1964569091796875,0.2200736509871456
1784709502.686757,-0.004882805049419403,-0.02587890625,0.9956054091453552,0.9959536587077418,-0.0324249267578125,0.0972747802734375,0.2574920654296875,0.27715685542981167
1784709502.698744,-0.0166015625,-0.0166015625,0.9931640028953552,0.9934414730632137,-0.0324249267578125,0.0400543212890625,-0.0400543212890625,0.06526923611552686
1784709502.706749,-0.009765617549419403,-0.0107421875,0.9897460341453552,0.989852501125731,0.026702880859375,-0.14495849609375,0.3261566162109375,0.3579163976882318
1784709502.714754,-0.0004882737994194031,-0.01708984375,0.9755858778953552,0.975735674411648,-0.152587890625,-0.02288818359375,0.0209808349609375,0.15571489572056446
1784709502.722759,-0.00244140625,-0.0166015625,0.9858397841453552,0.9859825821715511,-0.095367431640625,-0.14495849609375,-0.0400543212890625,0.1780793678712345
1784709502.730764,-0.0209960900247097,-0.0209960900247097,0.9902343153953552,0.9906793986851444,-0.0324249267578125,-0.1430511474609375,-0.1010894775390625,0.17814064425127976
1784709502.738843,-0.012695308774709702,-0.008789066225290298,0.9965819716453552,0.9967015826006004,-0.0324249267578125,-0.1430511474609375,0.0820159912109375,0.16805246049806283
1784709502.746922,-0.013671875,-0.01953125,0.9960936903953552,0.9963789590000462,-0.0324249267578125,-0.2079010009765625,-0.1621246337890625,0.2656286862587393
1784709502.755001,-0.015136711299419403,-0.015625,0.9921874403953552,0.9924259053109449,-0.152587890625,0.03814697265625,0.2651214599609375,0.3082655420575622
1784709502.76308,-0.0068359337747097015,-0.0073242224752902985,0.9897460341453552,0.9897967399076936,-0.0324249267578125,-0.0247955322265625,-0.1010894775390625,0.10901961641268339
1784709502.77381,0.00244140625,-0.0068359375,0.9975585341453552,0.9975849435272223,-0.0324249267578125,0.0972747802734375,0.0209808349609375,0.10466113981871757
1784709502.78454,-0.010253898799419403,-0.01611328125,0.9877929091453552,0.9879775359951634,-0.335693359375,0.16021728515625,-0.1621246337890625,0.40576348637174053
1784709502.79527,-0.010253902524709702,-0.0039062537252902985,0.9809569716453552,0.9810183390512018,0.1506805419921875,-0.0858306884765625,-0.0400543212890625,0.17797719368881942
1784709502.803183,-0.0024414025247097015,-0.0185546912252903,0.9785155653953552,0.978694512467371,0.087738037109375,0.34332275390625,0.2651214599609375,0.442558318233198
1784709502.811096,-0.00439453125,-0.01806640625,0.9897460341453552,0.9899206630059583,0.026702880859375,-0.20599365234375,0.0820159912109375,0.22332275178857233
1784709502.819009,-0.0004882737994194031,-0.01611328125,0.9794921278953552,0.9796247775821698,0.026702880859375,-0.08392333984375,-0.1621246337890625,0.18450086096806476
1784709502.826922,0.0009765625,-0.0244140625,0.9892577528953552,0.9895594483332661,-0.0324249267578125,-0.2079010009765625,-0.0400543212890625,0.21419278871202363
1784709502.837534,0.0034179724752902985,-0.0166015662252903,0.9814452528953552,0.9815916049803005,0.209808349609375,-0.02288818359375,0.1430511474609375,0.25496478836090647
