timestamp,accel_x,accel_y,accel_z,accel_rms,gyro_x,gyro_y,gyro_z,gyro_rms
1784554762.190481,-0.0595703050494194,-0.18896484375,0.9687499403953552,0.9888037117816392,2.3193359375,-1.77001953125,-1.4171600341796875,3.243552203134959
1784554762.201041,-0.0727538987994194,-0.2431640625,0.9511718153953552,0.9844540179635186,2.445220947265625,-2.01416015625,-1.4820098876953125,3.497470503549429
1784554762.211601,-0.0576171875,-0.2041015625,0.9667968153953552,0.989784456520182,3.11279296875,-3.47900390625,-1.5392303466796875,4.915503871033149
1784554762.219615,-0.0732421800494194,-0.22607421875,0.9624022841453552,0.9913082900137633,3.35693359375,-3.35693359375,-1.8444061279296875,5.09311695039876
1784554762.227628,-0.0380859337747097,-0.29833984375,1.16064453125,1.19897995339405,4.5185089111328125,2.6226043701171875,-0.3223419189453125,5.234394021742512
1784554762.23564,-0.0590820237994194,-0.24609375,1.01220703125,1.0433675735028554,10.498046875,8.11767578125,2.1839141845703125,13.44898246875047
1784554762.243653,-0.0556640550494194,-0.2177734375,0.9541015028953552,0.9802211153266831,11.65771484375,8.11767578125,-0.3223419189453125,14.209253315371333
1784554762.254341,-0.07177734375,-0.2373046875,0.9462890028953552,0.9782271611369028,11.8408203125,7.32421875,-0.9899139404296875,13.958120775384529
1784554762.265029,-0.0781249925494194,-0.212890625,0.9604491591453552,0.9868579026266939,13.00048828125,6.7138671875,-1.2989044189453125,14.689311108825471
1784554762.275717,-0.080078125,-0.20458984375,0.9506835341453552,0.9757400741817812,13.551712036132812,7.0209503173828125,-1.4171600341796875,15.328110941401127
1784554762.283697,-0.0795898362994194,-0.18310546875,0.9511718153953552,0.9719001888727161,12.451171875,6.16455078125,-3.9234161376953125,14.436985889891595
1784554762.291677,-0.07421875,-0.17041015625,0.9374999403953552,0.9557479701500844,10.744094848632812,4.2705535888671875,-3.7403106689453125,12.151671735692611
1784554762.299658,-0.07421875,-0.18701171875,0.9365233778953552,0.9578923964339199,8.72802734375,2.0751953125,-3.5533905029296875,9.64942904863187
1784554762.307637,-0.08935546875,-0.185546875,0.9482421278953552,0.9703479663158516,6.9580078125,1.28173828125,-2.6378631591796875,7.5508309335456705
1784554762.318301,-0.08349609375,-0.1767578125,0.9511718153953552,0.9710523901179533,5.43212890625,0.6103515625,-2.0923614501953125,5.853078670428618
1784554762.328965,-0.08984375,-0.18994140625,0.9482421278953552,0.9712428997618471,4.581451416015625,1.28173828125,-1.7871856689453125,5.081986099372644
1784554762.339629,-0.0947265625,-0.18505859375,0.9428710341453552,0.9655183021538875,4.3354034423828125,1.7070770263671875,-1.3561248779296875,4.852721882275471
1784554762.350312,-0.0869140550494194,-0.18994140625,0.9487304091453552,0.9714531280563535,3.662109375,1.89208984375,-0.4405975341796875,4.145500601665619
1784554762.360994,-0.0908203125,-0.1787109375,0.9418944716453552,0.9629907185745922,3.0536651611328125,2.6226043701171875,0.1087188720703125,4.026753579698949
1784554762.371675,-0.0703125,-0.185546875,0.9580077528953552,0.9783406079102123,2.5634765625,3.23486328125,0.2918243408203125,4.137742618960433
1784554762.382335,-0.0751953125,-0.201171875,0.9702147841453552,0.9937007525846031,2.13623046875,4.21142578125,-0.2574920654296875,4.729258915554557
1784554762.392997,-0.0834960862994194,-0.1943359375,0.9677733778953552,0.9906176679195208,2.0771026611328125,4.3315887451171875,-0.1964569091796875,4.807869781813494
1784554762.40366,-0.0834960862994194,-0.19970703125,0.9780272841453552,1.0016944959870488,1.4057159423828125,5.0029754638671875,0.3490447998046875,5.2084194411545806
1784554762.41163,-0.1005859375,-0.18505859375,0.9819335341453552,1.0042697244379464,1.7719268798828125,5.1250457763671875,0.7801055908203125,5.478538473930752
1784554762.419601,-0.0878906175494194,-0.17919921875,0.9853515028953552,1.0053629717231303,1.7108917236328125,5.3081512451171875,1.2073516845703125,5.706252554984679
1784554762.427572,-0.0986328125,-0.20166015625,0.9985350966453552,1.0234586408609698,1.8939971923828125,5.7964324951171875,1.5087127685546875,6.281884212018269
1784554762.435543,-0.0893554612994194,-0.18798828125,0.9912108778953552,1.0128292041649678,2.50244140625,5.79833984375,1.3904571533203125,6.466554649158459
1784554762.446239,-0.08349609375,-0.19580078125,0.9843749403953552,1.0071263907216306,3.2367706298828125,5.8612823486328125,1.3904571533203125,6.8384710261933686
1784554762.456933,-0.0981445237994194,-0.18798828125,0.9931640028953552,1.015552400463053,3.2958984375,5.859375,1.0204315185546875,6.799742817563012
1784554762.467628,-0.099609375,-0.181640625,0.9711913466453552,0.993039765587008,4.0302276611328125,5.6133270263671875,1.1425018310546875,7.0041049206495805
1784554762.478297,-0.0888671875,-0.18701171875,0.9750975966453552,0.9968380424861087,5.1898956298828125,4.3315887451171875,0.5359649658203125,6.7812193704738215
1784554762.488967,-0.0947265625,-0.17724609375,0.9824218153953552,1.0027671328665522,5.7373046875,3.60107421875,0.1087188720703125,6.774674929419096
1784554762.499638,-0.099609375,-0.17431640625,1.00537109375,1.0252215727460465,6.717681884765625,2.74658203125,0.1087188720703125,7.258290608155467
1784554762.510282,-0.09814453125,-0.18115234375,0.9980468153953552,1.0190907547324775,7.5092315673828125,2.8667449951171875,-0.0743865966796875,8.038178833876088
1784554762.520926,-0.0947265625,-0.1796875,0.9873046278953552,1.0079837040165394,8.180618286132812,2.8057098388671875,0.1087188720703125,8.649066021049379
1784554762.531571,-0.0947265625,-0.17919921875,0.9863280653953552,1.0069401840378707,8.544921875,2.44140625,-0.1392364501953125,8.88794358197978
1784554762.539576,-0.0869140550494194,-0.17529296875,0.9814452528953552,1.0007579439050933,9.218215942382812,3.2939910888671875,1.0204315185546875,9.842111711314645
1784554762.547584,-0.099609375,-0.16943359375,0.9213866591453552,0.9421163123149762,10.316848754882812,3.4770965576171875,0.9021759033203125,10.92435307295824
1784554762.55559,-0.07861328125,-0.1826171875,0.9604491591453552,0.9808117416009667,10.072708129882812,4.4536590576171875,-0.0133514404296875,11.013387595661221
1784554762.563597,-0.10888671875,-0.16162109375,0.9624022841453552,0.9819347493562314,10.19287109375,5.0048828125,0.7190704345703125,11.37807256922434
1784554762.574266,-0.11376953125,-0.166015625,0.9663085341453552,0.987044516294544,10.438919067382812,5.5561065673828125,0.9632110595703125,11.864616598473017
1784554762.584935,-0.15576171875,-0.1533203125,1.07958984375,1.1014912900160405,9.33837890625,6.04248046875,1.5087127685546875,11.224665029742319
1784554762.595604,-0.0874023362994194,-0.21240234375,0.9550780653953552,0.9823075053263232,9.8876953125,7.8125,2.1839141845703125,12.78949396998966
1784554762.60361,-0.0859375,-0.17724609375,0.9213866591453552,0.9422074120420211,7.6923370361328125,6.7729949951171875,2.3670196533203125,10.51894920229904
1784554762.611618,-0.0771484300494194,-0.17138671875,0.9101561903953552,0.929359768086594,5.1898956298828125,5.0029754638671875,1.6956329345703125,7.405400137057642
1784554762.619624,-0.0888671800494194,-0.16845703125,0.9194335341453552,0.9389532314117234,2.9926300048828125,3.2939910888671875,1.0204315185546875,4.565905400215949
1784554762.627631,-0.0922851487994194,-0.16064453125,0.9374999403953552,0.9556303429416406,1.64794921875,1.64794921875,-0.0133514404296875,2.3305903793071443
1784554762.638287,-0.0932617112994194,-0.16357421875,0.9204100966453552,0.9394727339528706,0.7953643798828125,-0.4291534423828125,-0.0133514404296875,0.9038558706214925
1784554762.648943,-0.1010742038488388,-0.18115234375,0.9248046278953552,0.9477846623080906,-0.6103515625,-2.0751953125,-0.2574920654296875,2.1783633256707686
1784554762.659599,-0.10546875,-0.1708984375,0.9213866591453552,0.9430181911381895,-2.5615692138671875,-3.2367706298828125,-0.6275177001953125,4.175176572549065
1784554762.670309,-0.07568359375,-0.1884765625,0.9077147841453552,0.9301599595396376,-7.26318359375,-5.126953125,-2.3326873779296875,9.19134999146583
1784554762.681018,-0.07666015625,-0.177734375,0.9033202528953552,0.923825614985774,-10.251998901367188,-5.8612823486328125,-3.8585662841796875,12.42363256110856
1784554762.691727,-0.0727538987994194,-0.1875,0.9091796278953552,0.9311589421631802,-11.960983276367188,-5.8612823486328125,-5.3234100341796875,14.344282697295641
1784554762.702428,-0.08154296875,-0.18896484375,0.8999022841453552,0.9231365494530336,-14.404296875,-6.28662109375,-7.0362091064453125,17.219570605248585
1784554762.71313,-0.0727538987994194,-0.17724609375,0.9106444716453552,0.9305818939128345,-16.294479370117188,-6.8950653076171875,-8.436203002929688,19.60156893327982
1784554762.72383,-0.07666015625,-0.19677734375,0.9213866591453552,0.9452785188613032,-17.271041870117188,-7.3261260986328125,-9.046554565429688,20.827893806088664
1784554762.731767,-0.109375,-0.14208984375,1.0048828125,1.0207555442807106,-12.39013671875,-4.0283203125,-11.060714721679688,17.09041434851124
1784554762.739703,-0.13916015625,-0.13525390625,1.072265625,1.0896846969651584,-4.39453125,-0.42724609375,-10.267257690429688,11.17636007891383
1784554762.747639,-0.1186523362994194,-0.14404296875,1.044921875,1.0614558297965768,1.5888214111328125,1.8291473388671875,-6.9103240966796875,7.322753074145742
1784554762.755575,-0.1030273362994194,-0.1591796875,1.02197265625,1.039413736228376,3.35693359375,1.28173828125,-4.4116973876953125,5.689897188444325
1784554762.766451,-0.0922851487994194,-0.1611328125,1.0244140625,1.0411073448020838,2.445220947265625,0.91552734375,-2.6378631591796875,3.711551945569127
1784554762.777327,-0.09912109375,-0.1806640625,1.015625,1.0363197553507315,0.7343292236328125,0.8525848388671875,-1.9054412841796875,2.2128820130327087
1784554762.788203,-0.10302734375,-0.1865234375,1.01416015625,1.0363042259983415,-0.1220703125,1.40380859375,-1.9702911376953125,2.4223184960613433
1784554762.79607,-0.1074218675494194,-0.20458984375,0.9956054091453552,1.0220697591226073,-0.91552734375,1.220703125,-0.9899139404296875,1.8188556968588045
1784554762.803938,-0.1005859375,-0.19482421875,0.9877929091453552,1.011834392769956,-1.0986328125,1.40380859375,0.3490447998046875,1.8164539346921813
1784554762.811806,-0.09912109375,-0.20654296875,0.9887694716453552,1.0149630817049922,-1.2187957763671875,1.6460418701171875,1.2073516845703125,2.3775228858844146
1784554762.819674,-0.1040038987994194,-0.1943359375,0.9882811903953552,1.012562580218499,-0.7305145263671875,1.5239715576171875,1.6307830810546875,2.3485302295507826
1784554762.830339,-0.10888671875,-0.1953125,0.9702147841453552,0.995650549917294,-0.6084442138671875,1.1577606201171875,2.6721954345703125,2.975103772210478
1784554762.841005,-0.0888671875,-0.18017578125,0.9833983778953552,1.0037096486586268,-0.30517578125,0.3662109375,3.8318634033203125,3.8614012806119624
1784554762.85167,-0.0830078050494194,-0.1904296875,0.9609374403953552,0.9831350496925877,0.06103515625,-0.3662109375,3.8318634033203125,3.8498068630450306
1784554762.862315,-0.0820312425494194,-0.185546875,0.9609374403953552,0.9821188990799659,0.18310546875,-2.197265625,2.7332305908203125,3.511702336771833
1784554762.872963,-0.0624999962747097,-0.1826171875,0.9506835341453552,0.9700796198250181,0.308990478515625,-2.685546875,1.5087127685546875,3.095779603207491
1784554762.883611,-0.076171875,-0.18115234375,0.9477538466453552,0.9679130539558816,0.67138671875,-3.23486328125,-0.3795623779296875,3.32553276532243
1784554762.89427,-0.08349609375,-0.17724609375,0.9472655653953552,0.9673157844287069,0.54931640625,-3.96728515625,-1.5392303466796875,4.290726055729575
1784554762.904927,-0.080078125,-0.17041015625,0.9511718153953552,0.9696287690962767,0.3070831298828125,-4.2133331298828125,-2.6988983154296875,5.013035829620204
1784554762.915585,-0.0678710862994194,-0.15966796875,0.9458007216453552,0.9615816916232801,-0.732421875,-4.33349609375,-2.6988983154296875,5.157487984916129
1784554762.923609,-0.0312499962747097,-0.21044921875,1.02783203125,1.0496209412941206,-5.18798828125,-1.220703125,-5.1403045654296875,7.4045978655933355
1784554762.931635,-0.115234375,-0.1767578125,0.9687499403953552,0.9914629254175015,-3.4770965576171875,3.7822723388671875,0.7190704345703125,5.18775932423877
1784554762.939661,-0.1157226487994194,-0.14453125,0.9072265028953552,0.9259270712250788,-4.5166015625,0.79345703125,3.4046173095703125,5.711451895923076
1784554762.947687,-0.0683593675494194,-0.19873046875,1.00830078125,1.029969547030742,-6.4678192138671875,-0.9784698486328125,2.7904510498046875,7.11173014739094
1784554762.955717,-0.0820312350988388,-0.20654296875,1.046875,1.0702038997765353,-6.04248046875,2.8076171875,1.9397735595703125,6.939524908030715
1784554762.963747,-0.14306640625,-0.16162109375,1.00732421875,1.030190009766419,-4.3315887451171875,2.9315948486328125,2.1228790283203125,5.6447785414698535
1784554762.971777,-0.12890625,-0.15478515625,0.9707030653953552,0.9913827248103221,-4.9419403076171875,2.3174285888671875,6.3915252685546875,8.405048752215748
1784554762.979807,-0.0561523400247097,-0.17041015625,0.9199218153953552,0.9372560232314786,-4.8828125,5.37109375,8.775711059570312,11.388749298430886
1784554762.990394,-0.1064453050494194,-0.18310546875,0.8559569716453552,0.8817712588656474,-3.60107421875,6.77490234375,9.813308715820312,12.456647432125951
1784554763.000982,-0.0791015550494194,-0.14453125,0.9116210341453552,0.9263904404375326,-6.6509246826171875,8.359909057617188,8.710861206054688,13.784120629790824
1784554763.011568,-0.0883788987994194,-0.24365234375,1.03515625,1.0671109390695648,-6.9561004638671875,4.2705535888671875,2.1228790283203125,8.433953817023301
1784554763.022252,-0.0786132737994194,-0.23779296875,1.0576171875,1.0868668999007243,-3.60107421875,0.18310546875,-0.2574920654296875,3.6149087547808625
1784554763.032934,-0.0722656175494194,-0.21044921875,0.9990233778953552,1.023503249986892,-1.0986328125,0.91552734375,0.0476837158203125,1.430894164713108
1784554763.043617,-0.0791015550494194,-0.1943359375,0.9560546278953552,0.978807419329955,-0.6694793701171875,0.1811981201171875,-1.9054412841796875,2.0277430491072694
1784554763.054272,-0.06884765625,-0.19189453125,0.9760741591453552,0.997138042121595,-1.46484375,-1.89208984375,-3.9234161376953125,4.5955375505226765
1784554763.064929,-0.0810546875,-0.18798828125,0.9780272841453552,0.9992231106143368,-1.89208984375,-0.67138671875,-4.5948028564453125,5.014277354966894
1784554763.075584,-0.08154296875,-0.20068359375,0.9746093153953552,0.9983919461856559,-1.5239715576171875,-0.3643035888671875,-4.7740936279296875,5.024656842166091
1784554763.086303,-0.0952148362994194,-0.203125,0.9702147841453552,0.9958124110748687,-1.0967254638671875,0.1811981201171875,-4.7740936279296875,4.9017965553526945
1784554763.097021,-0.09130859375,-0.2060546875,0.9711913466453552,0.9969997118014347,-1.0986328125,1.220703125,-4.6520233154296875,4.933399548322419
1784554763.107739,-0.1005859375,-0.20458984375,0.9555663466453552,0.9823856563639122,-1.1577606201171875,1.9550323486328125,-4.0416717529296875,4.636558173486514
1784554763.115717,-0.1025390550494194,-0.20849609375,0.9658202528953552,0.9933748737623096,-1.3408660888671875,2.4433135986328125,-3.1261444091796875,4.188135871313564
1784554763.123694,-0.1162109300494194,-0.1943359375,0.9633788466453552,0.9896313652217626,-1.5869140625,2.44140625,-2.2754669189453125,3.6954716097561606
1784554763.131671,-0.1044921800494194,-0.19287109375,0.9628905653953552,0.9875606894885947,-2.0751953125,1.953125,-1.2340545654296875,3.105482816102003
1784554763.139648,-0.1025390550494194,-0.1982421875,0.9672850966453552,0.9927007005676117,-1.8901824951171875,1.5239715576171875,-0.2574920654296875,2.4416349721104584
1784554763.150299,-0.1127929612994194,-0.203125,0.9589843153953552,0.9867283997726986,-1.77001953125,0.732421875,0.2918243408203125,1.9376718994402007
1784554763.16095,-0.1049804612994194,-0.1982421875,0.9750975966453552,1.000567931298506,-1.77001953125,0.3662109375,0.9021759033203125,2.020148745088569
1784554763.171601,-0.1015624925494194,-0.21484375,0.9780272841453552,1.0064840512097808,-1.7070770263671875,0.3643035888671875,1.1425018310546875,2.0861782073388326
1784554763.182317,-0.0991210862994194,-0.2080078125,0.9619140028953552,0.9891262754453435,-1.3408660888671875,-0.1811981201171875,1.4514923095703125,1.9843347882224287
1784554763.193029,-0.0947265550494194,-0.21337890625,0.9794921278953552,1.0069302391292794,-0.9765625,-0.30517578125,1.5735626220703125,1.8769405689697782
1784554763.203743,-0.0800781175494194,-0.212890625,0.9721679091453552,0.9984214374176873,-0.5474090576171875,-0.4291534423828125,1.2073516845703125,1.3933870401669188
1784554763.21172,-0.10400390625,-0.2099609375,0.9833983778953552,1.0109266924156042,0.18310546875,-1.89208984375,0.9632110595703125,2.131034287567101
1784554763.219697,-0.0922851487994194,-0.212890625,0.9619140028953552,0.9895036714777702,0.125885009765625,-2.50244140625,1.8138885498046875,3.0932590739397696
1784554763.227675,-0.1079101487994194,-0.189453125,0.9526366591453552,0.9772684846723556,-0.0591278076171875,-2.9315948486328125,1.8787384033203125,3.4824420228159743
1784554763.235653,-0.1059570237994194,-0.1923828125,0.9506835341453552,0.9757239463767114,0.1239776611328125,-3.0536651611328125,2.7332305908203125,4.100096442691586
1784554763.246301,-0.1044921800494194,-0.17822265625,0.9619140028953552,0.9838498258669619,-0.6694793701171875,-2.7484893798828125,2.7904510498046875,3.973539173041735
1784554763.256949,-0.1123046800494194,-0.18310546875,0.9453124403953552,0.9694099049490786,-1.0967254638671875,-2.2602081298828125,3.4618377685546875,4.277343599627549
1784554763.267597,-0.08984375,-0.1962890625,0.9697265028953552,0.99346403351548,-1.5239715576171875,-1.8291473388671875,4.1980743408203125,4.826188710231395
1784554763.278295,-0.0971679612994194,-0.181640625,0.9633788466453552,0.9851567040411443,-1.5869140625,-1.40380859375,4.8694610595703125,5.310426143005685
1784554763.28899,-0.0996093675494194,-0.18896484375,0.9565429091453552,0.9801041145272866,-1.7070770263671875,-0.7343292236328125,5.4798126220703125,5.786337162284352
1784554763.299686,-0.1000976487994194,-0.1884765625,0.9677733778953552,0.9910238467715973,-1.5239715576171875,-0.6122589111328125,5.9032440185546875,6.127449732579565
1784554763.310337,-0.09521484375,-0.19921875,0.9604491591453552,0.9855032035081973,-1.46484375,0.3662109375,6.8225860595703125,6.987671872870238
1784554763.320987,-0.0883788987994194,-0.212890625,0.9746093153953552,1.0014971620635236,-0.6103515625,0.244140625,6.7615509033203125,6.793430966221216
1784554763.331639,-0.0834960862994194,-0.21337890625,0.9682616591453552,0.9950039168921309,-0.2422332763671875,-0.3070831298828125,6.9446563720703125,6.955661660473071
1784554763.339637,-0.0874023362994194,-0.21484375,0.9653319716453552,0.9928055301947951,-0.5474090576171875,-0.1811981201171875,6.4563751220703125,6.482072905481994
1784554763.347634,-0.0888671800494194,-0.21240234375,0.9638671278953552,0.9909853538562868,-0.48828125,-0.06103515625,6.1511993408203125,6.1708506058653105
1784554763.355632,-0.09130859375,-0.18994140625,0.9550780653953552,0.9780537347713388,-0.91552734375,-0.18310546875,5.9032440185546875,5.976621777596587
1784554763.36363,-0.0952148362994194,-0.18310546875,0.9692382216453552,0.9909673092670278,-1.5239715576171875,-0.0019073486328125,5.4149627685546875,5.625327966549009
1784554763.374295,-0.09326171875,-0.181640625,0.9555663466453552,0.9771377117252951,-1.46484375,0.244140625,4.9915313720703125,5.207759335362147
1784554763.38496,-0.0966796800494194,-0.18798828125,0.9770507216453552,0.9996572748144719,-1.5869140625,1.0986328125,4.3201446533203125,4.731695269570305
1784554763.395625,-0.0869140550494194,-0.19189453125,0.9770507216453552,0.9995027147319311,-1.7681121826171875,1.1577606201171875,3.7670135498046875,4.319377435259109
1784554763.403632,-0.0986328125,-0.1953125,0.9731444716453552,0.9974395054597686,-1.0986328125,1.28173828125,2.1839141845703125,2.760313069905437
1784554763.411638,-0.1015624925494194,-0.1904296875,0.9721679091453552,0.9958357542015903,-0.7305145263671875,0.3643035888671875,1.5087127685546875,1.7153958132439693
1784554763.419644,-0.0996093675494194,-0.2138671875,0.9677733778953552,0.9961157116297993,-0.0591278076171875,-0.3070831298828125,1.3256072998046875,1.3619951760515578
1784554763.42765,-0.0961913913488388,-0.21044921875,0.9716796278953552,0.9988508180449004,0.244140625,-1.15966796875,0.9632110595703125,1.5271574862464925
1784554763.438376,-0.0991210862994194,-0.21240234375,0.9580077528953552,0.9862649745313264,0.244140625,-1.8310546875,0.5359649658203125,1.9234407601945744
1784554763.449102,-0.1079101487994194,-0.1982421875,0.9653319716453552,0.9913679340181458,0.06103515625,-1.8310546875,-0.0133514404296875,1.8321203071511794
1784554763.459828,-0.1103515625,-0.1982421875,0.9692382216453552,0.9954396830291765,-0.1220703125,-1.52587890625,-0.0743865966796875,1.5325602642304577
1784554763.47044,-0.0966796800494194,-0.20556640625,0.9560546278953552,0.9826723560949113,-0.42724609375,-1.52587890625,-0.4405975341796875,1.6446798619453424
1784554763.481055,-0.10400390625,-0.2060546875,0.9477538466453552,0.9754551248453457,-0.79345703125,-1.220703125,-0.5016326904296875,1.5399108857114283
1784554763.491671,-0.076171875,-0.203125,0.9648436903953552,0.98893137631574,-0.6694793701171875,-1.2836456298828125,-0.3795623779296875,1.4966684097920246
1784554763.499652,-0.0791015625,-0.19580078125,0.9716796278953552,0.9943622591364315,-0.2422332763671875,-1.4057159423828125,-0.1964569091796875,1.4398991589737167
1784554763.507637,-0.0888671875,-0.201171875,0.9760741591453552,1.0005439842688018,0.2460479736328125,-0.9784698486328125,-0.9288787841796875,1.3714075418020226
1784554763.51562,-0.0908203125,-0.2177734375,0.9638671278953552,0.9923272844583108,1.1005401611328125,-1.4667510986328125,-1.1730194091796875,2.176814637473541
1784554763.523604,-0.0771484300494194,-0.19873046875,0.9721679091453552,0.9952668602142525,1.3427734375,-1.15966796875,-1.2989044189453125,2.1988685708236355
1784554763.534285,-0.0869140550494194,-0.197265625,0.9750975966453552,0.99864062743077,1.708984375,-0.8544921875,-1.6613006591796875,2.531936881654742
1784554763.544966,-0.07373046875,-0.18701171875,0.9716796278953552,0.9922554430381221,2.13623046875,-0.244140625,-2.0923614501953125,3.0001769445575484
1784554763.555647,-0.0844726487994194,-0.1787109375,0.9692382216453552,0.9891895459797225,1.5888214111328125,-0.0629425048828125,-2.2106170654296875,2.7230760263650273
1784554763.56364,-0.0830078050494194,-0.1796875,0.9482421278953552,0.9686800433945584,0.8544921875,0.91552734375,-2.5768280029296875,2.865028755935107
1784554763.571635,-0.0903320237994194,-0.18798828125,0.9619140028953552,0.9842652169904174,0.0629425048828125,1.1577606201171875,-2.4585723876953125,2.7182622386283644
1784554763.579628,-0.0888671875,-0.18212890625,0.9746093153953552,0.9954554902964695,-0.91552734375,1.28173828125,-2.2754669189453125,2.7674524454794356
1784554763.587622,-0.08154296875,-0.177734375,0.9628905653953552,0.982546184531084,-2.1953582763671875,1.5239715576171875,-1.7223358154296875,3.179391125852859
1784554763.598316,-0.08349609375,-0.18701171875,0.9501952528953552,0.9720164603782211,-2.86865234375,1.953125,-1.1730194091796875,3.6633097151673693
1784554763.60901,-0.0869140550494194,-0.193359375,0.9389647841453552,0.9625989646424193,-3.72314453125,1.89208984375,-0.5016326904296875,4.206357632620699
1784554763.619704,-0.1035156175494194,-0.20361328125,0.9711913466453552,0.9976905748661996,-4.08935546875,0.9765625,0.7190704345703125,4.265391512636902
1784554763.630404,-0.1079101487994194,-0.22412109375,0.9897460341453552,1.0205253926209126,-2.74658203125,-0.18310546875,3.2787322998046875,4.2810426254423195
1784554763.641105,-0.1108398362994194,-0.20263671875,0.9814452528953552,1.0082568589042558,-1.0967254638671875,-0.1239776611328125,4.5032501220703125,4.636533065284981
1784554763.651806,-0.0976562425494194,-0.21826171875,0.9785155653953552,1.0073071186592333,0.1239776611328125,0.7305145263671875,4.9266815185546875,4.982089192192545
1784554763.662423,-0.08642578125,-0.205078125,0.9687499403953552,0.9939833499783549,1.3427734375,1.708984375,4.5032501220703125,5.000292967454606
1784554763.673038,-0.1074218675494194,-0.1982421875,0.9838866591453552,1.0093920846612572,2.01416015625,4.21142578125,4.4384002685546875,6.4414552074751334
1784554763.683653,-0.0981445237994194,-0.19775390625,0.9604491591453552,0.985495582076332,2.5043487548828125,5.4302215576171875,3.9501190185546875,7.166764200923662
1784554763.691663,-0.0947265625,-0.19677734375,0.9624022841453552,0.9868701035012506,1.8939971923828125,6.7157745361328125,2.3670196533203125,7.368285758853852
1784554763.699672,-0.1132812425494194,-0.203125,0.9628905653953552,0.9905809641144571,1.3446807861328125,5.2471160888671875,1.2073516845703125,5.549602846770066
1784554763.707681,-0.0986328050494194,-0.19287109375,0.9711913466453552,0.9950579484809197,0.54931640625,3.90625,0.9632110595703125,4.060580392253549
1784554763.715691,-0.099609375,-0.1875,0.9672850966453552,0.9903124435147247,0.1239776611328125,2.2602081298828125,0.5970001220703125,2.341008414465931
1784554763.726358,-0.1049804612994194,-0.1982421875,0.9614257216453552,0.9872488442134111,-0.6694793701171875,0.6694793701171875,0.2307891845703125,0.9745095698553411
1784554763.737026,-0.1049804612994194,-0.18359375,0.9560546278953552,0.979166999961614,-1.5869140625,-0.18310546875,-0.3795623779296875,1.641917005571856
1784554763.747694,-0.1059570163488388,-0.1904296875,0.9643554091453552,0.9886716898661564,-2.0751953125,-1.3427734375,-0.5016326904296875,2.522124391378281
1784554763.758415,-0.1005859375,-0.1875,0.9638671278953552,0.9870732602294497,-2.5005340576171875,-1.5277862548828125,-0.4405975341796875,2.9632629989654222
1784554763.769137,-0.1108398362994194,-0.1845703125,0.9697265028953552,0.993338391478395,-2.7446746826171875,-1.2836456298828125,-0.5626678466796875,3.081814452916359
1784554763.77986,-0.107421875,-0.1865234375,0.9658202528953552,0.98951463499444,-2.8667449951171875,-0.9784698486328125,-0.3223419189453125,3.046232825051675
1784554763.787799,-0.1206054612994194,-0.193359375,0.9658202528953552,0.9923418191825255,-3.1108856201171875,-0.6122589111328125,0.3490447998046875,3.1897182615372364
1784554763.79574,-0.1040038987994194,-0.19287109375,0.9604491591453552,0.9851287515207446,-3.35693359375,-0.67138671875,0.7801055908203125,3.511171885822494
1784554763.803682,-0.1064453050494194,-0.208984375,0.9663085341453552,0.9943627382013818,-3.1108856201171875,-0.9784698486328125,0.8373260498046875,3.3669166161069297
1784554763.811622,-0.1030273362994194,-0.20751953125,0.9599608778953552,0.9875241136118117,-3.3550262451171875,-1.6460418701171875,1.0852813720703125,3.8914638120078724
1784554763.82229,-0.0966796725988388,-0.2109375,0.9780272841453552,1.0051760823521458,-3.1719207763671875,-1.3408660888671875,1.2073516845703125,3.649205580678976
1784554763.832958,-0.1083984300494194,-0.2080078125,0.9794921278953552,1.007185334636672,-2.5634765625,-1.708984375,1.3256072998046875,3.3539937975160945
1784554763.843626,-0.0947265625,-0.2109375,0.9790038466453552,1.0059404963991252,-1.2187957763671875,-2.1343231201171875,1.3904571533203125,2.8238571884528594
1784554763.854289,-0.099609375,-0.19921875,0.9790038466453552,1.0040212496186798,0.0,-2.3193359375,1.3904571533203125,2.7041986402996785
1784554763.864955,-0.0932617112994194,-0.203125,0.9653319716453552,0.9908699853664986,0.9174346923828125,-1.8939971923828125,1.3904571533203125,2.5223566113381253
1784554763.875621,-0.1015624925494194,-0.19921875,0.9658202528953552,0.9913686555198632,1.4667510986328125,-0.9784698486328125,1.0852813720703125,2.070410028614357
1784554763.883633,-0.09912109375,-0.2255859375,0.9404296278953552,0.9721737969351707,1.0395050048828125,1.6460418701171875,-1.1730194091796875,2.2728834170866676
1784554763.891644,-0.0898437425494194,-0.228515625,0.9296874403953552,0.9615664437641811,0.1239776611328125,2.7484893798828125,-2.2106170654296875,3.5293614354097445
1784554763.899655,-0.1069335862994194,-0.23388671875,0.9433593153953552,0.9777855526799781,-0.5474090576171875,2.1953582763671875,-3.3092498779296875,4.0087890182139665
1784554763.907666,-0.0898437425494194,-0.22802734375,0.9624022841453552,0.9931195920437599,-1.5239715576171875,1.0356903076171875,-4.7740936279296875,5.117334627514326
1784554763.918373,-0.0888671875,-0.2255859375,0.9799804091453552,1.0095286001498975,-1.5869140625,-1.220703125,-5.8116912841796875,6.146882782659448
1784554763.92908,-0.10546875,-0.2236328125,0.9643554091453552,0.9955484152973818,-1.2187957763671875,-3.8471221923828125,-6.0596466064453125,7.280462162707737
1784554763.939788,-0.0971679612994194,-0.208984375,0.9736327528953552,1.000538264739442,-1.155853271484375,-5.615234375,-6.4830780029296875,8.654314199487649
1784554763.947743,-0.1040038987994194,-0.2041015625,0.9711913466453552,0.9978411148971763,-0.48828125,-6.40869140625,-7.0934295654296875,9.572172539155162
1784554763.955697,-0.0937499925494194,-0.19384765625,0.9873046278953552,1.0105129406396636,0.6122589111328125,-7.0209503173828125,-7.2154998779296875,10.086230357364574
1784554763.963651,-0.10009765625,-0.19384765625,0.9799804091453552,1.0039711434742828,1.220703125,-6.4697265625,-7.8296661376953125,10.229914454220792
1784554763.971606,-0.08984375,-0.18896484375,0.9697265028953552,0.9920428932285034,1.8310546875,-5.18798828125,-8.253097534179688,9.918750051477549
1784554763.982275,-0.1127929612994194,-0.18994140625,0.9614257216453552,0.9864782857053732,1.2836456298828125,-4.0912628173828125,-7.8868865966796875,8.97714641369417
1784554763.992945,-0.1108398288488388,-0.2109375,0.9477538466453552,0.9772499426434147,0.8563995361328125,-4.3964385986328125,-7.2765350341796875,8.544592127227684
1784554764.003615,-0.10888671875,-0.20556640625,0.9414061903953552,0.9697213415272335,-0.3643035888671875,-4.5795440673828125,-6.6661834716796875,8.095859623786598
1784554764.011621,-0.0922851487994194,-0.22119140625,0.9384765028953552,0.9685970954811289,-1.644134521484375,-3.96728515625,-6.0596466064453125,7.427102182597357
1784554764.019628,-0.0981445237994194,-0.2216796875,0.9560546278953552,0.9863136838359481,-2.3784637451171875,-3.4198760986328125,-5.9947967529296875,7.300015782570144
1784554764.027633,-0.0874023362994194,-0.22314453125,0.9624022841453552,0.99179171540479,-2.8667449951171875,-3.2367706298828125,-5.6285858154296875,7.097597428648493
1784554764.035639,-0.0727538987994194,-0.21484375,0.9794921278953552,1.0054132460404277,-2.315521240234375,-3.173828125,-5.6285858154296875,6.864095123370147
1784554764.046301,-0.0727538987994194,-0.212890625,0.9794921278953552,1.0049976998045207,-1.8291473388671875,-2.7484893798828125,-5.3882598876953125,6.31928148415307
1784554764.056963,-0.0825195237994194,-0.1923828125,0.9746093153953552,0.9968369656111756,-0.667572021484375,-3.173828125,-5.0830841064453125,6.029641896838211
1784554764.067626,-0.0610351525247097,-0.19091796875,0.9750975966453552,0.9954849489665267,-0.0591278076171875,-3.8471221923828125,-4.4689178466796875,5.897039255518838
1784554764.078296,-0.06982421875,-0.17724609375,0.9711913466453552,0.9896990608626949,1.1005401611328125,-6.4067840576171875,-3.0040740966796875,7.161182289646443
1784554764.088966,-0.0561523400247097,-0.18505859375,0.9653319716453552,0.9845128662905768,0.6122589111328125,-6.4716339111328125,-2.0923614501953125,6.828973780316421
1784554764.099637,-0.07568359375,-0.1904296875,0.9633788466453552,0.9849316090003395,0.1239776611328125,-5.9185028076171875,-1.0509490966796875,6.012365586692508
1784554764.110348,-0.06640625,-0.21435546875,0.9775390028953552,1.0029658813757028,-0.244140625,-3.96728515625,-0.5626678466796875,4.014417923119631
1784554764.121058,-0.0449218712747097,-0.20166015625,0.9755858778953552,0.997222441728247,-0.6694793701171875,-1.1577606201171875,-0.1964569091796875,1.3517424302251804
1784554764.131767,-0.0703125,-0.20947265625,0.9677733778953552,0.9926771642057989,-0.5474090576171875,1.5239715576171875,0.1659393310546875,1.6277843365686904
1784554764.139725,-0.0859375,-0.21826171875,0.9677733778953552,0.9957955325974003,-0.30517578125,4.5166015625,2.0618438720703125,4.974336346150397
1784554764.147686,-0.0883788987994194,-0.21240234375,0.9716796278953552,0.9985423799971371,-0.06103515625,4.69970703125,3.2787322998046875,5.730711732731082
1784554764.155648,-0.0810546875,-0.21044921875,0.9755858778953552,1.0013124093843335,0.18310546875,4.150390625,4.9915313720703125,6.494201674658417
1784554764.163608,-0.08544921875,-0.2070312350988388,0.9477538466453552,0.9738587449536014,-0.1201629638671875,4.2705535888671875,6.3915252685546875,7.687890630845683
1784554764.174283,-0.10009765625,-0.21142578125,0.9541015028953552,0.9823594452088764,-0.5474090576171875,5.0029754638671875,7.3680877685546875,8.922899614673677
1784554764.184956,-0.0922851487994194,-0.20068359375,0.9580077528953552,0.9831425675338007,-1.0986328125,6.28662109375,8.287429809570312,10.45992790040346
1784554764.19563,-0.0825195237994194,-0.21435546875,0.9824218153953552,1.008915438555591,-0.5474090576171875,7.4443817138671875,8.710861206054688,11.471598786972548
1784554764.203621,-0.0869140550494194,-0.20703125,0.9746093153953552,1.0001396447982147,0.3070831298828125,8.909225463867188,8.165359497070312,12.088907896541956
1784554764.211612,-0.0810546875,-0.20849609375,0.9819335341453552,1.0070918274685376,1.15966796875,9.70458984375,7.6770782470703125,12.42825105333814
1784554764.219601,-0.0874023362994194,-0.20166015625,0.9638671278953552,0.9886080250769828,2.13623046875,9.70458984375,6.7615509033203125,12.019197779769797
1784554764.227592,-0.076171875,-0.20166015625,0.9594725966453552,0.9833903786763274,2.6874542236328125,8.848190307617188,6.2122344970703125,11.140230669538356
1784554764.238385,-0.0947265625,-0.201171875,0.9721679091453552,0.9972731263330692,2.99072265625,6.9580078125,5.5980682373046875,9.417890566094814
1784554764.249179,-0.087890625,-0.20166015625,0.9687499403953552,0.9934123150020183,2.5043487548828125,4.9419403076171875,4.6215057373046875,7.214766245005773
1784554764.259973,-0.09033203125,-0.2021484225988388,0.9370116591453552,0.9628160312350854,1.5888214111328125,3.7822723388671875,3.9501190185546875,5.6950309729255535
1784554764.270514,-0.0976562425494194,-0.23828125,0.9624022841453552,0.996259430238244,-0.30517578125,2.99072265625,2.1228790283203125,3.680240431405372
1784554764.281054,-0.1083984300494194,-0.2412109375,0.9765624403953552,1.0117347162165284,-0.30517578125,2.3193359375,1.0204315185546875,2.5522013894871964
1784554764.291595,-0.12646484375,-0.2265625,0.9838866591453552,1.01752487987035,0.125885009765625,1.5869140625,0.6542205810546875,1.7210891453145238
1784554764.299683,-0.13720703125,-0.22705078125,0.9589843153953552,0.9950018813374033,1.3427734375,0.06103515625,0.5359649658203125,1.4470743724290045
1784554764.307773,-0.1279296875,-0.2373046875,0.9716796278953552,1.0083852532242705,2.2602081298828125,-1.4057159423828125,0.7190704345703125,2.757107250531016
1784554764.315863,-0.1279296875,-0.2216796875,0.9672850966453552,1.0005740087500572,3.11279296875,-3.11279296875,1.4514923095703125,4.63527669695571
1784554764.323953,-0.115234375,-0.1845703125,0.9663085341453552,0.9905035813161573,3.5419464111328125,-4.3964385986328125,2.3021697998046875,6.0970519530358125
1784554764.331892,-0.1201171875,-0.18359375,0.9633788466453552,0.9880453460928337,3.421783447265625,-5.126953125,2.7332305908203125,6.7427590620252955
1784554764.339831,-0.1220703050494194,-0.173828125,0.9716796278953552,0.99462489194808,2.5653839111328125,-5.9833526611328125,3.3435821533203125,7.318554863836596
1784554764.34777,-0.1215820237994194,-0.17529296875,0.9555663466453552,0.9790898101019652,2.13623046875,-4.94384765625,3.9501190185546875,6.678963282169764
1784554764.35571,-0.1147460862994194,-0.18359375,0.9633788466453552,0.9874067710542759,1.1005401611328125,-2.8057098388671875,4.0760040283203125,5.069221358854414
1784554764.366335,-0.1059570237994194,-0.17919921875,0.9711913466453552,0.993253181566442,0.7953643798828125,-1.7719268798828125,4.1980743408203125,4.625598073275661
1784554764.376961,-0.0869140550494194,-0.19287109375,0.9926757216453552,1.0149671916439376,1.5888214111328125,-0.9784698486328125,3.8928985595703125,4.316991535347526
1784554764.387587,-0.0854492112994194,-0.20751953125,0.9824218153953552,1.0077294016384646,2.6874542236328125,-0.0019073486328125,3.0384063720703125,4.056393364053606
1784554764.398298,-0.0537109337747097,-0.18603515625,0.9677733778953552,0.9869545352907089,3.5419464111328125,-0.9174346923828125,0.4138946533203125,3.682170498248458
1784554764.40901,-0.0444335862994194,-0.189453125,0.9604491591453552,0.979963987841754,2.62451171875,-1.03759765625,-0.6847381591796875,2.904055268886658
1784554764.419723,-0.0742187425494194,-0.17919921875,0.9550780653953552,0.9745742109996354,1.3427734375,-1.89208984375,-3.0651092529296875,3.84420852890067
1784554764.430354,-0.08154296875,-0.21142578125,0.9628905653953552,0.9891958136067516,-0.3643035888671875,-3.1757354736328125,-3.1871795654296875,4.513992300131216
1784554764.440989,-0.0795898362994194,-0.22216796875,0.9814452528953552,1.0094196019552508,1.15966796875,-7.9345703125,-5.9337615966796875,9.975558256457719
1784554764.451624,-0.0263671837747097,-0.205078125,0.9663085341453552,0.9881823965725508,0.7953643798828125,-2.5653839111328125,-7.0934295654296875,7.584889063657917
1784554764.459673,-0.1176757737994194,-0.23486328125,1.0029296875,1.036762415738368,2.685546875,-0.67138671875,-12.037277221679688,12.351476229807707
1784554764.467725,-0.083984375,-0.21484375,1.02197265625,1.0476828347743814,5.0067901611328125,-3.0536651611328125,-12.285232543945312,13.613219945800687
1784554764.475775,-0.078125,-0.20166015625,0.9912108778953552,1.0145291216627816,6.0443878173828125,-2.0771026611328125,-12.525558471679688,14.061955574502344
1784554764.483826,-0.0834960862994194,-0.1630859375,0.9570311903953552,0.9744112678059119,6.2885284423828125,-2.5653839111328125,-13.078689575195312,14.73699106284859
1784554764.491814,-0.1142578050494194,-0.1201171875,0.9545897841453552,0.9688780319226445,4.7607421875,-4.45556640625,-12.590408325195312,14.178685410555284
1784554764.499802,-0.10302734375,-0.13232421875,0.9843749403953552,0.9985581383706897,2.13623046875,-5.859375,-11.548995971679688,13.125359574507454
1784554764.50779,-0.0961913913488388,-0.11669921875,0.9580077528953552,0.9698713038512345,1.3446807861328125,-7.6923370361328125,-10.328292846679688,12.948121432116325
1784554764.515778,-0.1157226487994194,-0.12939453125,0.9501952528953552,0.9659221991379165,-1.220703125,-8.4228515625,-8.501052856445312,12.029232902865022
1784554764.526373,-0.07958984375,-0.1123046875,0.9287108778953552,0.9388561022775447,-4.6367645263671875,-6.2885284423828125,-7.0362091064453125,10.514438350823056
1784554764.536968,-0.09130859375,-0.13330078125,0.9169921278953552,0.9311181021742163,-8.970260620117188,-4.0912628173828125,-5.5713653564453125,11.324491996055423
1784554764.547564,-0.12451171875,-0.16650390625,0.9472655653953552,0.9698137812417237,-11.350631713867188,-4.5795440673828125,-4.1637420654296875,12.92848839409996
1784554764.558274,-0.08447265625,-0.19580078125,0.9404296278953552,0.9643036143328704,-12.75634765625,-3.35693359375,-2.6988983154296875,13.463931847606455
1784554764.568985,-0.07568359375,-0.2216796725988388,0.9584960341453552,0.9867038720299102,-14.22119140625,0.9765625,-1.2340545654296875,14.3079995107654
1784554764.579696,-0.080078125,-0.2412109225988388,1.0009765625,1.0327387346075556,-13.790130615234375,3.0517578125,-0.0133514404296875,14.123778049528417
1784554764.587679,-0.0927734300494194,-0.24169921875,1.00390625,1.0367512625777493,-10.679244995117188,1.2187957763671875,1.3256072998046875,10.830003302101135
1784554764.595665,-0.0639648362994194,-0.26318359375,0.9824218153953552,1.0190729746522973,-8.115768432617188,1.6460418701171875,2.2449493408203125,8.579915421080448
1784554764.60365,-0.05712890625,-0.25146484375,0.9848632216453552,1.018063772521742,-5.1860809326171875,1.5239715576171875,2.1228790283203125,5.807283368061516
1784554764.611634,-0.0317382775247097,-0.2587890625,0.9804686903953552,1.0145432223298558,-3.108978271484375,2.74658203125,2.1228790283203125,4.660050870519499
1784554764.619614,-0.0434570237994194,-0.271484375,0.9902343153953552,1.0276946424756488,-1.5869140625,4.08935546875,1.4514923095703125,4.620384650253434
1784554764.627594,-0.0561523400247097,-0.25341796875,0.9687499403953552,1.0029208339603035,1.15966796875,3.5400390625,0.2918243408203125,3.736558283723919
1784554764.635575,-0.0390624925494194,-0.2490234375,0.9633788466453552,0.9958098979786376,2.3193359375,4.69970703125,-0.0133514404296875,5.240872411299596
1784554764.643554,-0.0541992112994194,-0.2490234375,0.9541015028953552,0.9875524820266369,2.8076171875,4.39453125,-1.4171600341796875,5.403976474897735
1784554764.654293,-0.0654296875,-0.23974609375,0.9575194716453552,0.98924353526052,3.173828125,3.84521484375,-1.7223358154296875,5.274969461783471
1784554764.66503,-0.07421875,-0.2294921875,0.9536132216453552,0.9836428536170692,2.5634765625,5.18798828125,-1.8444061279296875,6.073587774752147
1784554764.675768,-0.08642578125,-0.2392578125,0.9604491591453552,0.9935674631397597,1.8310546875,6.591796875,-2.0923614501953125,7.154196233549854
1784554764.683728,-0.10546875,-0.2255859375,0.9501952528953552,0.9822849337382634,1.468658447265625,6.4697265625,-1.6040802001953125,6.825495785428439
1784554764.691689,-0.1147460862994194,-0.22216796875,0.9599608778953552,0.991993023034515,1.2836456298828125,6.2236785888671875,-0.9288787841796875,6.422206558211924
1784554764.699649,-0.1127929612994194,-0.22412109375,0.9667968153953552,0.9988236075709209,1.8310546875,5.18798828125,0.4749298095703125,5.522095797704124
1784554764.707608,-0.12841796875,-0.1982421875,0.9575194716453552,0.9862224283510599,2.3822784423828125,4.5795440673828125,1.8138885498046875,5.471532336855512
1784554764.715621,-0.13427734375,-0.19189453125,0.9633788466453552,0.9914397199688681,2.9315948486328125,3.8433074951171875,2.7904510498046875,5.581386738070609
1784554764.723634,-0.123046875,-0.20654296875,0.9667968153953552,0.9962412426947248,3.421783447265625,3.0517578125,4.2552947998046875,6.255346636228933
1784554764.731647,-0.126953125,-0.1953125,0.9716796278953552,0.9992123737576369,3.35693359375,2.74658203125,5.6629180908203125,7.133116942162987
1784554764.739661,-0.11767578125,-0.19677734375,0.9755858778953552,1.002166013021273,4.0302276611328125,2.5005340576171875,6.5174102783203125,8.060523699476281
1784554764.750309,-0.0986328050494194,-0.18994140625,0.9584960341453552,0.9821002064517237,3.662109375,2.5634765625,7.0056915283203125,8.310365271811385
1784554764.760958,-0.095703125,-0.1928710788488388,0.9628905653953552,0.9866694391327155,3.0536651611328125,2.6226043701171875,7.6160430908203125,8.614350640629036
1784554764.771607,-0.1005859375,-0.20068359375,0.9614257216453552,0.9872845860563514,2.2602081298828125,2.6836395263671875,7.1277618408203125,7.944523318445408
1784554764.779604,-0.09033203125,-0.19921875,0.9633788466453552,0.9879001915097742,1.956939697265625,2.86865234375,6.9446563720703125,7.764472382214598
1784554764.787601,-0.0869140475988388,-0.19677734375,0.9692382216453552,0.9928232999791905,1.9550323486328125,2.8057098388671875,6.7615509033203125,7.577118832531835
1784554764.795598,-0.0937499925494194,-0.21240234375,0.9682616591453552,0.9957080180978887,1.8310546875,2.5634765625,5.8460235595703125,6.640795495582866
1784554764.803596,-0.0791015625,-0.20556640625,0.9716796278953552,0.996331221951484,2.2602081298828125,2.8057098388671875,5.0525665283203125,6.205560169187571
1784554764.814271,-0.0893554612994194,-0.20263671875,0.9721679091453552,0.9970739600560483,2.685546875,2.9296875,4.5032501220703125,6.006204502629327
1784554764.824947,-0.0922851487994194,-0.2041015625,0.9790038466453552,1.0043020104780607,3.173828125,2.86865234375,3.1604766845703125,5.318925089720285
1784554764.835624,-0.0922851487994194,-0.1982421875,0.9755858778953552,0.9997921377679297,3.47900390625,2.685546875,2.2449493408203125,4.935121856689516
1784554764.846276,-0.0971679612994194,-0.18798828125,0.9726561903953552,0.9954101020709103,3.604888916015625,1.953125,1.1425018310546875,4.256199219538557
1784554764.85693,-0.1108398362994194,-0.18359375,0.9667968153953552,0.9902970345348637,2.8705596923828125,1.5239715576171875,0.8373260498046875,3.35614617822892
1784554764.867583,-0.1015624925494194,-0.189453125,0.9692382216453552,0.9927890796958673,2.262115478515625,0.6103515625,0.7801055908203125,2.4694655698784858
1784554764.87559,-0.1069335862994194,-0.19482421875,0.9677733778953552,0.9929635335969741,1.8939971923828125,-0.3070831298828125,1.0852813720703125,2.204395851469382
1784554764.883597,-0.1103515625,-0.193359375,0.9663085341453552,0.9916236677332421,0.8563995361328125,-0.7953643798828125,1.7566680908203125,2.1099543700234724
1784554764.891604,-0.12353515625,-0.181640625,0.9741210341453552,0.9985820149815031,0.492095947265625,-1.03759765625,2.7332305908203125,2.964678191670506
1784554764.899611,-0.1210937425494194,-0.18994140625,0.9755858778953552,1.0012538326726663,0.4901885986328125,-0.7953643798828125,3.2787322998046875,3.4092484293167176
1784554764.910274,-0.1010742112994194,-0.20361328125,0.9755858778953552,1.0017196062971125,1.15966796875,-0.3662109375,3.4618377685546875,3.6692316612992806
1784554764.920938,-0.11865234375,-0.18701171875,0.9980468153953552,1.022325392107624,2.13623046875,-0.18310546875,4.1980743408203125,4.7138982169066725
1784554764.9316,-0.1171875,-0.19140625,0.9755858778953552,1.001067963648904,3.7250518798828125,0.5474090576171875,4.1980743408203125,5.639104215674127
1784554764.942247,-0.1059570237994194,-0.1845703125,0.9643554091453552,0.9875598444128253,4.8847198486328125,0.4901885986328125,4.6215057373046875,6.742335510918832
1784554764.952892,-0.1142578050494194,-0.1884765625,0.9658202528953552,0.990649797622437,5.1898956298828125,0.4901885986328125,4.5642852783203125,6.928780672903267
1784554764.963537,-0.11474609375,-0.18017578125,0.9760741591453552,0.9991750308785963,4.7607421875,0.79345703125,4.3201446533203125,6.477491031402084
1784554764.97156,-0.08642578125,-0.18310546875,0.9589843153953552,0.9801264946552196,4.2133331298828125,0.8525848388671875,3.6487579345703125,5.63848485285933
1784554764.979583,-0.1020507737994194,-0.14794921875,0.9658202528953552,0.9824011872268088,2.99072265625,0.79345703125,2.7332305908203125,4.128504030474365
1784554764.987606,-0.08544921875,-0.15478515625,0.9658202528953552,0.9818700395078619,1.03759765625,-0.06103515625,1.6956329345703125,1.9888452014557303
1784554764.995629,-0.09033203125,-0.1435546875,0.9614257216453552,0.9762721149424815,-0.1811981201171875,-1.9550323486328125,0.8373260498046875,2.134502086346194
1784554765.006304,-0.09033203125,-0.15087890625,0.9697265028953552,0.9855423941356367,-2.0732879638671875,-3.2367706298828125,0.5359649658203125,3.8810392340422553
1784554765.016979,-0.1079101487994194,-0.1552734375,0.9643554091453552,0.9827185740357637,-3.3550262451171875,-5.0067901611328125,-0.5016326904296875,6.047791677889475
1784554765.027653,-0.1040038987994194,-0.16845703125,0.9604491591453552,0.9806412033185549,-3.8433074951171875,-6.6547393798828125,-0.9288787841796875,7.74076123594354
1784554765.038305,-0.0883788987994194,-0.17333984375,0.9760741591453552,0.9952779990211703,-5.67626953125,-7.62939453125,-1.6613006591796875,9.653373326721358
1784554765.048955,-0.1103515625,-0.2075195163488388,0.9721679091453552,1.000176114783741,-6.04248046875,-7.080078125,-1.1730194091796875,9.381633706644115
1784554765.059607,-0.1166992112994194,-0.205078125,0.9741210341453552,1.002291141553111,-6.04248046875,-7.62939453125,-1.1730194091796875,9.802816210814365
1784554765.067606,-0.1059570237994194,-0.2138671875,0.9536132216453552,0.9830280979089174,-5.859375,-7.87353515625,-0.0743865966796875,9.81480334052065
1784554765.075607,-0.1010742038488388,-0.20654296875,0.9589843153953552,0.9861677898806258,-5.4912567138671875,-6.6547393798828125,1.0204315185546875,8.68796506644763
1784554765.083608,-0.10986328125,-0.2260742038488388,0.9692382216453552,1.0013002629137544,-5.06591796875,-5.67626953125,1.5087127685546875,7.756273259465603
1784554765.091609,-0.1123046800494194,-0.2265625,0.9853515028953552,1.0172809306309578,-3.90625,-5.615234375,2.1228790283203125,7.162140847369859
1784554765.102307,-0.1044921875,-0.22900390625,0.9707030653953552,1.0028089785668222,-2.9296875,-4.94384765625,2.7332305908203125,6.363587664082331
1784554765.113005,-0.0795898362994194,-0.23291015625,0.9799804091453552,1.010417381696923,-1.8901824951171875,-4.0302276611328125,2.9735565185546875,5.353275934831546
1784554765.123703,-0.0795898362994194,-0.23291015625,0.9682616591453552,0.999055715912523,-1.0356903076171875,-2.6874542236328125,2.7332305908203125,3.970593668459413
1784554765.131682,-0.0683593675494194,-0.20458984375,0.9570311903953552,0.9810396050552478,-0.1220703125,-0.91552734375,2.5501251220703125,2.712237013345608
1784554765.139662,-0.0419921875,-0.19873046875,0.9628905653953552,0.9840809844459025,0.1850128173828125,-0.0019073486328125,1.4514923095703125,1.4632372689746844
1784554765.147642,-0.0605468712747097,-0.19921875,0.9750975966453552,0.9970804164942096,-0.2422332763671875,0.4901885986328125,0.7801055908203125,0.9526418819463542
1784554765.155622,-0.07666015625,-0.20458984375,0.9721679091453552,0.9964156900079281,-0.0591278076171875,0.9784698486328125,0.2918243408203125,1.0227711318825654
1784554765.166279,-0.0737304612994194,-0.19384765625,0.9760741591453552,0.9978646495934985,-0.2422332763671875,0.0591278076171875,-0.0133514404296875,0.2497024604899697
1784554765.176936,-0.0541992112994194,-0.189453125,0.9780272841453552,0.9976810159617572,-0.7305145263671875,0.6694793701171875,-0.5016326904296875,1.1106257048860833
1784554765.187593,-0.0576171875,-0.197265625,0.9624022841453552,0.9840993972309138,-0.9765625,1.8310546875,-0.6847381591796875,2.185246423554735
1784554765.195608,-0.0917968675494194,-0.1884765625,0.9726561903953552,0.9949925347549636,-1.28173828125,3.23486328125,-1.2340545654296875,3.691894383708596
1784554765.203624,-0.1010742112994194,-0.21435546875,0.9697265028953552,0.9982653723286645,-1.5239715576171875,2.7484893798828125,-1.4171600341796875,3.4474665686893813
1784554765.211638,-0.0937499925494194,-0.1943359375,0.9741210341453552,0.997731079435454,-1.0356903076171875,2.8057098388671875,-0.9288787841796875,3.131689305934971
1784554765.219653,-0.0903320237994194,-0.2080078125,0.9726561903953552,0.9987428043791552,-0.6694793701171875,3.1719207763671875,-0.6847381591796875,3.3133291996418217
1784554765.230333,-0.0971679612994194,-0.21142578125,0.9658202528953552,0.9934541935001866,0.06103515625,3.60107421875,-0.2574920654296875,3.6107842614871952
1784554765.241014,-0.1142578050494194,-0.22216796875,0.9638671278953552,0.9957174762905656,0.67138671875,3.23486328125,0.9632110595703125,3.441348009105149
1784554765.251693,-0.119140625,-0.201171875,0.9775390028953552,1.0051104984020671,0.7343292236328125,2.9888153076171875,1.7566680908203125,3.5437464826133196
1784554765.25968,-0.1030273362994194,-0.212890625,0.9687499403953552,0.997202836565284,1.1005401611328125,3.0498504638671875,2.3021697998046875,3.9765264094872914
1784554765.267668,-0.099609375,-0.21630859375,0.9570311903953552,0.9862150549994376,1.15966796875,3.173828125,2.5501251220703125,4.233338269380312
1784554765.275656,-0.109375,-0.22021484375,0.9545897841453552,0.985748002294457,1.03759765625,3.90625,2.6721954345703125,4.84520653835251
1784554765.283643,-0.0986328125,-0.20654296875,0.9575194716453552,0.9844957939075839,0.42724609375,4.21142578125,2.7904510498046875,5.070035837837627
1784554765.294392,-0.1103515625,-0.20166015625,0.9667968153953552,0.993750656967615,0.0629425048828125,4.7588348388671875,2.9735565185546875,5.61181870266459
1784554765.305141,-0.1015624925494194,-0.20751953125,0.9702147841453552,0.9973444856804938,0.18310546875,4.57763671875,2.6721954345703125,5.303669859830347
1784554765.315891,-0.0908203125,-0.1972656100988388,0.9599608778953552,0.9842189477854436,-0.1811981201171875,4.9419403076171875,2.2449493408203125,5.430967161163379
1784554765.326462,-0.0874023362994194,-0.1962890625,0.9858397841453552,1.0089839663996085,0.18310546875,3.41796875,1.3256072998046875,3.6705956876177734
1784554765.337034,-0.0986328050494194,-0.203125,0.9667968153953552,0.9928163365474589,0.7953643798828125,2.5005340576171875,0.6542205810546875,2.7043076080145507
1784554765.347605,-0.1035156175494194,-0.20458984375,0.9843749403953552,1.0107257345692975,1.1005401611328125,1.9550323486328125,0.3490447998046875,2.2705004740668215
1784554765.355628,-0.095703125,-0.1923827975988388,0.9750975966453552,0.998491638387758,1.89208984375,1.0986328125,-0.1392364501953125,2.1923468755164066
1784554765.36365,-0.1005859375,-0.1982421875,0.9619140028953552,0.9872669571568292,2.38037109375,0.42724609375,-0.6275177001953125,2.4984963943627414
1784554765.371672,-0.1347656100988388,-0.20458984375,0.9692382216453552,0.9997207130640099,2.6874542236328125,-0.7953643798828125,-0.9899139404296875,2.972363421650395
1784554765.379694,-0.1040038987994194,-0.1884765625,0.9492186903953552,0.9733223247070671,2.685546875,-0.91552734375,-0.6275177001953125,2.9058786621320944
1784554765.390341,-0.1059570237994194,-0.18798828125,0.9633788466453552,0.9872513798134165,2.38037109375,-1.3427734375,-0.9899139404296875,2.906739867596199
1784554765.400988,-0.1108398288488388,-0.185546875,0.9638671278953552,0.9878020807422642,1.2836456298828125,-0.7953643798828125,-0.9288787841796875,1.772897739747769
1784554765.411635,-0.1113281175494194,-0.17333984375,0.9648436903953552,0.9865921133295663,0.6122589111328125,-1.0395050048828125,-0.8678436279296875,1.4861306106719272
1784554765.422285,-0.1157226413488388,-0.18115234375,0.9589843153953552,0.9827811651335043,-0.79345703125,-0.79345703125,-1.0509490966796875,1.5374141031914526
1784554765.432937,-0.1025390550494194,-0.19384765625,0.9526366591453552,0.9775519300741367,-0.9765625,-0.30517578125,-1.3561248779296875,1.6987881734953325
1784554765.443589,-0.0874023362994194,-0.18798828125,0.9741210341453552,0.9959370218253473,-1.7070770263671875,0.4901885986328125,-1.2989044189453125,2.2003521367580916
1784554765.45159,-0.1044921875,-0.19482421875,0.9741210341453552,0.9988928283977713,-1.644134521484375,0.6103515625,-2.1495819091796875,2.7742403895220464
1784554765.459594,-0.0849609375,-0.18603515625,0.9970702528953552,1.0178293223672858,-1.4019012451171875,0.6694793701171875,-2.8820037841796875,3.274061016551107
1784554765.467597,-0.0810546875,-0.18212890625,0.9638671278953552,0.984266549820111,-0.7305145263671875,0.4901885986328125,-4.0416717529296875,4.136308365425964
1784554765.475599,-0.087890625,-0.18212890625,0.9541015028953552,0.9752975844745476,-0.3643035888671875,0.3070831298828125,-5.0830841064453125,5.10536592094211
1784554765.486277,-0.0747070237994194,-0.19775390625,0.9814452528953552,1.0039534507500478,-0.79345703125,-0.1220703125,-6.5479278564453125,6.596956452398819
1784554765.496955,-0.09375,-0.19140625,0.9716796278953552,0.9947797315516227,-0.42724609375,-0.3662109375,-7.2154998779296875,7.23740893992958
1784554765.507633,-0.0839843675494194,-0.208984375,0.9682616591453552,0.9941119069590367,-0.0591278076171875,-0.7953643798828125,-8.069992065429688,8.109307771352503
1784554765.515639,-0.0966796800494194,-0.22119140625,0.9555663466453552,0.985585938198421,-0.5474090576171875,-1.7108917236328125,-8.863449096679688,9.043646225709438
1784554765.523643,-0.0981445237994194,-0.22900390625,0.9653319716453552,0.9969658730920946,-0.2422332763671875,-2.0771026611328125,-8.741378784179688,8.988032903453979
1784554765.531648,-0.0986328050494194,-0.2275390625,0.9628905653953552,0.9943141838084593,-0.3643035888671875,-2.1991729736328125,-8.924484252929688,9.198668276093473
1784554765.539653,-0.1118163987994194,-0.21435546875,0.9692382216453552,0.9989363865240638,-0.1811981201171875,-2.1343231201171875,-8.501052856445312,8.766759242039088
1784554765.5503,-0.1074218675494194,-0.21533203125,0.9672850966453552,0.9967686790335409,0.18310546875,-2.86865234375,-8.436203002929688,8.912475244769457
1784554765.560947,-0.0922851487994194,-0.2138671875,0.9775390028953552,1.0049070726986333,0.3681182861328125,-2.9315948486328125,-7.5244903564453125,8.083793326981727
1784554765.571594,-0.1059570163488388,-0.20068359375,0.9755858778953552,1.0016329663418702,0.9174346923828125,-3.4198760986328125,-6.8531036376953125,7.71377134829522
1784554765.582253,-0.1059570163488388,-0.20556640625,0.9682616591453552,0.9954974019368429,1.3427734375,-3.35693359375,-6.0596466064453125,7.056299359601111
1784554765.592911,-0.1030273362994194,-0.19384765625,0.9638671278953552,0.9885501434402875,1.2836456298828125,-3.5419464111328125,-6.1168670654296875,7.18395386807239
1784554765.60357,-0.0981445237994194,-0.2080078125,0.9550780653953552,0.9823816511988527,1.15966796875,-3.5400390625,-5.0830841064453125,6.301940208774403
1784554765.614254,-0.08642578125,-0.19677734375,0.9687499403953552,0.9923039784733219,1.3427734375,-3.7841796875,-4.4116973876953125,5.9654111553472
1784554765.624938,-0.0878906175494194,-0.19921875,0.9609374403953552,0.9852987543676068,1.3446807861328125,-3.9081573486328125,-4.3468475341796875,5.998078339240948
1784554765.635623,-0.0986328050494194,-0.20361328125,0.9711913466453552,0.9971957833505549,0.8544921875,-3.5400390625,-4.0416717529296875,5.440325727468361
1784554765.646285,-0.0976562425494194,-0.18896484375,0.9804686903953552,1.0032762863378741,0.2460479736328125,-3.4198760986328125,-3.6754608154296875,5.026440523977963
1784554765.656949,-0.0830078050494194,-0.197265625,0.9580077528953552,0.9816225736571929,0.06103515625,-3.7841796875,-3.3092498779296875,5.027412450969555
1784554765.667611,-0.0834960862994194,-0.19921875,0.9628905653953552,0.9868221459342456,-0.3643035888671875,-3.7250518798828125,-3.6144256591796875,5.20315303046302
1784554765.675618,-0.0830078050494194,-0.20263671875,0.9765624403953552,1.0008127374668154,-0.3643035888671875,-3.6029815673828125,-2.8209686279296875,4.590431055960358
1784554765.683626,-0.0839843675494194,-0.18896484375,0.9770507216453552,0.9986937462675168,-0.3032684326171875,-2.9315948486328125,-2.4585723876953125,3.838072209363753
1784554765.691634,-0.07177734375,-0.19970703125,0.9658202528953552,0.988859770801372,0.1239776611328125,-3.0536651611328125,-1.9054412841796875,3.6015202157189936
1784554765.699642,-0.08154296875,-0.20458984375,0.9760741591453552,1.0006133239516277,0.7343292236328125,-2.6226043701171875,-1.4171600341796875,3.070119810905612
1784554765.710295,-0.07470703125,-0.20068359375,0.9873046278953552,1.0102601019451325,1.220703125,-2.3193359375,-0.8106231689453125,2.7434549809309265
1784554765.720948,-0.0917968675494194,-0.2021484375,0.9785155653953552,1.0033859513649614,1.8939971923828125,-2.0771026611328125,0.4138946533203125,2.8412830928448733
1784554765.731601,-0.08154296875,-0.19970703125,0.9741210341453552,0.9977193709894924,2.2602081298828125,-1.7719268798828125,0.9021759033203125,3.0103466608633997
1784554765.73959,-0.07470703125,-0.201171875,0.9702147841453552,0.9936639226536417,2.50244140625,-1.220703125,1.4514923095703125,3.1399297819921075
1784554765.747581,-0.0620117150247097,-0.19482421875,0.9741210341453552,0.9953460293668077,2.4433135986328125,-0.9784698486328125,1.9397735595703125,3.2695421771794937
1784554765.755573,-0.0751953050494194,-0.1884765625,0.9614257216453552,0.9826073309082238,2.13623046875,-0.30517578125,2.4280548095703125,3.248393915668929
1784554765.763564,-0.08056640625,-0.18505859375,0.9770507216453552,0.9976801800198684,1.4057159423828125,0.0591278076171875,2.7332305908203125,3.074098708711021
1784554765.774245,-0.0786132737994194,-0.18896484375,0.9501952528953552,0.9719870254359326,0.9174346923828125,0.4901885986328125,3.0994415283203125,3.2693285341937877
1784554765.784928,-0.0776367112994194,-0.18701171875,0.9584960341453552,0.9796506976282885,-0.1811981201171875,0.8525848388671875,3.5877227783203125,3.692084560282797
1784554765.795609,-0.0712890625,-0.17578125,0.9697265028953552,0.9881045838884398,-0.8525848388671875,1.7070770263671875,3.9501190185546875,4.386850025036675
1784554765.806275,-0.0712890625,-0.1728515625,0.9887694716453552,1.0062926319657992,-1.2187957763671875,2.6836395263671875,4.3201446533203125,5.229821610493314
1784554765.816941,-0.080078125,-0.1875,0.9760741591453552,0.9971406722498225,-1.3408660888671875,3.4770965576171875,4.1332244873046875,5.565219402837806
1784554765.827607,-0.07568359375,-0.185546875,0.9877929091453552,1.0079139251657478,-0.732421875,3.41796875,4.2552947998046875,5.506948884109956
1784554765.838255,-0.0825195237994194,-0.1923828125,0.9750975966453552,0.9973143643490957,-0.6103515625,4.08935546875,4.0149688720703125,5.763274435885843
1784554765.848906,-0.0869140550494194,-0.19287109375,0.9794921278953552,1.0020769134045677,-0.0591278076171875,4.3315887451171875,4.0149688720703125,5.906448357359358
1784554765.859555,-0.0781249925494194,-0.1943359375,0.9682616591453552,0.9906566567866825,-0.2422332763671875,4.1484832763671875,4.1332244873046875,5.8610694516387465
1784554765.867576,-0.09375,-0.18505859375,0.9663085341453552,0.9883258211657089,-0.1811981201171875,4.6367645263671875,4.5642852783203125,6.50884921730429
1784554765.875597,-0.0878906175494194,-0.20263671875,0.9726561903953552,0.9974199041293443,-0.362396240234375,4.21142578125,4.4384002685546875,6.129178989866384
1784554765.883618,-0.1074218675494194,-0.2041015625,0.9619140028953552,0.989179182155039,-0.4253387451171875,4.1484832763671875,4.1332244873046875,5.8714879889897755
1784554765.891639,-0.0917968600988388,-0.1962890625,0.9653319716453552,0.9893542717661068,-0.4253387451171875,3.9653778076171875,3.9501190185546875,5.613249902328259
1784554765.902292,-0.1030273362994194,-0.197265625,0.9565429091453552,0.9820909814614192,-0.6084442138671875,3.7822723388671875,4.0149688720703125,5.549393070457515
1784554765.912946,-0.0981445237994194,-0.205078125,0.9721679091453552,0.9983986320490338,-0.48828125,3.41796875,3.7670135498046875,5.10992368235478
1784554765.923598,-0.1113281100988388,-0.20166015625,0.9746093153953552,1.001460974962258,-0.5474090576171875,3.1108856201171875,3.5877227783203125,4.780064931765222
1784554765.931608,-0.0869140550494194,-0.19482421875,0.9672850966453552,0.9905306594795011,-0.2422332763671875,2.8057098388671875,3.4046173095703125,4.4183824737930415
1784554765.939618,-0.10546875,-0.203125,0.9663085341453552,0.9930436073072056,0.1239776611328125,2.0732879638671875,3.4046173095703125,3.988146495077921
1784554765.947627,-0.1020507737994194,-0.212890625,0.9770507216453552,1.0051690859321432,0.54931640625,2.44140625,2.9735565185546875,3.8864188349627926
1784554765.955636,-0.0947265550494194,-0.21240234375,0.9726561903953552,1.0000739675526151,1.2836456298828125,2.1343231201171875,2.3670196533203125,3.435966141187748
1784554765.966295,-0.103515625,-0.20654296875,0.9707030653953552,0.9978175803858856,2.3193359375,1.89208984375,2.3021697998046875,3.77615001753554
1784554765.976953,-0.1054687425494194,-0.19287109375,0.9506835341453552,0.9757674397900248,2.50244140625,2.01416015625,1.5087127685546875,3.548981310846741
1784554765.987612,-0.1035156175494194,-0.2041015625,0.9604491591453552,0.9873375907938474,2.13623046875,1.953125,1.1425018310546875,3.1118303802110034
1784554765.998306,-0.099609375,-0.21044921875,0.9609374403953552,0.9887424667798753,1.7108917236328125,1.3408660888671875,-0.0133514404296875,2.173764159063902
1784554766.008996,-0.1118163987994194,-0.212890625,0.9521483778953552,0.9820447335952256,1.7108917236328125,0.6694793701171875,0.1659393310546875,1.8446921094314463
1784554766.019687,-0.099609375,-0.19140625,0.9790038466453552,1.0025003301113449,1.64794921875,0.30517578125,0.1087188720703125,1.679490600802673
1784554766.027678,-0.1103515550494194,-0.20263671875,0.9750975966453552,1.002025163591783,1.89208984375,-0.06103515625,-0.2574920654296875,1.9105055432737188
1784554766.035668,-0.0908203125,-0.1977538913488388,0.9614257216453552,0.985745580232292,2.2602081298828125,-0.1239776611328125,-0.6275177001953125,2.3489763121212475
1784554766.043658,-0.0986328050494194,-0.19482421875,0.9550780653953552,0.9797239496117256,2.445220947265625,0.30517578125,-1.0509490966796875,2.6789422804943
1784554766.051649,-0.0859375,-0.1972656100988388,0.9414061903953552,0.9656834834191858,1.956939697265625,0.79345703125,-1.2340545654296875,2.445828634559665
1784554766.062289,-0.1015624850988388,-0.20166015625,0.9707030653953552,0.996617378017344,1.3427734375,1.0986328125,-1.6613006591796875,2.402072946716667
1784554766.07293,-0.08837890625,-0.20166015625,0.9682616591453552,0.9929795014297308,0.9784698486328125,1.0356903076171875,-2.0923614501953125,2.531409507811633
1784554766.083571,-0.09912109375,-0.18603515625,0.9687499403953552,0.9914184371914628,0.9784698486328125,1.0356903076171875,-2.2754669189453125,2.684735993946179
1784554766.09426,-0.0917968675494194,-0.18017578125,0.9721679091453552,0.9929755387787682,0.7343292236328125,0.4901885986328125,-2.7637481689453125,2.9013493778342756
1784554766.104949,-0.0869140550494194,-0.189453125,0.9731444716453552,0.9952169121509725,0.67138671875,0.06103515625,-2.9468536376953125,3.0229839196413946
1784554766.115638,-0.1010742112994194,-0.18798828125,0.9716796278953552,0.9948451584764257,1.5888214111328125,-0.3070831298828125,-3.4351348876953125,3.7972101893092742
1784554766.123648,-0.0922851487994194,-0.19189453125,0.9594725966453552,0.9828162206262007,1.40380859375,-0.54931640625,-3.7975311279296875,4.085788754898703
1784554766.131657,-0.09912109375,-0.1865234375,0.9804686903953552,1.002963028634952,1.8310546875,-0.6103515625,-4.5299530029296875,4.9239988329825595
1784554766.139666,-0.0986328125,-0.205078125,0.9575194716453552,0.9841895181494141,1.708984375,-0.54931640625,-4.3468475341796875,4.702920326092458
1784554766.155689,-0.1030273362994194,-0.2099609375,0.9501952528953552,0.978554671914503,1.64794921875,-1.0986328125,-3.4351348876953125,3.9652089958717034
1784554766.163698,-0.0971679612994194,-0.19140625,0.9448241591453552,0.9689017787922961,1.03759765625,-1.64794921875,-3.1261444091796875,3.683086258951811
1784554766.171708,-0.1005859375,-0.1972656100988388,0.9711913466453552,0.996114392802975,0.5512237548828125,-2.0771026611328125,-2.4585723876953125,3.2653914433601905
1784554766.179718,-0.1132812425494194,-0.18408203125,0.9843749403953552,1.0078258070822683,0.5512237548828125,-2.5653839111328125,-1.7871856689453125,3.1747558732491066
1784554766.187709,-0.1059570163488388,-0.1669921875,0.9770507216453552,0.9968657846808128,0.18310546875,-2.86865234375,-1.1157989501953125,3.0834560446430053
1784554766.1957,-0.0986328125,-0.142578125,0.9775390028953552,0.9927937628791899,-0.6103515625,-2.86865234375,-1.0509490966796875,3.115475774734962
1784554766.203691,-0.09130859375,-0.14306640625,0.9794921278953552,0.9940875637985134,-0.8525848388671875,-3.1108856201171875,-1.1157989501953125,3.4131389579352094
1784554766.211682,-0.08740234375,-0.15185546875,0.9873046278953552,1.002731111188768,-0.42724609375,-2.197265625,-1.6040802001953125,2.753831647012923
1784554766.222315,-0.09521484375,-0.17724609375,0.9619140028953552,0.9827311907058492,-1.0986328125,-1.52587890625,-2.0923614501953125,2.813054733115548
1784554766.232946,-0.07177734375,-0.18408203125,0.9580077528953552,0.9781702489406124,-1.89208984375,-0.54931640625,-3.1871795654296875,3.7469809277990573
1784554766.243578,-0.09033203125,-0.16650390625,0.9638671278953552,0.982305078325212,-2.9296875,-0.67138671875,-3.7403106689453125,4.79830729257686
1784554766.251592,-0.0712890625,-0.18359375,1.0029296875,1.022084513893073,-3.4770965576171875,-0.1239776611328125,-4.7168731689453125,5.861268072982966
1784554766.259607,-0.0976562425494194,-0.18212890625,0.9990233778953552,1.0201741958029218,-2.8057098388671875,-0.3070831298828125,-4.4689178466796875,5.285596888615984
1784554766.26762,-0.09521484375,-0.1650390625,0.9809569716453552,0.9992899173117089,-2.1953582763671875,-0.1239776611328125,-4.1027069091796875,4.654801005919008
1784554766.275635,-0.10009765625,-0.177734375,0.9672850966453552,0.9885593088103505,-1.644134521484375,-0.3662109375,-3.0040740966796875,3.4440891326769063
1784554766.286296,-0.1030273362994194,-0.19482421875,0.9589843153953552,0.9839827363377874,-1.7070770263671875,-0.4901885986328125,-2.0923614501953125,2.7445169473777478
1784554766.296958,-0.10546875,-0.18603515625,0.9511718153953552,0.9749156676297802,-2.44140625,0.1220703125,-0.5016326904296875,2.495395959530398
1784554766.30762,-0.1108398362994194,-0.18310546875,0.9794921278953552,1.0026055608293873,-2.685546875,0.42724609375,0.9632110595703125,2.884870324247775
1784554766.31827,-0.1059570163488388,-0.1904296875,0.9721679091453552,0.9962935304251189,-3.292083740234375,0.42724609375,1.6307830810546875,3.6986224509666306
1784554766.328922,-0.099609375,-0.20556640625,0.9682616591453552,0.9948418042771155,-3.3550262451171875,0.3643035888671875,2.6111602783203125,4.266975065472549
1784554766.339575,-0.1015624925494194,-0.2041015625,0.9638671278953552,0.990460614030176,-4.1484832763671875,0.6694793701171875,3.4618377685546875,5.4444868313829575
1784554766.347589,-0.0839843675494194,-0.19970703125,0.9619140028953552,0.9860095442182747,-4.268646240234375,0.6103515625,4.0149688720703125,5.891845618972616
1784554766.355603,-0.0820312350988388,-0.20166015625,0.9702147841453552,0.9943403187665849,-4.08935546875,0.732421875,3.8318634033203125,5.6517649539307255
1784554766.363616,-0.0786132737994194,-0.21728515625,0.9653319716453552,0.9926019854023859,-3.8433074951171875,1.1577606201171875,3.0384063720703125,5.034216467073656
1784554766.371629,-0.0878906175494194,-0.212890625,0.9462890028953552,0.9739148093477142,-3.60107421875,1.15966796875,2.2449493408203125,4.399132058661143
1784554766.379637,-0.0854492112994194,-0.22802734375,0.9697265028953552,0.9998337499939821,-3.1108856201171875,0.8525848388671875,2.0618438720703125,3.82827773309513
1784554766.387645,-0.0883788987994194,-0.21484375,0.9833983778953552,1.0104657521728662,-2.44140625,1.46484375,1.3904571533203125,3.168533222908157
1784554766.395652,-0.09423828125,-0.23486328125,0.9633788466453552,0.9960624562226034,-1.1577606201171875,1.7070770263671875,0.9632110595703125,2.2764659392846927
1784554766.403661,-0.09326171875,-0.21533203125,0.9560546278953552,0.9844318581733228,-0.8525848388671875,1.3408660888671875,0.5359649658203125,1.6769261225012106
1784554766.414315,-0.09130859375,-0.21484375,0.9604491591453552,0.9884116973759897,-0.5474090576171875,1.1577606201171875,0.4138946533203125,1.3458733647348153
1784554766.424968,-0.10009765625,-0.2119140475988388,0.9565429091453552,0.9848357433565891,-0.79345703125,1.220703125,0.1659393310546875,1.4653416125312575
1784554766.435622,-0.1059570237994194,-0.23291015625,0.9711913466453552,1.004333940268698,-0.5474090576171875,1.3408660888671875,-0.0743865966796875,1.4502109882361642
1784554766.443629,-0.10546875,-0.22412109375,0.9824218153953552,1.0131665930413243,-0.42724609375,1.40380859375,0.3490447998046875,1.5083269091220513
1784554766.451634,-0.1098632737994194,-0.21337890625,0.9716796278953552,1.0008805102654503,-0.1220703125,0.9765625,0.5970001220703125,1.1510797641137063
1784554766.45964,-0.1142578125,-0.1962890625,0.9482421278953552,0.9750627553598411,-0.0591278076171875,0.9136199951171875,0.3490447998046875,0.9798111376087941
1784554766.467646,-0.10009765625,-0.2070312350988388,0.9638671278953552,0.9909194282738304,-0.0591278076171875,0.7953643798828125,0.3490447998046875,0.8705933991770672
1784554766.478313,-0.1147460862994194,-0.20849609375,0.9663085341453552,0.9951831331931765,0.4291534423828125,0.3643035888671875,0.3490447998046875,0.6623609697447648
1784554766.488981,-0.0971679612994194,-0.1826171875,0.9609374403953552,0.9829503620361877,0.4291534423828125,0.5474090576171875,0.5359649658203125,0.8781160504495542
1784554766.499647,-0.1059570237994194,-0.2001953125,0.9785155653953552,1.0043892501218814,0.492095947265625,0.42724609375,0.2307891845703125,0.6913474478542004
1784554766.510308,-0.1079101487994194,-0.19921875,0.9677733778953552,0.9939406529207171,0.18310546875,0.18310546875,-0.3795623779296875,0.45948103781543953
1784554766.520969,-0.0883788987994194,-0.19287109375,0.9555663466453552,0.978834578158368,0.0629425048828125,-0.3070831298828125,-0.5626678466796875,0.6440938699185884
1784554766.53163,-0.1132812425494194,-0.2080078125,0.9589843153953552,0.9878009957217464,-0.2422332763671875,-0.1239776611328125,-0.6275177001953125,0.6839779855360543
1784554766.539622,-0.09033203125,-0.21484375,0.9755858778953552,1.003038143807435,-0.30517578125,-0.8544921875,-0.8678436279296875,1.2555643028129801
1784554766.547617,-0.09375,-0.21630859375,0.9697265028953552,0.9979719237772964,-0.1220703125,-1.40380859375,-1.4171600341796875,1.9984799952855103
1784554766.555612,-0.0878906175494194,-0.21533203125,0.9711913466453552,0.9986517291500014,0.06103515625,-1.3427734375,-1.5392303466796875,2.0435253497066532
1784554766.563607,-0.1074218675494194,-0.203125,0.9780272841453552,1.0046574499726484,0.3070831298828125,-1.5888214111328125,-1.1730194091796875,1.9986565636559346
1784554766.574274,-0.0908203125,-0.1962890625,0.9775390028953552,1.001179418187056,0.9174346923828125,-1.8939971923828125,-1.2989044189453125,2.4730678254138487
1784554766.584941,-0.0952148362994194,-0.20263671875,0.9746093153953552,0.999995411235819,1.5888214111328125,-1.7719268798828125,-1.7223358154296875,2.937774498704274
1784554766.595608,-0.0888671800494194,-0.203125,0.9687499403953552,0.9937975590284674,2.0160675048828125,-1.9550323486328125,-1.2340545654296875,3.067502296478846
1784554766.606319,-0.099609375,-0.1865234375,0.9682616591453552,0.9910820656714675,2.13623046875,-1.64794921875,-1.6613006591796875,3.168459739902883
1784554766.617033,-0.0971679612994194,-0.1982421875,0.9550780653953552,0.9802630711228517,2.3193359375,-1.708984375,-1.3561248779296875,3.1841830144501673
1784554766.627746,-0.1040038987994194,-0.18408203125,0.9672850966453552,0.9901229536713205,1.8939971923828125,-1.5888214111328125,-0.8678436279296875,2.6200632442302227
1784554766.635716,-0.0986328050494194,-0.19970703125,0.9594725966453552,0.9849867980211642,2.197265625,-1.708984375,-0.6275177001953125,2.8534859882009576
1784554766.643688,-0.099609375,-0.220703125,0.9560546278953552,0.9862415264491667,1.8310546875,-1.64794921875,-0.0743865966796875,2.464554982539453
1784554766.65166,-0.0942382737994194,-0.2021484375,0.9633788466453552,0.9888597702384907,1.7108917236328125,-2.0771026611328125,0.3490447998046875,2.7135471669294717
1784554766.659632,-0.0888671875,-0.20654296875,0.9702147841453552,0.995928763681641,1.89208984375,-2.01416015625,0.9021759033203125,2.9070202050172864
1784554766.670285,-0.0981445237994194,-0.2021484375,0.9741210341453552,0.9997040199478656,2.0771026611328125,-1.7108917236328125,1.2683868408203125,2.9749472487502024
1784554766.680936,-0.08544921875,-0.19482421875,0.9921874403953552,1.0147383712439477,2.197265625,-1.708984375,1.5087127685546875,3.166199304971298
1784554766.691588,-0.0976562425494194,-0.19287109375,0.9829100966453552,1.0064036260867575,2.13623046875,-1.8310546875,1.8787384033203125,3.3831789595500448
1784554766.702316,-0.0791015625,-0.181640625,0.9956054091453552,1.0151258565122958,3.11279296875,-1.40380859375,2.1228790283203125,4.020792708293724
1784554766.713041,-0.083984375,-0.1806640625,0.9667968153953552,0.987111422779488,3.1757354736328125,-0.9784698486328125,2.2449493408203125,4.010298815053923
1784554766.723767,-0.0825195237994194,-0.1806640625,0.9770507216453552,0.997034145831925,3.0536651611328125,-0.0629425048828125,2.7904510498046875,4.137082273365287
1784554766.731727,-0.09130859375,-0.18359375,0.9697265028953552,0.9911677026362998,2.6264190673828125,-0.0019073486328125,2.6111602783203125,3.703544080278865
1784554766.739686,-0.0678710862994194,-0.17529296875,0.9716796278953552,0.9896946036609009,2.62451171875,0.67138671875,2.3670196533203125,3.597444082563978
1784554766.747645,-0.08544921875,-0.1845703125,0.9863280653953552,1.0070803452693717,2.685546875,0.91552734375,2.6111602783203125,3.8559707382258503
1784554766.755605,-0.0859375,-0.18359375,0.9731444716453552,0.9940332397054085,2.4433135986328125,1.1577606201171875,1.9969940185546875,3.361275963812159
1784554766.766285,-0.0849609375,-0.1845703125,0.9604491591453552,0.9817062434660617,2.0771026611328125,1.6460418701171875,2.0618438720703125,3.3578280861083103
1784554766.776966,-0.0800781175494194,-0.18359375,0.9482421278953552,0.9691657768745409,1.15966796875,2.5634765625,1.5087127685546875,3.19256262307124
1784554766.787647,-0.08544921875,-0.185546875,0.9765624403953552,0.997699058733736,0.3070831298828125,2.9888153076171875,1.5735626220703125,3.3916686626618238
1784554766.798329,-0.0859375,-0.2001953125,0.9628905653953552,0.9872292833889246,-0.0591278076171875,3.3550262451171875,1.3256072998046875,3.607898545740196
1784554766.809011,-0.095703125,-0.19140625,0.9682616591453552,0.9916279953917921,-0.3643035888671875,3.4770965576171875,1.3904571533203125,3.762484374861168
1784554766.819693,-0.0908203125,-0.1904296875,0.9750975966453552,0.9976608231395544,-0.6694793701171875,3.8433074951171875,1.5087127685546875,4.182753799476656
1784554766.827718,-0.0986328125,-0.20068359375,0.9824218153953552,1.0075489863360394,-0.7305145263671875,3.6602020263671875,1.6956329345703125,4.099500139755513
1784554766.835742,-0.1020507737994194,-0.18798828125,0.9638671278953552,0.9873164612005769,-0.5474090576171875,3.4770965576171875,1.3256072998046875,3.7612620037229667
1784554766.843765,-0.099609375,-0.18212890625,0.9604491591453552,0.9826268637599583,-0.732421875,3.5400390625,1.6956329345703125,3.992929928737033
1784554766.851788,-0.1093749925494194,-0.193359375,0.9707030653953552,0.9957987638391179,-1.03759765625,3.23486328125,1.5735626220703125,3.7439349179989505
1784554766.862411,-0.1108398288488388,-0.19091796875,0.9599608778953552,0.9850177793017174,-1.0356903076171875,3.0498504638671875,1.2073516845703125,3.4397587641399876
1784554766.873035,-0.09033203125,-0.1972656100988388,0.9501952528953552,0.9746510223779002,-0.79345703125,2.9296875,1.3256072998046875,3.312080557805288
1784554766.88366,-0.115234375,-0.18603515625,0.9589843153953552,0.9836355817663881,-0.79345703125,2.50244140625,1.4514923095703125,2.9997694872933653
1784554766.891642,-0.1118163987994194,-0.18798828125,0.9604491591453552,0.9850406530853535,-0.79345703125,2.01416015625,1.0852813720703125,2.42162153360675
1784554766.899623,-0.1083984375,-0.185546875,0.9599608778953552,0.9837188374552599,-1.1577606201171875,1.7070770263671875,0.9021759033203125,2.251320276632491
1784554766.907604,-0.1166992112994194,-0.1953125,0.9638671278953552,0.9903562585309377,-1.46484375,1.28173828125,0.7801055908203125,2.09694658166699
1784554766.915586,-0.1025390625,-0.1962890625,0.9575194716453552,0.9827956013207976,-1.6460418701171875,1.3408660888671875,0.9021759033203125,2.3067936767263557
1784554766.926274,-0.1142578125,-0.1953125,0.9619140028953552,0.9881702127365005,-1.3408660888671875,0.7305145263671875,1.1425018310546875,1.9070615552390484
1784554766.936962,-0.1044921800494194,-0.19775390625,0.9560546278953552,0.9818684609705824,-0.6103515625,-0.06103515625,1.3256072998046875,1.4606467859958916
1784554766.947649,-0.1044921875,-0.1943359375,0.9736327528953552,0.9983214969953952,-0.79345703125,-0.18310546875,1.3904571533203125,1.6113574303505251
1784554766.958453,-0.1132812425494194,-0.20703125,0.9643554091453552,0.992812134060623,0.244140625,-0.732421875,1.3256072998046875,1.534040795105978
1784554766.96926,-0.0961913913488388,-0.20166015625,0.9599608778953552,0.9856188357970951,0.54931640625,-0.732421875,1.2073516845703125,1.515218930514235
1784554766.980066,-0.1015624925494194,-0.19970703125,0.9633788466453552,0.9890887929742578,0.732421875,-1.15966796875,0.9632110595703125,1.6760212248064852
1784554766.99065,-0.0947265625,-0.185546875,0.9565429091453552,0.9789663433957223,0.0,-1.0986328125,1.2073516845703125,1.6323884791729055
1784554767.001235,-0.1025390550494194,-0.1884765625,0.9672850966453552,0.9907967150805751,0.4291534423828125,-1.1005401611328125,1.1425018310546875,1.643372069051488
1784554767.011821,-0.0922851487994194,-0.19482421875,0.9638671278953552,0.9876805481215674,0.67138671875,-1.40380859375,1.1425018310546875,1.930478989257215
1784554767.019769,-0.0917968675494194,-0.1806640625,0.9702147841453552,0.9911523070371716,0.3662109375,-1.708984375,1.2073516845703125,2.124249546304186
1784554767.027721,-0.09423828125,-0.18505859375,0.9716796278953552,0.9936240919183359,0.3662109375,-1.5869140625,1.0204315185546875,1.9218967653244823
1784554767.035673,-0.08642578125,-0.181640625,0.9692382216453552,0.9898916418544579,0.244140625,-1.220703125,0.9632110595703125,1.5740064515238559
1784554767.043625,-0.0991210862994194,-0.1884765625,0.9667968153953552,0.9899719625421691,-0.0591278076171875,-1.1577606201171875,0.7801055908203125,1.3973082995376713
1784554767.054274,-0.1083984375,-0.18212890625,0.9760741591453552,0.9988202660617049,0.0629425048828125,-0.7953643798828125,0.4749298095703125,0.9285066395701148
1784554767.064921,-0.0849609375,-0.19482421875,0.9643554091453552,0.9874999707647247,0.2460479736328125,-0.4901885986328125,0.5359649658203125,0.7668656415208485
1784554767.075569,-0.0966796800494194,-0.18798828125,0.9819335341453552,1.0044301966293998,0.0,-0.1220703125,0.7190704345703125,0.729358246040302
1784554767.083579,-0.09765625,-0.19140625,0.9628905653953552,0.986575560527683,0.244140625,-0.18310546875,0.7190704345703125,0.7811495038305317
1784554767.09159,-0.1015624925494194,-0.18896484375,0.9619140028953552,0.9855461435328526,0.0,-0.1220703125,0.7801055908203125,0.7895985651094842
1784554767.099602,-0.0966796800494194,-0.18359375,0.9692382216453552,0.9911994531232204,-0.1811981201171875,-0.2460479736328125,0.9632110595703125,1.0105186338417418
1784554767.107612,-0.1010742112994194,-0.19287109375,0.9638671278953552,0.9881574243162685,0.308990478515625,0.1220703125,0.8373260498046875,0.9008280583378188
1784554767.118482,-0.1025390550494194,-0.19287109375,0.9570311903953552,0.9816426111392577,-0.1220703125,0.42724609375,1.1425018310546875,1.2258673744666653
1784554767.129352,-0.09130859375,-0.1904296875,0.9663085341453552,0.989117236901721,0.0,0.42724609375,0.7801055908203125,0.8894402495129972
1784554767.140223,-0.09375,-0.177734375,0.9619140028953552,0.9826785433308322,-0.30517578125,0.42724609375,1.1425018310546875,1.2573710335654689
1784554767.148974,-0.0961913987994194,-0.1943359375,0.9760741591453552,0.9998699945284412,-0.179290771484375,0.6103515625,1.2073516845703125,1.3646876202341784
1784554767.157727,-0.1025390550494194,-0.1875,0.9638671278953552,0.9872742010443041,-0.3643035888671875,0.7953643798828125,0.9632110595703125,1.3011906650934935
1784554767.16648,-0.0874023362994194,-0.189453125,0.9687499403953552,0.9909632192866024,-0.1220703125,0.48828125,1.0204315185546875,1.1378050027817752
1784554767.175234,-0.1069335862994194,-0.19384765625,0.9687499403953552,0.9937243846904824,0.244140625,0.6103515625,0.6542205810546875,0.9274363823449644
1784554767.186339,-0.0981445237994194,-0.197265625,0.9819335341453552,1.0063496111380195,0.06103515625,0.6103515625,0.9021759033203125,1.0909517315979085
1784554767.197446,-0.1064453050494194,-0.19970703125,0.9663085341453552,0.9924543739940378,0.244140625,0.6103515625,1.0852813720703125,1.268845668781039
1784554767.208554,-0.1010742112994194,-0.19970703125,0.9750975966453552,1.0004570043255412,0.1239776611328125,0.8525848388671875,0.4749298095703125,0.983783356204324
1784554767.219661,-0.09521484375,-0.1845703125,0.9780272841453552,0.999834703968323,0.4291534423828125,0.7305145263671875,0.7190704345703125,1.111254444407595
1784554767.227946,-0.09912109375,-0.18212890625,0.9716796278953552,0.9935578639338897,0.308990478515625,0.79345703125,0.7190704345703125,1.1145005455927406
1784554767.236227,-0.0981445237994194,-0.17919921875,0.9770507216453552,0.9981847625665975,0.4291534423828125,0.6694793701171875,0.6542205810546875,1.029747480112021
1784554767.244509,-0.1142578050494194,-0.17919921875,0.9711913466453552,0.9941729416022848,0.67138671875,0.54931640625,0.4749298095703125,0.988972681274766
1784554767.252791,-0.1108398362994194,-0.19287109375,0.9687499403953552,0.993962361023398,0.732421875,0.6103515625,0.4138946533203125,1.0393650065649933
1784554767.263062,-0.0903320237994194,-0.1982421875,0.9633788466453552,0.9877037215644269,0.54931640625,0.42724609375,0.2307891845703125,0.7331789594053273
1784554767.273334,-0.1127929612994194,-0.1982421875,0.9599608778953552,0.9866849061950317,0.18310546875,0.30517578125,-0.0133514404296875,0.3561434136822589
1784554767.283604,-0.1010742112994194,-0.193359375,0.9736327528953552,0.9977798262145703,0.1239776611328125,0.7305145263671875,-0.0743865966796875,0.7446846980158953
1784554767.294271,-0.10400390625,-0.18994140625,0.9653319716453552,0.9893231857205184,-0.244140625,0.6103515625,-0.3795623779296875,0.7590792273282289
1784554767.304939,-0.10791015625,-0.1962890625,0.9638671278953552,0.989552342282241,-0.179290771484375,0.30517578125,-0.3795623779296875,0.5189846211022531
1784554767.315605,-0.109375,-0.20068359375,0.9780272841453552,1.0043775007227882,0.0,0.06103515625,-0.6847381591796875,0.6874530070741192
1784554767.32362,-0.0981445237994194,-0.1884765625,0.9638671278953552,0.9870134763015509,-0.179290771484375,-0.06103515625,-1.1157989501953125,1.1317587058622018
1784554767.331636,-0.10400390625,-0.20068359375,0.9663085341453552,0.9923925133120559,0.0629425048828125,0.1811981201171875,-0.6847381591796875,0.7110983506461765
1784554767.339652,-0.10546875,-0.1943359375,0.9599608778953552,0.9850964424462143,-0.0591278076171875,-0.2460479736328125,-1.0509490966796875,1.0809855257006356
1784554767.347668,-0.1098632737994194,-0.193359375,0.9677733778953552,0.9929970280888573,0.0629425048828125,-0.3070831298828125,-0.9899139404296875,1.038359965058639
1784554767.358342,-0.1025390550494194,-0.18701171875,0.9677733778953552,0.9909959393071411,-0.1220703125,-0.732421875,-1.2340545654296875,1.440219995219556
1784554767.369016,-0.103515625,-0.18603515625,0.9653319716453552,0.988529402426054,0.1239776611328125,-0.7343292236328125,-1.1730194091796875,1.3894547144305909
1784554767.37969,-0.09912109375,-0.1875,0.9624022841453552,0.9854944940254072,0.1850128173828125,-0.9784698486328125,-0.9899139404296875,1.4041234264609632
1784554767.390429,-0.0927734300494194,-0.1943359375,0.9663085341453552,0.9900129034963552,0.1239776611328125,-0.9784698486328125,-1.1730194091796875,1.5325626380203012
1784554767.401169,-0.10546875,-0.1962890625,0.9697265028953552,0.9949987656783031,0.06103515625,-1.220703125,-1.1730194091796875,1.6940531113266464
1784554767.411909,-0.1035156175494194,-0.19287109375,0.9643554091453552,0.9888862912533798,0.3070831298828125,-1.1005401611328125,-1.4820098876953125,1.8713209244144986
1784554767.419837,-0.0908203125,-0.1845703125,0.9692382216453552,0.9908265538010151,0.4901885986328125,-1.1005401611328125,-1.2989044189453125,1.7716168316121568
1784554767.427768,-0.0966796800494194,-0.18896484375,0.9614257216453552,0.9845781284129828,0.244140625,-0.8544921875,-1.2340545654296875,1.5207406793177398
1784554767.435699,-0.0947265625,-0.189453125,0.9628905653953552,0.9859126985401491,0.1239776611328125,-0.9784698486328125,-1.2989044189453125,1.6309280777211304
1784554767.451713,-0.0986328125,-0.18701171875,0.9638671278953552,0.9867834893677185,0.0,-0.732421875,-1.1157989501953125,1.3347093692019536
1784554767.459791,-0.0883788987994194,-0.18994140625,0.9624022841453552,0.9849399596368413,-0.30517578125,-0.42724609375,-1.1730194091796875,1.285163809169261
1784554767.46787,-0.08984375,-0.18408203125,0.9741210341453552,0.9954244736832648,-0.3032684326171875,-0.4901885986328125,-1.0509490966796875,1.1986453221297522
1784554767.475949,-0.095703125,-0.185546875,0.9672850966453552,0.9895590882555955,-0.30517578125,-0.54931640625,-1.1157989501953125,1.2805811449861053
1784554767.486506,-0.099609375,-0.177734375,0.9716796278953552,0.9928105735292041,0.1239776611328125,-0.4901885986328125,-0.8106231689453125,0.9553874840715173
1784554767.497061,-0.0917968675494194,-0.19970703125,0.9912108778953552,1.0152874310660283,0.0629425048828125,-0.4901885986328125,-0.7457733154296875,0.8946644394170987
1784554767.507617,-0.1044921800494194,-0.18798828125,0.9697265028953552,0.9932913469855985,0.3070831298828125,-0.3070831298828125,-0.5626678466796875,0.7107708512624902
1784554767.518297,-0.0991210862994194,-0.19775390625,0.9702147841453552,0.9951122170692756,0.1850128173828125,-0.0019073486328125,-0.5626678466796875,0.5923077631281641
1784554767.52898,-0.1020507663488388,-0.19140625,0.9663085341453552,0.9903549336543909,-0.1811981201171875,0.4901885986328125,-0.5016326904296875,0.7243983552378691
1784554767.539661,-0.1064453050494194,-0.1923828125,0.9697265028953552,0.9943395999004211,-0.0591278076171875,0.6694793701171875,-0.5626678466796875,0.8765237192074596
1784554767.550313,-0.0917968675494194,-0.18408203125,0.9609374403953552,0.9827072928774816,-0.1811981201171875,0.5474090576171875,-0.6847381591796875,0.8951847751900872
1784554767.560963,-0.09521484375,-0.18994140625,0.9794921278953552,1.0022716362780777,-0.1220703125,0.30517578125,-0.9899139404296875,1.0430546620922734
1784554767.571615,-0.095703125,-0.1982421875,0.9692382216453552,0.9939224231990148,-0.6694793701171875,0.3643035888671875,-0.8678436279296875,1.155020473590049
1784554767.579617,-0.1005859375,-0.1943359375,0.9770507216453552,1.0012552622056312,-0.6694793701171875,0.1811981201171875,-0.9288787841796875,1.1592459538189657
1784554767.587619,-0.1079101487994194,-0.197265625,0.9609374403953552,0.9868936575812666,-0.7915496826171875,-0.0019073486328125,-0.8678436279296875,1.174609339554364
1784554767.595622,-0.1010742038488388,-0.20068359375,0.9785155653953552,1.0039833719763904,-0.9765625,0.48828125,-0.9288787841796875,1.4334952707305828
1784554767.603626,-0.0976562425494194,-0.1923828125,0.9584960341453552,0.9824777532985951,-0.8525848388671875,0.1811981201171875,-0.9288787841796875,1.27379333563154
1784554767.614275,-0.1020507737994194,-0.1796875,0.9697265028953552,0.9914995958178529,-0.6694793701171875,0.1811981201171875,-0.7457733154296875,1.0184366567212204
1784554767.624925,-0.1108398362994194,-0.19970703125,0.9682616591453552,0.9948361715440822,-0.4863739013671875,-0.0019073486328125,-0.7457733154296875,0.8903600664433091
1784554767.635575,-0.0986328050494194,-0.18505859375,0.9663085341453552,0.9888009387711914,-0.6084442138671875,-0.1239776611328125,-0.5016326904296875,0.7982544568971407
1784554767.646274,-0.0986328050494194,-0.18994140625,0.9663085341453552,0.9897264021952175,0.0,-0.30517578125,-0.4405975341796875,0.5359649658203125
1784554767.656973,-0.1030273362994194,-0.19970703125,0.9658202528953552,0.9916180168081307,0.18310546875,-0.79345703125,-0.3223419189453125,0.8757887792359338
1784554767.667671,-0.1020507737994194,-0.1884765625,0.9770507216453552,1.000282903839002,0.18310546875,-0.54931640625,-0.0743865966796875,0.5837889110176372
1784554767.675668,-0.1059570237994194,-0.189453125,0.9692382216453552,0.9932482608909754,0.67138671875,-0.732421875,0.3490447998046875,1.0531069277918086
1784554767.683666,-0.0981445237994194,-0.1796875,0.9692382216453552,0.9906274150791081,0.4901885986328125,-0.7953643798828125,-0.1392364501953125,0.9446036989547326
1784554767.691662,-0.0971679612994194,-0.19580078125,0.9770507216453552,1.0012031119153122,0.67138671875,-0.67138671875,0.1087188720703125,0.9556882574208099
1784554767.69966,-0.1079101487994194,-0.1953125,0.9765624403953552,1.0017313875790728,0.492095947265625,-0.244140625,0.0476837158203125,0.5513953235611232
1784554767.710331,-0.10498046875,-0.1904296875,0.9721679091453552,0.9961901466448908,0.4291534423828125,-0.2460479736328125,0.0476837158203125,0.4969768799373503
1784554767.721004,-0.0878906175494194,-0.2021484375,0.9614257216453552,0.9863712129204713,0.1239776611328125,-0.0019073486328125,0.1659393310546875,0.20714719411482926
1784554767.731675,-0.09814453125,-0.18701171875,0.9780272841453552,1.0005713870068695,0.0,0.06103515625,0.1659393310546875,0.17680823478938726
1784554767.742326,-0.0976562425494194,-0.2001953125,0.9624022841453552,0.9878426298677542,0.06103515625,-0.18310546875,-0.1964569091796875,0.2754055557701317
1784554767.752975,-0.0869140550494194,-0.185546875,0.9692382216453552,0.9906585819976779,0.0,-0.42724609375,0.1659393310546875,0.4583394879513557
1784554767.763625,-0.08544921875,-0.1875,0.9755858778953552,0.9971086320626436,0.3070831298828125,-0.4291534423828125,-0.0133514404296875,0.5278740254352261
1784554767.771605,-0.1162109225988388,-0.2060546875,0.9667968153953552,0.9953188408899917,0.06103515625,0.42724609375,-0.2574920654296875,0.5025601244451674
1784554767.779583,-0.1118163987994194,-0.1943359375,0.9794921278953552,1.0048254536253773,-0.2422332763671875,1.0356903076171875,0.2307891845703125,1.0883910240287709
1784554767.787561,-0.1079101487994194,-0.185546875,0.9677733778953552,0.9912908523733912,-0.179290771484375,1.0986328125,0.5359649658203125,1.2354746788291096
1784554767.795539,-0.1108398362994194,-0.19287109375,0.9770507216453552,1.0020543102960602,-0.30517578125,0.9765625,1.0204315185546875,1.4450214731718085
1784554767.806232,-0.1103515625,-0.1767578125,0.9609374403953552,0.9832708456877756,0.0,1.03759765625,1.2683868408203125,1.6387233061812558
1784554767.816926,-0.1103515625,-0.2021484225988388,0.9697265028953552,0.9967000263484723,-0.4253387451171875,0.8525848388671875,1.5735626220703125,1.8395415953820802
1784554767.827618,-0.08984375,-0.1826171875,0.9658202528953552,0.987030747994874,-0.42724609375,0.42724609375,1.8138885498046875,1.9118760734843196
1784554767.835659,-0.1010742112994194,-0.18798828125,0.9667968153953552,0.990076599226408,0.1239776611328125,-0.1239776611328125,1.3904571533203125,1.4014678077428506
1784554767.843699,-0.0986328125,-0.201171875,0.9702147841453552,0.9957486039994703,0.18310546875,-0.42724609375,1.5735626220703125,1.6407821802078386
1784554767.85174,-0.1069335862994194,-0.19384765625,0.9628905653953552,0.9880131308033615,-0.244140625,-0.06103515625,0.8373260498046875,0.8743253677867151
1784554767.867728,-0.09912109375,-0.19580078125,0.9755858778953552,0.9999653705569796,0.0,0.18310546875,0.4138946533203125,0.45258855126184855
1784554767.875679,-0.083984375,-0.1904296875,0.9677733778953552,0.9899000717691026,0.3070831298828125,-0.2460479736328125,-0.0133514404296875,0.3937231450511704
1784554767.883629,-0.08984375,-0.19677734375,0.9663085341453552,0.9902249267663955,0.2460479736328125,-0.3070831298828125,-0.1964569091796875,0.43981242723674085
1784554767.891578,-0.0888671875,-0.1962890625,0.9653319716453552,0.9890867447054368,0.3070831298828125,0.0591278076171875,-0.5016326904296875,0.591127314882307
1784554767.902255,-0.1015624925494194,-0.1875,0.9575194716453552,0.9809764158596531,0.18310546875,0.42724609375,-0.6275177001953125,0.7809259256608178
1784554767.912932,-0.0971679612994194,-0.19287109375,0.9697265028953552,0.9934839515186252,0.4291534423828125,0.3643035888671875,-0.1964569091796875,0.5962257115681667
1784554767.923609,-0.10986328125,-0.18212890625,0.9638671278953552,0.9870565937655646,0.1239776611328125,0.1239776611328125,-0.3223419189453125,0.36694036794726115
1784554767.934297,-0.11376953125,-0.1953125,0.9604491591453552,0.9866879274624346,0.06103515625,0.48828125,0.0476837158203125,0.4943860901708873
1784554767.944986,-0.11328125,-0.18701171875,0.9580077528953552,0.9826417857790293,-0.1220703125,0.48828125,0.6542205810546875,0.8254237148101229
1784554767.955675,-0.11328125,-0.17724609375,0.9599608778953552,0.9827378625253111,0.3681182861328125,0.6694793701171875,0.9021759033203125,1.1822161647218699
1784554767.963682,-0.1015624925494194,-0.18408203125,0.9794921278953552,1.0018013589184973,0.0,-0.244140625,1.6307830810546875,1.6489566708163104
1784554767.971692,-0.09130859375,-0.18603515625,0.9589843153953552,0.9811204084249102,0.18310546875,-0.1220703125,1.5735626220703125,1.5888763638045604
1784554767.979701,-0.09912109375,-0.18603515625,0.9770507216453552,0.999530981638322,0.2460479736328125,-0.1239776611328125,1.3904571533203125,1.4174911502398886
1784554767.98771,-0.0947265625,-0.189453125,0.9711913466453552,0.9940212472649418,0.3070831298828125,0.5474090576171875,1.0204315185546875,1.198013860136763
1784554767.998376,-0.0927734300494194,-0.208984375,0.9697265028953552,0.9963186582288472,0.3070831298828125,0.3070831298828125,0.4138946533203125,0.5999240629983017
1784554768.009043,-0.0874023362994194,-0.19677734375,0.9575194716453552,0.9814295848321991,0.3070831298828125,0.2422332763671875,0.3490447998046875,0.5242225492182694
1784554768.019711,-0.0932617112994194,-0.1923828125,0.9663085341453552,0.9896772587576474,0.0,0.0,-0.5016326904296875,0.5016326904296875
1784554768.027731,-0.09521484375,-0.1943359375,0.9584960341453552,0.9826224964586934,0.1239776611328125,0.1239776611328125,-0.6275177001953125,0.6515515213537139
1784554768.035756,-0.0971679612994194,-0.1875,0.9687499403953552,0.9915010386878521,-0.0591278076171875,0.4253387451171875,-1.0509490966796875,1.1352987049861945
1784554768.043779,-0.1108398288488388,-0.2001953125,0.9633788466453552,0.99018303003533,-0.1220703125,0.06103515625,-0.9899139404296875,0.9992777696663429
1784554768.051803,-0.0976562425494194,-0.1943359375,0.9648436903953552,0.9890533581200779,0.18310546875,0.42724609375,-1.1157989501953125,1.2087489956842787
1784554768.062413,-0.1127929612994194,-0.177734375,0.9541015028953552,0.9770473059184537,0.2460479736328125,0.1811981201171875,-1.0509490966796875,1.0944708163649988
1784554768.073021,-0.1181640625,-0.19091796875,0.9619140028953552,0.9877707048826136,0.18310546875,0.42724609375,-0.8106231689453125,0.9344392753634297
1784554768.08363,-0.115234375,-0.1953125,0.9677733778953552,0.9939875476085587,0.1239776611328125,-0.0019073486328125,-0.3795623779296875,0.3993015116154815
1784554768.091618,-0.1044921875,-0.17626953125,0.9780272841453552,0.9992631952735822,0.2460479736328125,-0.4291534423828125,0.2307891845703125,0.5458717158384935
1784554768.099604,-0.10009765625,-0.19580078125,0.9555663466453552,0.9805429769092249,-0.244140625,-0.18310546875,0.2918243408203125,0.4222483905910806
1784554768.107591,-0.1059570237994194,-0.19287109375,0.9594725966453552,0.9843849924750644,0.0,-0.1220703125,0.4749298095703125,0.4903666844437344
1784554768.115578,-0.0971679612994194,-0.19140625,0.9648436903953552,0.9884337671983268,-0.30517578125,-0.42724609375,0.3490447998046875,0.6304789880375682
1784554768.126258,-0.0996093675494194,-0.197265625,0.9692382216453552,0.9941119067833795,-0.1201629638671875,-0.3070831298828125,0.1087188720703125,0.34721604180713234
1784554768.136939,-0.1020507737994194,-0.1748046875,0.9584960341453552,0.9796354866364361,-0.6103515625,-0.42724609375,0.1659393310546875,0.7632850817759393
1784554768.147618,-0.0922851487994194,-0.19189453125,0.9741210341453552,0.9971217824202842,-0.1220703125,-0.06103515625,-0.2574920654296875,0.29142514519436385
1784554768.158286,-0.1069335862994194,-0.189453125,0.9580077528953552,0.9823981540387425,-0.6694793701171875,0.0591278076171875,-0.2574920654296875,0.7197227858039287
1784554768.168954,-0.1044921875,-0.19482421875,0.9741210341453552,0.9988928283977713,-0.1201629638671875,0.1811981201171875,-0.3795623779296875,0.43742370232874744
1784554768.179622,-0.1015624925494194,-0.2021484375,0.9648436903953552,0.991010735346631,-0.1201629638671875,0.1811981201171875,-0.4405975341796875,0.49132278976714544
1784554768.190319,-0.1044921875,-0.18115234375,0.9692382216453552,0.9915429991648895,0.244140625,-0.3662109375,-0.1964569091796875,0.48198590506824524
1784554768.201016,-0.0966796725988388,-0.1962890625,0.9736327528953552,0.9979163755854172,0.3070831298828125,-0.3070831298828125,-0.0133514404296875,0.434486315410274
1784554768.211714,-0.10009765625,-0.1962890625,0.9697265028953552,0.9944437778283534,0.732421875,-0.244140625,0.1659393310546875,0.7896722797115164
1784554768.219684,-0.0917968675494194,-0.1875,0.9633788466453552,0.9857391729334999,0.5512237548828125,-0.6122589111328125,-0.0743865966796875,0.827189197205954
1784554768.227659,-0.1035156175494194,-0.20361328125,0.9726561903953552,0.999116567820009,0.3662109375,-0.3662109375,-0.1392364501953125,0.5362906772938063
1784554768.235632,-0.09423828125,-0.18505859375,0.9707030653953552,0.9926691180557703,0.1239776611328125,-0.0019073486328125,0.1087188720703125,0.1649057051257189
1784554768.243607,-0.1044921800494194,-0.18310546875,0.9619140028953552,0.9847460471328651,0.244140625,0.1220703125,0.0476837158203125,0.2770912173340588
1784554768.254266,-0.0869140550494194,-0.197265625,0.9638671278953552,0.9876778928421022,0.3070831298828125,-0.1811981201171875,0.1087188720703125,0.3727634645950002
1784554768.264926,-0.0971679612994194,-0.1845703125,0.9589843153953552,0.9814065060583872,0.4291534423828125,-0.6694793701171875,0.4138946533203125,0.8964842933195571
1784554768.275586,-0.10400390625,-0.185546875,0.9863280653953552,1.009003224932442,0.54931640625,-0.732421875,0.2307891845703125,0.9441683985754662
1784554768.286243,-0.0883788987994194,-0.1953125,0.9667968153953552,0.9902797002200179,0.7953643798828125,-0.0019073486328125,0.4749298095703125,0.9263727428976261
1784554768.296901,-0.08642578125,-0.18798828125,0.9658202528953552,0.9877336536004278,0.9174346923828125,0.1811981201171875,-0.0743865966796875,0.9381111550808545
1784554768.307559,-0.095703125,-0.17138671875,0.9677733778953552,0.9874805347254412,0.492095947265625,0.79345703125,-0.0133514404296875,0.9337616091470369
1784554768.318242,-0.1064452975988388,-0.18603515625,0.9672850966453552,0.9907472628950743,-0.06103515625,1.0986328125,-0.2574920654296875,1.1300537645436912
1784554768.328927,-0.1015624925494194,-0.18798828125,0.9477538466453552,0.9715409860686514,-0.30517578125,1.28173828125,-0.3795623779296875,1.371150202502589
1784554768.33961,-0.1044921875,-0.181640625,0.9643554091453552,0.9868603189138934,-0.91552734375,0.79345703125,0.1659393310546875,1.2228246968330625
1784554768.347597,-0.1103515625,-0.18505859375,0.9614257216453552,0.9852733472028009,-1.40380859375,0.244140625,0.0476837158203125,1.4256777158306766
1784554768.355587,-0.0991210862994194,-0.19921875,0.9648436903953552,0.9901699081452978,-1.644134521484375,0.244140625,-0.0133514404296875,1.662215759302502
1784554768.363577,-0.0927734300494194,-0.1953125,0.9677733778953552,0.9916346065675453,-1.5869140625,0.30517578125,0.1659393310546875,1.624488953736737
1784554768.371567,-0.0986328050494194,-0.17822265625,0.9687499403953552,0.989933428291381,-1.338958740234375,0.1220703125,-0.0743865966796875,1.3465678724109895
1784554768.379579,-0.11376953125,-0.19580078125,0.9589843153953552,0.9853590053139278,-0.6103515625,0.244140625,-0.1392364501953125,0.6719527242928433
1784554768.387591,-0.1064452975988388,-0.19677734375,0.9707030653953552,0.9961507745126489,-0.5474090576171875,0.1811981201171875,-0.0133514404296875,0.5767735223264739
1784554768.395603,-0.1230468675494194,-0.1982421875,0.9760741591453552,1.0035742427293666,-0.2422332763671875,0.3643035888671875,-0.0133514404296875,0.4376897599929001
1784554768.403615,-0.1074218675494194,-0.2138671875,0.9799804091453552,1.0087815590233908,-0.1201629638671875,0.1811981201171875,0.7801055908203125,0.8098374092671062
1784554768.414415,-0.09912109375,-0.205078125,0.9716796278953552,0.9980197031354481,0.18310546875,-0.244140625,1.0852813720703125,1.1273721275711794
1784554768.425215,-0.0981445237994194,-0.18798828125,0.9760741591453552,0.998845686575487,0.1239776611328125,-0.6122589111328125,0.9021759033203125,1.097338960965718
1784554768.436015,-0.09130859375,-0.1865234375,0.9667968153953552,0.988850005960469,0.54931640625,-1.03759765625,0.7801055908203125,1.409582258422692
1784554768.446551,-0.09033203125,-0.19189453125,0.9775390028953552,1.0002829045700288,0.54931640625,-0.732421875,0.1087188720703125,0.9219599287920119
1784554768.457088,-0.1118163987994194,-0.18896484375,0.9648436903953552,0.9895119838130616,0.6732940673828125,-0.0019073486328125,-0.0133514404296875,0.6734291351829425
1784554768.467625,-0.0947265625,-0.18701171875,0.9648436903953552,0.9873549774466241,0.244140625,0.42724609375,0.0476837158203125,0.4943860901708873
1784554768.477222,-0.1054687425494194,-0.17822265625,0.9711913466453552,0.9930254793581985,0.0629425048828125,0.3643035888671875,0.4138946533203125,0.5549663483758067
1784554768.486818,-0.1010742038488388,-0.1826171875,0.9877929091453552,1.0096038149749291,0.06103515625,0.6103515625,0.7801055908203125,0.992380498082143
1784554768.496413,-0.1162109300494194,-0.1845703125,0.9594725966453552,0.9839506309935876,-0.54931640625,0.6103515625,0.1087188720703125,0.8283099282067355
1784554768.506007,-0.1083984300494194,-0.19482421875,0.9628905653953552,0.9883647792066012,-0.6694793701171875,0.2422332763671875,0.7190704345703125,1.0119001319622536
1784554768.515602,-0.1035156175494194,-0.18310546875,0.9746093153953552,0.9970488520720526,-0.6103515625,-0.244140625,0.8373260498046875,1.0645414920533178
1784554768.525461,-0.09130859375,-0.193359375,0.9843749403953552,1.0073326811294034,-0.1201629638671875,-0.4901885986328125,0.4749298095703125,0.6930240429692471
1784554768.535321,-0.0976562425494194,-0.19287109375,0.9663085341453552,0.9901960329527368,-0.244140625,-0.18310546875,0.2307891845703125,0.3826171783600125
1784554768.545182,-0.0937499925494194,-0.189453125,0.9624022841453552,0.9853424299214354,0.0,-0.3662109375,-0.0133514404296875,0.36645424230888146
1784554768.555042,-0.1054687425494194,-0.18310546875,0.9614257216453552,0.9843732455641026,-0.1811981201171875,0.2422332763671875,0.0476837158203125,0.30624084585178585
1784554768.564901,-0.1083984300494194,-0.19970703125,0.9736327528953552,0.9997969071158678,0.18310546875,-0.06103515625,0.0476837158203125,0.19881307738439002
1784554768.574246,-0.0942382737994194,-0.19873046875,0.9765624403953552,1.0010239015374311,-0.1201629638671875,0.1811981201171875,-0.1392364501953125,0.2581834341748933
1784554768.583588,-0.0917968675494194,-0.18798828125,0.9741210341453552,0.9963322979526614,-0.1220703125,-0.06103515625,-0.3223419189453125,0.35004394610056605
1784554768.59293,-0.1044921800494194,-0.17822265625,0.9692382216453552,0.9910119379657021,-0.0591278076171875,-0.1239776611328125,-0.1964569091796875,0.23971206740173429
1784554768.602273,-0.1113281100988388,-0.20068359375,0.9653319716453552,0.9922366997744556,0.4291534423828125,0.2422332763671875,-0.4405975341796875,0.6610414695114226
1784554768.611614,-0.1103515625,-0.17626953125,0.9658202528953552,0.987956059699081,0.2460479736328125,0.5474090576171875,-0.2574920654296875,0.6530684845017382
1784554768.621212,-0.1015624925494194,-0.1728515625,0.9667968153953552,0.987364514660185,0.2460479736328125,0.8525848388671875,0.2918243408203125,0.9341316602547047
1784554768.630813,-0.0981445237994194,-0.1826171875,0.9667968153953552,0.9887757415009863,-0.1220703125,0.732421875,0.5359649658203125,0.9157518270574905
1784554768.640414,-0.10888671875,-0.20166015625,0.9667968153953552,0.9935890591172573,-0.2422332763671875,0.4901885986328125,0.5970001220703125,0.8095498552659687
1784554768.650016,-0.1015624850988388,-0.19677734375,0.9770507216453552,1.0018305116437944,-0.5474090576171875,0.0591278076171875,0.9021759033203125,1.0569172789422898
1784554768.659616,-0.0971679612994194,-0.20263671875,0.9672850966453552,0.9930476880195966,-0.79345703125,-0.3662109375,1.0852813720703125,1.3933844292755364
1784554768.669216,-0.0976562425494194,-0.19091796875,0.9790038466453552,1.0022150189689332,-0.2422332763671875,-0.4901885986328125,0.1087188720703125,0.5574779058881381
1784554768.678813,-0.0971679612994194,-0.1875,0.9692382216453552,0.9919781212311772,0.18310546875,-0.42724609375,-0.1392364501953125,0.48523564004902064
1784554768.688408,-0.09375,-0.18212890625,0.9785155653953552,0.9997263189057358,0.244140625,-0.244140625,-0.4405975341796875,0.559763768634593
1784554768.698004,-0.1040038987994194,-0.17919921875,0.9794921278953552,1.001166319636783,0.3662109375,0.244140625,-0.5016326904296875,0.6673458261109799
1784554768.7076,-0.0966796800494194,-0.18505859375,0.9711913466453552,0.9933812336932907,0.6122589111328125,0.2422332763671875,-0.3795623779296875,0.7600036402417809
1784554768.718274,-0.1064453050494194,-0.16748046875,0.9663085341453552,0.986474780996417,0.42724609375,0.6103515625,0.0476837158203125,0.7465534081532663
1784554768.728951,-0.1103515625,-0.1962890625,0.9711913466453552,0.9969551119293881,0.492095947265625,-0.244140625,-0.3223419189453125,0.6369202295421224
1784554768.739626,-0.0825195237994194,-0.1796875,0.9653319716453552,0.985374489696705,-0.2422332763671875,-0.4901885986328125,-0.6847381591796875,0.8762580493473198
1784554768.747604,-0.103515625,-0.21044921875,0.9741210341453552,1.0019561604461755,-0.6694793701171875,0.3643035888671875,-1.2989044189453125,1.5060120920595819
1784554768.755584,-0.0991210862994194,-0.19921875,0.9721679091453552,0.9973081488049674,-0.2422332763671875,0.2422332763671875,-0.8678436279296875,0.9330093691369483
1784554768.763565,-0.10400390625,-0.19677734375,0.9697265028953552,0.9949410163151481,0.1239776611328125,0.7305145263671875,-1.0509490966796875,1.2858911063948184
1784554768.771544,-0.11474609375,-0.1806640625,0.9687499403953552,0.9921101836620225,0.1239776611328125,0.4253387451171875,-1.1157989501953125,1.2005377152821097
1784554768.78225,-0.12353515625,-0.2109375,0.9682616591453552,0.9986421803162923,0.125885009765625,1.0986328125,-0.9899139404296875,1.4841734069314079
1784554768.792956,-0.1118163987994194,-0.1748046875,0.9731444716453552,0.9950224864325233,0.3681182861328125,0.6694793701171875,-0.5016326904296875,0.9139743189529955
1784554768.803662,-0.1123046800494194,-0.2001953125,0.9628905653953552,0.9898730955205126,0.6122589111328125,0.9136199951171875,-0.1392364501953125,1.1085798387136845
1784554768.814317,-0.0996093675494194,-0.18896484375,0.9663085341453552,0.9896372676082901,0.3070831298828125,0.2422332763671875,0.0476837158203125,0.3940187122366638
1784554768.82497,-0.0952148362994194,-0.18310546875,0.9765624403953552,0.9981320943285082,0.2460479736328125,-0.6122589111328125,-0.0133514404296875,0.6599839699204049
1784554768.835624,-0.1074218675494194,-0.1875,0.9580077528953552,0.9820766580239105,0.0,-0.732421875,-0.3223419189453125,0.8002162930657324
1784554768.846295,-0.0976562425494194,-0.18017578125,0.9702147841453552,0.9916233061158541,0.06103515625,-0.244140625,-0.6847381591796875,0.7295178419412643
1784554768.856962,-0.10986328125,-0.1796875,0.9653319716453552,0.988040157940949,0.18310546875,0.06103515625,-0.1964569091796875,0.2754055557701317
1784554768.86763,-0.10009765625,-0.1787109375,0.9667968153953552,0.9882576699563088,0.4291534423828125,-0.0019073486328125,-0.0743865966796875,0.4355567481435818
1784554768.875628,-0.095703125,-0.18896484375,0.9560546278953552,0.9792380976189364,0.3681182861328125,-0.3070831298828125,-0.5626678466796875,0.7391929564945406
1784554768.883629,-0.1010742112994194,-0.189453125,0.9692382216453552,0.9927392472650187,0.244140625,-0.18310546875,-0.1964569091796875,0.3629429357708782
1784554768.891629,-0.1044921875,-0.18701171875,0.9624022841453552,0.985956467967304,0.2460479736328125,-0.1239776611328125,-0.5626678466796875,0.6265023315806031
1784554768.899629,-0.10986328125,-0.19921875,0.9667968153953552,0.9932039736011832,0.3662109375,-0.06103515625,-0.3795623779296875,0.5309457032340781
1784554768.910276,-0.0917968675494194,-0.1904296875,0.9716796278953552,0.9944100914814216,0.244140625,-0.18310546875,-0.0133514404296875,0.3054677043863972
1784554768.920924,-0.1010742112994194,-0.189453125,0.9672850966453552,0.9908324484766733,-0.1220703125,-0.42724609375,-0.5626678466796875,0.716962684876722
1784554768.931572,-0.1059570163488388,-0.19580078125,0.9648436903953552,0.9901960321811972,-0.2422332763671875,-0.1239776611328125,-0.2574920654296875,0.3746325992206113
1784554768.942272,-0.1079101487994194,-0.19873046875,0.9697265028953552,0.9957448919483157,-0.0591278076171875,-0.1811981201171875,0.1087188720703125,0.21942800530437956
1784554768.952974,-0.0971679612994194,-0.18701171875,0.9575194716453552,0.9804379298216256,0.0,-0.732421875,-0.1964569091796875,0.758312020307572
1784554768.963676,-0.0981445237994194,-0.185546875,0.9765624403953552,0.9988664527177855,0.3070831298828125,-0.1239776611328125,0.2918243408203125,0.4413977288271845
1784554768.971662,-0.09326171875,-0.181640625,0.9736327528953552,0.9948124458133717,-0.1201629638671875,0.1811981201171875,-0.0133514404296875,0.21783057081341273
1784554768.979649,-0.1015624925494194,-0.1845703125,0.9619140028953552,0.9847129983479267,-0.1220703125,0.244140625,0.1087188720703125,0.29381218339864545
1784554768.987634,-0.08984375,-0.19677734375,0.9667968153953552,0.9907014205531194,0.06103515625,-0.06103515625,0.2307891845703125,0.24640257367071797
1784554768.99562,-0.11279296875,-0.18603515625,0.9677733778953552,0.9919257251041463,-0.0591278076171875,-0.3070831298828125,0.4138946533203125,0.5187532461000905
1784554769.006279,-0.10498046875,-0.1904296875,0.9711913466453552,0.9952371559076439,-0.244140625,-0.06103515625,0.2307891845703125,0.34145802492910066
1784554769.016937,-0.1113281175494194,-0.2001953125,0.9599608778953552,0.9869128634249789,-0.2422332763671875,0.6694793701171875,0.2918243408203125,0.7694420271126983
1784554769.027595,-0.095703125,-0.189453125,0.9692382216453552,0.9922067854057852,-0.3643035888671875,-0.1811981201171875,-0.0133514404296875,0.4070971930105426
1784554769.038274,-0.1069335862994194,-0.19921875,0.9765624403953552,1.002395681465832,-0.2422332763671875,0.2422332763671875,-0.0133514404296875,0.3428296680871012
1784554769.048956,-0.1123046800494194,-0.185546875,0.9643554091453552,0.9884438978167519,-0.362396240234375,0.6103515625,0.1659393310546875,0.728969084648368
1784554769.059639,-0.10546875,-0.1865234375,0.9741210341453552,0.997409865164665,0.3662109375,0.54931640625,0.7801055908203125,1.0219704974944985
1784554769.067627,-0.1030273362994194,-0.18310546875,0.9755858778953552,0.9979529296815365,0.67138671875,-0.6103515625,0.7801055908203125,1.196600973085511
1784554769.075617,-0.0996093675494194,-0.1787109375,0.9619140028953552,0.9834318350815625,0.7953643798828125,-0.7953643798828125,0.4138946533203125,1.198548195785169
1784554769.083606,-0.1171874925494194,-0.18212890625,0.9599608778953552,0.984087767422938,0.9174346923828125,-0.1239776611328125,0.2307891845703125,0.9541071863067263
1784554769.091594,-0.1083984300494194,-0.18408203125,0.9741210341453552,0.9972703760920211,0.9784698486328125,-0.1239776611328125,0.5970001220703125,1.1529019259657127
1784554769.102274,-0.1044921800494194,-0.17822265625,0.9653319716453552,0.9871918488181488,0.6122589111328125,0.3643035888671875,0.7190704345703125,1.0122452118909666
1784554769.112954,-0.0976562425494194,-0.1728515625,0.9492186903953552,0.969757973188896,0.3662109375,0.48828125,0.6542205810546875,0.8947254319184876
1784554769.123634,-0.1069335862994194,-0.1875,0.9619140028953552,0.985834464220551,-0.5474090576171875,0.4901885986328125,0.9021759033203125,1.1635561435198387
1784554769.134306,-0.1166992112994194,-0.19580078125,0.9628905653953552,0.9895023460221829,-1.5239715576171875,0.0591278076171875,0.6542205810546875,1.6595149817748873
1784554769.144979,-0.1020507737994194,-0.18017578125,0.9628905653953552,0.9849040123329252,-1.5869140625,-0.244140625,0.5970001220703125,1.712982788088547
1784554769.15565,-0.0795898362994194,-0.19384765625,0.9750975966453552,0.9973599043772184,-1.5239715576171875,-0.7953643798828125,0.2918243408203125,1.7436327741550792
1784554769.16366,-0.0883788987994194,-0.18798828125,0.9731444716453552,0.9950681315036899,-1.5239715576171875,-1.1005401611328125,-0.1964569091796875,1.8900458385596974
1784554769.171669,-0.09521484375,-0.177734375,0.9711913466453552,0.9919012079465354,-1.40380859375,-0.732421875,-0.3795623779296875,1.62824690068936
1784554769.179677,-0.1005859375,-0.19873046875,0.9819335341453552,1.0068787392290772,-1.0967254638671875,-0.0019073486328125,-0.8678436279296875,1.398557450951396
1784554769.187686,-0.1020507737994194,-0.18505859375,0.9633788466453552,0.9862858843750744,-0.3643035888671875,-0.1811981201171875,-0.8106231689453125,0.9070059457503331
1784554769.198347,-0.09814453125,-0.201171875,0.9746093153953552,0.9999828948340571,0.0,0.0,-1.2989044189453125,1.2989044189453125
1784554769.209006,-0.1083984375,-0.185546875,0.9550780653953552,0.978954531668372,0.0,0.48828125,-1.2989044189453125,1.3876495482135331
1784554769.219666,-0.1054687425494194,-0.2080078125,0.9731444716453552,1.0007002890026107,0.3070831298828125,0.7305145263671875,-0.5626678466796875,0.9718778871747504
1784554769.230395,-0.115234375,-0.19873046875,0.9716796278953552,0.9984658530255761,0.54931640625,0.244140625,0.2307891845703125,0.6439074519412207
1784554769.241124,-0.1083984300494194,-0.19921875,0.9663085341453552,0.9925676365623083,0.18310546875,-0.244140625,0.7801055908203125,0.8376735583093552
1784554769.251853,-0.1059570163488388,-0.1904296875,0.9672850966453552,0.991529532281873,0.18310546875,-0.3662109375,1.4514923095703125,1.5081339423846098
1784554769.259801,-0.0947265625,-0.185546875,0.9624022841453552,0.9846922976206979,0.18310546875,-0.6103515625,1.6307830810546875,1.7508598173430585
1784554769.267748,-0.0874023362994194,-0.185546875,0.9702147841453552,0.9916569661869373,0.492095947265625,-0.732421875,1.2683868408203125,1.5451231026231862
1784554769.275695,-0.10009765625,-0.17626953125,0.9614257216453552,0.9825629275904572,0.5512237548828125,-0.3070831298828125,0.9021759033203125,1.100940069730207
1784554769.283642,-0.0981445237994194,-0.189453125,0.9819335341453552,1.0048474011526665,0.5512237548828125,-0.1239776611328125,1.2073516845703125,1.3330101945003425
1784554769.294303,-0.0820312425494194,-0.18994140625,0.9643554091453552,0.9863002675201576,0.2460479736328125,0.3643035888671875,0.3490447998046875,0.5613278742954249
1784554769.304964,-0.0971679612994194,-0.1904296875,0.9667968153953552,0.9901520897534043,0.244140625,1.40380859375,0.4138946533203125,1.4837762623485
1784554769.315625,-0.1044921875,-0.1845703125,0.9570311903953552,0.980251761995067,0.18310546875,1.0986328125,0.4138946533203125,1.1882047186554003
1784554769.326342,-0.1064453050494194,-0.18798828125,0.9829100966453552,1.006370933076753,0.0629425048828125,0.3643035888671875,0.0476837158203125,0.3727634645950002
1784554769.337059,-0.0966796725988388,-0.19189453125,0.9604491591453552,0.9841915756195517,0.0629425048828125,0.1811981201171875,-0.1964569091796875,0.2745720940288025
1784554769.347776,-0.0952148362994194,-0.17822265625,0.9750975966453552,0.9958134881773186,0.1239776611328125,-0.4901885986328125,-0.5626678466796875,0.7564723579726621
