timestamp,accel_x,accel_y,accel_z,accel_rms,gyro_x,gyro_y,gyro_z,gyro_rms
1785506293.305294,-0.0249023400247097,0.0346679650247097,0.9951171278953552,0.9960321744644405,-0.2155303955078125,-0.3070831298828125,0.5664825439453125,0.6794526272236581
1785506293.313585,-0.02734375,0.03759765625,0.9873046278953552,0.9883985495148916,-0.1544952392578125,-0.1850128173828125,0.4405975341796875,0.5022197812456968
1785506293.321876,-0.024414055049419403,0.02734375,0.9902343153953552,0.9909125723970437,-0.152587890625,-0.431060791015625,0.3833770751953125,0.59671974301318
1785506293.330167,-0.0292968712747097,0.0336914025247097,0.9975585341453552,0.9985571822969372,-0.0324249267578125,0.0591278076171875,-0.0476837158203125,0.08259061849445712
1785506293.338458,-0.0205078087747097,0.0444335900247097,0.9833983778953552,0.9846152973575212,-0.095367431640625,0.240325927734375,0.0743865966796875,0.2690443538242418
1785506293.346749,-0.0351562462747097,0.0336914025247097,0.9873046278953552,0.9885046790581196,0.0896453857421875,0.4863739013671875,-0.1659393310546875,0.5216624662623155
1785506293.355985,-0.0175781212747097,0.0249023400247097,0.9746093153953552,0.9750858600870272,-0.0324249267578125,0.4253387451171875,-0.0476837158203125,0.4292297295476463
1785506293.365221,-0.0444335862994194,0.03173828125,0.9941405653953552,0.9956390540013628,-0.2155303955078125,0.6084442138671875,0.7457733154296875,0.9863242624934266
1785506293.374457,-0.0258789025247097,0.0405273400247097,0.9951171278953552,0.9962782147151782,-0.2155303955078125,0.6694793701171875,1.1768341064453125,1.3709830387328639
1785506293.383693,-0.0361328087747097,0.0351562462747097,1.00244140625,1.003708281567187,-0.278472900390625,0.606536865234375,1.3599395751953125,1.514882758936386
1785506293.392929,-0.0346679612994194,0.03759765625,0.9785155653953552,0.9798510922671582,-0.095367431640625,1.033782958984375,1.9054412841796875,2.169909823186336
1785506293.403651,-0.0087890625,0.0361328125,0.9921874403953552,0.9928840539746198,-0.4596710205078125,1.1577606201171875,2.3365020751953125,2.647819678146688
1785506293.414373,-0.0356445275247097,0.0483398400247097,0.9887694716453552,0.9905919142280081,-0.3986358642578125,1.1577606201171875,2.1533966064453125,2.477183309813163
1785506293.425095,-0.0449218712747097,0.0346679650247097,0.9868163466453552,0.9884464296684277,-0.461578369140625,1.399993896484375,2.3937225341796875,2.8112177204356916
1785506293.433103,-0.0356445275247097,0.0385742150247097,0.9980468153953552,0.9994278103635312,-0.461578369140625,1.583099365234375,1.9054412841796875,2.5199136252102643
1785506293.441109,-0.02783203125,0.033203125,0.9868163466453552,0.987766962132138,-0.3376007080078125,1.2798309326171875,1.9702911376953125,2.373602456480833
1785506293.449115,-0.0317382775247097,0.0361328087747097,0.9912108778953552,0.9923768954325095,-0.644683837890625,1.8310546875,1.5430450439453125,2.479791629774022
1785506293.457121,-0.0283203087747097,0.0244140587747097,0.9907225966453552,0.991427934677385,-0.278472900390625,1.888275146484375,1.5430450439453125,2.454407910826305
1785506293.467841,-0.0351562462747097,0.0302734337747097,0.9892577528953552,0.9903450631513278,-0.3376007080078125,1.8291473388671875,1.1157989501953125,2.1690462241707187
1785506293.478561,-0.0371093712747097,0.0312499962747097,0.9848632216453552,0.9860574187405324,-0.152587890625,1.888275146484375,1.1157989501953125,2.1986071478217606
1785506293.489281,-0.0439453050494194,0.02392578125,0.9907225966453552,0.9919853307121151,-0.0324249267578125,1.6460418701171875,0.9937286376953125,1.9230189337159214
1785506293.499913,-0.0380859375,0.02734375,0.9995116591453552,1.000610701555214,0.3337860107421875,1.3408660888671875,1.0547637939453125,1.738350261097884
1785506293.510543,-0.0419921875,0.0283203125,0.9819335341453552,0.9832389584380392,0.4558563232421875,1.0356903076171875,1.3599395751953125,1.7691509401163252
1785506293.521173,-0.0493164025247097,0.0346679650247097,0.9990233778953552,1.000840489258093,0.3337860107421875,0.8525848388671875,1.2989044189453125,1.5891717018588745
1785506293.529246,-0.0395507775247097,0.0395507775247097,0.9829100966453552,0.984500272266595,0.514984130859375,0.118255615234375,1.7871856689453125,1.8636592126391966
1785506293.537319,-0.033203125,0.033203125,0.9863280653953552,0.9874451618222023,0.2727508544921875,0.1811981201171875,1.6651153564453125,1.6970076421838003
1785506293.545392,-0.0473632775247097,0.0263671837747097,0.9970702528953552,0.9985427370157471,0.087738037109375,0.057220458984375,1.9054412841796875,1.9083182731238846
1785506293.553465,-0.0351562462747097,0.0336914025247097,0.9848632216453552,0.9860662440251559,-0.0324249267578125,0.2422332763671875,1.8482208251953125,1.864309136044898
1785506293.563972,-0.0283203125,0.03173828125,0.9897460341453552,0.9906596644172309,0.3337860107421875,-0.1239776611328125,1.8482208251953125,1.8822071565353236
1785506293.574479,-0.0380859337747097,0.0161132775247097,0.9765624403953552,0.9774376583982283,0.026702880859375,-0.186920166015625,1.7223358154296875,1.7326548569814317
1785506293.584986,-0.0424804650247097,0.0361328087747097,0.9873046278953552,0.988878454635478,-0.0934600830078125,0.1811981201171875,1.2340545654296875,1.250783041261627
1785506293.595679,-0.0312499962747097,0.0336914025247097,0.9916991591453552,0.9927632623746993,-0.3376007080078125,-0.3681182861328125,0.7457733154296875,0.8975874044569273
1785506293.606373,-0.0205078087747097,0.0341796837747097,0.9999999403953552,1.000794035650889,-0.5207061767578125,-0.1239776611328125,0.3223419189453125,0.6248277328056487
1785506293.617067,-0.029785148799419403,0.0380859375,0.9853515028953552,0.9865370129814657,-0.461578369140625,-0.064849853515625,0.2574920654296875,0.5325056413961862
1785506293.627905,-0.0322265587747097,0.0244140587747097,0.9804686903953552,0.9813019159269474,-0.8869171142578125,0.1201629638671875,0.2002716064453125,0.9171531070638854
1785506293.638744,-0.0317382775247097,0.0371093712747097,0.9863280653953552,0.987536063282341,-0.7648468017578125,-0.0019073486328125,-0.0476837158203125,0.7663341339731605
1785506293.649583,-0.03662109375,0.04296875,0.9833983778953552,0.9850176585377669,-0.8869171142578125,0.2422332763671875,-0.1659393310546875,0.9342562760473515
1785506293.657448,-0.037109375,0.02392578125,0.9892577528953552,0.9902426219795234,-0.888824462890625,0.545501708984375,-0.2307891845703125,1.0681033133795212
1785506293.665313,-0.030273430049419403,0.03271484375,0.9912108778953552,0.9922125508310328,-0.705718994140625,0.545501708984375,-0.2307891845703125,0.9213441598612101
1785506293.673178,-0.0356445275247097,0.0322265587747097,1.00439453125,1.0055433644740672,-1.0089874267578125,0.4253387451171875,-0.1049041748046875,1.0999879823637475
1785506293.681043,-0.0410156212747097,0.0288085974752903,0.9868163466453552,0.988088416328989,-0.7038116455078125,0.4863739013671875,0.0743865966796875,0.8587454628987218
1785506293.68902,-0.0341796800494194,0.03271484375,0.9902343153953552,0.991363964907125,-0.7038116455078125,0.6084442138671875,0.2574920654296875,0.9653275907691238
1785506293.696997,-0.03271484375,0.03759765625,0.9863280653953552,0.9875863999385696,-0.5817413330078125,1.0967254638671875,-0.2307891845703125,1.2627325011018897
1785506293.704974,-0.0444335900247097,0.0307617150247097,0.9902343153953552,0.9917079340311105,-0.278472900390625,0.728607177734375,-0.1049041748046875,0.7870326941045528
1785506293.712951,-0.0292968712747097,0.0444335900247097,0.9824218153953552,0.9838624263349405,-0.5207061767578125,0.8525848388671875,-0.1049041748046875,1.004510187042112
1785506293.723624,-0.0322265587747097,0.0258789025247097,0.9804686903953552,0.9813394527542069,-0.461578369140625,0.728607177734375,-0.2880096435546875,0.9093253351166832
1785506293.734297,-0.0385742112994194,0.02783203125,0.9941405653953552,0.9952778785371801,-0.461578369140625,0.789642333984375,0.1392364501953125,0.9251899240381956
1785506293.74497,-0.0297851525247097,0.0292968712747097,0.9907225966453552,0.9916031088500693,-0.1544952392578125,0.8525848388671875,-0.1659393310546875,0.88221627054277
1785506293.753051,-0.0532226525247097,0.0200195275247097,0.9936522841453552,0.9952779983559168,-0.2765655517578125,0.4863739013671875,-0.5931854248046875,0.8154244444158879
1785506293.761132,-0.0385742112994194,0.03271484375,1.0029296875,1.0042042565373872,0.026702880859375,0.545501708984375,-0.2880096435546875,0.6174420726931085
1785506293.769213,-0.0361328087747097,0.0292968712747097,0.9931640028953552,0.9942527964172703,0.3948211669921875,0.6694793701171875,-0.1049041748046875,0.7842775445013273
1785506293.777294,-0.0415039025247097,0.0317382775247097,0.9921874403953552,0.993562181779934,0.2117156982421875,0.1811981201171875,0.0743865966796875,0.2884261801254633
1785506293.787849,-0.0463867150247097,0.0268554650247097,0.9941405653953552,0.995584455029845,0.514984130859375,0.3662109375,0.3223419189453125,0.709382420483452
1785506293.798403,-0.0346679612994194,0.02734375,0.9916991591453552,0.9926816057801843,0.6389617919921875,0.2422332763671875,-0.2307891845703125,0.7212577760551906
1785506293.808957,-0.0341796837747097,0.0434570275247097,0.9785155653953552,0.9800762601681637,0.1506805419921875,0.3643035888671875,-0.0476837158203125,0.397108886013653
1785506293.816984,-0.0361328087747097,0.0341796837747097,0.9799804091453552,0.9812417810925026,-0.0934600830078125,0.1811981201171875,0.0743865966796875,0.21702744438300056
1785506293.825011,-0.0327148400247097,0.0263671837747097,0.9907225966453552,0.9916132071739298,-0.461578369140625,-0.064849853515625,0.0171661376953125,0.46642766925096923
1785506293.833038,-0.0258789025247097,0.0346679650247097,0.9980468153953552,0.9989839994292442,-0.3986358642578125,-0.0629425048828125,0.0743865966796875,0.4103726074667783
1785506293.841065,-0.0371093712747097,0.0302734337747097,0.9941405653953552,0.9952934491864761,-0.278472900390625,0.240325927734375,0.2002716064453125,0.4188226643121658
1785506293.851688,-0.0336914025247097,0.0297851525247097,0.9887694716453552,0.9897915608717005,-0.5207061767578125,-0.0019073486328125,-0.2880096435546875,0.5950530356808909
1785506293.862311,-0.0371093712747097,0.0219726525247097,0.9848632216453552,0.9858070136923575,-0.4596710205078125,-0.4901885986328125,-0.0476837158203125,0.6736883894492517
1785506293.872934,-0.0371093712747097,0.0302734337747097,0.9960936903953552,0.9972443162406862,-0.1544952392578125,-0.0629425048828125,-0.0476837158203125,0.17350583456669094
1785506293.883574,-0.0415039025247097,0.0317382775247097,0.9946288466453552,0.9960002182550391,0.0286102294921875,-0.6732940673828125,0.1392364501953125,0.6881353322330417
1785506293.894216,-0.0302734337747097,0.0205078087747097,0.9999999403953552,1.0006682426278781,-0.2155303955078125,-0.3681182861328125,-0.0476837158203125,0.4292297295476463
1785506293.904858,-0.0419921837747097,0.0317382775247097,0.9931640028953552,0.9945578909271846,0.1506805419921875,-0.3070831298828125,0.0743865966796875,0.35005433886651105
1785506293.915548,-0.029785148799419403,0.0234375,0.9941405653953552,0.994862772074546,0.6999969482421875,-0.3070831298828125,-0.0476837158203125,0.7658782624943943
1785506293.926238,-0.0390624925494194,0.04296875,0.9897460341453552,0.9914481347540044,0.1506805419921875,-0.6122589111328125,-0.0476837158203125,0.6323285038261591
1785506293.936928,-0.0351562462747097,0.0253906212747097,0.9956054091453552,0.996549434810102,0.3337860107421875,-0.6122589111328125,-0.2307891845703125,0.7345323157924032
1785506293.94494,-0.0380859375,0.01708984375,0.9897460341453552,0.9906259705363635,-0.3986358642578125,-0.2460479736328125,-0.7762908935546875,0.9066850109146624
1785506293.95295,-0.0312499962747097,0.0327148400247097,0.9833983778953552,0.9844385164509908,-0.3376007080078125,-0.3681182861328125,-0.9593963623046875,1.0816314948429537
1785506293.96096,-0.0356445275247097,0.0175781212747097,0.9892577528953552,0.9900557683047838,-0.8869171142578125,-0.7343292236328125,-0.9021759033203125,1.4627996229068412
1785506293.96897,-0.0341796800494194,0.02392578125,0.9926757216453552,0.9935521032541929,-1.3751983642578125,-0.1850128173828125,-0.7762908935546875,1.5899773064635936
1785506293.979636,-0.0375976525247097,0.0214843712747097,0.9868163466453552,0.9877659964237098,-1.4972686767578125,-0.3681182861328125,-0.7190704345703125,1.7012897615804863
1785506293.990302,-0.0292968712747097,0.0253906212747097,1.00341796875,1.0041666247817533,-1.0089874267578125,-0.4291534423828125,-0.5931854248046875,1.2466343700801321
1785506294.000968,-0.0356445275247097,0.0292968712747097,1.0048828125,1.0059415022091776,-0.8258819580078125,-0.0629425048828125,-0.2307891845703125,0.8598292942197135
1785506294.008961,-0.0385742150247097,0.0292968712747097,0.9936522841453552,0.9948322162649043,-0.6427764892578125,-0.0019073486328125,0.2574920654296875,0.6924358575930715
1785506294.016954,-0.0317382775247097,0.0249023400247097,0.9960936903953552,0.9969102692039938,-0.766754150390625,-0.247955322265625,0.5054473876953125,0.9512469872273523
1785506294.024947,-0.0419921837747097,0.0385742150247097,0.9980468153953552,0.9996743266102975,-0.278472900390625,-0.064849853515625,0.4405975341796875,0.5252417032930514
1785506294.03294,-0.0341796837747097,0.0336914025247097,0.9819335341453552,0.9831057048284323,-0.217437744140625,0.057220458984375,0.6275177001953125,0.6665821911525693
1785506294.043687,-0.024414055049419403,0.03173828125,0.9936522841453552,0.994458760516464,-0.0324249267578125,-0.1239776611328125,0.6275177001953125,0.640468812975016
1785506294.054434,-0.0268554650247097,0.0253906212747097,0.9897460341453552,0.9904358191002928,0.0896453857421875,0.1201629638671875,0.6885528564453125,0.7046846593968197
1785506294.065181,-0.0444335862994194,0.02392578125,0.9892577528953552,0.9905441374635552,0.2117156982421875,0.3032684326171875,0.2002716064453125,0.4205995666336911
1785506294.075766,-0.0263671837747097,0.0336914025247097,0.9873046278953552,0.9882311304790379,-0.0324249267578125,0.3032684326171875,0.2574920654296875,0.3991557112914477
1785506294.086352,-0.0371093712747097,0.0390624962747097,0.9965819716453552,0.9980373791898576,-0.0324249267578125,0.3643035888671875,-0.0476837158203125,0.3688390129734036
1785506294.096938,-0.0351562425494194,0.0185546875,0.9863280653953552,0.9871288114552023,0.2727508544921875,0.4253387451171875,0.0171661376953125,0.505569731102898
1785506294.104926,-0.02880859375,0.04638671875,0.9873046278953552,0.9888134763512428,0.026702880859375,0.18310546875,-0.1659393310546875,0.24854882442535184
1785506294.112915,-0.0263671837747097,0.0405273400247097,0.9819335341453552,0.9831231658082701,0.1506805419921875,0.2422332763671875,0.0743865966796875,0.29481341841956266
1785506294.120904,-0.0336914025247097,0.0400390587747097,0.9882811903953552,0.9896655738788265,0.1506805419921875,0.6694793701171875,0.2574920654296875,0.7329457118414787
1785506294.136918,-0.0351562425494194,0.033203125,0.9921874403953552,0.9933651522870358,0.514984130859375,0.789642333984375,0.5664825439453125,1.0998391442624826
1785506294.144942,-0.0478515625,0.0380859375,0.9887694716453552,0.9906590628095926,0.0896453857421875,0.3643035888671875,0.9288787841796875,1.0017830083134336
1785506294.152966,-0.0488281175494194,0.03125,0.9843749403953552,0.9860805093103601,0.2727508544921875,0.6084442138671875,0.9288787841796875,1.143421700735915
1785506294.16099,-0.0395507775247097,0.0200195275247097,0.9951171278953552,0.9961039823812685,-0.0324249267578125,0.5474090576171875,0.9288787841796875,1.0786676262573756
1785506294.1717,-0.0317382775247097,0.0322265587747097,1.0078125,1.0088269943389427,-0.095367431640625,0.240325927734375,1.1768341064453125,1.2049024909311352
1785506294.18241,-0.0312499962747097,0.0341796837747097,0.9863280653953552,0.9874147384137288,-0.0324249267578125,0.4253387451171875,1.2989044189453125,1.3671565797408771
1785506294.19312,-0.0351562462747097,0.0346679650247097,0.9853515028953552,0.9865877628012714,0.1506805419921875,0.1811981201171875,1.0547637939453125,1.0807701168550932
1785506294.201142,-0.0390624962747097,0.0249023400247097,0.9960936903953552,0.9971703190525457,0.335693359375,0.728607177734375,0.9937286376953125,1.277127658595767
1785506294.209164,-0.0463867150247097,0.0273437462747097,0.9902343153953552,0.9916972356408115,0.087738037109375,0.728607177734375,0.6885528564453125,1.0063157649171837
1785506294.217186,-0.0322265625,0.03271484375,0.9970702528953552,0.9981271970750827,0.087738037109375,0.545501708984375,0.1392364501953125,0.5697866852811423
1785506294.225208,-0.0317382775247097,0.0336914025247097,0.9970702528953552,0.9981440367367452,-0.0324249267578125,0.6084442138671875,0.1392364501953125,0.6250140209040922
1785506294.235819,-0.0361328087747097,0.0249023400247097,0.9912108778953552,0.9921817932550148,-0.0324249267578125,0.2422332763671875,0.3223419189453125,0.40451532574697113
1785506294.24643,-0.0375976525247097,0.0292968712747097,0.9897460341453552,0.9908930831569642,-0.0934600830078125,-0.1850128173828125,-0.2307891845703125,0.3102066688941147
1785506294.257041,-0.0502929650247097,0.0400390587747097,0.9902343153953552,0.9923187531962948,-0.1544952392578125,-0.3070831298828125,0.2574920654296875,0.4295008630622289
1785506294.267722,-0.0351562462747097,0.0219726525247097,0.9975585341453552,0.9984196453182046,-0.3376007080078125,-0.7953643798828125,0.3833770751953125,0.9452812896799869
1785506294.278404,-0.0346679650247097,0.0249023400247097,0.9750975966453552,0.9760314120566042,-0.3376007080078125,-0.7343292236328125,0.5054473876953125,0.9532526991603858
1785506294.289086,-0.0336913987994194,0.0385742112994194,0.9902343153953552,0.9915579052768132,-0.2155303955078125,-0.4901885986328125,0.5054473876953125,0.7363526840756203
1785506294.297211,-0.0419921837747097,0.0297851525247097,0.9833983778953552,0.9847450779040762,-0.3376007080078125,-0.5512237548828125,0.3833770751953125,0.7515316678489308
1785506294.305337,-0.0415039025247097,0.0288085974752903,0.9941405653953552,0.9954235143786139,-0.400543212890625,-0.919342041015625,0.0171661376953125,1.002955298133917
1785506294.313463,-0.0341796837747097,0.0253906212747097,0.9887694716453552,0.989685809986932,-0.2765655517578125,-0.4901885986328125,0.2002716064453125,0.5973960855219006
1785506294.321589,-0.0322265587747097,0.0268554650247097,0.9921874403953552,0.9930738562516082,-0.278472900390625,-0.6103515625,0.0171661376953125,0.6710967608188351
1785506294.329762,-0.0268554650247097,0.0400390587747097,0.9912108778953552,0.9923826614201494,-0.278472900390625,-0.553131103515625,0.1392364501953125,0.634734561050028
1785506294.337935,-0.0361328087747097,0.0327148400247097,0.9892577528953552,0.9904578447825833,-0.4596710205078125,-0.6732940673828125,-0.1049041748046875,0.8219654701744091
1785506294.346108,-0.0361328087747097,0.0249023400247097,0.9804686903953552,0.9814502326935579,-0.461578369140625,-0.431060791015625,-0.1049041748046875,0.6402131538019098
1785506294.354281,-0.0322265587747097,0.0244140587747097,0.9985350966453552,0.9993532591575732,-0.0324249267578125,-0.5512237548828125,0.1392364501953125,0.5694609669550216
1785506294.364489,-0.0380859375,0.02392578125,0.9877929091453552,0.9888163697075008,-0.1544952392578125,-0.1850128173828125,-0.1049041748046875,0.2628752697396754
1785506294.374697,-0.0336913987994194,0.02685546875,0.9785155653953552,0.97946364826666,0.2727508544921875,-0.2460479736328125,-0.2880096435546875,0.4667785221446353
1785506294.384905,-0.0361328087747097,0.0346679650247097,0.9897460341453552,0.9910119372516978,-0.0324249267578125,-0.1850128173828125,-0.0476837158203125,0.19379075113536184
1785506294.393182,-0.0234375,0.02685546875,1.00244140625,1.0030749252037505,-0.095367431640625,-0.431060791015625,-0.4711151123046875,0.6456452598839427
1785506294.401459,-0.0302734337747097,0.0292968712747097,0.9873046278953552,0.9882030235344276,-0.0934600830078125,-0.3070831298828125,-0.0476837158203125,0.324512823365863
1785506294.409736,-0.0400390550494194,0.02734375,0.9848632216453552,0.9860559679566779,-0.0324249267578125,-0.0629425048828125,0.3223419189453125,0.33002643455565617
1785506294.418013,-0.0297851525247097,0.0292968712747097,0.9775390028953552,0.9784313793818412,-0.2155303955078125,-0.0629425048828125,0.0743865966796875,0.23653430210915172
1785506294.428329,-0.0390624925494194,0.03125,0.9843749403953552,0.9856452019375596,0.1506805419921875,-0.0019073486328125,0.4405975341796875,0.4656548623595456
1785506294.438645,-0.0278320275247097,0.0336914025247097,0.9887694716453552,0.9897347121416188,0.2727508544921875,-0.1239776611328125,0.3223419189453125,0.44007704075028425
1785506294.448961,-0.0356445275247097,0.0351562462747097,0.9975585341453552,0.9988140582915409,-0.152587890625,0.057220458984375,0.5664825439453125,0.5894571382946536
1785506294.457229,-0.02392578125,0.03173828125,1.00048828125,1.0012774652531167,0.026702880859375,0.18310546875,0.5664825439453125,0.5959388635817436
1785506294.465497,-0.0380859375,0.0234375,0.9785155653953552,0.9795369144460537,0.2727508544921875,-0.0629425048828125,0.3223419189453125,0.4269181423370149
1785506294.473765,-0.0375976525247097,0.0253906212747097,1.00390625,1.0049308562847232,0.2727508544921875,-0.1850128173828125,0.5664825439453125,0.6553817542599865
1785506294.482033,-0.0366210900247097,0.0224609337747097,0.9848632216453552,0.9857997581305739,0.0896453857421875,-0.0019073486328125,0.9288787841796875,0.9331965113858962
1785506294.492353,-0.0341796837747097,0.0336914025247097,0.9936522841453552,0.9948106468943237,0.2727508544921875,-0.0019073486328125,0.5054473876953125,0.5743463487592143
1785506294.502673,-0.0214843712747097,0.0312499962747097,0.9975585341453552,0.998279104019747,-0.0934600830078125,-0.1850128173828125,0.3223419189453125,0.3832347093115387
1785506294.512993,-0.0278320275247097,0.0336914025247097,0.9750975966453552,0.9760763573326454,0.026702880859375,-0.064849853515625,0.0171661376953125,0.07220265667246895
1785506294.52362,-0.0346679612994194,0.01708984375,0.9960936903953552,0.9968433028041545,0.0896453857421875,-0.1239776611328125,0.0743865966796875,0.17011796322086206
1785506294.534247,-0.0263671837747097,0.0249023400247097,0.9990233778953552,0.9996814815231706,0.3948211669921875,-0.1239776611328125,0.2574920654296875,0.48739755654319994
1785506294.544874,-0.0356445275247097,0.0371093712747097,0.9799804091453552,0.9813303419784603,0.2727508544921875,-0.3070831298828125,0.0171661376953125,0.41108120069910414
1785506294.552897,-0.0234374962747097,0.0195312462747097,0.9921874403953552,0.9926563870196761,0.335693359375,-0.431060791015625,0.0171661376953125,0.5466242890348577
1785506294.56092,-0.0307617150247097,0.0258789025247097,0.9907225966453552,0.9915378279273364,0.3337860107421875,-0.1850128173828125,0.5054473876953125,0.6333402760689748
1785506294.568943,-0.0361328087747097,0.0332031212747097,0.9975585341453552,0.9987647651867594,0.026702880859375,-0.370025634765625,0.5664825439453125,0.6771517457886722
1785506294.576966,-0.0439453087747097,0.0205078087747097,0.9936522841453552,0.9948349723302485,0.0896453857421875,-0.0629425048828125,0.5664825439453125,0.5769753259027126
1785506294.587622,-0.0468749962747097,0.0341796837747097,0.9838866591453552,0.9855954921279325,-0.0324249267578125,-0.4291534423828125,0.5664825439453125,0.7114256992680404
1785506294.598278,-0.0361328050494194,0.0283203125,0.9970702528953552,0.9981265996403685,-0.0324249267578125,-0.1850128173828125,0.8716583251953125,0.8916666161483633
1785506294.608934,-0.0302734337747097,0.0341796837747097,0.9970702528953552,0.9981151340322711,0.2117156982421875,-0.4901885986328125,0.5664825439453125,0.7784670010389204
1785506294.61698,-0.0205078087747097,0.0385742150247097,0.9838866591453552,0.9848560800085061,0.209808349609375,-0.247955322265625,0.2574920654296875,0.41449191688729725
1785506294.625026,-0.024902336299419403,0.02880859375,0.9809569716453552,0.9816957989350102,-0.095367431640625,-0.247955322265625,0.2002716064453125,0.3326943119528276
1785506294.633072,-0.0322265587747097,0.0297851525247097,0.9780272841453552,0.979011274160885,-0.0324249267578125,0.0591278076171875,0.2002716064453125,0.21132011228714312
1785506294.641118,-0.0283203087747097,0.0258789025247097,0.9829100966453552,0.9836584852337522,0.0896453857421875,-0.1239776611328125,0.1392364501953125,0.2068660066512133
1785506294.651904,-0.03759765625,0.033203125,0.9960936903953552,0.9973558398639357,0.1506805419921875,-0.0019073486328125,0.1392364501953125,0.20517078928750607
1785506294.66269,-0.0410156212747097,0.0346679650247097,0.9897460341453552,0.9912019779509944,0.1506805419921875,-0.1850128173828125,-0.1049041748046875,0.26065159547264954
1785506294.673476,-0.02783203125,0.0283203125,0.9926757216453552,0.9934695518271939,0.3948211669921875,-0.0019073486328125,-0.0476837158203125,0.3976947681807145
1785506294.681336,-0.0244140587747097,0.0244140587747097,0.9858397841453552,0.9864442064990145,0.1506805419921875,0.1811981201171875,-0.1659393310546875,0.2882242981775466
1785506294.689198,-0.0366210900247097,0.0371093712747097,0.9794921278953552,0.9808787072212206,0.209808349609375,0.057220458984375,-0.2307891845703125,0.31710782425985967
1785506294.69706,-0.0234374962747097,0.0302734337747097,0.9858397841453552,0.9865829296252289,0.1506805419921875,-0.0629425048828125,-0.0476837158203125,0.17011796322086206
1785506294.704922,-0.024414055049419403,0.0322265625,0.9873046278953552,0.9881320891855038,0.1506805419921875,-0.0629425048828125,-0.0476837158203125,0.17011796322086206
1785506294.715617,-0.0356445275247097,0.0307617150247097,0.9809569716453552,0.9820862465554374,0.3337860107421875,0.4863739013671875,-0.1659393310546875,0.6127875116948774
1785506294.726312,-0.0366210900247097,0.0273437462747097,0.9916991591453552,0.9927517347980502,0.514984130859375,-0.064849853515625,-0.2880096435546875,0.59360231916535
1785506294.737007,-0.0380859375,0.0478515625,0.9877929091453552,0.9896843648491115,0.640869140625,0.057220458984375,0.2002716064453125,0.6738665688992107
1785506294.747647,-0.0375976525247097,0.0312499962747097,0.9926757216453552,0.9938788830067097,0.6999969482421875,-0.1850128173828125,-0.3490447998046875,0.8037771721161258
1785506294.75829,-0.0244140587747097,0.0302734337747097,0.9824218153953552,0.9831913091677896,0.7610321044921875,-0.0629425048828125,-0.4711151123046875,0.8972631007851537
1785506294.768933,-0.0375976525247097,0.0249023400247097,0.9877929091453552,0.9888217945473892,0.8831024169921875,0.3643035888671875,-0.2307891845703125,0.982776999870055
1785506294.779615,-0.0380859337747097,0.0356445275247097,0.9951171278953552,0.9964834012288675,0.6389617919921875,0.1201629638671875,-0.2307891845703125,0.6899093833438159
1785506294.790295,-0.0332031212747097,0.0385742150247097,0.9833983778953552,0.9847145713222545,0.3337860107421875,-0.0019073486328125,-0.5931854248046875,0.6806509289986375
1785506294.800975,-0.029296867549419403,0.033203125,0.9980468153953552,0.9990286280576669,-0.152587890625,0.057220458984375,-0.3490447998046875,0.3852135999188812
1785506294.808969,-0.0458984337747097,0.0385742150247097,0.9873046278953552,0.9891233818646336,-0.1544952392578125,-0.1239776611328125,-0.0476837158203125,0.20374733413648272
1785506294.816961,-0.0356445275247097,0.0385742150247097,0.9887694716453552,0.9901634059411948,-0.278472900390625,-0.247955322265625,-0.5359649658203125,0.6529069173156199
1785506294.824953,-0.02880859375,0.02587890625,0.9931640028953552,0.9939187036723245,-0.0934600830078125,-0.3070831298828125,-0.2307891845703125,0.39534603006617036
1785506294.832945,-0.0356445275247097,0.0292968712747097,0.9892577528953552,0.9903331463060874,-0.0324249267578125,-0.0629425048828125,-0.2307891845703125,0.24140584605763413
1785506294.843597,-0.0346679650247097,0.0385742150247097,0.9892577528953552,0.9906163432567094,-0.2155303955078125,-0.0629425048828125,-0.2307891845703125,0.3219918601817548
1785506294.854249,-0.0249023400247097,0.0336914025247097,0.9980468153953552,0.998925764440781,0.209808349609375,0.057220458984375,-0.4138946533203125,0.46754947175602063
1785506294.864901,-0.0283203087747097,0.0297851525247097,0.9916991591453552,0.9925504609084718,0.209808349609375,0.240325927734375,-0.4138946533203125,0.522575237792932
1785506294.875582,-0.0371093712747097,0.0302734337747097,0.9902343153953552,0.9913917417526856,0.2117156982421875,-0.1850128173828125,-0.5931854248046875,0.6564466678099756
1785506294.886261,-0.0278320275247097,0.0214843712747097,0.9863280653953552,0.9869545341867324,0.2727508544921875,0.1201629638671875,-0.5359649658203125,0.6132622694233962
1785506294.89694,-0.033203125,0.02392578125,0.9873046278953552,0.9881524774961475,-0.0324249267578125,0.0591278076171875,-0.5931854248046875,0.5970062158048124
1785506294.90494,-0.0361328087747097,0.0292968712747097,0.9882811903953552,0.9893753573976345,0.270843505859375,0.057220458984375,-0.3490447998046875,0.4454914790018707
1785506294.912939,-0.0234374962747097,0.0336914025247097,0.9858397841453552,0.9866937249417722,0.3337860107421875,0.1201629638671875,0.0171661376953125,0.3551716699511733
1785506294.920938,-0.0454101525247097,0.012207027524709702,0.9819335341453552,0.9830587769571532,0.209808349609375,0.057220458984375,-0.2880096435546875,0.3608923375089729
1785506294.928937,-0.0327148400247097,0.0400390587747097,0.9858397841453552,0.9871947462325595,0.209808349609375,0.423431396484375,-0.2307891845703125,0.5259062072358031
1785506294.93964,-0.0419921837747097,0.0214843712747097,0.9873046278953552,0.9884307512268243,0.209808349609375,0.057220458984375,-0.2307891845703125,0.31710782425985967
1785506294.950343,-0.0288085900247097,0.0351562462747097,0.9760741591453552,0.9771318542871541,-0.0934600830078125,-0.0019073486328125,-0.2880096435546875,0.30280023096941727
1785506294.961046,-0.0371093712747097,0.0214843712747097,0.9824218153953552,0.9833571614678867,-0.3376007080078125,0.2422332763671875,-0.0476837158203125,0.4182402837859964
1785506294.971706,-0.0302734337747097,0.0415039025247097,0.9892577528953552,0.990590710829079,-0.0934600830078125,0.3643035888671875,-0.1049041748046875,0.39045713960535083
1785506294.982368,-0.02783203125,0.0322265625,0.9926757216453552,0.9935885776508273,-0.095367431640625,0.240325927734375,0.0171661376953125,0.25912578961286686
1785506294.99303,-0.0468749962747097,0.0268554650247097,0.9990233778953552,1.0004829787951883,-0.0324249267578125,0.1201629638671875,0.2002716064453125,0.23579488991236144
1785506295.000993,-0.0390624962747097,0.0361328087747097,0.9882811903953552,0.9897126703111473,-0.095367431640625,-0.064849853515625,0.0743865966796875,0.13723635190544012
1785506295.008956,-0.0332031212747097,0.0312499962747097,0.9916991591453552,0.9927468115180008,0.0896453857421875,-0.3070831298828125,0.2574920654296875,0.4106561914822865
1785506295.016919,-0.0307617150247097,0.0415039025247097,0.9926757216453552,0.9940190870301077,0.026702880859375,-0.186920166015625,0.1392364501953125,0.2346038818359375
1785506295.024882,-0.0283203125,0.0263671875,0.9965819716453552,0.9973328907066594,0.2727508544921875,0.1811981201171875,0.3223419189453125,0.4594889553292522
1785506295.035567,-0.0390624962747097,0.0292968712747097,1.001953125,1.0031421883157763,0.335693359375,0.240325927734375,0.1392364501953125,0.4356987171576853
1785506295.046252,-0.0278320275247097,0.0297851525247097,0.9780272841453552,0.9788764710625114,0.3337860107421875,0.1201629638671875,0.0743865966796875,0.362471522492619
1785506295.056937,-0.0390624962747097,0.0307617150247097,0.9877929091453552,0.9890434738090723,0.335693359375,0.057220458984375,0.1392364501953125,0.36790080391030294
1785506295.064921,-0.0322265587747097,0.0322265587747097,0.9853515028953552,0.9864049302588946,-0.0934600830078125,0.1811981201171875,0.1392364501953125,0.24688931712980547
1785506295.072904,-0.0380859375,0.03173828125,0.9931640028953552,0.9944006203633841,-0.1544952392578125,-0.3070831298828125,0.1392364501953125,0.3708849102820776
1785506295.080887,-0.0444335862994194,0.02783203125,0.9887694716453552,0.9901585901322898,0.026702880859375,-0.30517578125,0.2574920654296875,0.4001842888807409
1785506295.08887,-0.0361328087747097,0.0341796837747097,0.9887694716453552,0.9900196456185725,-0.2765655517578125,-0.4901885986328125,0.5054473876953125,0.7564723579726621
1785506295.099541,-0.033203125,0.03271484375,0.9804686903953552,0.9815760598939521,-0.278472900390625,-0.431060791015625,0.5664825439453125,0.7643710057280667
1785506295.110212,-0.0249023400247097,0.0317382775247097,0.9897460341453552,0.990567845685191,-0.7038116455078125,-0.3070831298828125,0.8106231689453125,1.1165844361453279
1785506295.120883,-0.0449218712747097,0.0356445275247097,0.9956054091453552,0.9972555527951557,-0.7038116455078125,-0.1239776611328125,0.8106231689453125,1.0806623963307496
1785506295.131558,-0.0371093712747097,0.0341796837747097,0.9877929091453552,0.9890804757840422,-0.278472900390625,-0.064849853515625,1.1768341064453125,1.2110702596653515
1785506295.142235,-0.0356445275247097,0.0263671837747097,0.9858397841453552,0.9868362785824352,-0.095367431640625,0.240325927734375,0.7457733154296875,0.7893220740395555
1785506295.152912,-0.0307617150247097,0.0322265587747097,0.9882811903953552,0.9892848656938918,-0.461578369140625,0.423431396484375,0.9288787841796875,1.12034125787028
1785506295.163688,-0.0336913987994194,0.0380859375,0.9877929091453552,0.9891008443764262,-0.335693359375,0.057220458984375,0.6885528564453125,0.7681596504463474
1785506295.174465,-0.0380859337747097,0.0444335900247097,0.9858397841453552,0.9875752944853046,-0.1544952392578125,0.3643035888671875,0.8716583251953125,0.9572743178928069
1785506295.185242,-0.029296867549419403,0.0224609375,0.9985350966453552,0.9992172633587432,-0.0934600830078125,0.1201629638671875,0.5664825439453125,0.5865802567389454
1785506295.193264,-0.02197265625,0.02392578125,0.9873046278953552,0.9878388881263429,-0.1544952392578125,0.3643035888671875,0.4405975341796875,0.5922094823118441
1785506295.201288,-0.0214843712747097,0.0307617150247097,0.9936522841453552,0.9943604593444033,-0.1544952392578125,0.3032684326171875,0.3833770751953125,0.5126582711326587
1785506295.209312,-0.0390624925494194,0.037109375,0.9907225966453552,0.9921865991539994,-0.152587890625,0.240325927734375,0.0743865966796875,0.2942328698027491
1785506295.217336,-0.0395507737994194,0.02734375,0.9912108778953552,0.9923764148901747,0.026702880859375,0.3662109375,-0.1049041748046875,0.3818748230536694
1785506295.227967,-0.0463867150247097,0.0273437462747097,0.9990233778953552,1.0004734466104361,-0.5207061767578125,0.2422332763671875,-0.0476837158203125,0.5762687042064256
1785506295.238598,-0.0297851525247097,0.0346679650247097,0.9868163466453552,0.9878742455982749,0.026702880859375,0.301361083984375,-0.3490447998046875,0.46191321593684875
1785506295.249229,-0.0200195275247097,0.0219726525247097,0.9868163466453552,0.9872639368212384,-0.1544952392578125,0.3032684326171875,-0.1659393310546875,0.3786507398200768
1785506295.257228,-0.0395507737994194,0.02685546875,0.9907225966453552,0.991875366875108,-0.0934600830078125,0.1201629638671875,-0.4711151123046875,0.4950993577485559
1785506295.26523,-0.0458984337747097,0.0244140587747097,0.9916991591453552,0.9930608917576157,-0.0324249267578125,-0.1850128173828125,-0.6542205810546875,0.6806509289986375
1785506295.273232,-0.0336914025247097,0.0346679650247097,0.9907225966453552,0.9919013266987557,-0.0324249267578125,-0.0629425048828125,-0.2880096435546875,0.296585046111011
1785506295.281234,-0.0444335900247097,0.0205078087747097,0.9877929091453552,0.9890044213758946,-0.3986358642578125,0.3032684326171875,0.0171661376953125,0.5011755887690792
1785506295.291803,-0.03271484375,0.01806640625,0.9833983778953552,0.9841082388048547,-0.152587890625,0.057220458984375,-0.0476837158203125,0.1697968846775518
1785506295.302372,-0.0268554650247097,0.0205078087747097,0.9936522841453552,0.9942266582674774,-0.0934600830078125,-0.1239776611328125,-0.1659393310546875,0.22724680232440425
1785506295.312941,-0.05126953125,0.033203125,0.9960936903953552,0.997964755083965,0.026702880859375,-0.247955322265625,-0.3490447998046875,0.4289838667790833
1785506295.323604,-0.0244140587747097,0.0244140587747097,0.9892577528953552,0.9898600881919009,0.0286102294921875,-0.4901885986328125,0.2002716064453125,0.5302943746725797
1785506295.334267,-0.0332031212747097,0.0249023400247097,0.9877929091453552,0.9886644552925594,-0.3376007080078125,-0.1850128173828125,-0.1049041748046875,0.39900985769120373
1785506295.34493,-0.030761711299419403,0.0234375,0.9819335341453552,0.9826947973646275,-0.278472900390625,-0.247955322265625,0.1392364501953125,0.3980148077079654
1785506295.352935,-0.0307617150247097,0.0273437462747097,0.9897460341453552,0.9906014211972723,-0.5207061767578125,-0.1850128173828125,0.2002716064453125,0.5877698371453322
1785506295.360941,-0.02685546875,0.02880859375,0.9975585341453552,0.9983357052223789,-0.5207061767578125,-0.0019073486328125,-0.4138946533203125,0.6651671553374288
1785506295.368947,-0.0366210900247097,0.0419921837747097,0.9799804091453552,0.9815630647296508,-0.0934600830078125,-0.1850128173828125,0.1392364501953125,0.2497024604899697
1785506295.376953,-0.03662109375,0.01806640625,0.9892577528953552,0.9901001975587138,-0.2155303955078125,-0.1239776611328125,-0.0476837158203125,0.25317493675746994
1785506295.386549,-0.0336913987994194,0.03759765625,0.9824218153953552,0.9837181087452137,-0.335693359375,0.057220458984375,-0.1049041748046875,0.35632723492080687
1785506295.396145,-0.0278320275247097,0.0297851525247097,0.9926757216453552,0.9935123881518454,0.152587890625,0.057220458984375,-0.1659393310546875,0.23257924860710744
1785506295.405741,-0.0263671837747097,0.0336914025247097,1.00341796875,1.0043296067500287,-0.0934600830078125,0.1201629638671875,-0.0476837158203125,0.15952323265156876
1785506295.415337,-0.033203125,0.03271484375,0.9902343153953552,0.9913307762285303,-0.0324249267578125,-0.0019073486328125,-0.1659393310546875,0.16908836578822853
1785506295.424933,-0.0400390587747097,0.0385742150247097,0.9873046278953552,0.9888688105891109,-0.2765655517578125,0.4863739013671875,-0.2880096435546875,0.6292834267090943
1785506295.433038,-0.0244140587747097,0.0302734337747097,0.9926757216453552,0.993437273008464,0.209808349609375,0.240325927734375,-0.1659393310546875,0.35959971732201756
1785506295.441143,-0.0297851525247097,0.0390624962747097,0.9794921278953552,0.9807231324564047,0.1506805419921875,0.1201629638671875,-0.0476837158203125,0.1985384103261601
1785506295.449248,-0.0322265587747097,0.0302734337747097,0.9946288466453552,0.9956111562563174,0.087738037109375,0.240325927734375,-0.2307891845703125,0.34455502087739753
1785506295.457353,-0.0307617150247097,0.0361328087747097,0.9902343153953552,0.9913706987639482,0.0896453857421875,-0.3070831298828125,0.0743865966796875,0.32843524416401537
1785506295.46788,-0.029785148799419403,0.01904296875,0.9829100966453552,0.9835456511190512,-0.1544952392578125,-0.0019073486328125,0.2002716064453125,0.25294492143611413
1785506295.478407,-0.0263671837747097,0.0375976525247097,0.9916991591453552,0.9927618214381447,-0.0324249267578125,-0.0629425048828125,-0.1049041748046875,0.12656231938308027
1785506295.488934,-0.0268554650247097,0.0307617150247097,0.9951171278953552,0.9959546161064046,-0.0934600830078125,0.1811981201171875,0.1392364501953125,0.24688931712980547
1785506295.499605,-0.0346679612994194,0.0185546875,0.9912108778953552,0.9919904981535668,-0.1544952392578125,-0.0629425048828125,0.3833770751953125,0.41810108784785993
1785506295.510276,-0.0356445237994194,0.0380859375,1.001953125,1.0033100893589213,-0.3376007080078125,0.3032684326171875,0.1392364501953125,0.4746922891015332
1785506295.520947,-0.0356445275247097,0.0302734337747097,0.9829100966453552,0.9840219871640842,-0.095367431640625,-0.064849853515625,0.1392364501953125,0.18079612712035356
1785506295.528991,-0.0341796800494194,0.02392578125,0.9882811903953552,0.9891614654979054,-0.2155303955078125,0.1811981201171875,0.3223419189453125,0.42800750324159414
1785506295.537036,-0.02294921875,0.03173828125,0.9907225966453552,0.9914964693036756,-0.152587890625,0.240325927734375,0.0743865966796875,0.2942328698027491
1785506295.545081,-0.046875,0.04248046875,0.9931640028953552,0.9951766639634115,-0.1544952392578125,0.3643035888671875,0.0171661376953125,0.3960815068874283
1785506295.553126,-0.0351562462747097,0.0405273400247097,0.9990233778953552,1.0004629610950384,0.0896453857421875,0.1811981201171875,-0.0476837158203125,0.20770842706375836
1785506295.562677,-0.0292968712747097,0.0297851525247097,0.9926757216453552,0.9935545029446214,0.026702880859375,0.545501708984375,-0.0476837158203125,0.5482325191973713
1785506295.572228,-0.03271484375,0.0283203125,0.9814452528953552,0.9823986388083569,0.087738037109375,0.240325927734375,-0.4138946533203125,0.4865832906546789
1785506295.581779,-0.0205078087747097,0.0322265587747097,0.9746093153953552,0.9753575954318513,-0.3986358642578125,-0.1239776611328125,-0.1049041748046875,0.43044848544743197
1785506295.59133,-0.0278320275247097,0.0253906212747097,0.9765624403953552,0.9772888546360199,-0.0934600830078125,0.1201629638671875,-0.0476837158203125,0.15952323265156876
1785506295.600881,-0.0317382775247097,0.0302734337747097,0.9926757216453552,0.9936442458933046,-0.095367431640625,0.240325927734375,0.2002716064453125,0.32704772573326885
1785506295.608888,-0.033203125,0.0234375,0.9887694716453552,0.9896043815453984,-0.0324249267578125,0.5474090576171875,0.2574920654296875,0.6058136809249468
1785506295.616895,-0.0351562462747097,0.0351562462747097,0.9946288466453552,0.9958707074130284,0.026702880859375,0.3662109375,0.2002716064453125,0.41824898199398525
1785506295.624902,-0.0317382775247097,0.0205078087747097,1.00048828125,1.0012016227511593,0.152587890625,0.545501708984375,0.3833770751953125,0.683983304369027
1785506295.632909,-0.0410156212747097,0.0288085974752903,0.9716796278953552,0.9729714876315234,0.0896453857421875,0.6084442138671875,0.3223419189453125,0.6943665957422432
1785506295.643593,-0.0283203125,0.037109375,1.00146484375,1.002552232594492,0.5779266357421875,0.4253387451171875,-0.1049041748046875,0.7252014411800347
1785506295.654277,-0.029296867549419403,0.04248046875,0.9775390028953552,0.9789000964628991,0.0896453857421875,0.4253387451171875,0.0171661376953125,0.43502186102091905
1785506295.664961,-0.0292968712747097,0.0351562462747097,0.9843749403953552,0.9854381216479166,0.0286102294921875,0.6694793701171875,-0.2307891845703125,0.7087205513873092
1785506295.672947,-0.0375976525247097,0.0253906212747097,0.9946288466453552,0.9956630000673692,-0.5207061767578125,0.3643035888671875,-0.3490447998046875,0.7250408951541598
1785506295.680935,-0.0283203125,0.02294921875,0.9912108778953552,0.9918808956721638,-0.8258819580078125,0.2422332763671875,-0.5359649658203125,1.0139114425477056
1785506295.688923,-0.0297851525247097,0.0390624962747097,1.0009765625,1.00218117753251,-0.7648468017578125,-0.1239776611328125,-0.2307891845703125,0.8084706168647978
1785506295.696911,-0.0493164025247097,0.0302734337747097,0.9746093153953552,0.9763257171691698,-0.7038116455078125,-0.0019073486328125,-0.3490447998046875,0.7856123360805355
1785506295.707581,-0.0263671837747097,0.0273437462747097,0.9902343153953552,0.9909626169674882,-1.0089874267578125,-0.1850128173828125,-0.0476837158203125,1.0269172832831817
1785506295.718251,-0.029296867549419403,0.02685546875,0.9882811903953552,0.9890799937008385,-1.1920928955078125,-0.3070831298828125,-0.2880096435546875,1.2642527733642994
1785506295.728921,-0.03173828125,0.01806640625,0.9892577528953552,0.9899316214744642,-1.2531280517578125,-0.1850128173828125,-0.3490447998046875,1.3139223451060382
1785506295.739616,-0.0200195275247097,0.0302734337747097,0.9873046278953552,0.9879715028979379,-0.5207061767578125,-0.2460479736328125,-0.1659393310546875,0.5993416299852936
1785506295.750311,-0.0366210900247097,0.0224609337747097,0.9853515028953552,0.9862875757296982,-0.7648468017578125,-0.3681182861328125,-0.2880096435546875,0.8963544262873988
1785506295.761006,-0.0361328087747097,0.0190429724752903,1.00244140625,1.003273137104309,-0.2155303955078125,-0.3681182861328125,-0.1659393310546875,0.457712011601171
1785506295.771653,-0.0361328087747097,0.0205078087747097,0.9814452528953552,0.9823242512131712,-0.2765655517578125,-0.3681182861328125,-0.0476837158203125,0.4628966555926871
1785506295.782301,-0.02783203125,0.02392578125,0.9936522841453552,0.9943298882962363,-0.1544952392578125,-0.0019073486328125,0.2002716064453125,0.25294492143611413
1785506295.792949,-0.0312499962747097,0.0258789025247097,0.9902343153953552,0.9910652245183263,0.087738037109375,0.057220458984375,0.0171661376953125,0.10614527952557774
1785506295.800956,-0.0429687462747097,0.0356445275247097,0.9946288466453552,0.9961944529447802,0.209808349609375,0.057220458984375,0.2002716064453125,0.2956390380859375
1785506295.808966,-0.0273437462747097,0.0307617150247097,0.9838866591453552,0.9847471358759088,0.0896453857421875,-0.0019073486328125,0.3833770751953125,0.3937231450511704
1785506295.816976,-0.0336913987994194,0.03271484375,0.9843749403953552,0.9854944924417425,-0.1544952392578125,0.4253387451171875,0.1392364501953125,0.47346448242099876
1785506295.824986,-0.024414055049419403,0.04296875,0.9863280653953552,0.9875653963900632,-0.2765655517578125,0.3643035888671875,0.1392364501953125,0.47811337394346937
1785506295.835652,-0.0219726525247097,0.0395507775247097,0.9858397841453552,0.9868774703404376,-0.2765655517578125,0.6694793701171875,-0.2880096435546875,0.7795131084286573
1785506295.846318,-0.0439453087747097,0.0346679650247097,0.9814452528953552,0.9830401021286399,-0.461578369140625,0.8544921875,-0.2307891845703125,0.9982360127102629
1785506295.856984,-0.0332031212747097,0.0361328087747097,0.9873046278953552,0.9885233711935791,-0.5207061767578125,0.7915496826171875,-0.0476837158203125,0.9486619837010128
1785506295.865001,-0.0468749962747097,0.0346679650247097,0.9848632216453552,0.986587400296789,-0.8258819580078125,0.6694793701171875,-0.0476837158203125,1.064216788220218
1785506295.873017,-0.0356445275247097,0.0292968712747097,0.9936522841453552,0.9947229266465253,-0.644683837890625,0.240325927734375,0.0171661376953125,0.6882357725824401
1785506295.881033,-0.0317382775247097,0.0253906212747097,0.9975585341453552,0.9983862133238725,-0.3376007080078125,0.3643035888671875,0.2002716064453125,0.5355371688847331
1785506295.889049,-0.0375976525247097,0.0214843712747097,0.9916991591453552,0.9926441376112806,-0.644683837890625,0.301361083984375,0.2574920654296875,0.7567945015239406
1785506295.899757,-0.0327148400247097,0.0361328087747097,0.9833983778953552,0.9846056115394671,-0.2765655517578125,0.4863739013671875,-0.0476837158203125,0.5615352287298404
1785506295.910465,-0.0380859375,0.03662109375,1.00048828125,1.001882450221222,-0.0324249267578125,0.4253387451171875,0.2002716064453125,0.4712463690271782
1785506295.921173,-0.0332031212747097,0.0258789025247097,0.9882811903953552,0.9891773734510545,-0.095367431640625,0.240325927734375,-0.1659393310546875,0.3072252596223079
1785506295.929138,-0.03173828125,0.02783203125,0.9902343153953552,0.9911336639660228,-0.152587890625,0.240325927734375,-0.2307891845703125,0.36647409679458215
1785506295.937104,-0.0390624962747097,0.0244140587747097,0.9873046278953552,0.9883786486689463,-0.3376007080078125,0.3032684326171875,-0.2307891845703125,0.5091263379398984
1785506295.94507,-0.0292968712747097,0.0258789025247097,0.9741210341453552,0.9749050279010703,-0.949859619140625,0.118255615234375,-0.2880096435546875,0.9995835339724899
1785506295.953036,-0.0278320275247097,0.0351562462747097,0.9755858778953552,0.9766157834876084,-1.0089874267578125,-0.0019073486328125,0.0743865966796875,1.011727547860463
1785506295.963698,-0.0356445275247097,0.0209960900247097,0.9907225966453552,0.9915859174284902,-0.949859619140625,-0.064849853515625,0.3223419189453125,1.0051582523584621
1785506295.97436,-0.0322265587747097,0.0336914025247097,0.9868163466453552,0.9879170834139005,-1.0700225830078125,-0.1239776611328125,-0.2307891845703125,1.1016271766443053
1785506295.985022,-0.033203125,0.01806640625,0.9941405653953552,0.9948589378947913,-1.1920928955078125,-0.1850128173828125,0.0171661376953125,1.2064865893989458
1785506295.995669,-0.0209960900247097,0.0346679650247097,0.9990233778953552,0.999845194606008,-1.6193389892578125,-0.0019073486328125,-0.0476837158203125,1.6200420170056558
1785506296.006317,-0.0366210900247097,0.0273437462747097,1.0009765625,1.002019392711164,-1.560211181640625,0.057220458984375,0.0171661376953125,1.5613544724136772
1785506296.016965,-0.0385742150247097,0.0297851525247097,0.9858397841453552,0.9870436694389227,-1.800537109375,0.057220458984375,-0.4138946533203125,1.8483822243275347
1785506296.025235,-0.0307617150247097,0.0400390587747097,1.00048828125,1.0017615535931719,-2.109527587890625,0.240325927734375,-0.3490447998046875,2.151672713932981
1785506296.033508,-0.020996086299419403,0.0234375,0.9887694716453552,0.9892700440749116,-2.1686553955078125,0.4253387451171875,-0.6542205810546875,2.3047741410469147
1785506296.041781,-0.024902336299419403,0.0283203125,0.9853515028953552,0.9860728932038454,-2.4738311767578125,0.6694793701171875,-0.6542205810546875,2.645004326421222
1785506296.050054,-0.0263671837747097,0.010253902524709702,0.9873046278953552,0.987709876006503,-2.2907257080078125,0.6694793701171875,-0.9021759033203125,2.5513816368532996
1785506296.060373,-0.02880859375,0.03125,0.9902343153953552,0.9911460522851112,-2.4127960205078125,0.4863739013671875,-0.9593963623046875,2.6417012678410368
1785506296.070692,-0.033203125,0.02783203125,0.9892577528953552,0.9902060245912637,-2.231597900390625,0.545501708984375,-1.0814666748046875,2.539128092918084
1785506296.081011,-0.025878898799419403,0.0283203125,0.9951171278953552,0.9958563429199359,-2.109527587890625,0.545501708984375,-1.1425018310546875,2.4602823400048672
1785506296.089008,-0.0415039025247097,0.0322265587747097,0.9887694716453552,0.9901647302712188,-2.109527587890625,0.545501708984375,-1.2073516845703125,2.4910593828351995
1785506296.097005,-0.03759765625,0.033203125,0.9853515028953552,0.9866273944723986,-1.9855499267578125,0.4253387451171875,-1.2645721435546875,2.392167273833566
1785506296.105002,-0.02880859375,0.0283203125,0.9916991591453552,0.9925216357458183,-1.8024444580078125,0.6694793701171875,-1.1425018310546875,2.23658648059468
1785506296.112999,-0.0351562462747097,0.0249023400247097,0.9902343153953552,0.9911710687753866,-1.8024444580078125,0.6084442138671875,-1.4476776123046875,2.390560782485929
1785506296.12365,-0.0361328087747097,0.0385742150247097,0.9843749403953552,0.9857928652678926,-1.621246337890625,0.301361083984375,-1.3256072998046875,2.1157724131766806
1785506296.134301,-0.0478515587747097,0.0161132775247097,0.9882811903953552,0.9895701696590384,-1.4972686767578125,0.6694793701171875,-0.9593963623046875,1.9001203902426984
1785506296.144952,-0.0478515625,0.02392578125,0.9970702528953552,0.9985045339160569,-1.438140869140625,0.118255615234375,-0.7190704345703125,1.6122331840959454
1785506296.155622,-0.0434570275247097,0.0292968712747097,0.9951171278953552,0.9964963211866219,-1.132965087890625,-0.1220703125,-0.4138946533203125,1.2123612644834876
1785506296.166294,-0.0351562462747097,0.0366210900247097,0.9921874403953552,0.9934852705324888,-1.3751983642578125,-0.1850128173828125,-0.4711151123046875,1.4653838175355791
1785506296.176966,-0.0434570237994194,0.0224609375,0.9882811903953552,0.9894911409002825,-1.0089874267578125,-0.3070831298828125,-0.2880096435546875,1.0933001558558721
1785506296.184979,-0.0380859337747097,0.0200195275247097,0.9921874403953552,0.9931199508176697,-0.7648468017578125,-0.3681182861328125,-0.2880096435546875,0.8963544262873988
1785506296.19299,-0.0380859337747097,0.0205078087747097,0.9916991591453552,0.992642096035543,-0.5817413330078125,-0.6732940673828125,-0.2880096435546875,0.9352526046384987
1785506296.201001,-0.02880859375,0.0224609375,0.9970702528953552,0.9977392033973803,-0.5817413330078125,-0.1850128173828125,-0.1049041748046875,0.6194010066322826
1785506296.209012,-0.0283203125,0.02734375,0.9814452528953552,0.9822344451275306,-0.2155303955078125,-0.7343292236328125,-0.2880096435546875,0.8177055184168818
1785506296.219692,-0.0449218712747097,0.0200195275247097,0.9965819716453552,0.9977947595621445,-0.095367431640625,-0.431060791015625,-0.2880096435546875,0.5271222887995193
1785506296.230372,-0.0434570237994194,0.01904296875,0.9873046278953552,0.9884440175548146,-0.3986358642578125,-0.5512237548828125,-0.4711151123046875,0.8274706213887828
1785506296.241052,-0.0273437462747097,0.010742183774709702,0.9902343153953552,0.9906700128494317,-0.3986358642578125,-0.5512237548828125,-0.1049041748046875,0.6883044864819149
1785506296.24904,-0.0268554650247097,0.0214843712747097,0.9858397841453552,0.9864394934381548,-0.3986358642578125,-0.6122589111328125,0.2002716064453125,0.7575488386119382
1785506296.25703,-0.0346679612994194,0.01416015625,1.00927734375,1.009971848208027,-0.3376007080078125,-0.4901885986328125,-0.0476837158203125,0.5971037070990342
1785506296.26502,-0.0385742150247097,0.015624996274709702,0.9863280653953552,0.9872057349711363,-0.335693359375,-0.431060791015625,0.2002716064453125,0.5819039039460685
1785506296.27301,-0.0224609375,0.0234375,0.9912108778953552,0.991742312588159,-0.2155303955078125,-0.3070831298828125,0.4405975341796875,0.5786878149499947
1785506296.283652,-0.0175781212747097,0.015624996274709702,0.9912108778953552,0.9914898563849324,-0.2765655517578125,-0.1850128173828125,0.2002716064453125,0.38836447232363486
1785506296.294294,-0.019531242549419403,0.02880859375,0.9848632216453552,0.9854780412870927,-0.4596710205078125,0.1811981201171875,0.3223419189453125,0.5899445046256834
1785506296.304936,-0.0307617150247097,0.0297851525247097,0.9907225966453552,0.9916474685723232,-0.1544952392578125,0.1201629638671875,0.3223419189453125,0.3771103678606863
1785506296.315583,-0.0244140587747097,0.0214843712747097,0.9892577528953552,0.9897921631021799,-0.2155303955078125,0.3032684326171875,0.2002716064453125,0.4225326140761513
1785506296.32623,-0.0356445237994194,0.02294921875,0.9926757216453552,0.9935805387900114,-0.2155303955078125,0.4863739013671875,0.3833770751953125,0.6557369176005
1785506296.336877,-0.04248046875,0.017578125,0.9873046278953552,0.9883744275158687,-0.2155303955078125,0.4863739013671875,0.2574920654296875,0.5910288377720153
1785506296.347578,-0.0439453050494194,0.02294921875,0.9951171278953552,0.996351320924413,-0.3376007080078125,0.4863739013671875,0.5054473876953125,0.7784670010389204
1785506296.35828,-0.03759765625,0.0126953125,0.9892577528953552,0.9900533603692953,-0.152587890625,0.728607177734375,0.8106231689453125,1.1005732169385092
1785506296.368982,-0.0297851525247097,0.0214843712747097,0.9907225966453552,0.9914030446915649,-0.461578369140625,0.545501708984375,0.8106231689453125,1.0806186318004765
1785506296.376983,-0.02783203125,0.00732421875,0.9838866591453552,0.9843074845738029,-0.3376007080078125,0.8525848388671875,0.9288787841796875,1.305255124951708
1785506296.384985,-0.0361328087747097,0.014160159975290298,0.9907225966453552,0.991482402014373,-1.0089874267578125,0.8525848388671875,1.1768341064453125,1.7691509401163252
1785506296.392987,-0.0283203087747097,0.0200195275247097,0.9931640028953552,0.9937693686256045,-0.8258819580078125,0.4863739013671875,1.1157989501953125,1.4709343553506793
1785506296.400989,-0.0263671837747097,0.0161132775247097,0.9819335341453552,0.9824196311006743,-0.5817413330078125,0.8525848388671875,1.6651153564453125,1.9590643267299557
1785506296.411641,-0.0209960900247097,0.0195312462747097,0.9970702528953552,0.997482528461615,-0.7038116455078125,0.7915496826171875,1.4820098876953125,1.8216078171852628
1785506296.422293,-0.029785148799419403,0.02197265625,1.00244140625,1.0031244816453049,-0.461578369140625,1.094818115234375,1.4820098876953125,1.8994827199873499
1785506296.432945,-0.0234375,0.021484375,0.9951171278953552,0.9956249258662077,-0.644683837890625,0.972747802734375,1.4171600341796875,1.8358099305315116
1785506296.440942,-0.0302734337747097,0.0170898400247097,0.9819335341453552,0.9825487310580424,-0.3986358642578125,0.6694793701171875,1.8482208251953125,2.0057500836272504
1785506296.448938,-0.0278320275247097,0.0058593712747097015,0.9921874403953552,0.9925950185580007,-0.0934600830078125,1.0967254638671875,2.2106170654296875,2.4694876675495845
1785506296.456934,-0.02197265625,0.02392578125,0.9951171278953552,0.9956471959794816,0.209808349609375,1.094818115234375,2.2754669189453125,2.5338500248092095
1785506296.46493,-0.024414055049419403,0.02783203125,0.9960936903953552,0.9967814745935514,0.4558563232421875,0.7915496826171875,2.1533966064453125,2.3391179602879038
1785506296.475581,-0.0380859375,0.01806640625,0.9780272841453552,0.978935290099802,0.209808349609375,0.545501708984375,2.3365020751953125,2.4084919774544993
1785506296.486232,-0.0439453050494194,0.02197265625,0.9853515028953552,0.9865756796701926,0.152587890625,0.545501708984375,2.6988983154296875,2.7576996384485866
1785506296.496883,-0.02880859375,0.03173828125,0.9926757216453552,0.9936006954077092,-0.3376007080078125,0.7915496826171875,2.8247833251953125,2.95295207756581
1785506296.504912,-0.0380859337747097,0.0161132775247097,1.00732421875,1.0081727320972225,-0.0934600830078125,0.6084442138671875,3.1299591064453125,3.1899189890221704
1785506296.512941,-0.0571289025247097,0.0166015587747097,0.9877929091453552,0.9895828184721438,-0.461578369140625,0.545501708984375,4.2896270751953125,4.348738569931755
1785506296.52097,-0.0556640587747097,0.0229492150247097,0.9692382216453552,0.9711065256745912,-0.8869171142578125,0.4863739013671875,4.7168731689453125,4.824113807883344
1785506296.528999,-0.0327148400247097,0.0258789025247097,0.9858397841453552,0.9867218748753299,-1.2531280517578125,0.9746551513671875,5.9375762939453125,6.146144712306266
1785506296.539641,-0.0449218712747097,0.0200195275247097,0.9912108778953552,0.992430229517025,-1.7414093017578125,0.8525848388671875,6.7920684814453125,7.063398723019794
1785506296.550283,-0.04736328125,0.0126953125,0.9936522841453552,0.9948614542525612,-1.621246337890625,1.3427734375,7.1544647216796875,7.457737300705793
1785506296.560925,-0.0380859375,0.017578125,0.9956054091453552,0.9964886651805226,-1.743316650390625,1.888275146484375,7.2803497314453125,7.7206365142075954
1785506296.5716,-0.0317382775247097,0.0219726525247097,0.9916991591453552,0.9924501690104203,-1.560211181640625,2.376556396484375,7.2803497314453125,7.815738701437188
1785506296.582278,-0.0400390550494194,0.01806640625,0.9902343153953552,0.9912081115237851,-1.560211181640625,2.681732177734375,7.3413848876953125,7.970061384562449
1785506296.592956,-0.0175781212747097,0.0302734337747097,0.9936522841453552,0.9942687428091772,-1.3751983642578125,2.9277801513671875,7.4596405029296875,8.130762792551884
1785506296.600951,-0.0356445275247097,0.014160159975290298,1.0068359375,1.007566200065529,-1.1920928955078125,3.1719207763671875,6.7920684814453125,7.590412448590185
1785506296.608945,-0.0263671837747097,0.0229492150247097,0.9887694716453552,0.9893871653242196,-1.132965087890625,3.414154052734375,6.5479278564453125,7.4709716235168555
1785506296.616939,-0.0371093712747097,0.011718746274709702,0.9975585341453552,0.9983173160357808,-0.8869171142578125,3.5991668701171875,6.0596466064453125,7.103516109752744
1785506296.624933,-0.0356445237994194,0.02294921875,0.9843749403953552,0.9852873804106504,-0.583648681640625,3.658294677734375,5.9375762939453125,6.998469688377727
1785506296.635589,-0.0356445275247097,0.0166015587747097,0.9819335341453552,0.9827205144777418,-0.644683837890625,3.536224365234375,5.9375762939453125,6.940843771367859
1785506296.646245,-0.0380859337747097,0.015624996274709702,0.9887694716453552,0.9896260641868276,-0.9479522705078125,3.7822723388671875,5.9947967529296875,7.151348520485986
1785506296.656901,-0.0395507737994194,0.001953125,0.9736327528953552,0.9744376921671217,-1.3751983642578125,3.7212371826171875,6.2427520751953125,7.396670209135016
1785506296.664971,-0.0537109337747097,0.010253902524709702,0.9951171278953552,0.9966183347473787,-1.560211181640625,3.841400146484375,6.5479278564453125,7.750224076111549
1785506296.673042,-0.0566406212747097,0.0058593712747097015,0.9907225966453552,0.9923576752934575,-1.8024444580078125,3.7822723388671875,6.9713592529296875,8.133525674820932
1785506296.681113,-0.0478515625,0.02880859375,0.9916991591453552,0.993270823772222,-2.048492431640625,3.353118896484375,7.7686309814453125,8.705823045658663
1785506296.689184,-0.0493163987994194,0.0126953125,0.9921874403953552,0.9934934297861776,-2.3517608642578125,3.2329559326171875,8.378982543945312,9.28386404987921
1785506296.6974,-0.0561523400247097,0.0288085974752903,0.9975585341453552,0.999552924874403,-2.1686553955078125,3.6602020263671875,9.107589721679688,10.052280121282589
1785506296.705616,-0.0507812462747097,0.0268554650247097,0.9946288466453552,0.9962863511832206,-1.865386962890625,3.658294677734375,9.107589721679688,9.990544480102546
1785506296.713832,-0.0297851525247097,0.0195312462747097,0.9868163466453552,0.9874589241575821,-1.8634796142578125,3.8433074951171875,9.107589721679688,10.059411479466574
1785506296.722048,-0.0483398362994194,0.02783203125,0.9887694716453552,0.9903415722844268,-1.621246337890625,4.024505615234375,8.867263793945312,9.871851514614177
1785506296.732338,-0.0410156212747097,0.0346679650247097,0.9912108778953552,0.9926646732132587,-1.3141632080078125,3.3550262451171875,8.073806762695312,8.841356326042463
1785506296.742628,-0.0395507775247097,0.0292968712747097,0.9843749403953552,0.9856046844184818,-0.8869171142578125,3.7822723388671875,7.3413848876953125,8.30590982868249
1785506296.752918,-0.0253906212747097,0.0200195275247097,0.9975585341453552,0.9980824085100679,-0.461578369140625,3.231048583984375,6.1206817626953125,6.9365318988033895
1785506296.764053,-0.0380859375,0.01416015625,0.9946288466453552,0.9954584829310301,0.026702880859375,2.559661865234375,4.2285919189453125,4.943032624325973
1785506296.775189,-0.0380859337747097,0.014648433774709702,0.9897460341453552,0.9905868599320315,0.5779266357421875,2.5005340576171875,3.4961700439453125,4.3370352483908094
1785506296.786325,-0.05224609375,0.01806640625,0.9916991591453552,0.9932387787418131,0.6389617919921875,2.3784637451171875,2.5768280029296875,3.5644641273472435
1785506296.796521,-0.05224609375,0.013671875,0.9853515028953552,0.9868303596547304,1.0662078857421875,1.7681121826171875,1.9054412841796875,2.8095776254438096
1785506296.806716,-0.0571289025247097,0.0214843712747097,0.9902343153953552,0.9921135464750268,1.0051727294921875,0.9746551513671875,1.7223358154296875,2.2196318481480697
1785506296.816911,-0.06591796875,0.0263671837747097,0.9960936903953552,0.9986205721042267,1.1272430419921875,0.8525848388671875,1.4171600341796875,2.0014795391565117
1785506296.824925,-0.0581054650247097,0.0253906212747097,0.9824218153953552,0.9844661254096856,0.392913818359375,0.423431396484375,1.9054412841796875,1.9910755645235538
1785506296.832937,-0.0629882737994194,0.01171875,0.9838866591453552,0.9859704913343003,0.026702880859375,-0.1220703125,2.1533966064453125,2.1570190424959685
1785506296.840949,-0.0595703087747097,0.015136715024709702,1.00048828125,1.002374452361907,0.026702880859375,0.118255615234375,2.6416778564453125,2.6444582302645947
1785506296.848961,-0.0624999962747097,0.0161132775247097,0.9838866591453552,0.9860014428443477,-0.3986358642578125,-0.1239776611328125,3.0078887939453125,3.036721259759335
1785506296.85964,-0.06640625,0.01318359375,0.9804686903953552,0.9828033628497669,-0.8258819580078125,-0.8563995361328125,3.8013458251953125,3.983181047452042
1785506296.870319,-0.0712890625,0.0249023400247097,0.9814452528953552,0.9843459967926231,-0.949859619140625,-0.6103515625,4.4727325439453125,4.613035739682457
1785506296.880998,-0.05712890625,0.01904296875,0.9960936903953552,0.997912314100579,-1.132965087890625,-0.186920166015625,4.9610137939453125,5.092171138380758
1785506296.891672,-0.0581054612994194,0.0263671875,0.9882811903953552,0.9903389240551634,-1.0089874267578125,-0.4291534423828125,5.2661895751953125,5.379124552040058
1785506296.902349,-0.0537109337747097,0.015136715024709702,0.9848632216453552,0.9864428771593207,-0.949859619140625,-0.370025634765625,5.6324005126953125,5.723904943468933
1785506296.913026,-0.0590820237994194,0.021484375,0.9897460341453552,0.9917406294046012,-1.312255859375,-0.431060791015625,6.0596466064453125,6.215074081700011
1785506296.921008,-0.0400390587747097,0.015136715024709702,0.9804686903953552,0.981402618304479,-0.6427764892578125,-0.0019073486328125,5.6896209716796875,5.725814531968243
1785506296.92899,-0.0175781212747097,0.0297851525247097,0.9975585341453552,0.9981578906689554,-0.7038116455078125,0.1201629638671875,5.1441192626953125,5.1934336386509
1785506296.936972,-0.02880859375,0.0185546875,0.9799804091453552,0.9805793256084757,-0.583648681640625,0.545501708984375,4.4727325439453125,4.543517833986483
1785506296.944954,-0.029785148799419403,0.01806640625,0.9916991591453552,0.9923108244765841,-1.132965087890625,1.3427734375,3.6182403564453125,4.022227451530318
1785506296.955604,-0.0366210900247097,0.0200195275247097,0.9985350966453552,0.999406936612639,-1.0089874267578125,1.7070770263671875,3.4961700439453125,4.019374650052737
1785506296.966254,-0.0385742112994194,0.01123046875,1.0009765625,1.001782497291719,-0.7648468017578125,1.4629364013671875,2.6988983154296875,3.163736029069672
1785506296.976904,-0.0419921837747097,0.0214843712747097,0.9843749403953552,0.9855044114490801,-0.3376007080078125,1.4629364013671875,2.5196075439453125,2.9330153985273726
1785506296.987577,-0.0351562462747097,0.012207027524709702,0.9936522841453552,0.9943489502988369,-0.2765655517578125,1.7681121826171875,2.2106170654296875,2.844211139262938
1785506296.998252,-0.0224609337747097,0.0170898400247097,0.9980468153953552,0.998445793170021,0.0896453857421875,1.5850067138671875,1.4820098876953125,2.171781730610974
1785506297.008927,-0.0419921837747097,0.0224609337747097,0.9868163466453552,0.9879647458541659,-0.0934600830078125,1.9512176513671875,1.1768341064453125,2.28055335921255
1785506297.017031,-0.0473632775247097,0.0249023400247097,0.9809569716453552,0.9824153840490362,0.392913818359375,1.705169677734375,0.6885528564453125,1.880449396990383
1785506297.025134,-0.0532226487994194,0.02197265625,0.9941405653953552,0.9958066638321434,0.3337860107421875,2.4394989013671875,0.7457733154296875,2.5726923307589438
1785506297.033237,-0.0488281212747097,0.0053710900247097015,0.9868163466453552,0.9880382260022924,0.4558563232421875,2.1953582763671875,0.5054473876953125,2.298451655089097
1785506297.04134,-0.0600585900247097,0.010742183774709702,0.9794921278953552,0.9813904714011527,0.392913818359375,1.888275146484375,0.3223419189453125,1.9554714547130772
1785506297.051857,-0.0629882737994194,0.01220703125,0.9892577528953552,0.9913361871291377,0.392913818359375,1.522064208984375,0.6885528564453125,1.716148525346211
1785506297.062374,-0.0566406212747097,0.0053710900247097015,0.9858397841453552,0.9874801712389972,0.3948211669921875,1.3408660888671875,1.2989044189453125,1.9081295322212066
1785506297.072891,-0.0620117150247097,0.0205078087747097,0.9995116591453552,1.0016434394476643,-0.2155303955078125,1.0967254638671875,1.6651153564453125,2.005459858673928
1785506297.083576,-0.0546874962747097,0.0336914025247097,0.9897460341453552,0.991828132772678,-0.2765655517578125,0.9746551513671875,2.1533966064453125,2.37982312644362
1785506297.094261,-0.0566406212747097,0.0297851525247097,0.9882811903953552,0.9903509613155155,-0.278472900390625,0.728607177734375,2.2106170654296875,2.344193546972387
1785506297.104946,-0.0693359300494194,0.0224609375,0.9946288466453552,0.9972955968459233,-0.2155303955078125,0.4863739013671875,2.5196075439453125,2.5751572959384488
1785506297.115588,-0.05224609375,0.00830078125,0.9926757216453552,0.9940843252086922,0.0896453857421875,0.1201629638671875,2.6416778564453125,2.6459284439122146
1785506297.126229,-0.0444335900247097,0.0297851525247097,0.9868163466453552,0.9882651472352397,0.2727508544921875,-0.2460479736328125,2.5768280029296875,2.6028782512129975
1785506297.13687,-0.0390624925494194,0.02197265625,0.9877929091453552,0.9888091359330667,0.3337860107421875,-0.1850128173828125,2.0313262939453125,2.0668646196683294
1785506297.144892,-0.0507812462747097,0.0161132775247097,0.9887694716453552,0.9902037369873111,0.335693359375,-0.247955322265625,1.5430450439453125,1.5984867472120357
1785506297.152914,-0.0434570237994194,0.0224609375,0.9824218153953552,0.9836389734021256,0.209808349609375,-0.1220703125,0.7457733154296875,0.7842821831245725
1785506297.160936,-0.0434570275247097,0.0200195275247097,0.9882811903953552,0.9894387328242493,0.3337860107421875,-0.3681182861328125,0.4405975341796875,0.6641162252781992
1785506297.168958,-0.0493164025247097,0.010253902524709702,0.9858397841453552,0.9871257924290734,0.1506805419921875,-0.3070831298828125,-0.1049041748046875,0.35778423705515044
1785506297.17962,-0.04150390625,0.013671875,0.9912108778953552,0.9921736233432661,0.3948211669921875,-0.3681182861328125,-0.5931854248046875,0.8020372651511584
1785506297.190282,-0.0483398362994194,0.0087890625,0.9926757216453552,0.9938908771777767,-0.0324249267578125,-0.6732940673828125,-0.5359649658203125,0.8611821651862686
1785506297.200944,-0.0556640587747097,0.010253902524709702,0.9887694716453552,0.9903881552270783,-0.0934600830078125,-0.3070831298828125,-0.5359649658203125,0.6247345679256273
1785506297.208956,-0.0478515587747097,0.0205078087747097,0.9926757216453552,0.9940399540471381,-0.2765655517578125,-0.1850128173828125,-0.7762908935546875,0.8445980099615227
1785506297.216966,-0.0561523400247097,0.0166015587747097,0.9912108778953552,0.9929389213350847,-0.152587890625,-0.431060791015625,-0.5359649658203125,0.7045246017728352
1785506297.224976,-0.0380859337747097,0.014648433774709702,0.9980468153953552,0.9988806538743024,-0.461578369140625,-0.30517578125,0.0743865966796875,0.5583190970096343
1785506297.232986,-0.0537109300494194,0.0166015625,0.9975585341453552,0.9991413838543797,-0.0324249267578125,0.0591278076171875,0.2574920654296875,0.2661759517088482
1785506297.243632,-0.0522460900247097,0.0219726525247097,0.9956054091453552,0.9972174196740307,-0.3376007080078125,-0.2460479736328125,0.3833770751953125,0.5670024913186024
1785506297.254278,-0.0571289025247097,0.0317382775247097,0.9741210341453552,0.9763108208600013,0.2727508544921875,-0.0019073486328125,0.7457733154296875,0.7940872147390448
1785506297.264924,-0.052734375,0.0185546875,0.9975585341453552,0.9991237259624521,0.3337860107421875,0.1201629638671875,0.9937286376953125,1.0551534695144174
1785506297.272915,-0.0458984337747097,0.0351562462747097,0.9692382216453552,0.9709610487415806,0.3337860107421875,0.6084442138671875,0.9937286376953125,1.212070157924625
1785506297.280906,-0.0537109337747097,0.0297851525247097,1.00390625,1.0057831667446686,-0.7648468017578125,0.3643035888671875,0.6275177001953125,1.0542704582217417
1785506297.288897,-0.0395507775247097,0.014648433774709702,1.00439453125,1.0052796700519555,-0.3376007080078125,0.3032684326171875,0.5054473876953125,0.679281268693225
1785506297.296888,-0.0415039025247097,0.012207027524709702,0.9926757216453552,0.9936179717526733,0.2727508544921875,0.2422332763671875,0.0171661376953125,0.36519127192359774
1785506297.307567,-0.0356445237994194,0.0185546875,0.9741210341453552,0.9749495359604652,0.576019287109375,0.057220458984375,-0.3490447998046875,0.6759472407807207
1785506297.318246,-0.04296875,0.0166015625,0.9697265028953552,0.9708199708347883,0.087738037109375,-0.247955322265625,-1.1425018310546875,1.172386556967867
1785506297.328925,-0.0493163987994194,0.01318359375,1.00439453125,1.0056909509086853,-0.400543212890625,0.057220458984375,-1.0204315185546875,1.0977201512129366
1785506297.336938,-0.0546874925494194,0.02392578125,1.00341796875,1.0051919144422827,0.1506805419921875,-0.2460479736328125,-1.3256072998046875,1.35664252637139
1785506297.344951,-0.0532226487994194,0.0283203125,0.9843749403953552,0.9862194044550548,0.392913818359375,0.057220458984375,-1.1425018310546875,1.2095312660479018
1785506297.352964,-0.0551757737994194,0.0234375,0.9736327528953552,0.9754765091642148,0.9441375732421875,0.0591278076171875,-0.7190704345703125,1.1882567671654136
1785506297.360977,-0.0727538987994194,0.021484375,0.9863280653953552,0.9892410023579699,0.3948211669921875,0.1811981201171875,-0.2880096435546875,0.5212159508491405
1785506297.371618,-0.0595703050494194,0.017578125,0.9887694716453552,0.9907182645838479,0.0286102294921875,0.6694793701171875,-0.1049041748046875,0.6782522083528768
1785506297.382259,-0.0527343712747097,0.0209960900247097,0.9990233778953552,1.0006345283326528,-0.335693359375,0.545501708984375,0.4405975341796875,0.7774241655354994
1785506297.3929,-0.06884765625,0.014648433774709702,0.9926757216453552,0.9951681590200205,-0.2155303955078125,0.6084442138671875,0.7457733154296875,0.9863242624934266
1785506297.403584,-0.0502929650247097,0.015136715024709702,0.9794921278953552,0.980899246141869,0.1506805419921875,0.3643035888671875,1.1768341064453125,1.2411125028334495
1785506297.414267,-0.0571289025247097,0.0195312462747097,0.9897460341453552,0.9915857971911355,-0.8869171142578125,0.1811981201171875,0.7457733154296875,1.1728736352669866
1785506297.42495,-0.0517578087747097,0.014648433774709702,0.9824218153953552,0.9838933228485276,-1.0089874267578125,-0.1239776611328125,0.3223419189453125,1.0664569379607696
1785506297.433032,-0.0493163987994194,0.01904296875,0.9980468153953552,0.9994459402940046,-0.461578369140625,-0.064849853515625,-0.0476837158203125,0.46854437475435495
1785506297.441116,-0.0512695275247097,0.012207027524709702,0.9985350966453552,0.9999249547871805,-0.461578369140625,0.057220458984375,-0.5359649658203125,0.7096387928880934
1785506297.4492,-0.052734375,0.0234375,0.9819335341453552,0.9836278240229269,-0.2765655517578125,-0.3070831298828125,-0.3490447998046875,0.5409443828605875
1785506297.457284,-0.04736328125,0.037109375,0.9785155653953552,0.9803637579208285,-0.5207061767578125,-0.2460479736328125,-0.5359649658203125,0.7867229324414792
1785506297.468051,-0.052734375,0.013671875,0.9926757216453552,0.9941694638323906,-1.0089874267578125,-0.0629425048828125,-0.5359649658203125,1.1442359157372415
1785506297.478818,-0.0605468712747097,0.0053710900247097015,0.9912108778953552,0.9930728959584441,-0.7038116455078125,-0.0019073486328125,-0.4711151123046875,0.846937966661715
1785506297.489585,-0.052734375,0.02294921875,1.00537109375,1.0070147055013383,-0.2155303955078125,-0.1850128173828125,-0.4138946533203125,0.5019879261803233
1785506297.500106,-0.0541992112994194,0.02783203125,0.9965819716453552,0.9984426887295653,0.026702880859375,-0.30517578125,-0.1659393310546875,0.3483979949692808
1785506297.510626,-0.0498046800494194,0.01416015625,0.9843749403953552,0.9857357858261049,-0.0324249267578125,-0.0629425048828125,0.0743865966796875,0.10269615650918429
1785506297.521146,-0.0541992112994194,0.00830078125,0.9985350966453552,1.0000393975776096,-0.3376007080078125,-0.1850128173828125,-0.0476837158203125,0.38791457487149733
1785506297.529133,-0.0517578125,0.00830078125,0.9882811903953552,0.9896703923091799,-0.0934600830078125,0.1811981201171875,-0.1659393310546875,0.2628752697396754
1785506297.537121,-0.0502929612994194,0.0087890625,0.9960936903953552,0.9974012580808846,0.4558563232421875,-0.1850128173828125,-0.1049041748046875,0.5030304324066925
1785506297.545109,-0.0590820275247097,0.0249023400247097,0.9804686903953552,0.9825628047919989,0.4558563232421875,-0.0629425048828125,-0.2307891845703125,0.5148110275386867
1785506297.553097,-0.0449218675494194,0.033203125,0.9741210341453552,0.9757213797279988,-0.2155303955078125,0.3643035888671875,-0.3490447998046875,0.5486371556137638
1785506297.561061,-0.0571289025247097,0.0195312462747097,1.0078125,1.009619342247845,-0.5817413330078125,0.3032684326171875,-0.1659393310546875,0.6767056836931912
1785506297.569025,-0.0429687462747097,0.014648433774709702,1.0146484375,1.0156634981575658,-0.1544952392578125,0.1811981201171875,-0.1659393310546875,0.29023679862865187
1785506297.576989,-0.0566406212747097,0.0307617150247097,0.9936522841453552,0.9957405811138402,0.4558563232421875,0.1201629638671875,-0.5359649658203125,0.7137944871684017
1785506297.584953,-0.0615234337747097,0.0307617150247097,0.9775390028953552,0.9799560797282385,0.6389617919921875,-0.1850128173828125,-0.4138946533203125,0.7834607190337848
1785506297.595625,-0.0400390587747097,0.0249023400247097,0.9765624403953552,0.9777000832347323,0.3337860107421875,-0.0019073486328125,-0.6542205810546875,0.7344530669971525
1785506297.606297,-0.0639648362994194,0.01904296875,0.9946288466453552,0.9968654259832139,-0.217437744140625,0.057220458984375,-0.5931854248046875,0.6343676392314349
1785506297.616969,-0.0341796837747097,0.0053710900247097015,1.001953125,1.0025503299526954,-0.095367431640625,0.057220458984375,-0.5359649658203125,0.5473824737154822
1785506297.627677,-0.0551757775247097,0.0219726525247097,0.9736327528953552,0.9754424131618512,0.640869140625,0.057220458984375,-0.7190704345703125,0.9649091802884594
1785506297.638384,-0.06689453125,0.0170898400247097,0.9829100966453552,0.9853320247665803,0.2727508544921875,-0.3681182861328125,-0.4711151123046875,0.6571556514657969
1785506297.649091,-0.0585937462747097,0.0205078087747097,0.9838866591453552,0.9858431697625406,0.209808349609375,-0.370025634765625,-0.1659393310546875,0.45658994244331597
1785506297.659794,-0.0654296875,0.0273437462747097,1.001953125,1.004459451229341,-0.278472900390625,-0.064849853515625,0.1392364501953125,0.3180242896634732
1785506297.670499,-0.0541992150247097,0.0205078087747097,0.9946288466453552,0.9963155462548521,-0.3986358642578125,-0.3070831298828125,0.2002716064453125,0.541589620727155
1785506297.681204,-0.0551757737994194,0.0185546875,0.9941405653953552,0.9958434145020912,-0.0324249267578125,-0.1850128173828125,0.5054473876953125,0.5392199738503675
1785506297.689127,-0.0537109300494194,0.03173828125,0.9799804091453552,0.9819642482352275,-0.3376007080078125,-0.3681182861328125,0.8716583251953125,1.0046260729818994
1785506297.697051,-0.0395507737994194,0.0126953125,0.9868163466453552,0.9876902027832873,-0.949859619140625,-0.064849853515625,0.3833770751953125,1.0263609410730143
1785506297.704975,-0.0556640587747097,0.009765621274709702,1.02294921875,1.0245091307252419,-0.8258819580078125,-0.1850128173828125,0.1392364501953125,0.8577281272184887
1785506297.712899,-0.0380859337747097,0.0292968712747097,0.9775390028953552,0.9787192381881659,-0.4596710205078125,-0.0019073486328125,-0.1659393310546875,0.4887094706104825
1785506297.723577,-0.0224609337747097,0.0253906212747097,0.9829100966453552,0.9834945019074225,0.2117156982421875,-0.0019073486328125,-0.3490447998046875,0.40823944827965664
1785506297.734255,-0.0507812462747097,0.0180664025247097,0.9785155653953552,0.9799988987720288,0.087738037109375,-0.247955322265625,-0.5931854248046875,0.6488826960216874
1785506297.744933,-0.0478515625,0.01318359375,0.9907225966453552,0.9919651418681866,-0.3376007080078125,-0.2460479736328125,-0.4711151123046875,0.6296533112896714
1785506297.755605,-0.0502929612994194,0.01318359375,0.9975585341453552,0.9989125177645236,-0.1544952392578125,-0.3681182861328125,-0.9593963623046875,1.039144470967418
1785506297.766278,-0.0576171875,0.02685546875,0.9882811903953552,0.9903235167289792,0.0896453857421875,-0.4901885986328125,-0.5359649658203125,0.7318330424360702
1785506297.776951,-0.0546874962747097,0.010253902524709702,0.9921874403953552,0.9937463366695091,0.7610321044921875,-0.3070831298828125,-0.7190704345703125,1.0911151188575705
1785506297.787653,-0.0434570237994194,0.0185546875,0.9814452528953552,0.9825820951841905,0.2727508544921875,0.1201629638671875,-0.4138946533203125,0.5100401460264742
1785506297.798353,-0.0483398362994194,0.02197265625,0.9892577528953552,0.9906818051522411,0.087738037109375,-0.431060791015625,-0.2880096435546875,0.5257955148984447
1785506297.809053,-0.0581054612994194,0.01806640625,0.9921874403953552,0.9940515864611328,0.3337860107421875,0.1201629638671875,-0.3490447998046875,0.4976791246608854
1785506297.819715,-0.0400390550494194,0.013671875,0.9965819716453552,0.9974796600952872,0.4558563232421875,0.1201629638671875,-0.2880096435546875,0.5524433727593543
1785506297.830375,-0.0541992150247097,0.0312499962747097,0.9921874403953552,0.9941579522665152,0.514984130859375,0.057220458984375,-0.8373260498046875,0.9846815473262868
1785506297.841035,-0.0444335900247097,0.0249023400247097,0.9882811903953552,0.9895929373992371,0.087738037109375,0.057220458984375,-0.5931854248046875,0.6023629240606582
1785506297.848994,-0.0546874962747097,0.011230465024709702,0.9912108778953552,0.9927818743568743,0.1506805419921875,0.3032684326171875,-0.9593963623046875,1.0174073657884595
1785506297.856955,-0.0532226487994194,0.0126953125,0.9921874403953552,0.9936949925319064,0.209808349609375,0.3662109375,-1.1425018310546875,1.2179656925684534
1785506297.864916,-0.0610351525247097,0.014160159975290298,0.9863280653953552,0.9883161703426614,0.2727508544921875,-0.0019073486328125,-1.0204315185546875,1.0562561955628242
1785506297.872877,-0.046875,0.01806640625,0.9907225966453552,0.9919954254750902,-0.0324249267578125,-0.4901885986328125,-0.8373260498046875,0.9707992335114259
1785506297.883569,-0.0585937425494194,0.01416015625,0.9887694716453552,0.9906052719165223,0.1506805419921875,-0.5512237548828125,-0.7762908935546875,0.963939731050703
1785506297.894261,-0.0483398362994194,0.02197265625,0.9892577528953552,0.9906818051522411,-0.0324249267578125,-0.3070831298828125,-0.2880096435546875,0.4222570062347953
1785506297.904953,-0.0625,0.01220703125,0.9877929091453552,0.9898434689231336,-0.0324249267578125,-0.1239776611328125,-0.1659393310546875,0.20966091177443918
1785506297.913155,-0.052734375,0.02294921875,1.00244140625,1.0040898136682563,0.026702880859375,0.057220458984375,0.1392364501953125,0.15288562337762257
1785506297.921355,-0.0600585862994194,0.01806640625,1.0029296875,1.0048887435392648,-0.2155303955078125,-0.0019073486328125,0.1392364501953125,0.25660042562231444
1785506297.929555,-0.0590820237994194,0.02734375,0.9804686903953552,0.982627711315878,0.1506805419921875,-0.3070831298828125,-0.1659393310546875,0.3801848707991427
1785506297.937755,-0.0498046837747097,0.0249023400247097,0.9868163466453552,0.9883861265067873,0.0896453857421875,-0.1850128173828125,-0.0476837158203125,0.21104448473064594
1785506297.948303,-0.0488281175494194,0.01806640625,0.9990233778953552,1.0003790729916613,0.026702880859375,-0.064849853515625,-0.0476837158203125,0.08480733518759044
1785506297.958851,-0.0517578087747097,0.0258789025247097,0.9882811903953552,0.9899738883699424,0.026702880859375,0.118255615234375,0.0171661376953125,0.12244227482379176
1785506297.969399,-0.0551757737994194,0.02392578125,0.9863280653953552,0.988159836063646,0.4558563232421875,-0.1239776611328125,-0.1659393310546875,0.5007108042480464
1785506297.979921,-0.0488281175494194,0.0166015625,0.9892577528953552,0.990601180397252,0.026702880859375,-0.064849853515625,-0.3490447998046875,0.3560208134616323
1785506297.990445,-0.0336913987994194,0.0224609375,0.9951171278953552,0.995940611832423,0.209808349609375,-0.431060791015625,-0.3490447998046875,0.5930136772347839
1785506298.000969,-0.0478515587747097,0.010742183774709702,0.9921874403953552,0.993398753304888,0.2727508544921875,-0.3070831298828125,-0.5931854248046875,0.7214998444113209
1785506298.011621,-0.052734375,0.02392578125,0.9804686903953552,0.9821772804135954,0.3337860107421875,-0.3681182861328125,-0.9593963623046875,1.080446923062864
1785506298.022275,-0.0527343712747097,0.015624996274709702,0.9785155653953552,0.9800600829251823,0.1506805419921875,-0.3681182861328125,-0.9593963623046875,1.0385841700718752
1785506298.032929,-0.0537109337747097,0.0200195275247097,0.9843749403953552,0.986042427671154,-0.1544952392578125,-0.1239776611328125,-0.5931854248046875,0.6253864306283027
1785506298.040935,-0.0644531175494194,0.01220703125,0.9863280653953552,0.9885070907992122,0.0896453857421875,-0.1850128173828125,-0.9593963623046875,0.9811765477141505
1785506298.048941,-0.0551757775247097,0.0166015587747097,0.9819335341453552,0.983622612417178,0.2727508544921875,-0.2460479736328125,-0.8373260498046875,0.9143563570274741
1785506298.056947,-0.052734375,0.02294921875,0.9858397841453552,0.9875159041512377,0.209808349609375,0.118255615234375,-0.1659393310546875,0.2924718716238323
1785506298.064953,-0.0585937425494194,0.0224609375,0.9838866591453552,0.9858857329445107,0.087738037109375,0.057220458984375,-0.1049041748046875,0.14824651757677493
1785506298.07561,-0.0541992112994194,0.01318359375,0.9975585341453552,0.9991168053315258,-0.3986358642578125,0.1201629638671875,0.2574920654296875,0.4895424944957961
1785506298.086267,-0.0546874925494194,0.01220703125,0.9965819716453552,0.9981559796253413,-0.461578369140625,-0.30517578125,0.7457733154296875,0.9286359277602041
1785506298.096924,-0.0454101525247097,0.015136715024709702,0.9863280653953552,0.9874888630666174,-0.461578369140625,-0.064849853515625,0.6885528564453125,0.8314836922504952
1785506298.107585,-0.0395507775247097,0.0205078087747097,0.9843749403953552,0.9853825944788696,-0.3376007080078125,-0.2460479736328125,0.5664825439453125,0.7038581646688077
1785506298.118245,-0.0517578087747097,0.0214843712747097,0.9785155653953552,0.9801189523212072,-0.0324249267578125,0.3643035888671875,0.8106231689453125,0.8893134446120237
1785506298.128905,-0.03759765625,0.0224609375,0.9975585341453552,0.9985194572541398,-0.2155303955078125,0.4863739013671875,0.6275177001953125,0.822673317530906
1785506298.136925,-0.0434570275247097,0.0253906212747097,0.9926757216453552,0.9939508464879568,0.514984130859375,0.3662109375,-0.2307891845703125,0.6727427097310268
1785506298.144946,-0.0498046837747097,0.0205078087747097,0.9897460341453552,0.9912105169201432,0.2727508544921875,-0.0019073486328125,0.0171661376953125,0.27329716955797395
1785506298.152967,-0.0507812462747097,0.011718746274709702,0.9833983778953552,0.9847783677735207,0.3948211669921875,0.1811981201171875,-0.5931854248046875,0.7352451705654333
1785506298.160988,-0.0512695275247097,0.0224609337747097,0.9902343153953552,0.9918150318406889,0.152587890625,0.545501708984375,-0.7190704345703125,0.9153783200094914
1785506298.172071,-0.0483398362994194,0.0224609375,0.9970702528953552,0.998494027371041,0.3337860107421875,0.3032684326171875,-0.4138946533203125,0.6121222322677154
1785506298.183154,-0.0561523400247097,0.010253902524709702,0.9946288466453552,0.9962654116179616,0.6999969482421875,0.1811981201171875,-0.4711151123046875,0.8630051768814813
1785506298.194237,-0.0502929612994194,0.0185546875,0.9887694716453552,0.9902215542202273,0.9441375732421875,0.0591278076171875,-0.2307891845703125,0.973732767527052
1785506298.202078,-0.0517578087747097,0.0209960900247097,0.9912108778953552,0.9927833152423372,1.1272430419921875,0.2422332763671875,-0.5359649658203125,1.2714606877470305
1785506298.209919,-0.0551757737994194,0.01904296875,0.9731444716453552,0.9748934112850982,0.514984130859375,0.301361083984375,-0.5359649658203125,0.8020508728029614
1785506298.21776,-0.0620117150247097,0.0341796837747097,0.9931640028953552,0.9956849101148265,0.0896453857421875,0.6694793701171875,-0.3490447998046875,0.7603099331641446
1785506298.225601,-0.0581054650247097,0.0249023400247097,0.9936522841453552,0.9956612041210232,-0.1544952392578125,0.6694793701171875,-0.6542205810546875,0.9487233393573533
1785506298.236052,-0.0532226487994194,0.02685546875,0.9853515028953552,0.9871532053360024,-0.0324249267578125,0.4863739013671875,-0.2307891845703125,0.5393279109419592
1785506298.246503,-0.0395507775247097,0.0292968712747097,0.9970702528953552,0.9982843582257029,-0.8258819580078125,-0.0629425048828125,-0.1049041748046875,0.8348937976624293
1785506298.256954,-0.06396484375,0.0302734337747097,0.9882811903953552,0.9908116336205051,-0.9479522705078125,0.1811981201171875,-0.0476837158203125,0.9662918827400714
1785506298.264972,-0.0478515625,0.017578125,0.9907225966453552,0.9920332786836953,-1.132965087890625,0.240325927734375,0.5054473876953125,1.2636627333463686
1785506298.272991,-0.0566406212747097,0.0209960900247097,0.9946288466453552,0.9964615087166089,-1.0089874267578125,0.2422332763671875,0.3223419189453125,1.0865711666726119
1785506298.28101,-0.0561523400247097,0.0166015587747097,0.9916991591453552,0.9934263532308801,-0.7038116455078125,0.1201629638671875,0.2002716064453125,0.7415515400738831
1785506298.289029,-0.0458984337747097,0.0253906212747097,0.9931640028953552,0.9945481821001999,-0.3986358642578125,-0.1239776611328125,0.2574920654296875,0.49049278943913344
1785506298.299673,-0.0551757775247097,0.014648433774709702,0.9970702528953552,0.9987031752459365,-0.5207061767578125,-0.3070831298828125,-0.2307891845703125,0.6470692535478659
1785506298.310317,-0.0380859375,0.017578125,0.9912108778953552,0.9920980463501833,-0.644683837890625,-0.186920166015625,-0.0476837158203125,0.6729265458095162
1785506298.320961,-0.0507812462747097,0.012207027524709702,1.00537109375,1.0067267666265127,0.026702880859375,-0.186920166015625,-0.3490447998046875,0.3968431233878107
1785506298.331626,-0.0502929612994194,0.01416015625,0.9916991591453552,0.993074576369214,0.2727508544921875,-0.2460479736328125,0.0171661376953125,0.3677326613701944
1785506298.34229,-0.04638671875,0.0234375,0.9799804091453552,0.9813575527764279,0.209808349609375,0.057220458984375,-0.1049041748046875,0.24145105173439335
1785506298.352954,-0.0571289025247097,0.012207027524709702,0.9912108778953552,0.9929308774948776,0.270843505859375,0.057220458984375,-0.4711151123046875,0.5464245919012414
1785506298.360966,-0.0517578087747097,0.0258789025247097,0.9897460341453552,0.991436231167442,0.2117156982421875,-0.1850128173828125,-0.2307891845703125,0.36375393770065595
1785506298.368979,-0.0615234337747097,0.014648433774709702,0.9946288466453552,0.9966374727525313,-0.0324249267578125,-0.3681182861328125,0.0743865966796875,0.3769559844679419
1785506298.376992,-0.0493164025247097,0.015136715024709702,0.9838866591453552,0.9852381365659405,0.0896453857421875,-0.1239776611328125,0.0743865966796875,0.17011796322086206
1785506298.385005,-0.04638671875,0.0185546875,0.9921874403953552,0.9934444730244871,0.026702880859375,-0.1220703125,0.3833770751953125,0.4032272148867806
1785506298.395685,-0.0576171875,0.0185546875,0.9921874403953552,0.9940321592392871,-0.0934600830078125,0.3032684326171875,0.1392364501953125,0.3465448288474444
1785506298.406365,-0.0561523400247097,0.0078124962747097015,0.9833983778953552,0.9850312127214593,-0.461578369140625,0.240325927734375,0.2574920654296875,0.5806145934775956
1785506298.417045,-0.0449218712747097,0.0244140587747097,0.9902343153953552,0.9915533370279102,-0.461578369140625,0.545501708984375,0.4405975341796875,0.8394956179091191
1785506298.42826,-0.0405273400247097,0.0214843712747097,0.9794921278953552,0.9805655878662676,-0.2765655517578125,0.1811981201171875,0.2002716064453125,0.3865617408659218
1785506298.439474,-0.0727538987994194,0.02099609375,0.9804686903953552,0.9833884372865372,-0.3986358642578125,0.1201629638671875,0.5054473876953125,0.6548486480752141
1785506298.450688,-0.0527343712747097,0.010253902524709702,0.9912108778953552,0.9926656339819597,-0.5817413330078125,0.1811981201171875,0.3833770751953125,0.7198845178561778
1785506298.4608,-0.0624999962747097,0.015136715024709702,1.005859375,1.0079129188335014,-0.3986358642578125,0.3032684326171875,0.0743865966796875,0.5063750193880472
1785506298.470911,-0.0410156212747097,0.0244140587747097,0.9760741591453552,0.9772405495095451,-0.0324249267578125,0.1201629638671875,0.0171661376953125,0.12563912624644819
1785506298.481022,-0.0498046837747097,0.0200195275247097,0.9887694716453552,0.9902254066958929,0.0896453857421875,0.4863739013671875,-0.2880096435546875,0.5723158410322943
1785506298.488987,-0.0556640550494194,0.00830078125,0.9931640028953552,0.9947573204762206,-0.0934600830078125,0.3032684326171875,-0.0476837158203125,0.3209053849537977
1785506298.496954,-0.0527343712747097,0.0249023400247097,0.9887694716453552,0.990487813408262,-0.1544952392578125,0.4253387451171875,-0.3490447998046875,0.5715016179521165
1785506298.504921,-0.0468749962747097,0.0053710900247097015,0.9965819716453552,0.9976982209527845,-0.1544952392578125,0.1201629638671875,-0.1659393310546875,0.25660042562231444
1785506298.512888,-0.0488281212747097,0.014648433774709702,0.9882811903953552,0.9895951057521102,0.0286102294921875,-0.0019073486328125,0.0743865966796875,0.07972169702150866
1785506298.520899,-0.0507812462747097,0.011230465024709702,0.9887694716453552,0.9901363170673616,0.0286102294921875,-0.0019073486328125,-0.1049041748046875,0.10875232917898889
1785506298.52891,-0.0556640550494194,0.013671875,0.9873046278953552,0.988967054787037,-0.5817413330078125,0.1201629638671875,0.4405975341796875,0.7395865760952361
1785506298.536921,-0.0576171875,0.00341796875,0.9907225966453552,0.9924024820149844,-0.7648468017578125,-0.1850128173828125,0.1392364501953125,0.7991290019878344
1785506298.544932,-0.052734375,0.01220703125,0.9960936903953552,0.9975633142633188,-1.0089874267578125,0.1811981201171875,0.2574920654296875,1.0569723505601276
1785506298.55561,-0.052734375,0.02734375,0.9726561903953552,0.9744683985051074,-0.8258819580078125,-0.0019073486328125,0.3223419189453125,0.8865601836598413
1785506298.566288,-0.0585937462747097,0.0200195275247097,0.9892577528953552,0.9911936794836745,-0.3986358642578125,-0.0629425048828125,0.0171661376953125,0.4039393363821731
1785506298.576966,-0.0463867150247097,0.0170898400247097,0.9936522841453552,0.9948812249460413,-0.5817413330078125,0.3032684326171875,0.2574920654296875,0.7047672555610388
1785506298.584959,-0.0439453087747097,0.011230465024709702,0.9887694716453552,0.989809265245487,-0.5207061767578125,-0.0629425048828125,0.2002716064453125,0.5614315610854517
1785506298.592952,-0.0629882737994194,0.02197265625,0.9956054091453552,0.9978378881253214,-0.335693359375,0.545501708984375,-0.1049041748046875,0.6490508700593499
1785506298.600945,-0.0576171875,0.0126953125,0.9868163466453552,0.9885784810835044,-0.4596710205078125,0.1811981201171875,-0.1049041748046875,0.5051089899419222
1785506298.608938,-0.0517578087747097,0.0292968712747097,0.9858397841453552,0.987632146823607,0.209808349609375,0.423431396484375,0.1392364501953125,0.4926464047950715
1785506298.618534,-0.0527343712747097,0.0205078087747097,0.9814452528953552,0.9830749048599027,0.026702880859375,0.18310546875,-0.1049041748046875,0.21270999605989285
1785506298.62813,-0.0498046837747097,0.0166015587747097,0.9877929091453552,0.9891870144909368,-0.3376007080078125,0.3643035888671875,-0.1659393310546875,0.5236670741031617
1785506298.637726,-0.0512695275247097,0.0053710900247097015,0.9912108778953552,0.9925504609432919,-0.095367431640625,0.240325927734375,0.0171661376953125,0.25912578961286686
1785506298.647322,-0.0463867150247097,0.0190429724752903,0.9907225966453552,0.9919907386841842,-0.3986358642578125,0.1811981201171875,-0.2307891845703125,0.49498177615060296
1785506298.656918,-0.0541992150247097,0.0205078087747097,0.9975585341453552,0.9992402885073562,-0.278472900390625,0.118255615234375,-0.3490447998046875,0.46191321593684875
1785506298.664925,-0.0620117150247097,0.0205078087747097,0.9868163466453552,0.9889754926324169,-0.2765655517578125,-0.1850128173828125,-0.2307891845703125,0.4049467801201276
1785506298.672932,-0.0537109300494194,0.02197265625,0.9921874403953552,0.9938830809042585,-0.3986358642578125,-0.0019073486328125,-0.3490447998046875,0.5298551335243197
1785506298.680939,-0.0615234337747097,0.0336914025247097,0.9848632216453552,0.9873579942742051,-0.949859619140625,0.118255615234375,-0.4138946533203125,1.0428453723613944
1785506298.688946,-0.0581054612994194,0.0205078125,1.00634765625,1.0082323245394493,-0.5207061767578125,-0.2460479736328125,-0.7190704345703125,0.9212691342467138
1785506298.697036,-0.0429687462747097,0.0195312462747097,0.9838866591453552,0.9850181423616887,-0.400543212890625,0.240325927734375,-0.1049041748046875,0.4787445068359375
1785506298.705126,-0.0502929650247097,0.010742183774709702,0.9970702528953552,0.9983956460502189,-0.3376007080078125,0.1811981201171875,-0.4711151123046875,0.6072531974582244
1785506298.713216,-0.0410156212747097,0.009277347475290298,0.9882811903953552,0.9891754453351478,-0.3986358642578125,-0.2460479736328125,-0.3490447998046875,0.5841938290260182
1785506298.721306,-0.0624999962747097,0.014648433774709702,0.9790038466453552,0.9811061909359216,-0.461578369140625,0.057220458984375,-0.2307891845703125,0.5192228996293705
1785506298.731853,-0.0507812462747097,0.012207027524709702,0.9956054091453552,0.9969743613622628,-0.1544952392578125,0.1201629638671875,-0.1659393310546875,0.25660042562231444
1785506298.7424,-0.0615234337747097,0.0273437462747097,0.9975585341453552,0.9998279063968942,-0.335693359375,0.057220458984375,-0.3490447998046875,0.4876438092763506
1785506298.752947,-0.0546874925494194,0.01708984375,0.9970702528953552,0.9987151114354632,-0.0934600830078125,0.1811981201171875,-0.1049041748046875,0.22928678928643564
1785506298.760974,-0.0458984337747097,0.013671878725290298,0.9819335341453552,0.9831007333788526,-0.152587890625,-0.247955322265625,-0.4711151123046875,0.5538179802490122
1785506298.769004,-0.0537109300494194,0.017578125,0.9848632216453552,0.9864833601409388,-0.278472900390625,-0.064849853515625,-0.2880096435546875,0.4058352061286245
1785506298.777034,-0.046875,0.01318359375,0.9912108778953552,0.992406205758129,-0.1544952392578125,-0.3070831298828125,-0.1049041748046875,0.3594074477572849
1785506298.785064,-0.0507812462747097,0.0200195275247097,0.9980468153953552,0.9995383745391347,-0.095367431640625,0.057220458984375,0.0743865966796875,0.13380020070873705
1785506298.795687,-0.0356445275247097,0.0205078087747097,0.9819335341453552,0.9827942653690992,-0.0324249267578125,-0.0019073486328125,0.0743865966796875,0.08116883404141698
1785506298.80631,-0.0502929650247097,0.0195312462747097,0.9941405653953552,0.9956034932022971,-0.335693359375,0.057220458984375,0.0743865966796875,0.3485650272480616
1785506298.816933,-0.0488281175494194,0.01220703125,0.9814452528953552,0.9827349495699164,-0.5817413330078125,-0.0019073486328125,0.2002716064453125,0.6152522514031946
1785506298.826539,-0.0405273400247097,0.0161132775247097,0.9912108778953552,0.9921698984852078,-0.278472900390625,0.240325927734375,0.1392364501953125,0.39330712789923694
1785506298.836143,-0.0551757775247097,0.0009765587747097015,0.9941405653953552,0.9956710219028639,-0.461578369140625,0.423431396484375,-0.0476837158203125,0.6281898400496934
1785506298.845747,-0.0390624925494194,0.02880859375,0.9824218153953552,0.9836200672834666,-0.3376007080078125,0.7305145263671875,0.3223419189453125,0.8669083134854567
1785506298.855351,-0.0585937425494194,0.00341796875,0.9907225966453552,0.9924596579609868,-0.0934600830078125,0.7915496826171875,-0.0476837158203125,0.798473182969616
1785506298.864955,-0.04296875,0.0126953125,0.9921874403953552,0.9931985709385217,0.1506805419921875,0.7305145263671875,-0.1049041748046875,0.7532336854257038
1785506298.875609,-0.0541992112994194,0.01318359375,0.9946288466453552,0.9961917005419758,0.0896453857421875,1.0967254638671875,0.0171661376953125,1.1005170214780586
1785506298.886263,-0.0380859375,0.033203125,0.9990233778953552,1.0003003027723552,0.026702880859375,0.423431396484375,0.1392364501953125,0.4465355309915323
1785506298.896917,-0.0541992150247097,-3.725290298461914e-09,0.9760741591453552,0.9775777815911156,0.1506805419921875,0.7305145263671875,0.0171661376953125,0.7460903264698653
1785506298.904915,-0.0537109300494194,0.0224609375,0.9892577528953552,0.9909693534028791,-0.0324249267578125,0.7915496826171875,0.0171661376953125,0.7923994902888278
1785506298.912912,-0.0605468675494194,0.01806640625,0.9873046278953552,0.9893243888980109,-0.0934600830078125,0.8525848388671875,0.0743865966796875,0.8609117610693919
1785506298.920909,-0.0385742112994194,0.0185546875,0.9824218153953552,0.9833538882672404,-0.5817413330078125,0.7915496826171875,0.1392364501953125,0.992149518794455
1785506298.928906,-0.0502929650247097,0.014648433774709702,0.9951171278953552,0.9964948856736443,-0.4596710205078125,0.6694793701171875,0.2002716064453125,0.8364262014400231
1785506298.939607,-0.0605468712747097,0.0175781212747097,0.9814452528953552,0.9834681989772381,-0.2765655517578125,0.8525848388671875,0.1392364501953125,0.9070701190912879
1785506298.950308,-0.0541992112994194,0.0224609375,0.9902343153953552,0.9919707896936107,-0.0934600830078125,0.6694793701171875,0.2002716064453125,0.7050149859942832
1785506298.961009,-0.0605468712747097,0.009277347475290298,0.9931640028953552,0.9950511190107062,-0.2155303955078125,0.7915496826171875,-0.0476837158203125,0.8217529970700178
1785506298.971667,-0.0449218675494194,0.0126953125,0.9912108778953552,0.992309502928235,0.0896453857421875,0.9136199951171875,0.3833770751953125,0.9948445971347021
1785506298.982325,-0.0659179612994194,0.0283203125,0.9882811903953552,0.9908818945824117,0.209808349609375,0.728607177734375,0.5054473876953125,0.911243669245431
1785506298.992983,-0.0419921875,0.02392578125,0.9833983778953552,0.9845852713029348,0.209808349609375,0.423431396484375,0.2002716064453125,0.5132469263840786
1785506299.000969,-0.0600585900247097,0.0195312462747097,0.9931640028953552,0.9951699555673517,0.209808349609375,0.545501708984375,0.0743865966796875,0.5891731696507148
1785506299.008957,-0.0478515587747097,0.0200195275247097,0.9902343153953552,0.9915919284393101,0.3337860107421875,0.6084442138671875,0.0743865966796875,0.6979619102223488
1785506299.016945,-0.0537109300494194,0.0166015625,0.9887694716453552,0.9903663685435051,0.514984130859375,0.301361083984375,-0.1659393310546875,0.6193246479578385
1785506299.024933,-0.0576171875,0.0234375,0.9941405653953552,0.9960845950351088,0.576019287109375,0.057220458984375,-0.4138946533203125,0.7116046543520614
1785506299.033532,-0.0458984300494194,0.0234375,0.9941405653953552,0.9954754874188756,0.270843505859375,0.057220458984375,-0.3490447998046875,0.4454914790018707
1785506299.042131,-0.0546874962747097,0.015136715024709702,0.9853515028953552,0.9869840052648629,0.6389617919921875,0.1201629638671875,-0.5359649658203125,0.8425970294856155
1785506299.05073,-0.0507812462747097,0.0200195275247097,0.9838866591453552,0.9853996521715104,0.1506805419921875,0.3032684326171875,-0.4138946533203125,0.5347757960157571
1785506299.059329,-0.0458984337747097,0.0190429724752903,0.9790038466453552,0.9802641647893022,-0.2765655517578125,0.3643035888671875,-0.6542205810546875,0.7982544568971407
1785506299.069992,-0.0571289025247097,0.0166015587747097,0.9868163466453552,0.98860802407421,-0.7648468017578125,0.1201629638671875,-0.5359649658203125,0.9416412335020543
1785506299.080655,-0.0712890625,0.0087890625,0.9780272841453552,0.9806613822234957,-0.8258819580078125,0.2422332763671875,-0.1049041748046875,0.8670425910149125
1785506299.091318,-0.0590820237994194,0.013671875,0.9873046278953552,0.9891653218576946,-0.949859619140625,0.118255615234375,0.3223419189453125,1.01001089069266
1785506299.101291,-0.0571289025247097,0.011230465024709702,0.9907225966453552,0.9924319111919286,-1.0700225830078125,0.3643035888671875,0.2002716064453125,1.1479434434485045
1785506299.111263,-0.04638671875,0.013671875,0.9833983778953552,0.9845867242095148,-0.644683837890625,0.423431396484375,0.4405975341796875,0.8882778762815803
1785506299.121235,-0.0483398362994194,0.00732421875,0.9877929091453552,0.9890021310955788,-0.278472900390625,-0.1220703125,0.0743865966796875,0.31302026006538475
1785506299.131817,-0.0551757775247097,0.0019531212747097015,0.9975585341453552,0.9990851866354539,-0.152587890625,-0.247955322265625,0.2002716064453125,0.3533746206979543
1785506299.1424,-0.0590820275247097,0.010742183774709702,0.9873046278953552,0.9891291668696591,0.152587890625,0.057220458984375,0.1392364501953125,0.21434559560383143
1785506299.152983,-0.0512695275247097,0.015136715024709702,0.9907225966453552,0.9921637708050327,0.209808349609375,-0.064849853515625,-0.0476837158203125,0.22471934456392503
1785506299.161003,-0.046875,0.02392578125,0.9877929091453552,0.9891938839233019,0.3337860107421875,-0.1239776611328125,0.0171661376953125,0.35648034687836666
1785506299.169023,-0.0493164025247097,0.010742183774709702,0.9946288466453552,0.9959086527635446,-0.0324249267578125,0.4253387451171875,-0.2880096435546875,0.5146979490474112
1785506299.177043,-0.03662109375,0.0283203125,0.9780272841453552,0.9791223177623332,0.1506805419921875,0.2422332763671875,-0.4138946533203125,0.5026831705575424
1785506299.185063,-0.0605468712747097,0.010742183774709702,0.9887694716453552,0.9906797596555815,0.3337860107421875,0.3643035888671875,-0.2880096435546875,0.5719088743927608
1785506299.195694,-0.0590820275247097,0.0063476525247097015,0.9804686903953552,0.9822676984990334,0.2117156982421875,0.1811981201171875,-0.1659393310546875,0.32433340439593467
1785506299.206325,-0.0468749962747097,0.015624996274709702,0.9882811903953552,0.9895155971856123,0.026702880859375,-0.064849853515625,-0.4711151123046875,0.4763066201398489
1785506299.216956,-0.0502929612994194,0.01904296875,0.9946288466453552,0.9960816026782885,0.026702880859375,-0.30517578125,-0.2880096435546875,0.42046980401479006
1785506299.227604,-0.0590820237994194,0.00927734375,0.9951171278953552,0.9969126606047249,-0.0324249267578125,-0.4291534423828125,-0.3490447998046875,0.5541266328692043
1785506299.238253,-0.0654296875,0.012695308774709702,0.9912108778953552,0.9934491528655675,-0.095367431640625,-0.431060791015625,-0.4138946533203125,0.6051587697587198
1785506299.248902,-0.0576171875,0.013671875,0.9794921278953552,0.9812805353569369,-0.2765655517578125,-0.4901885986328125,-0.2307891845703125,0.6083066778881633
1785506299.259594,-0.0478515587747097,0.015624996274709702,0.9970702528953552,0.998340123101622,0.0896453857421875,-0.5512237548828125,-0.0476837158203125,0.5604976894567941
1785506299.270284,-0.0512695275247097,0.0200195275247097,0.9951171278953552,0.9966380707988334,-0.0934600830078125,-0.4901885986328125,0.3223419189453125,0.5940740375195454
1785506299.280974,-0.0581054650247097,0.0341796837747097,0.9965819716453552,0.9988594105564709,0.026702880859375,-0.553131103515625,0.8716583251953125,1.0326932252149716
1785506299.288984,-0.0434570237994194,0.01904296875,0.9868163466453552,0.9879562994296877,-0.152587890625,-0.431060791015625,0.8716583251953125,0.9843194124869734
1785506299.296994,-0.0410156212747097,0.0253906212747097,0.9829100966453552,0.9840930966756386,-0.0324249267578125,0.1201629638671875,0.8716583251953125,0.8804991480080453
1785506299.305004,-0.0234375,0.01220703125,0.9824218153953552,0.9827771626278736,0.2727508544921875,-0.0629425048828125,0.5054473876953125,0.5777818353627577
1785506299.313014,-0.0380859375,0.0126953125,0.9931640028953552,0.993975073249753,0.0896453857421875,0.6084442138671875,0.1392364501953125,0.6305770735099058
1785506299.325,-0.0439453050494194,0.0185546875,0.9790038466453552,0.9801652911680312,0.209808349609375,0.606536865234375,-0.0476837158203125,0.6435683718211954
1785506299.336986,-0.0502929612994194,0.0185546875,0.9936522841453552,0.9950972415657523,0.0896453857421875,0.6694793701171875,-0.5359649658203125,0.8622629336717081
1785506299.348972,-0.0488281212747097,0.0209960900247097,0.9882811903953552,0.9897094182197135,-0.0934600830078125,0.6084442138671875,-0.5931854248046875,0.854873146557432
1785506299.360958,-0.0581054612994194,0.03759765625,0.9980468153953552,1.0004435386912756,0.2117156982421875,0.4863739013671875,-0.7762908935546875,0.9402184109180435
1785506299.368958,-0.0546874925494194,0.0087890625,0.9897460341453552,0.9912946996566815,0.2727508544921875,0.3032684326171875,-0.5931854248046875,0.7198845178561778
1785506299.376957,-0.0561523400247097,0.0219726525247097,0.9770507216453552,0.9789095951194531,0.209808349609375,0.118255615234375,-0.3490447998046875,0.4240709921357091
1785506299.384956,-0.0546874962747097,0.0214843712747097,0.9936522841453552,0.995387945599678,0.0286102294921875,-0.0019073486328125,-0.2307891845703125,0.23256360619201039
1785506299.392955,-0.0639648362994194,0.0224609375,0.9853515028953552,0.9876809091271966,-0.0934600830078125,0.3032684326171875,0.0171661376953125,0.3178068684300061
1785506299.400947,-0.0390624962747097,0.0209960900247097,0.9907225966453552,0.991714665574354,0.1506805419921875,0.3032684326171875,0.0743865966796875,0.34671275390837797
1785506299.408939,-0.0590820237994194,0.01806640625,0.9897460341453552,0.9916724724814558,0.3337860107421875,0.6084442138671875,0.3223419189453125,0.7651939460457002
1785506299.416931,-0.0561523400247097,0.015624996274709702,0.9824218153953552,0.9841493022725468,0.2727508544921875,0.7915496826171875,0.2574920654296875,0.8759258487091446
1785506299.424923,-0.0517578087747097,0.010253902524709702,0.9892577528953552,0.9906638758679521,0.0286102294921875,0.6694793701171875,0.5054473876953125,0.8393439306816469
1785506299.435634,-0.0463867150247097,0.0297851525247097,0.9897460341453552,0.99128002842192,0.1506805419921875,0.9136199951171875,0.3223419189453125,0.9804643970702533
1785506299.446345,-0.0493163987994194,0.02392578125,0.9868163466453552,0.9883375193755684,-0.0324249267578125,0.7915496826171875,-0.1659393310546875,0.8094060399561501
1785506299.457056,-0.0620117150247097,0.0209960900247097,0.9970702528953552,0.9992173826577674,0.1506805419921875,0.8525848388671875,-0.2307891845703125,0.8960296763589235
1785506299.467679,-0.0600585900247097,0.0170898400247097,0.9814452528953552,0.9834296524402008,-0.1544952392578125,0.6084442138671875,-0.2307891845703125,0.6688324065537034
1785506299.4783,-0.0556640587747097,0.010742183774709702,0.9882811903953552,0.9899058506952993,0.3337860107421875,0.8525848388671875,-0.4138946533203125,1.004799876831458
1785506299.488921,-0.0556640587747097,0.0078124962747097015,0.9892577528953552,0.9908533817880849,0.3337860107421875,0.3643035888671875,-0.5359649658203125,0.7289640940509109
1785506299.499786,-0.0507812462747097,0.015624996274709702,0.9970702528953552,0.9984848344820291,0.3337860107421875,0.3032684326171875,-0.4711151123046875,0.6521765805601483
1785506299.510652,-0.0527343712747097,0.0209960900247097,0.9809569716453552,0.9825977457381484,0.5779266357421875,0.3032684326171875,-0.4138946533203125,0.7728387429273395
1785506299.521518,-0.0517578087747097,0.0273437462747097,0.9887694716453552,0.9905006912099203,0.5168914794921875,-0.0019073486328125,-0.7762908935546875,0.9326349719833397
1785506299.529493,-0.0556640587747097,0.0336914025247097,0.9951171278953552,0.9972420449790799,0.4558563232421875,-0.2460479736328125,-0.6542205810546875,0.8344753809695238
1785506299.537469,-0.0493163987994194,0.02197265625,0.9868163466453552,0.9882921667299149,0.209808349609375,-0.247955322265625,-0.4711151123046875,0.5722331993580222
1785506299.545445,-0.06494140625,0.011718746274709702,0.9794921278953552,0.9817125566421923,-0.0934600830078125,-0.3070831298828125,-0.5931854248046875,0.6744655543281429
1785506299.553421,-0.06640625,0.012695308774709702,0.9829100966453552,0.9852325710162698,-0.0934600830078125,-0.3070831298828125,-0.4711151123046875,0.5700739292550658
1785506299.563914,-0.0683593675494194,0.017578125,0.9936522841453552,0.9961560396833189,0.1506805419921875,-0.1850128173828125,-0.1049041748046875,0.26065159547264954
1785506299.574407,-0.0610351525247097,0.015624996274709702,0.9863280653953552,0.9883382431833969,0.026702880859375,-0.6103515625,0.0171661376953125,0.6111765293070046
1785506299.5849,-0.0595703050494194,0.01318359375,0.9868163466453552,0.988700627285293,-0.2155303955078125,-0.3070831298828125,0.1392364501953125,0.40017519801878043
1785506299.592951,-0.0541992112994194,0.02294921875,0.9877929091453552,0.9895448713952079,0.209808349609375,-0.553131103515625,0.2574920654296875,0.6451943311913623
1785506299.601004,-0.0556640587747097,0.0019531212747097015,0.9838866591453552,0.985461952673058,0.087738037109375,-0.431060791015625,0.3223419189453125,0.5453583055351489
1785506299.609057,-0.0566406212747097,0.0190429724752903,0.9887694716453552,0.9905735019860539,0.087738037109375,-0.431060791015625,0.5054473876953125,0.6700659896120963
1785506299.625128,-0.0502929650247097,0.0205078087747097,0.9829100966453552,0.9844095746380661,0.3337860107421875,-0.4901885986328125,0.4405975341796875,0.738799127180051
1785506299.633148,-0.0458984337747097,0.015136715024709702,0.9877929091453552,0.9889745283487107,0.209808349609375,-0.370025634765625,0.2574920654296875,0.49723302153895604
1785506299.641168,-0.0517578087747097,0.0161132775247097,0.9916991591453552,0.9931796064818046,0.4558563232421875,-0.2460479736328125,-0.3490447998046875,0.6246413891501214
1785506299.657139,-0.0546874925494194,0.01904296875,0.9941405653953552,0.9958256977326668,0.5779266357421875,-0.1239776611328125,-0.1659393310546875,0.6139263134539216
1785506299.665089,-0.0556640587747097,0.0205078087747097,1.0029296875,1.004682544751755,0.2117156982421875,-0.3070831298828125,-0.1659393310546875,0.40823944827965664
1785506299.673039,-0.0571289025247097,0.0205078087747097,0.9931640028953552,0.9950170945122214,0.514984130859375,-0.1220703125,-0.0476837158203125,0.5313977352090107
1785506299.680989,-0.0478515587747097,0.010742183774709702,0.9819335341453552,0.9831574806045096,0.4558563232421875,0.0591278076171875,-0.4138946533203125,0.6185546613846206
1785506299.68905,-0.0590820237994194,0.02197265625,0.9799804091453552,0.9820056443155577,0.2727508544921875,0.1201629638671875,-0.2880096435546875,0.41446558517211485
1785506299.697111,-0.0629882737994194,0.033203125,0.9873046278953552,0.9898688794025106,-0.0324249267578125,0.1201629638671875,-0.2880096435546875,0.3137516032486442
1785506299.705172,-0.0673828050494194,0.0126953125,0.9907225966453552,0.9930925822296307,-0.1544952392578125,0.1201629638671875,0.1392364501953125,0.24019722292663476
1785506299.713233,-0.0478515587747097,0.0195312462747097,0.9824218153953552,0.983780394510339,-0.2155303955078125,0.1811981201171875,-0.1049041748046875,0.30048460195692095
1785506299.723904,-0.0625,0.01220703125,0.9887694716453552,0.9908180103680864,-0.278472900390625,0.606536865234375,0.3223419189453125,0.7411736893938261
1785506299.734575,-0.0556640587747097,0.0078124962747097015,0.9975585341453552,0.9991409067711854,-0.3986358642578125,0.6084442138671875,0.3833770751953125,0.8222486822405647
1785506299.745246,-0.0502929612994194,0.02392578125,0.9824218153953552,0.9839992115491725,0.0286102294921875,0.6694793701171875,0.8106231689453125,1.051727671155914
1785506299.755953,-0.0610351525247097,0.013671878725290298,0.9858397841453552,0.987821993132039,-0.1544952392578125,0.9746551513671875,0.8106231689453125,1.277079232103813
1785506299.766662,-0.0434570237994194,0.021484375,0.9980468153953552,0.9992234670019786,-0.095367431640625,0.911712646484375,0.8716583251953125,1.2649518301736116
1785506299.777371,-0.0566406212747097,0.0175781212747097,0.9912108778953552,0.9929834614856454,-0.2155303955078125,0.6084442138671875,0.6885528564453125,0.9438022827346907
1785506299.785299,-0.0478515587747097,0.0195312462747097,0.9833983778953552,0.9847556097354453,0.1506805419921875,0.8525848388671875,0.5054473876953125,1.002538076548349
1785506299.793228,-0.0395507775247097,0.015624996274709702,0.9814452528953552,0.9823661175662675,0.1506805419921875,0.8525848388671875,0.2574920654296875,0.9032760912149141
1785506299.801157,-0.0498046800494194,0.00732421875,0.9946288466453552,0.9959019494479325,-0.0324249267578125,0.3032684326171875,0.3223419189453125,0.44376506262512544
1785506299.809086,-0.0551757737994194,0.017578125,0.9799804091453552,0.9816898485782453,0.3948211669921875,0.6084442138671875,0.2002716064453125,0.7524605183275191
1785506299.819744,-0.0551757775247097,0.014648433774709702,0.9912108778953552,0.9928534370669163,0.3337860107421875,0.4863739013671875,-0.0476837158203125,0.5918161958351214
1785506299.830402,-0.0522460900247097,0.011718746274709702,0.9868163466453552,0.9882679216404866,0.3337860107421875,0.3643035888671875,-0.1049041748046875,0.5051089899419222
1785506299.84106,-0.0561523400247097,0.0068359337747097015,0.9902343153953552,0.991848685368555,0.8220672607421875,-0.1850128173828125,-0.4138946533203125,0.9387934319259117
1785506299.85168,-0.0517578087747097,0.0200195275247097,0.9897460341453552,0.991300592332079,0.514984130859375,0.057220458984375,-0.4711151123046875,0.7003087069323262
1785506299.862301,-0.0454101525247097,0.0219726525247097,0.9975585341453552,0.9988332736035173,0.2117156982421875,-0.1850128173828125,-0.4711151123046875,0.5486371556137638
1785506299.872922,-0.0624999962747097,0.0195312462747097,0.9916991591453552,0.9938586123614297,0.2117156982421875,0.1811981201171875,-0.5359649658203125,0.6040817330485573
1785506299.883588,-0.0478515587747097,0.014648433774709702,0.9853515028953552,0.9866214737919283,-0.3986358642578125,-0.0019073486328125,-0.5931854248046875,0.7146909391143124
1785506299.894256,-0.06591796875,0.0263671837747097,0.9980468153953552,1.0005687646059842,-0.5207061767578125,-0.0629425048828125,-0.4711151123046875,0.7050149859942832
1785506299.904924,-0.06591796875,0.015136715024709702,1.0009765625,1.003258878565339,-0.400543212890625,0.240325927734375,0.1392364501953125,0.4874199482962554
1785506299.912934,-0.046875,0.013671875,0.9877929091453552,0.9889989975469438,-0.7038116455078125,0.0591278076171875,0.2574920654296875,0.7517639880609315
1785506299.920946,-0.0522460900247097,0.012207027524709702,0.9873046278953552,0.9887613937181432,-0.461578369140625,-0.247955322265625,0.6275177001953125,0.8175052885191527
1785506299.928958,-0.0561523400247097,0.0195312462747097,0.9912108778953552,0.9929922252109403,-0.4596710205078125,-0.4901885986328125,0.3833770751953125,0.773666782994854
1785506299.93697,-0.0439453087747097,0.0195312462747097,0.9921874403953552,0.9933521916332769,-0.2155303955078125,0.1201629638671875,0.3833770751953125,0.4559281424286215
1785506299.947634,-0.0498046800494194,0.02734375,0.9941405653953552,0.995762848565603,-0.3376007080078125,-0.3070831298828125,0.1392364501953125,0.47713842411714474
1785506299.958298,-0.0498046800494194,0.01220703125,0.9858397841453552,0.9871725268515752,-0.2765655517578125,-0.3681182861328125,-0.2307891845703125,0.5150371100407156
1785506299.968962,-0.0454101525247097,0.0161132775247097,0.9882811903953552,0.9894551182111122,0.209808349609375,-0.247955322265625,-0.1659393310546875,0.36474271342487
1785506299.979651,-0.0654296875,0.0043945349752902985,0.9814452528953552,0.9836336413395104,-0.0324249267578125,-0.3070831298828125,-0.3490447998046875,0.46602971665395776
1785506299.990338,-0.0590820237994194,0.017578125,0.9858397841453552,0.987765030773266,-0.1544952392578125,-0.3070831298828125,-0.1049041748046875,0.3594074477572849
1785506300.001025,-0.0527343712747097,0.015136715024709702,0.9916991591453552,0.9932156142072489,-0.1544952392578125,-0.1850128173828125,0.0743865966796875,0.2522536170500656
