timestamp,accel_x,accel_y,accel_z,accel_rms,gyro_x,gyro_y,gyro_z,gyro_rms
1785512945.369845,-0.095703125,-0.1171875,0.9780272841453552,0.9896612384163356,-0.08392333984375,0.3204345703125,-0.0820159912109375,0.3412448734211236
1785512945.380484,-0.1123046875,-0.126953125,0.9716796278953552,0.9863522383249274,-0.20599365234375,-0.0457763671875,-0.0820159912109375,0.22639673896307594
1785512945.391124,-0.0888671875,-0.12255859375,0.9775390028953552,0.9891918358426656,0.09918212890625,-0.2288818359375,-0.3261566162109375,0.4106118943901472
1785512945.399137,-0.1010742038488388,-0.1259765625,0.9746093153953552,0.9879015166697519,0.2231597900390625,-0.1697540283203125,0.0400543212890625,0.28323324429730945
1785512945.407151,-0.0947265625,-0.12255859375,0.9755858778953552,0.9878064262262596,0.530242919921875,0.0762939453125,-0.1430511474609375,0.5544744818370937
1785512945.415165,-0.09521484375,-0.12939453125,0.9741210341453552,0.9872793932581397,0.09918212890625,-0.0457763671875,-0.0820159912109375,0.13659865775904753
1785512945.42318,-0.1064453050494194,-0.12353515625,0.9721679091453552,0.9857494516198462,0.28228759765625,-0.2288818359375,-0.0209808349609375,0.3640238701628173
1785512945.43386,-0.0981445237994194,-0.12890625,0.9726561903953552,0.9860574189951024,-0.08392333984375,-0.5340576171875,0.2231597900390625,0.5848597757897173
1785512945.444541,-0.0878906175494194,-0.13525390625,0.9824218153953552,0.9955757144355257,-0.20599365234375,-0.4119873046875,0.3452301025390625,0.5756307390408545
1785512945.455223,-0.095703125,-0.13671875,0.9775390028953552,0.9916822106491441,0.225067138671875,-0.5950927734375,0.5893707275390625,0.8672649424411231
1785512945.463223,-0.080078125,-0.1318359375,0.9746093153953552,0.9867403600620694,0.530242919921875,-0.4119873046875,0.5283355712890625,0.8544176784455522
1785512945.471224,-0.07958984375,-0.11767578125,0.9682616591453552,0.9786280055730386,0.2841949462890625,0.0133514404296875,0.7724761962890625,0.8232038036179187
1785512945.479225,-0.0908203125,-0.13330078125,0.9697265028953552,0.9830498043650248,0.46539306640625,0.3814697265625,0.6504058837890625,0.8860799468502333
1785512945.487226,-0.08642578125,-0.12548828125,0.9760741591453552,0.9878954846273285,0.4673004150390625,0.5016326904296875,0.1621246337890625,0.7044781266190203
1785512945.49787,-0.0883788987994194,-0.12451171875,0.9716796278953552,0.98360322138855,0.4673004150390625,0.6237030029296875,-0.3261566162109375,0.8448391870985618
1785512945.508514,-0.0917968600988388,-0.126953125,0.9653319716453552,0.9779619496442489,-0.0209808349609375,0.9326934814453125,-0.6923675537109375,1.1617788753450045
1785512945.519159,-0.0966796800494194,-0.134765625,0.9765624403953552,0.99054678547105,0.3452301025390625,0.6847381591796875,-0.7534027099609375,1.075018982954442
1785512945.529811,-0.1020507663488388,-0.126953125,0.9624022841453552,0.9760889362080937,0.40435791015625,0.3814697265625,-0.3871917724609375,0.677452537415752
1785512945.540464,-0.0947265550494194,-0.115234375,0.9755858778953552,0.9869244583867715,-0.1430511474609375,0.3185272216796875,-0.5092620849609375,0.6174715320722347
1785512945.551117,-0.1074218675494194,-0.1240234375,0.9843749403953552,0.9979555571043635,0.09918212890625,0.1983642578125,-0.6923675537109375,0.7270201530243491
1785512945.561804,-0.1079101487994194,-0.14013671875,0.9692382216453552,0.9852439446422293,-0.38909912109375,0.0152587890625,-0.1430511474609375,0.41484284671363625
1785512945.57249,-0.1010742038488388,-0.12255859375,0.9707030653953552,0.9836163097232545,-0.75531005859375,-0.2288818359375,-0.0209808349609375,0.7895064121783134
1785512945.583176,-0.0927734300494194,-0.1259765625,0.9624022841453552,0.9750359789005982,-0.6313323974609375,-0.5321502685546875,0.1010894775390625,0.8318555084122012
1785512945.591187,-0.0971679612994194,-0.12890625,0.9643554091453552,0.9777728719595637,-0.9365081787109375,-0.7801055908203125,0.0400543212890625,1.2195149241708827
1785512945.599197,-0.0917968675494194,-0.134765625,0.9819335341453552,0.9953802811251153,-0.446319580078125,-0.7171630859375,0.1621246337890625,0.860121186969458
1785512945.607208,-0.07568359375,-0.12158203125,0.9775390028953552,0.9879740375472608,-0.87738037109375,-0.4730224609375,0.4673004150390625,1.1008706745243309
1785512945.615217,-0.0830078125,-0.13232421875,0.9716796278953552,0.9841551173827675,-0.51116943359375,-0.4119873046875,0.2231597900390625,0.6934176381910866
1785512945.625873,-0.08154296875,-0.12451171875,0.9824218153953552,0.9936322494883849,-0.38909912109375,-0.4119873046875,0.2231597900390625,0.6090418353035185
1785512945.636529,-0.0820312350988388,-0.13671875,0.9780272841453552,0.9909381961889161,0.0400543212890625,-0.6580352783203125,0.2841949462890625,0.717900789569326
1785512945.647185,-0.08984375,-0.12548828125,0.9653319716453552,0.9775914400330286,0.225067138671875,-0.4119873046875,-0.0820159912109375,0.4765662377339886
1785512945.657845,-0.0825195237994194,-0.130859375,0.9648436903953552,0.9771678436835719,0.4673004150390625,-0.0438690185546875,-0.3871917724609375,0.6084501929871285
1785512945.668504,-0.0859375,-0.13232421875,0.9760741591453552,0.9887445154969812,0.8335113525390625,0.3185272216796875,-0.3261566162109375,0.950041527545321
1785512945.679164,-0.0947265625,-0.13134765625,0.9809569716453552,0.9942343328738255,0.6504058837890625,0.3185272216796875,-0.2651214599609375,0.7712177339443325
1785512945.687155,-0.08935546875,-0.11669921875,0.9633788466453552,0.9745265053430447,0.6504058837890625,0.6847381591796875,-0.0820159912109375,0.9479561082236514
1785512945.695145,-0.0878906175494194,-0.1157226487994194,0.9863280653953552,0.9969751976277625,0.041961669921875,0.5645751953125,-0.0209808349609375,0.5665210749305254
1785512945.703135,-0.0874023362994194,-0.1215820237994194,0.9819335341453552,0.9932848646692181,0.2231597900390625,0.8068084716796875,0.3452301025390625,0.9054965629772005
1785512945.711126,-0.0878906175494194,-0.1279296875,0.9775390028953552,0.9897844552116947,-0.263214111328125,0.5645751953125,0.4673004150390625,0.7787146444366397
1785512945.721816,-0.1074218675494194,-0.130859375,0.9619140028953552,0.9766996378720333,-0.20599365234375,0.1983642578125,0.8945465087890625,0.9391460056722394
1785512945.732507,-0.0937499925494194,-0.12939453125,0.9687499403953552,0.9818393212926582,-0.38909912109375,0.0152587890625,0.7114410400390625,0.8110359487294293
1785512945.743198,-0.083984375,-0.13037109375,0.9692382216453552,0.9815664662303631,-0.446319580078125,-0.1068115234375,0.4673004150390625,0.6549653021312148
1785512945.753855,-0.0810546875,-0.119140625,0.9707030653953552,0.981340303900259,0.0400543212890625,0.3185272216796875,0.1010894775390625,0.3365754329626998
1785512945.764513,-0.07958984375,-0.1279296875,0.9907225966453552,1.0021136720331243,0.09918212890625,0.5035400390625,0.0400543212890625,0.5147756931784634
1785512945.77517,-0.095703125,-0.12548828125,0.9819335341453552,0.9945349980493559,0.225067138671875,0.2593994140625,-0.3261566162109375,0.47362581351113253
1785512945.785838,-0.1069335862994194,-0.1210937425494194,0.9750975966453552,0.9883895028514964,-0.0209808349609375,0.0133514404296875,-0.4482269287109375,0.448916290658788
1785512945.796506,-0.10498046875,-0.13525390625,0.9755858778953552,0.9904959985399762,-0.08392333984375,0.0152587890625,-0.1430511474609375,0.16655205914090138
1785512945.807174,-0.109375,-0.12841796875,0.9716796278953552,0.9862126366001056,0.2231597900390625,0.0133514404296875,0.1010894775390625,0.2453520640242233
1785512945.815191,-0.1025390625,-0.1220703125,0.9638671278953552,0.9769622616915495,0.0400543212890625,-0.0438690185546875,0.2841949462890625,0.2903370574679059
1785512945.823206,-0.0932617112994194,-0.13037109375,0.9648436903953552,0.9780683594594989,-0.3261566162109375,-0.1087188720703125,-0.0209808349609375,0.3444388579676629
1785512945.831223,-0.09326171875,-0.13232421875,0.9716796278953552,0.9850729649720664,-0.3261566162109375,-0.1087188720703125,0.4062652587890625,0.5322117923734438
1785512945.839238,-0.09912109375,-0.1328125,0.9760741591453552,0.9900428857043307,-0.263214111328125,-0.4119873046875,0.4673004150390625,0.676302362498909
1785512945.850067,-0.1005859375,-0.12353515625,0.9741210341453552,0.9870614240344326,-0.3261566162109375,-0.4749298095703125,0.5893707275390625,0.8241931307628
1785512945.860897,-0.0888671800494194,-0.134765625,0.9614257216453552,0.9748838739115898,-0.4482269287109375,-0.3528594970703125,0.2231597900390625,0.6125499948450185
1785512945.871725,-0.0927734300494194,-0.13037109375,0.9648436903953552,0.9780219211778608,-0.4482269287109375,-0.4749298095703125,0.2231597900390625,0.6901202761333792
1785512945.879591,-0.09423828125,-0.12353515625,0.9814452528953552,0.9936682408699061,-0.08392333984375,-0.2899169921875,0.0400543212890625,0.30446565977709855
1785512945.887455,-0.06884765625,-0.13134765625,0.9785155653953552,0.9896893039204162,-0.5092620849609375,-0.2918243408203125,-0.0820159912109375,0.5926516176374478
1785512945.895319,-0.09130859375,-0.142578125,0.9692382216453552,0.9839148902823703,-0.5092620849609375,-0.1697540283203125,-0.3261566162109375,0.6281261335177063
1785512945.903182,-0.0859375,-0.11865234375,0.9726561903953552,0.9836278245851038,-0.38909912109375,-0.0457763671875,-0.6313323974609375,0.7430169566790442
1785512945.913934,-0.07666015625,-0.1376953125,0.9775390028953552,0.9901612398101596,-0.20599365234375,0.0762939453125,-0.4482269287109375,0.49916082630641634
1785512945.924686,-0.08544921875,-0.13232421875,0.9672850966453552,0.9800263904839489,0.1010894775390625,0.1354217529296875,-0.7534027099609375,0.7721229027895459
1785512945.935438,-0.0810546875,-0.1328125,0.9677733778953552,0.9802011699059324,0.09918212890625,0.1983642578125,-0.6313323974609375,0.6691532481843416
1785512945.943362,-0.1025390550494194,-0.1435546875,0.9824218153953552,0.9981356768888465,0.46539306640625,0.2593994140625,-0.6923675537109375,0.8736427139893336
1785512945.951286,-0.08642578125,-0.13671875,0.9765624403953552,0.9898664719330417,-0.0209808349609375,0.1964569091796875,-0.5092620849609375,0.5462448020611776
1785512945.959209,-0.095703125,-0.11962890625,0.9726561903953552,0.9846472607282988,-0.08392333984375,0.3204345703125,-0.2651214599609375,0.42427683103571073
1785512945.967134,-0.08642578125,-0.12744140625,0.9638671278953552,0.9760894261945938,-0.20599365234375,0.0762939453125,-0.2040863037109375,0.2998422422869358
1785512945.977812,-0.0878906175494194,-0.11962890625,0.9858397841453552,0.9969533167944977,0.0400543212890625,0.1964569091796875,-0.2651214599609375,0.3323989385515279
1785512945.988489,-0.09521484375,-0.126953125,0.9863280653953552,0.9990125199436425,-0.1430511474609375,0.1964569091796875,-0.6313323974609375,0.6764906089799784
1785512945.999167,-0.099609375,-0.12646484375,0.9663085341453552,0.9796262386516338,-0.446319580078125,-0.1068115234375,-0.3261566162109375,0.5630168802072654
1785512946.007228,-0.0986328125,-0.13671875,0.9750975966453552,0.9895634245902435,-0.5092620849609375,-0.3528594970703125,-0.6923675537109375,0.9291019993968063
1785512946.01529,-0.09423828125,-0.13232421875,0.9814452528953552,0.9947991440243501,-0.446319580078125,-0.1068115234375,-0.3871917724609375,0.600439287323536
1785512946.023352,-0.0966796800494194,-0.123046875,0.9838866591453552,0.9962532067832616,-0.38909912109375,-0.1068115234375,-0.4482269287109375,0.6030872301720608
1785512946.031415,-0.0869140475988388,-0.13720703125,0.9770507216453552,0.9904584462571668,-0.3871917724609375,-0.3528594970703125,-0.3261566162109375,0.6170943458113395
1785512946.042775,-0.09765625,-0.12158203125,0.9829100966453552,0.9952040954368707,-0.08392333984375,-0.4119873046875,-0.2651214599609375,0.49705739580658037
1785512946.054136,-0.0927734300494194,-0.1279296875,0.9658202528953552,0.9786632082436889,-0.263214111328125,-0.2899169921875,-0.4482269287109375,0.5951814096415826
1785512946.065497,-0.0947265625,-0.130859375,0.9833983778953552,0.9965789819756751,-0.20599365234375,-0.2288818359375,-0.2040863037109375,0.3694204907560373
1785512946.075402,-0.0869140550494194,-0.1337890625,0.9804686903953552,0.9933641925574654,-0.1430511474609375,-0.4749298095703125,0.1621246337890625,0.5218298110395972
1785512946.085307,-0.0966796725988388,-0.12744140625,0.9702147841453552,0.983313275866351,-0.08392333984375,-0.1678466796875,-0.0820159912109375,0.20479808999832091
1785512946.095213,-0.0791015625,-0.13232421875,0.9746093153953552,0.986726949927457,0.0400543212890625,0.0133514404296875,0.0400543212890625,0.05819757958371108
1785512946.105858,-0.07861328125,-0.1357421875,0.9794921278953552,0.991973194227116,-0.08392333984375,-0.0457763671875,-0.2651214599609375,0.2818297203902267
1785512946.116502,-0.0947265625,-0.12109375,0.9755858778953552,0.9876257505153355,0.041961669921875,0.0762939453125,-0.1430511474609375,0.16746694785500216
1785512946.127146,-0.08642578125,-0.13037109375,0.9741210341453552,0.9865991216875578,-0.0209808349609375,0.1964569091796875,-0.0209808349609375,0.19868494667626982
1785512946.13518,-0.0883788987994194,-0.1201171875,0.9711913466453552,0.9825739668262775,0.0400543212890625,0.0133514404296875,0.1621246337890625,0.16753210586843514
1785512946.143215,-0.1010742038488388,-0.126953125,0.9707030653953552,0.9841735272800634,0.0400543212890625,0.3185272216796875,-0.0820159912109375,0.3313465895693221
1785512946.15125,-0.09814453125,-0.1416015625,0.9731444716453552,0.9882780551093104,-0.08392333984375,0.2593994140625,-0.2040863037109375,0.3405618920972969
1785512946.159286,-0.08984375,-0.13232421875,0.9790038466453552,0.9919829282947679,-0.1430511474609375,0.3795623779296875,-0.1430511474609375,0.43011028855332056
1785512946.169893,-0.0937499925494194,-0.12353515625,0.9746093153953552,0.9868704644420823,-0.4482269287109375,0.1964569091796875,-0.3261566162109375,0.5881163448538432
1785512946.180501,-0.0883788987994194,-0.12451171875,0.9824218153953552,0.9942165866770593,-0.263214111328125,0.2593994140625,-0.3261566162109375,0.49289741601715836
1785512946.191109,-0.09130859375,-0.1337890625,0.9838866591453552,0.9971307489900408,0.0400543212890625,0.0133514404296875,0.0400543212890625,0.05819757958371108
1785512946.201797,-0.0874023362994194,-0.130859375,0.9775390028953552,0.9901241571629452,-0.0209808349609375,0.0133514404296875,0.2231597900390625,0.22454119507895215
1785512946.212485,-0.0947265625,-0.12744140625,0.9677733778953552,0.9807138954012175,-0.2651214599609375,-0.4749298095703125,-0.0820159912109375,0.5500675734531394
1785512946.223173,-0.099609375,-0.130859375,0.9804686903953552,0.994165507578524,-0.0209808349609375,-0.0438690185546875,-0.0209808349609375,0.05296113348737648
1785512946.23398,-0.08935546875,-0.123046875,0.9702147841453552,0.9820599068371624,-0.1430511474609375,-0.0438690185546875,-0.0209808349609375,0.15109042661433086
1785512946.244787,-0.076171875,-0.11328125,0.9702147841453552,0.9797711587492236,-0.32806396484375,0.0762939453125,0.1010894775390625,0.35166150427572906
1785512946.255594,-0.0874023362994194,-0.12890625,0.9721679091453552,0.9845640828568301,-0.38909912109375,-0.2288818359375,0.3452301025390625,0.5683034792759771
1785512946.263499,-0.08984375,-0.12744140625,0.9682616591453552,0.9807363825269032,-0.1430511474609375,-0.3528594970703125,0.3452301025390625,0.5139623324347188
1785512946.271404,-0.0976562425494194,-0.119140625,0.9599608778953552,0.9722428283735924,-0.08392333984375,-0.2899169921875,0.5893707275390625,0.6621577182284447
1785512946.279308,-0.09130859375,-0.12744140625,0.9804686903953552,0.9929236748940792,-0.263214111328125,-0.2288818359375,0.4673004150390625,0.5831279800524541
1785512946.287213,-0.10009765625,-0.13525390625,0.9726561903953552,0.9871034518514422,0.09918212890625,-0.6561279296875,0.5283355712890625,0.8482213335561191
1785512946.29787,-0.08984375,-0.11865234375,0.9643554091453552,0.9757723265390017,0.1621246337890625,-0.5321502685546875,1.1997222900390625,1.3224227306049439
1785512946.308527,-0.0849609375,-0.12939453125,0.9697265028953552,0.982003460297336,0.28228759765625,-0.4119873046875,1.0776519775390625,1.1877514940879088
1785512946.319184,-0.080078125,-0.13037109375,0.9746093153953552,0.9865457140165832,0.40435791015625,-0.1678466796875,0.8335113525390625,0.941498275197329
1785512946.32984,-0.09033203125,-0.1220703125,0.9785155653953552,0.9902291395351838,0.28228759765625,0.6866455078125,-0.1430511474609375,0.7560634708670388
1785512946.340494,-0.07666015625,-0.1259765625,0.9677733778953552,0.9789444237639728,-0.0209808349609375,0.6237030029296875,-0.5092620849609375,0.8054771892970831
1785512946.351148,-0.0869140550494194,-0.1215820237994194,0.9687499403953552,0.9802105327389113,-0.4482269287109375,0.8068084716796875,-0.6923675537109375,1.153785126887767
1785512946.359154,-0.1030273362994194,-0.1298828125,0.9677733778953552,0.9818704028388114,-0.1430511474609375,0.4444122314453125,-0.7534027099609375,0.8863303591915248
1785512946.367158,-0.0966796800494194,-0.1181640625,0.9833983778953552,0.9951794189231296,-0.75531005859375,0.1983642578125,-1.0585784912109375,1.3154581275908492
1785512946.375163,-0.09912109375,-0.12353515625,0.9790038466453552,0.99173305773394,-1.1196136474609375,-0.2918243408203125,-0.8144378662109375,1.414922331223244
1785512946.383168,-0.10400390625,-0.1455078125,0.9633788466453552,0.9798408739063342,-1.1806488037109375,0.0133514404296875,-0.6313323974609375,1.338913908639906
1785512946.393844,-0.1025390550494194,-0.12841796875,0.9814452528953552,0.9951081433387687,-1.24359130859375,-0.2288818359375,-0.0209808349609375,1.2646526926661306
1785512946.404521,-0.1025390550494194,-0.12744140625,0.9711913466453552,0.9848696368739489,-1.1806488037109375,-0.4749298095703125,-0.3261566162109375,1.3137229768945695
1785512946.415196,-0.1020507737994194,-0.12646484375,0.9726561903953552,0.9861378107811188,-0.87738037109375,0.0762939453125,0.1010894775390625,0.8864740064666723
1785512946.425841,-0.0986328050494194,-0.1298828125,0.9814452528953552,0.9949033921168702,-0.8754730224609375,-0.3528594970703125,0.2231597900390625,0.9699294456917377
1785512946.436486,-0.0927734300494194,-0.1210937425494194,0.9726561903953552,0.9845459199662375,-0.6313323974609375,-0.2918243408203125,0.4673004150390625,0.8379210701937654
1785512946.447131,-0.0927734300494194,-0.1376953125,0.9741210341453552,0.9881693668455946,-0.75531005859375,-0.2899169921875,0.1010894775390625,0.815330748494782
1785512946.455254,-0.0859375,-0.1328125,0.9736327528953552,0.9864000971071971,-0.3871917724609375,-0.3528594970703125,0.4673004150390625,0.7019949937355938
1785512946.463374,-0.0922851487994194,-0.13330078125,0.9721679091453552,0.9855942829292603,0.1621246337890625,-0.1087188720703125,0.2841949462890625,0.34477667775202214
1785512946.471495,-0.0825195237994194,-0.14208984375,0.9785155653953552,0.9922155548196037,-0.0209808349609375,-0.2918243408203125,0.2231597900390625,0.3679700167420526
1785512946.479616,-0.09033203125,-0.12548828125,0.9775390028953552,0.9896917130008088,0.3452301025390625,-0.2918243408203125,-0.0820159912109375,0.4594256113982481
1785512946.490144,-0.09375,-0.13330078125,0.9716796278953552,0.9852509629778173,0.46539306640625,-0.2288818359375,-0.1430511474609375,0.5379974273832764
1785512946.50067,-0.0932617112994194,-0.12939453125,0.9731444716453552,0.9861292279441985,0.46539306640625,0.2593994140625,-0.2040863037109375,0.5705523478501981
1785512946.511197,-0.1030273362994194,-0.1298828125,0.9858397841453552,0.9996820779686032,0.28228759765625,0.0762939453125,-0.3871917724609375,0.4852056497438236
1785512946.522016,-0.09912109375,-0.13134765625,0.9687499403953552,0.9826258927204029,0.28228759765625,0.0762939453125,-0.0820159912109375,0.3036999780971283
1785512946.532835,-0.095703125,-0.1181640625,0.9814452528953552,0.9931548812909784,0.28228759765625,0.2593994140625,0.0400543212890625,0.3854590671659348
1785512946.543655,-0.1020507737994194,-0.1181640625,0.9819335341453552,0.9942688628227033,-0.08392333984375,0.0762939453125,-0.1430511474609375,0.18255827522127607
1785512946.551547,-0.1059570237994194,-0.1298828125,0.9785155653953552,0.9927684259666665,-0.08392333984375,-0.0457763671875,0.0400543212890625,0.10364820990900821
1785512946.559437,-0.1005859375,-0.109375,0.9736327528953552,0.984906675253215,-0.08392333984375,-0.2899169921875,0.1010894775390625,0.31829871472988563
1785512946.567327,-0.09521484375,-0.13134765625,0.9716796278953552,0.985129114654298,-0.08392333984375,-0.4119873046875,0.3452301025390625,0.5440225086274759
1785512946.575217,-0.07958984375,-0.12646484375,0.9765624403953552,0.98792818561057,0.28228759765625,-0.7171630859375,0.1621246337890625,0.787587186604234
1785512946.585902,-0.0981445237994194,-0.14013671875,0.9707030653953552,0.9856647952837571,0.09918212890625,-0.4730224609375,0.0400543212890625,0.48496566053657053
1785512946.596587,-0.08984375,-0.1240234375,0.9838866591453552,0.9957342368863227,0.3452301025390625,0.5016326904296875,-0.0209808349609375,0.6093105737163244
1785512946.607272,-0.09375,-0.12646484375,0.9721679091453552,0.9848313879932765,0.4062652587890625,0.6237030029296875,-0.3261566162109375,0.8126715416825069
1785512946.615486,-0.095703125,-0.12841796875,0.9741210341453552,0.9871990944065224,0.3452301025390625,0.4444122314453125,-0.6313323974609375,0.845734385750697
1785512946.623702,-0.1015624925494194,-0.1357421875,0.9741210341453552,0.9887632024527169,0.225067138671875,0.3814697265625,-0.5702972412109375,0.7220895460581186
1785512946.631916,-0.10498046875,-0.1396484375,0.9716796278953552,0.9872607984631098,0.09918212890625,0.2593994140625,-0.4482269287109375,0.5272879008018145
1785512946.648049,-0.10888671875,-0.13330078125,0.9653319716453552,0.9805565925956089,0.09918212890625,-0.2899169921875,-0.4482269287109375,0.5429515049017387
1785512946.655967,-0.1059570237994194,-0.13037109375,0.9765624403953552,0.9909075198871657,-0.0209808349609375,-0.2918243408203125,-0.1430511474609375,0.325676637357915
1785512946.663883,-0.1010742112994194,-0.12451171875,0.9682616591453552,0.9814529050681926,0.09918212890625,-0.2899169921875,0.1010894775390625,0.32265777461970996
1785512946.6718,-0.09423828125,-0.12646484375,0.9755858778953552,0.9882520000012734,-0.08392333984375,-0.5340576171875,0.0400543212890625,0.5420931784300992
1785512946.682323,-0.0922851487994194,-0.125,0.9667968153953552,0.9792025484788791,-0.08392333984375,-0.5950927734375,0.2231597900390625,0.6410763042402547
1785512946.692846,-0.1020507737994194,-0.13134765625,0.9638671278953552,0.9781136986427853,-0.02288818359375,-0.2288818359375,0.1010894775390625,0.25125653471992027
1785512946.703369,-0.08642578125,-0.12744140625,0.9726561903953552,0.9847694107790188,-0.141143798828125,-0.4119873046875,-0.2040863037109375,0.48094316767545225
1785512946.711401,-0.0834960862994194,-0.11962890625,0.9663085341453552,0.9772588473889794,-0.02288818359375,-0.2288818359375,-0.2040863037109375,0.30750932202574754
1785512946.719434,-0.0883788987994194,-0.12841796875,0.9809569716453552,0.9932666231533708,0.09918212890625,-0.2899169921875,-0.1430511474609375,0.338160594752425
1785512946.727468,-0.0859375,-0.13818359375,0.9716796278953552,0.9852112762015928,-0.2651214599609375,-0.3528594970703125,-0.5702972412109375,0.7211367114059158
1785512946.7355,-0.08154296875,-0.12744140625,0.9667968153953552,0.9785635646385684,0.0400543212890625,-0.1697540283203125,-0.2651214599609375,0.3173486526152583
1785512946.746068,-0.08935546875,-0.12744140625,0.9819335341453552,0.9941927264377352,-0.02288818359375,0.0762939453125,-0.3261566162109375,0.3357421232698345
1785512946.756634,-0.0927734300494194,-0.134765625,0.9765624403953552,0.9901731580868605,0.041961669921875,0.3814697265625,-0.0209808349609375,0.38434376469764536
1785512946.767201,-0.0820312425494194,-0.14013671875,0.9692382216453552,0.98274623122883,0.1621246337890625,0.3185272216796875,0.0400543212890625,0.3596502974920858
1785512946.777859,-0.09228515625,-0.126953125,0.9667968153953552,0.9794537907782853,0.225067138671875,0.2593994140625,-0.1430511474609375,0.3720307832905823
1785512946.788517,-0.0961913913488388,-0.142578125,0.9770507216453552,0.9920732927389239,0.3452301025390625,0.1964569091796875,-0.1430511474609375,0.42218807616210396
1785512946.799176,-0.0932617112994194,-0.13427734375,0.9848632216453552,0.9983404815936895,0.3452301025390625,0.2613067626953125,0.1621246337890625,0.4623304497982732
1785512946.809862,-0.0810546875,-0.13134765625,0.9824218153953552,0.9944720672461325,0.225067138671875,0.1983642578125,0.2231597900390625,0.37390358058960527
1785512946.820551,-0.09814453125,-0.13232421875,0.9677733778953552,0.98169616422041,0.40435791015625,-0.1068115234375,0.1621246337890625,0.4485514663070529
1785512946.83124,-0.09423828125,-0.12646484375,0.9833983778953552,0.9959651499951602,0.225067138671875,-0.2288818359375,-0.0820159912109375,0.33131364980389544
1785512946.839222,-0.08935546875,-0.13037109375,0.9731444716453552,0.9858961327518336,0.1621246337890625,-0.1697540283203125,-0.0209808349609375,0.23567142900205187
1785512946.847205,-0.0932617112994194,-0.12841796875,0.9648436903953552,0.9778099346949285,0.1621246337890625,-0.1087188720703125,-0.1430511474609375,0.24200789411787685
1785512946.855188,-0.1025390550494194,-0.1298828125,0.9721679091453552,0.9861512289529378,0.713348388671875,-0.2899169921875,-0.0820159912109375,0.7743671020866782
1785512946.863171,-0.0849609375,-0.130859375,0.9628905653953552,0.9754490134567037,0.3452301025390625,-0.1087188720703125,-0.0209808349609375,0.3625518063381159
1785512946.873843,-0.0986328050494194,-0.138671875,0.9780272841453552,0.9927213545001798,0.46539306640625,-0.1068115234375,0.1010894775390625,0.4880763160277012
1785512946.884515,-0.09033203125,-0.11865234375,0.9799804091453552,0.9912617499206842,0.225067138671875,-0.2899169921875,0.2231597900390625,0.4295432122141734
1785512946.895187,-0.09814453125,-0.142578125,0.9624022841453552,0.9778440710414902,0.1621246337890625,0.1354217529296875,0.2231597900390625,0.30728446094468465
1785512946.903175,-0.08984375,-0.13134765625,0.9794921278953552,0.9923350920054181,0.09918212890625,-0.1068115234375,0.1010894775390625,0.1773834228515625
1785512946.911162,-0.0971679612994194,-0.13427734375,0.9736327528953552,0.9876399927393731,0.1621246337890625,-0.1697540283203125,-0.1430511474609375,0.2748899012370261
1785512946.919149,-0.1005859375,-0.13671875,0.9628905653953552,0.9777360524966353,0.225067138671875,0.0762939453125,-0.1430511474609375,0.2773799087734774
1785512946.927136,-0.080078125,-0.12060546875,0.9809569716453552,0.991581950932725,0.46539306640625,-0.1068115234375,-0.3261566162109375,0.578253876853602
1785512946.937824,-0.0874023362994194,-0.125,0.9697265028953552,0.981648439518065,0.1621246337890625,-0.1087188720703125,-0.2651214599609375,0.32923180064704805
1785512946.94851,-0.08935546875,-0.12890625,0.9814452528953552,0.9938993940613016,0.0400543212890625,0.1964569091796875,-0.3871917724609375,0.4360242361151566
1785512946.959198,-0.0932617112994194,-0.14501953125,0.9736327528953552,0.9887816486712594,0.28228759765625,0.1983642578125,-0.2651214599609375,0.435113841540188
1785512946.969856,-0.0927734300494194,-0.130859375,0.9760741591453552,0.9891672505192625,0.16021728515625,0.0762939453125,-0.0209808349609375,0.17869118610005352
1785512946.980515,-0.0991210862994194,-0.12939453125,0.9824218153953552,0.9958516746138902,0.09918212890625,0.0762939453125,-0.3261566162109375,0.34933651266921917
1785512946.991175,-0.0996093675494194,-0.115234375,0.9707030653953552,0.9825810035071791,0.2841949462890625,-0.1697540283203125,0.0400543212890625,0.3334479663772806
1785512947.001839,-0.09326171875,-0.13134765625,0.9672850966453552,0.9806071655758928,0.40435791015625,-0.3509521484375,0.2231597900390625,0.5800629464886595
1785512947.012501,-0.09033203125,-0.125,0.9736327528953552,0.9857715827616146,0.2841949462890625,-0.1697540283203125,-0.0820159912109375,0.3410422560937708
1785512947.023163,-0.095703125,-0.11865234375,0.9829100966453552,0.9946606078957362,0.40435791015625,-0.1068115234375,0.5283355712890625,0.6738341761400275
1785512947.031178,-0.1015624850988388,-0.13671875,0.9667968153953552,0.9816837765999878,0.3452301025390625,-0.1087188720703125,0.3452301025390625,0.5001874054217121
1785512947.039191,-0.09130859375,-0.1328125,0.9770507216453552,0.9902547814156526,0.1010894775390625,-0.3528594970703125,0.7114410400390625,0.8005481001124776
1785512947.047205,-0.0859375,-0.12939453125,0.9741210341453552,0.9864278928477609,-0.0209808349609375,-0.5321502685546875,0.8335113525390625,0.9891234900506516
1785512947.055219,-0.1010742112994194,-0.12890625,0.9794921278953552,0.9930949834169102,-0.0209808349609375,-0.4749298095703125,0.5893707275390625,0.7572029938755361
1785512947.06587,-0.095703125,-0.13134765625,0.9790038466453552,0.9924010412547621,0.1010894775390625,-0.3528594970703125,0.8945465087890625,0.9669241767214918
1785512947.076521,-0.0849609375,-0.1318359375,0.9833983778953552,0.9958270155828264,0.28228759765625,-0.5950927734375,0.6504058837890625,0.9256616608974924
1785512947.087172,-0.0966796800494194,-0.1142578125,0.9750975966453552,0.9865176791296196,0.3452301025390625,-0.7801055908203125,0.2231597900390625,0.8817873033892691
1785512947.097844,-0.0859375,-0.13037109375,0.9648436903953552,0.9773971674235349,0.4062652587890625,0.1354217529296875,0.1621246337890625,0.4579027282586673
1785512947.108517,-0.09130859375,-0.1181640625,0.9711913466453552,0.9826050258155232,0.3452301025390625,0.3185272216796875,-0.1430511474609375,0.4910265221350098
1785512947.11919,-0.0781249925494194,-0.13037109375,0.9760741591453552,0.9878364746746955,0.40435791015625,0.4425048828125,-0.4482269287109375,0.7484806413264635
1785512947.129859,-0.0922851487994194,-0.13427734375,0.9741210341453552,0.9876531490851952,0.3452301025390625,0.8068084716796875,-0.7534027099609375,1.1566068377152754
1785512947.14053,-0.1005859375,-0.13427734375,0.9677733778953552,0.9822083520467008,0.2231597900390625,0.5016326904296875,-0.3261566162109375,0.6386029958402747
1785512947.151201,-0.09912109375,-0.1220703125,0.9687499403953552,0.9814288560237304,-0.08392333984375,0.3814697265625,-0.3261566162109375,0.5088618845545094
1785512947.159181,-0.0966796725988388,-0.12158203125,0.9726561903953552,0.984981834416808,-0.20599365234375,0.0762939453125,-0.1430511474609375,0.2621407669309666
1785512947.167164,-0.0966796800494194,-0.1376953125,0.9750975966453552,0.9895060801240579,-0.263214111328125,-0.0457763671875,0.3452301025390625,0.43653289440117915
1785512947.175148,-0.1015624925494194,-0.1357421875,0.9804686903953552,0.9950174542216428,-0.1430511474609375,-0.0438690185546875,0.1010894775390625,0.18057464951637875
1785512947.18313,-0.10009765625,-0.13037109375,0.9614257216453552,0.9753745850254694,-0.2651214599609375,0.1354217529296875,0.2841949462890625,0.4115764900897662
1785512947.193878,-0.09326171875,-0.1220703125,0.9741210341453552,0.9861595705272388,-0.8144378662109375,-0.1697540283203125,0.2841949462890625,0.8791428982511554
1785512947.204626,-0.0942382737994194,-0.1396484375,0.9765624403953552,0.9909877589232964,-0.8754730224609375,-0.3528594970703125,0.2841949462890625,0.9857634631217806
1785512947.215374,-0.0888671875,-0.1171875,0.9707030653953552,0.9817814055778147,-0.8144378662109375,-0.3528594970703125,0.0400543212890625,0.8884949134603226
1785512947.225956,-0.080078125,-0.13525390625,0.9838866591453552,0.996362927503632,-0.4291534423828125,-0.3070831298828125,0.0057220458984375,0.5277361723218393
1785512947.236539,-0.09521484375,-0.12158203125,0.9682616591453552,0.9804992082424794,-0.186920166015625,-0.431060791015625,0.0629425048828125,0.47404041276588227
1785512947.247123,-0.0869140550494194,-0.13427734375,0.9711913466453552,0.9842749056074261,-0.0019073486328125,-0.1239776611328125,-0.1773834228515625,0.21642314372845112
1785512947.255144,-0.0888671875,-0.1162109375,0.9785155653953552,0.9893912627114618,0.4253387451171875,-0.0019073486328125,0.2498626708984375,0.4933031931633646
1785512947.263166,-0.0878906175494194,-0.12890625,0.9755858778953552,0.9879824831904317,0.423431396484375,-0.30517578125,0.1888275146484375,0.5550515609189489
1785512947.271188,-0.099609375,-0.1298828125,0.9794921278953552,0.9930742173572787,0.4863739013671875,-0.1239776611328125,0.4329681396484375,0.6628660817553799
1785512947.279211,-0.0917968675494194,-0.12646484375,0.9702147841453552,0.9827190590249157,0.423431396484375,0.240325927734375,0.3108978271484375,0.5776747856672608
1785512947.289876,-0.09033203125,-0.1181640625,0.9785155653953552,0.9897551885477776,0.606536865234375,0.057220458984375,0.5512237548828125,0.8215891782161154
1785512947.300542,-0.09033203125,-0.13916015625,0.9790038466453552,0.9929622131298238,0.4863739013671875,0.3032684326171875,0.4940032958984375,0.7566839303908491
1785512947.311208,-0.0888671875,-0.130859375,0.9750975966453552,0.98784456065876,-0.064849853515625,0.606536865234375,0.1888275146484375,0.6385517227896628
1785512947.322,-0.0961913987994194,-0.12939453125,0.9633788466453552,0.9767776267319656,0.3643035888671875,0.5474090576171875,0.4329681396484375,0.7872961267359817
1785512947.332791,-0.0878906175494194,-0.123046875,0.9780272841453552,0.9896477467428617,0.0591278076171875,-0.0629425048828125,0.1277923583984375,0.15423599910388208
1785512947.34358,-0.0961913987994194,-0.115234375,0.9711913466453552,0.9827229407027436,-0.0019073486328125,-0.1850128173828125,0.4940032958984375,0.5275155324094754
1785512947.351705,-0.0908203125,-0.13134765625,0.9785155653953552,0.9914601594042786,-0.1850128173828125,-0.1850128173828125,0.1277923583984375,0.29118786385577017
1785512947.359831,-0.0937499925494194,-0.13525390625,0.9780272841453552,0.9917762090268345,-0.2460479736328125,-0.0019073486328125,-0.0553131103515625,0.2521959228147521
1785512947.367955,-0.0981445237994194,-0.13037109375,0.9609374403953552,0.9746946875770705,-0.0019073486328125,0.6694793701171875,0.0057220458984375,0.6695065397743154
1785512947.37608,-0.08837890625,-0.130859375,0.9882811903953552,1.0008170254270243,0.301361083984375,0.423431396484375,-0.3604888916015625,0.6325068311386594
1785512947.386441,-0.09130859375,-0.12255859375,0.9814452528953552,0.9932737047890716,0.0591278076171875,0.1811981201171875,-0.3604888916015625,0.4077757929742041
1785512947.396802,-0.1005859375,-0.12353515625,0.9692382216453552,0.9822429414104825,-0.064849853515625,0.3662109375,-0.4825592041015625,0.6092448930510295
1785512947.407163,-0.1069335862994194,-0.12890625,0.9770507216453552,0.9913020356256852,-0.064849853515625,-0.431060791015625,-0.2384185791015625,0.49685242065710256
1785512947.417839,-0.099609375,-0.13525390625,0.9721679091453552,0.9865729016731739,-0.1239776611328125,-0.4291534423828125,0.0057220458984375,0.4467391625750358
1785512947.428514,-0.0917968675494194,-0.12890625,0.9814452528953552,0.9941218590352874,-0.003814697265625,-0.247955322265625,0.1277923583984375,0.27897541221425415
1785512947.439189,-0.080078125,-0.13818359375,0.9790038466453552,0.9919454336966237,-0.370025634765625,-0.247955322265625,0.2498626708984375,0.5107173058865878
1785512947.447192,-0.08056640625,-0.12939453125,0.9785155653953552,0.9903164152201249,-0.064849853515625,-0.1220703125,0.4329681396484375,0.45449760686440865
1785512947.455193,-0.1044921800494194,-0.13427734375,0.9653319716453552,0.9802116282807223,-0.0019073486328125,-0.1850128173828125,-0.0553131103515625,0.19311375080893942
1785512947.463194,-0.1005859375,-0.1328125,0.9692382216453552,0.983452805821029,-0.1239776611328125,-0.1850128173828125,0.0057220458984375,0.22278452564115003
1785512947.471195,-0.0825195237994194,-0.14794921875,0.9584960341453552,0.97335147331742,-0.1239776611328125,-0.0629425048828125,-0.0553131103515625,0.14963876355292935
1785512947.479187,-0.09375,-0.12548828125,0.9833983778953552,0.9957955316621455,-0.064849853515625,-0.247955322265625,-0.1773834228515625,0.3116925152187396
1785512947.48718,-0.0986328125,-0.1376953125,0.9741210341453552,0.9887366787727403,-0.064849853515625,-0.431060791015625,-0.0553131103515625,0.43940692897219824
1785512947.495171,-0.0874023362994194,-0.13330078125,0.9770507216453552,0.9899678678321668,0.0591278076171875,-0.1850128173828125,-0.0553131103515625,0.201953906637889
1785512947.503163,-0.0986328050494194,-0.12841796875,0.9736327528953552,0.9870057459003876,0.0591278076171875,-0.2460479736328125,-0.1201629638671875,0.2801336124919238
1785512947.513844,-0.0830078050494194,-0.1279296875,0.9794921278953552,0.9912926557036227,0.1811981201171875,-0.0019073486328125,-0.3032684326171875,0.3532819538766386
1785512947.524525,-0.1010742112994194,-0.1240234375,0.9829100966453552,0.9958464074979121,0.1201629638671875,0.1811981201171875,-0.0553131103515625,0.22434668884588835
1785512947.535206,-0.1020507737994194,-0.125,0.9721679091453552,0.9854693318440264,-0.0019073486328125,0.3643035888671875,-0.3604888916015625,0.5125163254067552
1785512947.54321,-0.0966796800494194,-0.12255859375,0.9697265028953552,0.9822102930910931,-0.1239776611328125,0.1201629638671875,0.1277923583984375,0.21480336405732614
1785512947.551212,-0.0981445237994194,-0.1298828125,0.9790038466453552,0.9924466858633401,0.244140625,0.057220458984375,0.1277923583984375,0.2814422011120718
1785512947.559215,-0.087890625,-0.12646484375,0.9648436903953552,0.9770575548878022,-0.0019073486328125,0.1811981201171875,0.3681182861328125,0.41030168083761126
1785512947.567219,-0.1005859375,-0.11328125,0.9638671278953552,0.9756997553866442,0.1811981201171875,0.3032684326171875,0.0057220458984375,0.3533231421310415
1785512947.57788,-0.1010742038488388,-0.12744140625,0.9721679091453552,0.9856813634652457,-0.1850128173828125,0.1201629638671875,-0.1773834228515625,0.28307906878434014
1785512947.588542,-0.0947265625,-0.11865234375,0.9741210341453552,0.9858819855767986,0.118255615234375,0.057220458984375,0.0629425048828125,0.14567199587348956
1785512947.599204,-0.0922851487994194,-0.1206054612994194,0.9785155653953552,0.9902297398609923,0.0591278076171875,0.1811981201171875,-0.0553131103515625,0.19846510157804062
1785512947.607201,-0.1044921875,-0.12890625,0.9736327528953552,0.9876720994582086,-0.0019073486328125,0.3032684326171875,-0.1773834228515625,0.35134065933710107
1785512947.6152,-0.0971679538488388,-0.126953125,0.9741210341453552,0.9871527219062165,0.0591278076171875,0.1201629638671875,-0.2384185791015625,0.27345686018048654
1785512947.623199,-0.1044921875,-0.13818359375,0.9916991591453552,1.006717708734581,-0.1239776611328125,-0.4291534423828125,-0.3604888916015625,0.5740168800106
1785512947.631197,-0.09765625,-0.126953125,0.9809569716453552,0.9939468895926755,-0.244140625,0.057220458984375,-0.4253387451171875,0.493752846877501
1785512947.641839,-0.0961913987994194,-0.12939453125,0.9824218153953552,0.9955643390987353,0.0591278076171875,-0.1239776611328125,-0.2384185791015625,0.27515446017534523
1785512947.652482,-0.1005859375,-0.13427734375,0.9746093153953552,0.9889445148858012,0.1201629638671875,-0.0019073486328125,-0.2384185791015625,0.26699474662427747
1785512947.663123,-0.09033203125,-0.1259765625,0.9902343153953552,1.0022943527505157,0.3032684326171875,-0.1850128173828125,-0.0553131103515625,0.3595288931292945
1785512947.673825,-0.0869140550494194,-0.12255859375,0.9741210341453552,0.9856401224744898,0.0591278076171875,0.1201629638671875,0.0629425048828125,0.14797633067448665
1785512947.684524,-0.0859375,-0.13037109375,0.9653319716453552,0.9778791804065214,0.0591278076171875,-0.0629425048828125,0.0629425048828125,0.10686260092034484
1785512947.695224,-0.0776367112994194,-0.12548828125,0.9848632216453552,0.9958565825570148,0.2422332763671875,-0.1239776611328125,0.1888275146484375,0.3312148108521879
1785512947.70322,-0.0830078050494194,-0.12451171875,0.9726561903953552,0.9841003650642586,0.3643035888671875,0.1201629638671875,0.0629425048828125,0.38873898912738697
1785512947.711217,-0.0961913987994194,-0.12353515625,0.9692382216453552,0.9818026534548333,0.3643035888671875,-0.0629425048828125,-0.0553131103515625,0.3738160028131484
1785512947.719214,-0.08154296875,-0.123046875,0.9750975966453552,0.9862074387183343,-0.0019073486328125,0.1811981201171875,-0.0553131103515625,0.18946223077324392
1785512947.727211,-0.0893554612994194,-0.13427734375,0.9804686903953552,0.9936466456211537,-0.1239776611328125,-0.0629425048828125,-0.1201629638671875,0.18376984863201137
1785512947.737894,-0.0834960862994194,-0.12353515625,0.9750975966453552,0.9864318801826003,0.2422332763671875,0.3643035888671875,0.1277923583984375,0.4557685288675927
1785512947.748578,-0.08984375,-0.12060546875,0.9873046278953552,0.9986931494558554,-0.064849853515625,0.240325927734375,0.1277923583984375,0.2798087595258961
1785512947.75926,-0.0922851487994194,-0.115234375,0.9609374403953552,0.9722120520874797,0.179290771484375,0.057220458984375,-0.1201629638671875,0.223290168953297
1785512947.769907,-0.0869140550494194,-0.1376953125,0.9726561903953552,0.9861917241409054,-0.0019073486328125,0.1811981201171875,-0.3032684326171875,0.3532819538766386
1785512947.780552,-0.0966796800494194,-0.12841796875,0.9770507216453552,0.9901849564096818,0.1811981201171875,0.1201629638671875,-0.3032684326171875,0.37315363972690296
1785512947.791198,-0.0830078050494194,-0.13916015625,0.9799804091453552,0.9932861858977726,-0.186920166015625,0.057220458984375,0.1888275146484375,0.2717888144828577
1785512947.79918,-0.0947265625,-0.13330078125,0.9746093153953552,0.9882335440473217,0.1201629638671875,0.1811981201171875,0.0057220458984375,0.21749629520663918
1785512947.807162,-0.08349609375,-0.1220703125,0.9775390028953552,0.9886633709443279,-0.0019073486328125,0.1201629638671875,0.2498626708984375,0.2772618440619895
1785512947.815145,-0.09375,-0.1162109375,0.9653319716453552,0.9768110666732528,0.1811981201171875,-0.0629425048828125,0.2498626708984375,0.31500138406589023
1785512947.823128,-0.08935546875,-0.13623046875,0.9711913466453552,0.9847617844992744,-0.0019073486328125,-0.0629425048828125,0.2498626708984375,0.25767567057879337
1785512947.833844,-0.0927734300494194,-0.1201171875,0.9716796278953552,0.9834614112017311,0.118255615234375,-0.431060791015625,-0.1201629638671875,0.462857358125399
1785512947.84456,-0.099609375,-0.1220703125,0.9731444716453552,0.9858160840012988,0.0591278076171875,-0.3681182861328125,-0.1773834228515625,0.4128826091294117
1785512947.855276,-0.09521484375,-0.13037109375,0.9711913466453552,0.98451770951808,0.0591278076171875,-0.6122589111328125,-0.1773834228515625,0.6401733754208219
1785512947.865946,-0.09423828125,-0.1328125,0.9819335341453552,0.9953459093643735,0.118255615234375,-0.370025634765625,-0.2384185791015625,0.4557924744650489
1785512947.876618,-0.10400390625,-0.12744140625,0.9794921278953552,0.9932084137537334,-0.0019073486328125,-0.6122589111328125,-0.1201629638671875,0.6239421047867272
1785512947.88729,-0.1103515625,-0.13037109375,0.9653319716453552,0.9803264277333706,-0.0019073486328125,-0.3070831298828125,0.1277923583984375,0.3326177588501042
1785512947.897928,-0.0917968600988388,-0.13720703125,0.9819335341453552,0.9957137633012972,0.1811981201171875,-0.3681182861328125,0.6771087646484375,0.791719717124119
1785512947.908568,-0.07958984375,-0.1279296875,0.9741210341453552,0.9857039805826155,0.1811981201171875,-0.6732940673828125,0.3681182861328125,0.7884597215408363
1785512947.919209,-0.09326171875,-0.1259765625,0.9711913466453552,0.9837583414041983,-0.0019073486328125,-0.6122589111328125,0.6160736083984375,0.8685685368498076
1785512947.929868,-0.08154296875,-0.119140625,0.9633788466453552,0.9741368212123434,0.301361083984375,0.240325927734375,0.1277923583984375,0.40608612552839113
1785512947.940531,-0.09033203125,-0.1298828125,0.9799804091453552,0.9926686371399869,0.0591278076171875,0.9136199951171875,0.0629425048828125,0.917692406001307
1785512947.951192,-0.0917968675494194,-0.1108398362994194,0.9624022841453552,0.9731034326991992,0.2422332763671875,0.9746551513671875,-0.3604888916015625,1.067043516092151
1785512947.959175,-0.0869140550494194,-0.134765625,0.9770507216453552,0.9901231940089493,-0.064849853515625,0.911712646484375,-0.4253387451171875,1.008136152192949
1785512947.967159,-0.1064452975988388,-0.12646484375,0.9716796278953552,0.9856395169393694,0.1201629638671875,0.9746551513671875,-0.7266998291015625,1.2216728054549557
1785512947.975141,-0.09423828125,-0.1337890625,0.9838866591453552,0.9974032910221379,-0.2460479736328125,0.6694793701171875,-0.4253387451171875,0.8304548635772947
1785512947.983124,-0.09912109375,-0.126953125,0.9736327528953552,0.9868651502024224,-0.1239776611328125,-0.1239776611328125,-0.4253387451171875,0.4600586582358697
1785512947.993848,-0.0976562425494194,-0.1298828125,0.9599608778953552,0.973617570600183,-0.1850128173828125,-0.0019073486328125,-0.5435943603515625,0.574219652381175
1785512948.004572,-0.0971679612994194,-0.1318359375,0.9785155653953552,0.9921265236050194,-0.370025634765625,0.057220458984375,-0.0553131103515625,0.378487372955625
1785512948.015296,-0.1059570237994194,-0.13525390625,0.9692382216453552,0.9843491455507873,-0.4291534423828125,-0.2460479736328125,-0.3032684326171875,0.5802447971847027
1785512948.02327,-0.0917968675494194,-0.1201171875,0.9775390028953552,0.9891598990084672,-0.553131103515625,-0.431060791015625,-0.3604888916015625,0.7884920191070753
1785512948.031244,-0.1025390550494194,-0.12353515625,0.9721679091453552,0.9853352912649538,-1.041412353515625,-0.431060791015625,0.0057220458984375,1.1271139416293428
1785512948.039218,-0.0922851487994194,-0.12646484375,0.9682616591453552,0.9808366561077124,-0.858306884765625,-0.431060791015625,0.3681182861328125,1.0285986518426162
1785512948.047192,-0.0961913987994194,-0.13427734375,0.9731444716453552,0.9870629934008579,-0.675201416015625,-0.553131103515625,0.3681182861328125,0.9472919520671953
1785512948.057841,-0.09130859375,-0.12353515625,0.9809569716453552,0.9929122692070739,-0.6122589111328125,-0.5512237548828125,0.1277923583984375,0.8336902836627513
1785512948.068491,-0.08642578125,-0.1376953125,0.9702147841453552,0.9837408917613234,-0.553131103515625,-0.247955322265625,0.4329681396484375,0.7449142698773409
1785512948.079139,-0.09130859375,-0.13232421875,0.9863280653953552,0.9993447907238745,-0.4291534423828125,-0.5512237548828125,0.5512237548828125,0.8898696157321205
1785512948.087188,-0.08154296875,-0.11962890625,0.9643554091453552,0.9751623896105921,-0.1850128173828125,-0.4901885986328125,0.3108978271484375,0.609238921730339
1785512948.095238,-0.0981445237994194,-0.13037109375,0.9736327528953552,0.9872131011833128,0.4863739013671875,-0.1850128173828125,0.0629425048828125,0.5241670281961538
1785512948.103289,-0.0844726487994194,-0.12939453125,0.9814452528953552,0.9935357857387045,0.3643035888671875,-0.1239776611328125,0.1277923583984375,0.40548545249676954
1785512948.11134,-0.0981445237994194,-0.12890625,0.9716796278953552,0.9850941417487636,0.4863739013671875,-0.0629425048828125,0.2498626708984375,0.5504113781169158
1785512948.122244,-0.08837890625,-0.12158203125,0.9775390028953552,0.9890275646181291,0.911712646484375,0.18310546875,0.2498626708984375,0.9629013016681414
1785512948.133148,-0.08935546875,-0.12255859375,0.9750975966453552,0.9868233538384961,0.2422332763671875,0.4863739013671875,0.1888275146484375,0.575232442060622
1785512948.144053,-0.10302734375,-0.12255859375,0.9633788466453552,0.9765930803696559,0.423431396484375,0.423431396484375,0.2498626708984375,0.6488602695233519
1785512948.154439,-0.1010742112994194,-0.12841796875,0.9868163466453552,1.0002568034730688,-0.244140625,0.728607177734375,-0.0553131103515625,0.7704106725625015
1785512948.164827,-0.10498046875,-0.12646484375,0.9882811903953552,1.0018552624071713,0.118255615234375,0.240325927734375,0.1888275146484375,0.3277144677370141
1785512948.175215,-0.0922851487994194,-0.1337890625,0.9863280653953552,0.9996294886207109,-0.064849853515625,0.118255615234375,0.3108978271484375,0.33889135864031456
1785512948.186028,-0.10546875,-0.13720703125,0.9833983778953552,0.9985097877828824,-0.064849853515625,0.240325927734375,0.1888275146484375,0.3124386104992338
1785512948.196844,-0.0917968675494194,-0.1210937425494194,0.9780272841453552,0.9897614500015901,-0.064849853515625,-0.1220703125,0.1888275146484375,0.23401387775760554
1785512948.20766,-0.0922851487994194,-0.1337890625,0.9755858778953552,0.9890317826452347,0.0591278076171875,0.1811981201171875,0.1888275146484375,0.26829962105065247
1785512948.21554,-0.0932617112994194,-0.1108398362994194,0.9687499403953552,0.9795201187935767,-0.003814697265625,0.545501708984375,-0.1773834228515625,0.5736301466298981
1785512948.223421,-0.0942382737994194,-0.125,0.9790038466453552,0.9914405599909136,0.1811981201171875,0.1811981201171875,-0.0553131103515625,0.2621546445225977
1785512948.231302,-0.0966796800494194,-0.13037109375,0.9731444716453552,0.9865869172627149,-0.0019073486328125,0.3643035888671875,-0.0553131103515625,0.3684837622163072
1785512948.239183,-0.0976562425494194,-0.123046875,0.9750975966453552,0.9876702881729735,-0.1239776611328125,-0.0019073486328125,0.2498626708984375,0.27893628797141196
1785512948.250005,-0.0888671875,-0.1220703125,0.9829100966453552,0.9944399410197629,-0.0019073486328125,-0.1239776611328125,0.1277923583984375,0.17805893772513717
1785512948.260825,-0.09326171875,-0.1318359375,0.9780272841453552,0.9912698074356181,0.1201629638671875,-0.0019073486328125,0.1888275146484375,0.2238271792085581
1785512948.271646,-0.0976562425494194,-0.13134765625,0.9638671278953552,0.9776649675366711,-0.0019073486328125,-0.0629425048828125,0.1277923583984375,0.14246502646181156
1785512948.282141,-0.09033203125,-0.12939453125,0.9824218153953552,0.9950152983506654,-0.2460479736328125,-0.3070831298828125,0.1277923583984375,0.41372761673892666
1785512948.292639,-0.1020507737994194,-0.140625,0.9824218153953552,0.9976684691934318,-0.064849853515625,-0.186920166015625,0.1277923583984375,0.23553245812274268
1785512948.303135,-0.1025390625,-0.126953125,0.9633788466453552,0.9771029410708881,-0.0019073486328125,-0.4901885986328125,-0.0553131103515625,0.4933031931633646
1785512948.311227,-0.0961913987994194,-0.12939453125,0.9692382216453552,0.9825571027775672,0.1811981201171875,0.2422332763671875,-0.1773834228515625,0.35067734117864124
1785512948.31932,-0.0883788987994194,-0.13037109375,0.9721679091453552,0.9848440970075522,-0.244140625,-0.431060791015625,-0.1201629638671875,0.5097618936442326
1785512948.327414,-0.09033203125,-0.13330078125,0.9790038466453552,0.992158004502314,0.2422332763671875,-0.3070831298828125,-0.1201629638671875,0.4091651826873268
1785512948.335506,-0.08056640625,-0.12060546875,0.9790038466453552,0.9896894243422274,0.1811981201171875,-0.2460479736328125,-0.3604888916015625,0.4725723278302899
1785512948.346061,-0.0927734300494194,-0.12353515625,0.9692382216453552,0.9814736748640267,-0.1239776611328125,-0.0629425048828125,-0.4825592041015625,0.502190805216522
1785512948.356616,-0.0874023362994194,-0.13232421875,0.9868163466453552,0.9994775481544748,-0.1850128173828125,-0.1850128173828125,-0.6084442138671875,0.6623170287561023
1785512948.367171,-0.08056640625,-0.13427734375,0.9868163466453552,0.9991635766315151,0.3032684326171875,-0.0019073486328125,-0.1773834228515625,0.35134065933710107
1785512948.375165,-0.08447265625,-0.134765625,0.9765624403953552,0.9894299385638697,-0.1239776611328125,0.1811981201171875,-0.3032684326171875,0.3743994677026809
1785512948.383159,-0.1088867112994194,-0.13427734375,0.9765624403953552,0.9917463995059879,-0.003814697265625,0.057220458984375,0.0629425048828125,0.08514981950969587
1785512948.391153,-0.0976562425494194,-0.13525390625,0.9799804091453552,0.9940784492048164,-0.0019073486328125,0.4863739013671875,-0.1201629638671875,0.5010013451032769
1785512948.399148,-0.10498046875,-0.13330078125,0.9741210341453552,0.9887880390990005,-0.1239776611328125,-0.0019073486328125,-0.0553131103515625,0.13577053662534339
1785512948.409836,-0.09814453125,-0.126953125,0.9731444716453552,0.9862857636889348,-0.0019073486328125,0.3032684326171875,0.1888275146484375,0.3572551056166987
1785512948.420523,-0.0927734300494194,-0.1279296875,0.9697265028953552,0.982518399158325,-0.0019073486328125,-0.0019073486328125,-0.1201629638671875,0.12019323542929192
1785512948.431211,-0.0883788987994194,-0.13427734375,0.9824218153953552,0.9954867443428159,0.0591278076171875,0.1201629638671875,-0.1773834228515625,0.22226136466218857
1785512948.441854,-0.0966796725988388,-0.12744140625,0.9794921278953552,0.99246818575195,-0.186920166015625,0.057220458984375,-0.2384185791015625,0.30831274422329574
1785512948.452497,-0.0771484300494194,-0.12548828125,0.9731444716453552,0.984230334669729,-0.1239776611328125,-0.1239776611328125,-0.3604888916015625,0.4008655159627079
1785512948.46314,-0.0981445237994194,-0.12548828125,0.9667968153953552,0.9798345465135909,0.2422332763671875,-0.3070831298828125,-0.1773834228515625,0.42946698073395906
1785512948.473822,-0.0869140475988388,-0.1220703125,0.9868163466453552,0.9981291073154548,-0.0019073486328125,-0.1850128173828125,-0.0553131103515625,0.19311375080893942
1785512948.484505,-0.1044921875,-0.13232421875,0.9687499403953552,0.983313156187965,0.1201629638671875,-0.4901885986328125,-0.1773834228515625,0.5349662408203752
1785512948.495188,-0.0922851487994194,-0.12890625,0.9804686903953552,0.9932030118880915,0.3643035888671875,-0.4291534423828125,0.1888275146484375,0.5937555155607707
1785512948.503186,-0.08984375,-0.13916015625,0.9868163466453552,1.0006217819476413,-0.0019073486328125,-0.3070831298828125,0.6160736083984375,0.6883679086088359
1785512948.511184,-0.08544921875,-0.1201171875,0.9716796278953552,0.9827975411979578,0.0591278076171875,-0.4291534423828125,0.3681182861328125,0.5684890916525948
1785512948.519182,-0.0947265625,-0.130859375,0.9711913466453552,0.9845353876155369,-0.003814697265625,-0.247955322265625,0.3681182861328125,0.44385523128655086
1785512948.52718,-0.0922851487994194,-0.140625,0.9824218153953552,0.9967168919400515,0.3643035888671875,0.2422332763671875,0.4329681396484375,0.6155123678625182
1785512948.537841,-0.0932617112994194,-0.12939453125,0.9833983778953552,0.9962494974448516,-0.1850128173828125,0.1811981201171875,0.4329681396484375,0.5045036286099016
1785512948.548502,-0.0781249925494194,-0.12353515625,0.9721679091453552,0.9830945492996136,0.118255615234375,0.240325927734375,0.0057220458984375,0.2679061102048858
1785512948.559163,-0.0888671875,-0.12841796875,0.9814452528953552,0.9937924009283146,-0.1239776611328125,0.4253387451171875,0.3681182861328125,0.576016129238744
1785512948.567169,-0.0825195237994194,-0.1396484375,0.9716796278953552,0.9851256047688185,0.0591278076171875,0.2422332763671875,0.1888275146484375,0.31277609899335856
1785512948.575174,-0.0917968675494194,-0.12548828125,0.9780272841453552,0.9903087105320765,-0.064849853515625,0.606536865234375,-0.1773834228515625,0.635261639871224
1785512948.583179,-0.08154296875,-0.13427734375,0.9799804091453552,0.9924924498986463,-0.064849853515625,0.301361083984375,-0.0553131103515625,0.3131829283629612
1785512948.591184,-0.09326171875,-0.126953125,0.9809569716453552,0.9935247477295651,0.1811981201171875,0.3643035888671875,0.0629425048828125,0.41171789190711444
1785512948.601846,-0.09521484375,-0.12109375,0.9760741591453552,0.9881550115800211,0.244140625,0.545501708984375,0.1888275146484375,0.6267635834735218
1785512948.612508,-0.0869140550494194,-0.1337890625,0.9760741591453552,0.9890269613923953,0.2422332763671875,0.2422332763671875,0.0057220458984375,0.3426173699163957
1785512948.62317,-0.0947265625,-0.13427734375,0.9829100966453552,0.9965519478557069,0.0591278076171875,0.3032684326171875,0.1888275146484375,0.3621100249150893
1785512948.631184,-0.09521484375,-0.134765625,0.9682616591453552,0.9822210956413497,0.2422332763671875,0.2422332763671875,0.0629425048828125,0.3483040041114764
1785512948.639199,-0.0922851487994194,-0.13427734375,0.9780272841453552,0.9915060878614039,-0.0629425048828125,-0.0019073486328125,0.4940032958984375,0.49800065588134435
1785512948.647212,-0.099609375,-0.12255859375,0.9692382216453552,0.9820210622935329,0.0591278076171875,0.0591278076171875,0.2498626708984375,0.2634834901388153
1785512948.655226,-0.09521484375,-0.126953125,0.9833983778953552,0.9961201393731673,-0.0019073486328125,-0.1850128173828125,0.2498626708984375,0.3109095284535903
1785512948.665885,-0.08642578125,-0.13037109375,0.9711913466453552,0.983706597288573,-0.1239776611328125,-0.3070831298828125,0.3108978271484375,0.4542333849952098
1785512948.676544,-0.0976562425494194,-0.1328125,0.9736327528953552,0.9874900705200579,-0.3070831298828125,-0.1850128173828125,0.0629425048828125,0.3639938875523504
1785512948.687203,-0.083984375,-0.1220703125,0.9721679091453552,0.9833946206940731,0.118255615234375,-0.247955322265625,0.0057220458984375,0.27477076661023153
1785512948.697846,-0.0986328125,-0.1220703125,0.9775390028953552,0.9900566120566809,-0.1850128173828125,-0.4901885986328125,0.3681182861328125,0.6403324741186298
1785512948.708492,-0.083984375,-0.1279296875,0.9711913466453552,0.9831744565369906,-0.064849853515625,-0.370025634765625,0.1888275146484375,0.4204524993064111
1785512948.719136,-0.0878906175494194,-0.1357421875,0.9731444716453552,0.9864891610222695,-0.1850128173828125,-0.3681182861328125,0.4940032958984375,0.6432573913604136
1785512948.727144,-0.08447265625,-0.134765625,0.9799804091453552,0.9928036087989754,-0.064849853515625,-0.30517578125,0.6160736083984375,0.690568209467839
1785512948.735153,-0.0869140550494194,-0.12841796875,0.9804686903953552,0.9926550662282404,0.118255615234375,-0.6103515625,0.7381439208984375,0.9650750583969988
1785512948.743162,-0.0869140550494194,-0.13232421875,0.9780272841453552,0.9907578515286521,0.423431396484375,-0.247955322265625,0.6160736083984375,0.7876056629644236
1785512948.751171,-0.08056640625,-0.12451171875,0.9672850966453552,0.9785880502613616,0.4863739013671875,-0.0019073486328125,0.5512237548828125,0.7351264094406164
1785512948.761834,-0.08642578125,-0.12060546875,0.9711913466453552,0.9824600381470477,0.4863739013671875,0.1811981201171875,-0.3032684326171875,0.6011356526502375
1785512948.772497,-0.0961913913488388,-0.13134765625,0.9726561903953552,0.9861871299537421,0.118255615234375,0.423431396484375,-0.1773834228515625,0.4740711093978463
1785512948.78316,-0.0781249925494194,-0.12548828125,0.9707030653953552,0.9818937133722088,0.423431396484375,0.972747802734375,-0.1201629638671875,1.0676945130226199
1785512948.793835,-0.0981445237994194,-0.12890625,0.9726561903953552,0.9860574189951024,-0.4291534423828125,0.9746551513671875,-0.6084442138671875,1.2265111913815026
1785512948.80451,-0.1030273362994194,-0.14501953125,0.9711913466453552,0.9873489394675734,-0.553131103515625,0.545501708984375,-0.6084442138671875,0.9867778339473109
1785512948.815185,-0.0922851487994194,-0.12353515625,0.9770507216453552,0.9891438703173326,-0.7953643798828125,0.4253387451171875,-0.3032684326171875,0.9515720083663245
1785512948.823189,-0.1035156175494194,-0.12939453125,0.9760741591453552,0.9900399951241147,-0.7953643798828125,0.3643035888671875,-0.2384185791015625,0.9067331583816111
1785512948.831194,-0.08642578125,-0.12939453125,0.9633788466453552,0.9758643156432225,-0.9784698486328125,-0.0019073486328125,-0.1201629638671875,0.9858225096576326
1785512948.8392,-0.1079101487994194,-0.11865234375,0.9780272841453552,0.9910904839741023,-1.1005401611328125,-0.2460479736328125,-0.1201629638671875,1.1340932014082428
1785512948.847204,-0.0966796800494194,-0.12255859375,0.9848632216453552,0.9971575275682893,-1.1005401611328125,-0.1850128173828125,-0.0553131103515625,1.1173530905845863
1785512948.857846,-0.0922851487994194,-0.12841796875,0.9794921278953552,0.9921756658958019,-0.858306884765625,-0.370025634765625,-0.0553131103515625,0.9363061566584616
1785512948.868486,-0.0961913987994194,-0.11962890625,0.9790038466453552,0.9909653839362718,-1.1005401611328125,-0.4291534423828125,-0.0553131103515625,1.1825484613968338
1785512948.879127,-0.08935546875,-0.13623046875,0.9750975966453552,0.9886144159352143,-0.9784698486328125,-0.4901885986328125,0.4940032958984375,1.2007195189850288
1785512948.887146,-0.08984375,-0.1328125,0.9785155653953552,0.9915663221849077,-0.553131103515625,-0.736236572265625,0.3108978271484375,0.9719340342551389
1785512948.895161,-0.0961913913488388,-0.1376953125,0.9741210341453552,0.9884961163396214,-0.1850128173828125,-0.3681182861328125,0.1888275146484375,0.4532070668795788
1785512948.903177,-0.08642578125,-0.1474609375,0.9760741591453552,0.9909262878258726,-0.0629425048828125,-0.4901885986328125,0.2498626708984375,0.553785134740022
1785512948.911193,-0.0874023362994194,-0.12890625,0.9741210341453552,0.9864926653777389,0.5474090576171875,-0.1850128173828125,-0.0553131103515625,0.5804704636189746
1785512948.921866,-0.0791015625,-0.12841796875,0.9721679091453552,0.9837980867331818,0.606536865234375,-0.1220703125,0.3681182861328125,0.7199299984495362
1785512948.932539,-0.080078125,-0.13818359375,0.9804686903953552,0.9933911941077209,0.606536865234375,-0.370025634765625,0.2498626708984375,0.7531515741074615
1785512948.943212,-0.0810546875,-0.1220703125,0.9770507216453552,0.9879772954006988,0.8525848388671875,0.3032684326171875,0.0629425048828125,0.9071022040592761
1785512948.954051,-0.09521484375,-0.130859375,0.9819335341453552,0.9951801384548,0.606536865234375,0.3662109375,0.1277923583984375,0.7199502111243569
1785512948.964891,-0.095703125,-0.13232421875,0.9755858778953552,0.9891595382704523,0.423431396484375,0.545501708984375,0.1277923583984375,0.7022799647566605
1785512948.975731,-0.099609375,-0.1220703125,0.9628905653953552,0.9756953570193543,0.1811981201171875,0.6694793701171875,0.2498626708984375,0.7372019669364764
1785512948.986331,-0.095703125,-0.12890625,0.9692382216453552,0.9824452349734711,-0.1850128173828125,0.3032684326171875,0.2498626708984375,0.4343188219804806
1785512948.99693,-0.09423828125,-0.12109375,0.9672850966453552,0.9793799100115494,-0.4291534423828125,-0.1850128173828125,0.2498626708984375,0.5299375189712885
1785512949.007529,-0.0825195237994194,-0.12841796875,0.9663085341453552,0.9782907694893702,-0.42724609375,0.057220458984375,0.3108978271484375,0.5314798815351679
1785512949.015491,-0.0751953125,-0.126953125,0.9829100966453552,0.9939233818844488,-0.1239776611328125,-0.1850128173828125,0.4940032958984375,0.5418850979814887
1785512949.023455,-0.07568359375,-0.1240234375,0.9638671278953552,0.9747562052377367,-0.2460479736328125,0.1201629638671875,0.2498626708984375,0.37068868005735095
1785512949.031419,-0.087890625,-0.13720703125,0.9750975966453552,0.9886181539759813,-0.0629425048828125,0.4863739013671875,-0.1201629638671875,0.5049361036184762
1785512949.039383,-0.1020507737994194,-0.13330078125,0.9672850966453552,0.9817453421876443,-0.003814697265625,0.240325927734375,-0.1201629638671875,0.26871963333921733
1785512949.049996,-0.1044921875,-0.13232421875,0.9804686903953552,0.9948603766166969,-0.003814697265625,0.057220458984375,-0.0553131103515625,0.07967605046922845
1785512949.06061,-0.0947265550494194,-0.12451171875,0.9975585341453552,1.0097521068974502,-0.2460479736328125,0.3032684326171875,0.1888275146484375,0.43378240840219034
1785512949.071223,-0.0966796800494194,-0.12255859375,0.9726561903953552,0.98510285460496,-0.2460479736328125,-0.0629425048828125,0.0629425048828125,0.2616545875207598
1785512949.081903,-0.08349609375,-0.13134765625,0.9638671278953552,0.9763522134512309,-0.3681182861328125,0.3032684326171875,0.4329681396484375,0.6441616448982923
1785512949.092586,-0.0986328125,-0.11572265625,0.9697265028953552,0.9815750889712265,-0.7343292236328125,-0.1850128173828125,0.7991790771484375,1.1009797221697244
1785512949.103267,-0.0751953125,-0.13134765625,0.9692382216453552,0.9809838286753719,-0.492095947265625,-0.247955322265625,0.3108978271484375,0.6326908582243957
1785512949.111251,-0.09130859375,-0.12548828125,0.9726561903953552,0.9849592035907311,-0.1239776611328125,0.1811981201171875,0.4940032958984375,0.5405945574573281
1785512949.119236,-0.08544921875,-0.13916015625,0.9794921278953552,0.9930115541530625,0.0591278076171875,-0.0019073486328125,0.1277923583984375,0.14082124299073961
1785512949.127222,-0.0927734300494194,-0.12451171875,0.9775390028953552,0.9897942107382013,-0.064849853515625,-0.247955322265625,0.3108978271484375,0.4029203448157808
1785512949.135206,-0.08642578125,-0.14404296875,0.9653319716453552,0.9798385622089464,0.3032684326171875,-0.1239776611328125,0.0057220458984375,0.3276811628569941
1785512949.143257,-0.0869140550494194,-0.1215820237994194,0.9858397841453552,0.9971039672371466,0.118255615234375,0.118255615234375,-0.4825592041015625,0.5107173058865878
1785512949.151308,-0.1005859375,-0.14306640625,0.9863280653953552,1.001712823121771,-0.064849853515625,0.118255615234375,0.0057220458984375,0.13499124358536146
1785512949.159359,-0.0922851487994194,-0.13916015625,0.9765624403953552,0.9907352309105532,-0.3070831298828125,-0.1239776611328125,-0.1773834228515625,0.375679900741473
1785512949.16741,-0.0971679612994194,-0.1166992112994194,0.9765624403953552,0.9882988002683822,-0.064849853515625,-0.186920166015625,-0.3604888916015625,0.4112139259952536
1785512949.178073,-0.0996093675494194,-0.12451171875,0.9804686903953552,0.9933499116903657,0.1201629638671875,-0.0019073486328125,-0.1201629638671875,0.16994679682036112
1785512949.188736,-0.08544921875,-0.123046875,0.9775390028953552,0.9889512650347824,0.1811981201171875,0.4863739013671875,-0.1773834228515625,0.5485045208270188
1785512949.199399,-0.0888671875,-0.12255859375,0.9794921278953552,0.9911219978010318,0.0591278076171875,0.4863739013671875,0.0057220458984375,0.48998817472875567
1785512949.210089,-0.0859375,-0.13232421875,0.9721679091453552,0.9848885197554592,-0.0019073486328125,0.3643035888671875,0.0629425048828125,0.3697059666292157
1785512949.220779,-0.0927734300494194,-0.130859375,0.9843749403953552,0.997359067050019,-0.3070831298828125,-0.0019073486328125,0.1888275146484375,0.3604989832520159
1785512949.231469,-0.0971679612994194,-0.12890625,0.9794921278953552,0.9927050229555197,-0.064849853515625,0.118255615234375,-0.4253387451171875,0.4462095271655709
1785512949.24211,-0.0908203125,-0.1455078125,0.9682616591453552,0.9833369174560919,-0.1239776611328125,0.1201629638671875,-0.4253387451171875,0.4590453642540934
1785512949.252751,-0.09375,-0.130859375,0.9643554091453552,0.9776986210859132,-0.2460479736328125,0.1811981201171875,-0.3032684326171875,0.4305160929453178
1785512949.263394,-0.08154296875,-0.1298828125,0.9819335341453552,0.9938371427022946,-0.42724609375,0.057220458984375,-0.2384185791015625,0.4926020954196443
1785512949.27398,-0.09912109375,-0.1220703125,0.9667968153953552,0.979501013107513,-0.064849853515625,-0.186920166015625,-0.2384185791015625,0.3098194164753314
1785512949.284567,-0.0927734300494194,-0.12451171875,0.9755858778953552,0.9878653160112792,-0.4291534423828125,-0.1239776611328125,-0.3604888916015625,0.5740168800106
1785512949.295154,-0.0849609375,-0.1240234375,0.9765624403953552,0.9880659765122606,0.1201629638671875,-0.1850128173828125,0.0057220458984375,0.22068444052659617
1785512949.30317,-0.0986328125,-0.12109375,0.9711913466453552,0.983669029597629,0.0591278076171875,-0.1239776611328125,0.0057220458984375,0.13747472459634696
1785512949.311188,-0.0849609375,-0.12451171875,0.9780272841453552,0.9895751095999219,-0.003814697265625,0.057220458984375,0.1888275146484375,0.1973437689158611
1785512949.319204,-0.07470703125,-0.1298828125,0.9765624403953552,0.9879903266186518,0.2422332763671875,0.1201629638671875,0.0629425048828125,0.2776289916162434
1785512949.327221,-0.10546875,-0.12646484375,0.9633788466453552,0.9773514291671186,0.1811981201171875,-0.1850128173828125,0.1888275146484375,0.3204970071907607
1785512949.335212,-0.0961913913488388,-0.1220703125,0.9711913466453552,0.9835479534635266,-0.370025634765625,-0.1220703125,0.1888275146484375,0.4329849441560956
1785512949.343203,-0.09521484375,-0.130859375,0.9775390028953552,0.9908443594618546,0.0591278076171875,-0.0629425048828125,-0.1201629638671875,0.14797633067448665
1785512949.351194,-0.0888671875,-0.1416015625,0.9770507216453552,0.9912499645318081,0.0591278076171875,0.2422332763671875,0.1888275146484375,0.31277609899335856
1785512949.359185,-0.07080078125,-0.13427734375,0.9721679091453552,0.9839479657188268,0.0591278076171875,0.1201629638671875,0.0629425048828125,0.14797633067448665
1785512949.369858,-0.0830078050494194,-0.12353515625,0.9721679091453552,0.9834946233207815,-0.1239776611328125,0.1201629638671875,-0.0553131103515625,0.18129847909476138
1785512949.380532,-0.0927734300494194,-0.130859375,0.9799804091453552,0.9930219975696525,-0.064849853515625,0.057220458984375,0.0629425048828125,0.10696468271491968
1785512949.391204,-0.0849609375,-0.123046875,0.9667968153953552,0.9782918667794112,-0.0629425048828125,0.4863739013671875,-0.1201629638671875,0.5049361036184762
1785512949.401862,-0.080078125,-0.1220703125,0.9702147841453552,0.9811372965449746,0.3643035888671875,0.4253387451171875,-0.3604888916015625,0.6660198149661162
1785512949.412523,-0.09033203125,-0.140625,0.9736327528953552,0.9878744879818179,0.1811981201171875,0.4253387451171875,-0.8487701416015625,0.9665177495039617
1785512949.423182,-0.10400390625,-0.12548828125,0.9614257216453552,0.9751428303010949,0.423431396484375,0.057220458984375,-0.1201629638671875,0.44385523128655086
1785512949.433845,-0.0825195237994194,-0.13818359375,0.9785155653953552,0.9916636975864044,0.2422332763671875,-0.1239776611328125,0.0629425048828125,0.2793012344413601
1785512949.444504,-0.10009765625,-0.12939453125,0.9829100966453552,0.9964310029257079,-0.1239776611328125,0.3032684326171875,-0.4825592041015625,0.5832714532232668
1785512949.455164,-0.0966796800494194,-0.1279296875,0.9702147841453552,0.9833766790261623,0.2422332763671875,-0.1239776611328125,0.4329681396484375,0.511379341184383
1785512949.465841,-0.0947265550494194,-0.12451171875,0.9794921278953552,0.9919078167584832,0.0286102294921875,0.0438690185546875,0.2727508544921875,0.27773380177206664
1785512949.476516,-0.1059570237994194,-0.1157226487994194,0.9858397841453552,0.9982478160964566,0.0896453857421875,-0.3223419189453125,0.1468658447265625,0.36539045450238405
1785512949.487191,-0.1015624925494194,-0.125,0.9829100966453552,0.9960181715110585,0.209808349609375,-0.202178955078125,0.0286102294921875,0.2927702489562214
1785512949.495179,-0.0820312425494194,-0.12890625,0.9833983778953552,0.9951976264493801,0.0896453857421875,-0.2002716064453125,-0.0934600830078125,0.23849486084374844
1785512949.503166,-0.0878906175494194,-0.1357421875,0.9765624403953552,0.9898610519216499,0.2727508544921875,-0.2002716064453125,0.1468658447265625,0.3688784641608281
1785512949.511153,-0.1020507737994194,-0.130859375,0.9809569716453552,0.9948945254036113,-0.0934600830078125,-0.0782012939453125,0.2117156982421875,0.24428214501417284
1785512949.51914,-0.10498046875,-0.1279296875,0.9721679091453552,0.9861528012102734,0.1506805419921875,-0.0782012939453125,-0.0362396240234375,0.17358968419563606
1785512949.529845,-0.0820312425494194,-0.1279296875,0.9838866591453552,0.9955541611294976,0.2117156982421875,-0.3223419189453125,0.0896453857421875,0.3959345208192751
1785512949.540548,-0.0942382737994194,-0.13427734375,0.9809569716453552,0.9945792263630264,0.4558563232421875,-0.4444122314453125,-0.0934600830078125,0.6434609591994801
1785512949.551252,-0.10009765625,-0.123046875,0.9838866591453552,0.9965907044911754,0.514984130859375,-0.385284423828125,-0.3414154052734375,0.7281601618047926
1785512949.561899,-0.09130859375,-0.1220703125,0.9697265028953552,0.9816353248045353,0.7610321044921875,-0.2613067626953125,0.1468658447265625,0.8179368341414629
1785512949.572547,-0.07373046875,-0.1318359375,0.9638671278953552,0.9756314553538338,0.6389617919921875,-0.2002716064453125,0.0896453857421875,0.6755865474970022
1785512949.583195,-0.0771484300494194,-0.115234375,0.9628905653953552,0.9728253092760887,0.392913818359375,-0.019073486328125,-0.0934600830078125,0.40432641968375044
1785512949.59125,-0.09375,-0.1220703125,0.9663085341453552,0.9784898603746452,0.3337860107421875,0.4711151123046875,0.0286102294921875,0.5780839863208785
1785512949.599308,-0.0908203125,-0.12548828125,0.9780272841453552,0.9902186659654605,0.0286102294921875,0.5321502685546875,-0.5245208740234375,0.7477463479287161
1785512949.607366,-0.10498046875,-0.1337890625,0.9672850966453552,0.982120598631254,0.026702880859375,0.469207763671875,-0.4596710205078125,0.6573936540847088
1785512949.615424,-0.080078125,-0.134765625,0.9584960341453552,0.9712306251645539,-0.335693359375,0.102996826171875,-0.2765655517578125,0.44697525898986357
1785512949.626011,-0.083984375,-0.14111328125,0.9770507216453552,0.9907544832384013,-0.3376007080078125,0.0438690185546875,-0.0934600830078125,0.3530347234368809
1785512949.636599,-0.10546875,-0.150390625,0.9721679091453552,0.9893692136338712,-0.644683837890625,-0.202178955078125,0.0896453857421875,0.6815642859618847
1785512949.647185,-0.08984375,-0.13916015625,0.9819335341453552,0.9958066649610126,-0.461578369140625,-0.385284423828125,0.0896453857421875,0.607893883246044
1785512949.657842,-0.1025390550494194,-0.12646484375,0.9912108778953552,1.0044932149961097,-0.3986358642578125,0.0438690185546875,0.3299713134765625,0.51934199789635
1785512949.668502,-0.08984375,-0.14111328125,0.9721679091453552,0.9864559296447337,-0.2155303955078125,-0.1392364501953125,0.3299713134765625,0.4179966604749297
1785512949.67916,-0.09423828125,-0.12158203125,0.9819335341453552,0.993909708904696,-0.152587890625,-0.385284423828125,0.3299713134765625,0.5297246636955892
1785512949.687161,-0.1069335862994194,-0.1396484375,0.9672850966453552,0.9831464469585703,-0.0324249267578125,-0.2613067626953125,0.3948211669921875,0.47456965137967544
1785512949.695165,-0.09130859375,-0.1455078125,0.9824218153953552,0.9973276323033685,-0.0324249267578125,-0.1392364501953125,0.1468658447265625,0.20495790125166682
1785512949.70317,-0.1015624925494194,-0.1210937425494194,0.9721679091453552,0.9849310016186553,0.0896453857421875,-0.0171661376953125,0.3948211669921875,0.4052341611627934
1785512949.711173,-0.0981445237994194,-0.1337890625,0.9697265028953552,0.9838197757791307,0.026702880859375,-0.0762939453125,0.2117156982421875,0.22662159389544878
1785512949.721859,-0.0986328125,-0.1220703125,0.9804686903953552,0.9929493671588148,0.3337860107421875,-0.0171661376953125,0.2727508544921875,0.4313940262414126
1785512949.732546,-0.0908203125,-0.12744140625,0.9790038466453552,0.9914323844498814,0.7610321044921875,0.2269744873046875,0.2117156982421875,0.8218946519093615
1785512949.743232,-0.0917968675494194,-0.12353515625,0.9770507216453552,0.9890984341253943,0.514984130859375,0.102996826171875,0.3299713134765625,0.6202403316101858
1785512949.75122,-0.09130859375,-0.12646484375,0.9785155653953552,0.990869985274711,0.335693359375,0.102996826171875,0.0286102294921875,0.35230231756482666
1785512949.759208,-0.0888671875,-0.1279296875,0.9760741591453552,0.9884250837111126,0.4558563232421875,0.4100799560546875,0.2727508544921875,0.6710913398516767
1785512949.767196,-0.0830078050494194,-0.1157226487994194,0.9848632216453552,0.9951068246645404,0.3337860107421875,0.5321502685546875,0.1468658447265625,0.6451097469712084
1785512949.775184,-0.0986328125,-0.130859375,0.9765624403953552,0.9902155359910197,0.2727508544921875,0.5321502685546875,0.0896453857421875,0.6046596002164442
1785512949.783278,-0.09130859375,-0.1259765625,0.9726561903953552,0.9850215318998486,0.3337860107421875,0.0438690185546875,-0.0934600830078125,0.34938857862265965
1785512949.791372,-0.0917968675494194,-0.13916015625,0.9785155653953552,0.9926151951790793,0.4558563232421875,-0.3223419189453125,0.1468658447265625,0.5773031062591634
1785512949.799467,-0.0971679612994194,-0.1181640625,0.9819335341453552,0.9937795650187102,0.270843505859375,-0.568389892578125,0.3948211669921875,0.7431736193893339
1785512949.80756,-0.0834960862994194,-0.119140625,0.9643554091453552,0.975267881200143,0.0896453857421875,-0.3223419189453125,0.5168914794921875,0.6157251086855517
1785512949.818146,-0.08935546875,-0.12548828125,0.9882811903953552,1.0002156866475709,0.0896453857421875,-0.5054473876953125,0.2117156982421875,0.5552809143082968
1785512949.828732,-0.0888671875,-0.1259765625,0.9702147841453552,0.9823869902882951,0.1506805419921875,-0.0782012939453125,0.3299713134765625,0.37108103673891557
1785512949.839319,-0.0927734300494194,-0.1162109300494194,0.9746093153953552,0.9858880297688417,0.2727508544921875,0.2269744873046875,-0.5817413330078125,0.6814201530943672
1785512949.85008,-0.0878906175494194,-0.13525390625,0.9775390028953552,0.9907577312293593,0.209808349609375,0.164031982421875,-0.5245208740234375,0.5882586013900442
1785512949.860841,-0.0976562425494194,-0.130859375,0.9750975966453552,0.988673981005776,0.3948211669921875,0.0438690185546875,-0.5245208740234375,0.6579744614955318
1785512949.871601,-0.0830078125,-0.12255859375,0.9819335341453552,0.9930278804329716,0.2727508544921875,0.2269744873046875,-0.7038116455078125,0.7882012933672837
1785512949.879499,-0.1069335862994194,-0.1240234375,0.9809569716453552,0.9945316410993659,0.3337860107421875,-0.1392364501953125,-0.2155303955078125,0.4210145382500817
1785512949.887396,-0.0966796725988388,-0.12646484375,0.9824218153953552,0.9952351175291374,0.2117156982421875,-0.3223419189453125,-0.2765655517578125,0.47456965137967544
1785512949.895293,-0.08984375,-0.1220703125,0.9785155653953552,0.9901847162670719,0.1506805419921875,-0.7495880126953125,-0.5245208740234375,0.9272049189892589
1785512949.903191,-0.10400390625,-0.1279296875,0.9682616591453552,0.9821982783684884,0.0896453857421875,-0.6275177001953125,-0.1583099365234375,0.6533580911302274
1785512949.913888,-0.07666015625,-0.13037109375,0.9746093153953552,0.9862741603110409,0.1506805419921875,-0.3223419189453125,-0.2765655517578125,0.45066333649799944
1785512949.924584,-0.0966796800494194,-0.1337890625,0.9780272841453552,0.9918587814360602,-0.0324249267578125,-0.3833770751953125,-0.2155303955078125,0.44100193769224627
1785512949.935282,-0.0932617112994194,-0.13525390625,0.9770507216453552,0.9907671162377611,0.0286102294921875,-0.4444122314453125,-0.0362396240234375,0.4468043050812713
1785512949.945971,-0.0810546875,-0.1298828125,0.9726561903953552,0.9846316428304741,0.2727508544921875,-0.1392364501953125,-0.0362396240234375,0.3083717367700391
1785512949.95666,-0.08984375,-0.13134765625,0.9697265028953552,0.9826971031981757,0.392913818359375,-0.385284423828125,-0.2155303955078125,0.5909980603099034
1785512949.967349,-0.08349609375,-0.12744140625,0.9687499403953552,0.980657614417229,-0.030517578125,-0.568389892578125,0.0896453857421875,0.5762245115789969
1785512949.975316,-0.095703125,-0.1357421875,0.9716796278953552,0.9857719456694366,0.3337860107421875,-0.0171661376953125,-0.1583099365234375,0.36982403011785614
1785512949.983281,-0.07421875,-0.14306640625,0.9814452528953552,0.9945909731541305,0.026702880859375,-0.202178955078125,-0.2765655517578125,0.34362461806712236
1785512949.991247,-0.0976562425494194,-0.12841796875,0.9794921278953552,0.9926896519132845,0.2117156982421875,-0.1392364501953125,-0.1583099365234375,0.29878480876246627
1785512949.999213,-0.0932617112994194,-0.134765625,0.9755858778953552,0.9892559454584985,0.3948211669921875,-0.0782012939453125,-0.2155303955078125,0.45656603867080175
1785512950.009905,-0.095703125,-0.12890625,0.9658202528953552,0.9790733733110487,0.3948211669921875,0.1659393310546875,-0.0934600830078125,0.43835419766642725
1785512950.020597,-0.0961913913488388,-0.1259765625,0.9653319716453552,0.9782579892593011,0.3337860107421875,0.5321502685546875,-0.0362396240234375,0.6292140491433498
1785512950.031289,-0.0971679612994194,-0.125,0.9780272841453552,0.9907592953062943,0.3337860107421875,0.4711151123046875,-0.3414154052734375,0.6707660016481661
1785512950.039288,-0.0883788987994194,-0.1240234375,0.9760741591453552,0.9878832962215864,0.209808349609375,0.469207763671875,-0.2155303955078125,0.5573408476359201
1785512950.047288,-0.10009765625,-0.14013671875,0.9653319716453552,0.9805731263957159,-0.0324249267578125,0.5321502685546875,-0.2765655517578125,0.6006028543198731
1785512950.055288,-0.0927734300494194,-0.142578125,0.9707030653953552,0.9854947347498054,0.0896453857421875,0.4711151123046875,-0.2765655517578125,0.5536011638768719
1785512950.063288,-0.08544921875,-0.1279296875,0.9765624403953552,0.9886059750576893,-0.0934600830078125,0.0438690185546875,-0.1583099365234375,0.18900083043953414
1785512950.073909,-0.08837890625,-0.13671875,0.9799804091453552,0.9934105143294018,0.3948211669921875,-0.1392364501953125,0.0896453857421875,0.4281434784659579
1785512950.084528,-0.0932617112994194,-0.14306640625,0.9775390028953552,0.9923448219109281,0.026702880859375,-0.019073486328125,-0.1583099365234375,0.16167522299027132
1785512950.095148,-0.080078125,-0.12353515625,0.9677733778953552,0.9789069168701453,-0.1544952392578125,0.0438690185546875,-0.3414154052734375,0.3773032582688703
1785512950.105825,-0.10888671875,-0.12158203125,0.9775390028953552,0.9910706382618056,-0.1544952392578125,-0.3223419189453125,-0.0934600830078125,0.36946972647092796
1785512950.116502,-0.1035156175494194,-0.12841796875,0.9829100966453552,0.9966538596031699,0.087738037109375,-0.568389892578125,0.1468658447265625,0.5935778040729162
1785512950.127177,-0.09375,-0.12255859375,0.9687499403953552,0.9809618333136013,-0.0934600830078125,-0.5054473876953125,0.3948211669921875,0.648147824766014
1785512950.137847,-0.087890625,-0.1220703125,0.9833983778953552,0.9948358119830398,0.270843505859375,-0.568389892578125,0.0286102294921875,0.6302712272369455
1785512950.148518,-0.1010742038488388,-0.1328125,0.9643554091453552,0.9786912230054136,0.4558563232421875,-0.3223419189453125,0.4520416259765625,0.718366850407761
1785512950.159189,-0.08935546875,-0.14111328125,0.9755858778953552,0.9897803610344695,0.4558563232421875,-0.3833770751953125,0.5168914794921875,0.7886442612463623
1785512950.16718,-0.07373046875,-0.12744140625,0.9677733778953552,0.9789089870933142,0.2727508544921875,-0.2613067626953125,0.2117156982421875,0.43301014969478463
1785512950.175171,-0.06689453125,-0.13037109375,0.9750975966453552,0.9860460554052617,-0.0324249267578125,-0.2002716064453125,0.2117156982421875,0.29322965250058297
1785512950.183162,-0.08642578125,-0.134765625,0.9809569716453552,0.9939354956766258,0.4558563232421875,-0.2002716064453125,0.0896453857421875,0.5059150116105842
1785512950.191154,-0.08642578125,-0.11181640625,0.9716796278953552,0.9819030622409698,0.0896453857421875,-0.1392364501953125,-0.6427764892578125,0.6637655454981496
1785512950.201833,-0.083984375,-0.140625,0.9765624403953552,0.9902034971964462,0.026702880859375,0.469207763671875,-0.8869171142578125,1.0037384803321818
1785512950.212512,-0.09521484375,-0.11279296875,0.9833983778953552,0.994414646873723,0.3948211669921875,0.7152557373046875,-0.6427764892578125,1.0395365019059906
1785512950.223191,-0.10986328125,-0.11767578125,0.9750975966453552,0.9882979576237939,0.514984130859375,0.469207763671875,-0.0362396240234375,0.6976230292043892
1785512950.233882,-0.09423828125,-0.130859375,0.9584960341453552,0.9719669115513752,0.2727508544921875,-0.2613067626953125,0.8831024169921875,0.9604916094136201
1785512950.244576,-0.09326171875,-0.1328125,0.9658202528953552,0.979359826235129,-0.030517578125,-0.568389892578125,0.8831024169921875,1.0506513558060215
1785512950.255268,-0.07666015625,-0.1298828125,0.9804686903953552,0.9920005934397255,-0.0324249267578125,0.1049041748046875,0.2727508544921875,0.29402260184026735
1785512950.263258,-0.09033203125,-0.125,0.9604491591453552,0.9727525189752895,0.1506805419921875,0.3490447998046875,0.1468658447265625,0.40756162031403365
1785512950.271246,-0.09521484375,-0.140625,0.9853515028953552,0.9998794134061728,0.026702880859375,0.102996826171875,0.2727508544921875,0.2927702489562214
1785512950.279234,-0.1108398362994194,-0.12890625,0.9663085341453552,0.9811495674779099,0.3337860107421875,0.1659393310546875,0.1468658447265625,0.40064764931958313
1785512950.287223,-0.09814453125,-0.10693359375,0.9658202528953552,0.9766657070817119,0.2727508544921875,0.2269744873046875,0.2727508544921875,0.44755276240870484
1785512950.297872,-0.0981445237994194,-0.1206054612994194,0.9804686903953552,0.9927219538685762,0.026702880859375,-0.385284423828125,0.5168914794921875,0.6452394382416365
1785512950.308522,-0.08984375,-0.14013671875,0.9824218153953552,0.9964250211234082,0.026702880859375,-0.2593994140625,0.3299713134765625,0.4205736173128388
1785512950.319172,-0.0776367112994194,-0.123046875,0.9770507216453552,0.9878239241162183,-0.0324249267578125,-0.6275177001953125,0.0286102294921875,0.6290058705332242
1785512950.329833,-0.08740234375,-0.1318359375,0.9687499403953552,0.9815784895389168,-0.644683837890625,-0.7476806640625,-0.3986358642578125,1.0646850137589519
1785512950.340492,-0.08984375,-0.12548828125,0.9907225966453552,1.0026716669223563,-0.400543212890625,-0.385284423828125,-0.4596710205078125,0.7212325559290904
1785512950.351152,-0.107421875,-0.1220703125,0.9838866591453552,0.997232960980819,-0.0324249267578125,-0.3833770751953125,-0.6427764892578125,0.7491268068913036
1785512950.359164,-0.0971679612994194,-0.119140625,1.001953125,1.0136795183517036,0.2727508544921875,0.2269744873046875,0.3299713134765625,0.4845529013749604
1785512950.367177,-0.083984375,-0.1572265625,0.9775390028953552,0.9936579237249368,0.3337860107421875,-0.3223419189453125,0.7610321044921875,0.8913401582697471
1785512950.375189,-0.0883788987994194,-0.12451171875,0.9892577528953552,1.0009719773912977,0.6389617919921875,-0.2613067626953125,1.1234283447265625,1.3185767484645086
1785512950.3832,-0.1020507737994194,-0.1494140625,0.9677733778953552,0.9845426519297171,1.003265380859375,0.102996826171875,0.7610321044921875,1.263455434394183
1785512950.393849,-0.0825195237994194,-0.10400390625,0.9877929091453552,0.9966750301282689,0.6999969482421875,0.7152557373046875,1.2493133544921875,1.6007405645538473
1785512950.404498,-0.0791015625,-0.13818359375,0.9560546278953552,0.9692224792542384,0.881195068359375,0.591278076171875,0.8182525634765625,1.3400193168377696
1785512950.415148,-0.0922851487994194,-0.125,0.9819335341453552,0.9941503981632349,0.4558563232421875,1.0204315185546875,0.7610321044921875,1.3521299255498782
1785512950.425828,-0.0917968675494194,-0.14111328125,0.9643554091453552,0.978938699911763,-0.0324249267578125,0.9593963623046875,-0.0362396240234375,0.9606279541154717
1785512950.436512,-0.095703125,-0.1123046875,0.9809569716453552,0.9919919410906848,-0.095367431640625,-0.385284423828125,-0.1583099365234375,0.4273184646892226
1785512950.447196,-0.09033203125,-0.1455078125,0.9887694716453552,1.0034926344653063,-0.1544952392578125,-0.3223419189453125,-0.8869171142578125,0.9562400635959993
1785512950.455202,-0.10400390625,-0.12255859375,0.9843749403953552,0.9974123744447908,-0.3376007080078125,-0.2002716064453125,-1.3179779052734375,1.3751904279715303
1785512950.463209,-0.1030273362994194,-0.1206054612994194,0.9638671278953552,0.9768316894723679,-0.8869171142578125,-0.0171661376953125,-1.1920928955078125,1.4859347614774279
1785512950.471216,-0.08935546875,-0.13720703125,0.9951171278953552,1.0084980255065805,-0.7038116455078125,-0.9937286376953125,-1.1310577392578125,1.661968425471191
1785512950.479223,-0.1210937425494194,-0.1108398362994194,0.9584960341453552,0.9724524724982097,-1.1920928955078125,-0.9326934814453125,-0.9479522705078125,1.7859496378710389
1785512950.489963,-0.1030273362994194,-0.13525390625,0.9653319716453552,0.9801908317575442,-0.7648468017578125,-0.3223419189453125,-0.8296966552734375,1.1735806246868727
1785512950.500701,-0.0908203125,-0.1201171875,1.001953125,1.0132060662040934,-1.0700225830078125,-0.0171661376953125,-0.2155303955078125,1.0916484579835395
1785512950.51144,-0.0869140550494194,-0.1435546875,0.9868163466453552,1.0009837677379398,-0.7038116455078125,-0.8716583251953125,0.0286102294921875,1.1206951474269475
1785512950.522038,-0.07568359375,-0.1435546875,0.9770507216453552,0.9904363015024475,-0.278472900390625,-0.507354736328125,-0.0362396240234375,0.5798873123943206
1785512950.532634,-0.083984375,-0.12158203125,0.9750975966453552,0.9862306467305528,-0.0934600830078125,0.1659393310546875,-0.0934600830078125,0.21214484632564512
1785512950.543231,-0.083984375,-0.13818359375,0.9799804091453552,0.9932319382372394,-0.2155303955078125,0.1659393310546875,0.1468658447265625,0.30912584706859764
1785512950.553924,-0.09033203125,-0.1279296875,1.00048828125,1.0126710629479732,0.4558563232421875,0.1049041748046875,0.1468658447265625,0.49028506980998815
1785512950.564616,-0.1015624925494194,-0.14013671875,0.9770507216453552,0.9922607280864122,0.5779266357421875,0.3490447998046875,0.1468658447265625,0.6909421429600486
1785512950.575308,-0.0976562425494194,-0.1484375,0.9814452528953552,0.9973992267622573,1.2493133544921875,0.1659393310546875,0.0286102294921875,1.2606102746427996
1785512950.583377,-0.10498046875,-0.1318359375,0.9790038466453552,0.9934033143602229,0.759124755859375,0.591278076171875,0.4520416259765625,1.0631188973654846
1785512950.591447,-0.0922851487994194,-0.11962890625,0.9907225966453552,1.0021770738762774,0.6389617919921875,0.7762908935546875,1.1234283447265625,1.5076441784376269
1785512950.599517,-0.095703125,-0.10302734375,0.9584960341453552,0.9687560937446124,0.6389617919921875,-0.0782012939453125,0.9441375732421875,1.142708786702997
1785512950.607587,-0.0834960862994194,-0.1298828125,0.9667968153953552,0.9790491426219783,0.2727508544921875,0.2880096435546875,0.7610321044921875,0.8582030339462361
1785512950.61815,-0.0849609375,-0.12939453125,0.9921874403953552,1.0041898338942556,0.152587890625,0.591278076171875,0.5168914794921875,0.8000435171279892
1785512950.628713,-0.0922851487994194,-0.12451171875,0.9594725966453552,0.9719091421055728,0.2117156982421875,0.0438690185546875,0.0896453857421875,0.2340605110991474
1785512950.639276,-0.0874023362994194,-0.1171875,0.9814452528953552,0.9922735827268983,0.0896453857421875,-0.4444122314453125,0.1468658447265625,0.4765586039411253
1785512950.649921,-0.0947265625,-0.130859375,0.9643554091453552,0.9777927453281511,0.0286102294921875,-0.1392364501953125,0.3299713134765625,0.3592859613344714
1785512950.660567,-0.0942382737994194,-0.1240234375,0.9814452528953552,0.9937290625360811,0.0286102294921875,-0.1392364501953125,-0.0362396240234375,0.14669234691676142
1785512950.671211,-0.09130859375,-0.11962890625,0.9843749403953552,0.9958124109396975,-0.3376007080078125,-0.2002716064453125,-0.2155303955078125,0.4478128021654992
1785512950.679234,-0.0976562425494194,-0.13525390625,0.9790038466453552,0.9931157498555528,-0.3376007080078125,0.4100799560546875,-0.5817413330078125,0.7877580764009324
1785512950.687254,-0.0908203125,-0.12939453125,0.9838866591453552,0.9965060119859857,-0.095367431640625,0.102996826171875,-0.4596710205078125,0.4806253637854566
1785512950.695276,-0.08837890625,-0.13134765625,0.9565429091453552,0.969555245929067,0.1506805419921875,0.1659393310546875,-0.3414154052734375,0.4084176370872861
1785512950.703296,-0.0981445237994194,-0.13818359375,0.9765624403953552,0.9911615676187265,-0.2765655517578125,0.3490447998046875,-0.3986358642578125,0.5976883209184958
1785512950.713953,-0.0922851487994194,-0.1181640625,0.9736327528953552,0.9851091471842207,0.026702880859375,-0.2593994140625,0.0896453857421875,0.27574878974716077
1785512950.724608,-0.10009765625,-0.13330078125,0.9692382216453552,0.9834690485047581,0.026702880859375,-0.385284423828125,0.3299713134765625,0.5079746044914136
1785512950.735265,-0.1079101487994194,-0.11865234375,0.9868163466453552,0.9997647127688428,0.3337860107421875,-0.0782012939453125,0.4520416259765625,0.5673360335440005
1785512950.745908,-0.1210937425494194,-0.12890625,0.9877929091453552,1.0035015431635028,0.335693359375,0.102996826171875,0.7610321044921875,0.8381337851427778
1785512950.756553,-0.0859375,-0.13427734375,0.9560546278953552,0.96925544129034,0.2727508544921875,-0.5054473876953125,1.3065338134765625,1.4272002999270434
1785512950.767199,-0.0859375,-0.1513671875,0.9853515028953552,1.0006072474333,0.2117156982421875,-0.9326934814453125,1.0051727294921875,1.3874843722822714
1785512950.775215,-0.0810546875,-0.103515625,0.9863280653953552,0.9950519582270101,0.3337860107421875,-0.3223419189453125,0.5168914794921875,0.6946180355045157
1785512950.783234,-0.08544921875,-0.15185546875,0.9589843153953552,0.9746858825019298,-0.0324249267578125,-0.5054473876953125,0.6351470947265625,0.8123670780766894
1785512950.791254,-0.0781249925494194,-0.1279296875,1.00830078125,1.0193821584048128,0.3337860107421875,-0.6275177001953125,-0.1583099365234375,0.7281851419986902
1785512950.799273,-0.07568359375,-0.14501953125,0.9536132216453552,0.9675416514567826,-0.1544952392578125,-0.5054473876953125,-0.1583099365234375,0.5517317071579257
1785512950.807255,-0.0917968675494194,-0.11328125,0.9936522841453552,1.0042928697749127,-0.3376007080078125,-0.5054473876953125,-0.8296966552734375,1.0285173015303735
1785512950.815238,-0.07568359375,-0.12939453125,0.9794921278953552,0.9908964525566196,-0.152587890625,-0.385284423828125,-1.1310577392578125,1.204582401143629
1785512950.823221,-0.09521484375,-0.14111328125,0.9809569716453552,0.9956181019020821,0.0286102294921875,0.0438690185546875,-1.0700225830078125,1.0713035817018715
1785512950.831204,-0.09912109375,-0.1357421875,0.9794921278953552,0.9938087146440467,-0.0934600830078125,0.0438690185546875,-0.7038116455078125,0.7113438762351114
1785512950.841869,-0.0991210862994194,-0.115234375,0.9863280653953552,0.997971444239444,-0.0934600830078125,-0.1392364501953125,-0.5817413330078125,0.6054292317922265
1785512950.852535,-0.08447265625,-0.1376953125,0.9736327528953552,0.9869429397128241,0.026702880859375,0.286102294921875,-0.5245208740234375,0.5980716631742924
1785512950.863199,-0.1074218675494194,-0.1142578125,0.9843749403953552,0.9967890090803817,0.026702880859375,0.652313232421875,-0.6427764892578125,0.9161807748372937
1785512950.873864,-0.09130859375,-0.1328125,0.9702147841453552,0.9835106236452511,-0.0324249267578125,0.6542205810546875,-0.2765655517578125,0.7110164899423119
1785512950.884531,-0.0976562425494194,-0.1201171875,0.9707030653953552,0.9829696442971779,-0.2155303955078125,0.3490447998046875,0.2117156982421875,0.4616374774004223
1785512950.895196,-0.095703125,-0.1484375,0.9794921278953552,0.9952877011949793,-0.2155303955078125,0.1049041748046875,0.0896453857421875,0.25591899590314143
1785512950.905944,-0.10986328125,-0.1142578125,1.00439453125,1.0168250403531618,0.0896453857421875,0.4711151123046875,0.0896453857421875,0.4878750243777493
1785512950.916693,-0.1015624925494194,-0.1337890625,0.9448241591453552,0.9596390700894828,0.209808349609375,0.4119873046875,0.2117156982421875,0.508504296610813
1785512950.927443,-0.10888671875,-0.13671875,0.9907225966453552,1.006021668566547,-0.1544952392578125,-0.1392364501953125,0.2117156982421875,0.2967812408129892
1785512950.935398,-0.08935546875,-0.130859375,0.9882811903953552,1.000903735186448,0.1506805419921875,-0.2002716064453125,0.4520416259765625,0.5168703645004035
1785512950.943357,-0.09033203125,-0.1259765625,0.9682616591453552,0.9805919695469586,0.576019287109375,-0.385284423828125,0.3948211669921875,0.7975751126205203
1785512950.951314,-0.0874023362994194,-0.13134765625,0.9614257216453552,0.9742847599312313,0.2727508544921875,-0.6275177001953125,0.2727508544921875,0.7365897917503683
1785512950.959272,-0.0917968675494194,-0.1298828125,0.9648436903953552,0.9778647947290688,0.5168914794921875,-0.4444122314453125,-0.3414154052734375,0.7623932790809806
1785512950.969902,-0.08056640625,-0.1181640625,0.9853515028953552,0.9956762906390205,0.0896453857421875,0.1659393310546875,-0.2765655517578125,0.33475462833969305
1785512950.980532,-0.0839843675494194,-0.134765625,0.9780272841453552,0.9908342526412054,0.335693359375,-0.385284423828125,-0.1583099365234375,0.5349730411666536
1785512950.991162,-0.0971679612994194,-0.134765625,0.9677733778953552,0.9819311062125041,0.2117156982421875,-0.6275177001953125,-0.7038116455078125,0.9664123515834252
1785512950.999171,-0.0971679612994194,-0.11962890625,0.9741210341453552,0.9862375358290076,0.087738037109375,0.102996826171875,-0.3414154052734375,0.3672475844921394
1785512951.00718,-0.0737304612994194,-0.12841796875,0.9628905653953552,0.9742102424778175,-0.3986358642578125,-0.6275177001953125,-0.1583099365234375,0.7600993700385773
1785512951.015189,-0.09033203125,-0.13525390625,0.9970702528953552,1.010248773438722,-0.0324249267578125,-0.9326934814453125,-1.1920928955078125,1.5139530962767729
1785512951.023198,-0.0703125,-0.13330078125,0.9599608778953552,0.9717190092962736,-0.152587890625,0.102996826171875,-1.0128021240234375,1.0293976651388193
1785512951.03387,-0.0830078050494194,-0.1279296875,0.9726561903953552,0.9845386561011079,-0.1544952392578125,0.4711151123046875,-1.2531280517578125,1.3476454066621226
1785512951.044543,-0.109375,-0.12890625,0.9711913466453552,0.9857952848907734,0.1506805419921875,0.4711151123046875,-0.7648468017578125,0.9108483435435738
1785512951.055214,-0.0986328125,-0.1279296875,0.9814452528953552,0.9946503008979264,0.2727508544921875,0.2880096435546875,0.0286102294921875,0.3976947681807145
1785512951.063217,-0.0961913913488388,-0.1220703125,0.9799804091453552,0.9922275682887323,0.698089599609375,0.102996826171875,0.3299713134765625,0.778985560201025
1785512951.07122,-0.095703125,-0.13427734375,0.9721679091453552,0.9860527048547522,0.4558563232421875,0.3490447998046875,0.1468658447265625,0.5926270632175238
1785512951.079223,-0.09521484375,-0.130859375,0.9785155653953552,0.99180782121171,0.392913818359375,0.102996826171875,0.7610321044921875,0.862646786887328
1785512951.087226,-0.0986328125,-0.13720703125,0.9741210341453552,0.9886687970652837,0.2117156982421875,0.3490447998046875,0.8831024169921875,0.9728955175404576
1785512951.097884,-0.09521484375,-0.1259765625,0.9760741591453552,0.9887652526868881,-0.0934600830078125,0.3490447998046875,1.2493133544921875,1.300519479707645
1785512951.108542,-0.0908203125,-0.13525390625,0.9687499403953552,0.9823534981535342,-0.1544952392578125,0.1659393310546875,1.1234283447265625,1.1460784817277
1785512951.1192,-0.07958984375,-0.11376953125,0.9882811903953552,0.9979868540007201,-0.0324249267578125,-0.3223419189453125,0.6999969482421875,0.7713309381406735
1785512951.12984,-0.0820312425494194,-0.1279296875,0.9780272841453552,0.9897638598326314,0.3337860107421875,-0.0171661376953125,-0.0362396240234375,0.3361860907294028
1785512951.140482,-0.08349609375,-0.12109375,0.9687499403953552,0.9798529180323828,0.1506805419921875,-0.2002716064453125,-0.1583099365234375,0.29643781487067455
1785512951.151124,-0.08984375,-0.12060546875,0.9790038466453552,0.9904878142879254,-0.0324249267578125,-0.5054473876953125,-0.4596710205078125,0.6839779855360543
1785512951.159139,-0.0927734300494194,-0.13818359375,0.9521483778953552,0.9665858205216729,-0.0324249267578125,0.0438690185546875,-0.9479522705078125,0.9495206021067252
1785512951.167155,-0.095703125,-0.1279296875,0.9873046278953552,1.0001477497561044,-0.1544952392578125,0.1659393310546875,-0.6427764892578125,0.6815909738888893
1785512951.175169,-0.1118163987994194,-0.12451171875,0.9702147841453552,0.9845419252224702,-0.2765655517578125,-0.6275177001953125,-0.2765655517578125,0.7394291533991749
1785512951.183184,-0.0888671800494194,-0.14013671875,0.9907225966453552,1.0045232397190558,-0.0324249267578125,-0.6275177001953125,-0.7038116455078125,0.9434938644665785
1785512951.193859,-0.0751953125,-0.1162109375,0.9687499403953552,0.9785886592601643,-0.030517578125,-0.568389892578125,-0.7038116455078125,0.9051791120612553
1785512951.204535,-0.07568359375,-0.1328125,0.9956054091453552,1.007272206128341,0.0896453857421875,-0.0782012939453125,-0.8869171142578125,0.8948596007882982
1785512951.215209,-0.1035156175494194,-0.13427734375,0.9609374403953552,0.9757800225843785,0.2727508544921875,0.4711151123046875,-0.8869171142578125,1.040655776532991
1785512951.223187,-0.10498046875,-0.13671875,0.9692382216453552,0.984446872979331,0.2727508544921875,0.2269744873046875,-0.5245208740234375,0.6332713429484671
1785512951.231166,-0.09423828125,-0.14794921875,0.9907225966453552,1.006131745093755,0.5779266357421875,-0.0782012939453125,0.0286102294921875,0.5838948397670594
1785512951.239146,-0.1108398288488388,-0.130859375,0.9628905653953552,0.9780428848532243,0.6999969482421875,-0.4444122314453125,-0.0362396240234375,0.829946546083504
1785512951.247124,-0.10986328125,-0.12548828125,0.9956054091453552,1.009478766501597,1.1272430419921875,0.4711151123046875,0.4520416259765625,1.3026772264752284
1785512951.257817,-0.1025390550494194,-0.11865234375,0.9760741591453552,0.9885916248072852,1.003265380859375,0.9002685546875,1.3713836669921875,1.9229451518654832
1785512951.268511,-0.0888671875,-0.12109375,0.9672850966453552,0.9788776897526252,0.7610321044921875,0.6542205810546875,1.4324188232421875,1.7489991760781003
1785512951.279203,-0.0810546875,-0.14306640625,0.9780272841453552,0.991753612292767,0.2727508544921875,0.3490447998046875,1.3065338134765625,1.3795854111487704
1785512951.289963,-0.0966796800494194,-0.13037109375,0.9858397841453552,0.9991114365393832,0.2727508544921875,0.7152557373046875,0.3948211669921875,0.8613173354104533
1785512951.300724,-0.099609375,-0.13232421875,0.9614257216453552,0.975587589454161,0.026702880859375,0.652313232421875,0.0286102294921875,0.6534861454311489
1785512951.311484,-0.0927734375,-0.126953125,0.9843749403953552,0.9968540665168554,0.1506805419921875,0.5321502685546875,-0.0362396240234375,0.5542579222773866
1785512951.322054,-0.08935546875,-0.138671875,0.9799804091453552,0.9937685299003213,0.0896453857421875,-0.2002716064453125,-0.3986358642578125,0.4550335853600532
1785512951.332625,-0.0869140550494194,-0.1279296875,0.9658202528953552,0.9781251549836703,-0.278472900390625,-0.019073486328125,-0.1583099365234375,0.320894048144759
1785512951.343196,-0.0820312350988388,-0.13671875,0.9853515028953552,0.9981676835038984,-0.2155303955078125,-0.4444122314453125,-0.5817413330078125,0.7631373148887838
1785512951.351198,-0.0722656175494194,-0.1298828125,0.9814452528953552,0.9926362117581329,-1.0089874267578125,-1.1157989501953125,-1.0700225830078125,1.8460799692210044
1785512951.3592,-0.095703125,-0.13525390625,0.9877929091453552,1.001592501294061,-0.823974609375,-0.873565673828125,-1.3179779052734375,1.7830078244849146
1785512951.367202,-0.09423828125,-0.12841796875,0.9638671278953552,0.9769400537331199,-0.823974609375,-0.873565673828125,-1.5583038330078125,1.9673235573622123
1785512951.375204,-0.08984375,-0.13037109375,0.9780272841453552,0.9907602586056695,-1.071929931640625,-1.056671142578125,-1.1920928955078125,1.9200711323866717
1785512951.384837,-0.0961913913488388,-0.13134765625,0.9794921278953552,0.9929299165504908,-0.949859619140625,-0.385284423828125,-1.3179779052734375,1.6696535994353743
1785512951.394468,-0.0908203125,-0.12353515625,0.9843749403953552,0.9962445920910531,-0.7038116455078125,-0.2002716064453125,-1.1920928955078125,1.3987655343983856
1785512951.404099,-0.0878906175494194,-0.13037109375,0.9863280653953552,0.9987814752613976,-0.1544952392578125,-0.0171661376953125,-0.8296966552734375,0.844132688034667
1785512951.41373,-0.0966796800494194,-0.130859375,0.9780272841453552,0.9914678537867923,0.087738037109375,0.286102294921875,-0.5245208740234375,0.6038829634968024
1785512951.423362,-0.0908203125,-0.1396484375,0.9760741591453552,0.9901872446209865,0.2727508544921875,0.3490447998046875,-0.1583099365234375,0.47041188005721923
1785512951.433979,-0.0961913987994194,-0.115234375,0.9741210341453552,0.9856183518731,0.3948211669921875,0.5321502685546875,0.2727508544921875,0.7165617146164852
1785512951.444597,-0.10986328125,-0.12841796875,0.9726561903953552,0.9872290412965464,0.3337860107421875,0.7152557373046875,0.6999969482421875,1.0549879611933168
1785512951.455215,-0.0859375,-0.1240234375,0.9858397841453552,0.9973199822320452,1.1272430419921875,0.9593963623046875,1.0662078857421875,1.8242580714751115
1785512951.463192,-0.0820312425494194,-0.12646484375,0.9775390028953552,0.9890930106115192,0.6389617919921875,1.0204315185546875,1.7375946044921875,2.1139507244129545
1785512951.471169,-0.09130859375,-0.1220703125,0.9682616591453552,0.9801882783717454,0.4558563232421875,1.0204315185546875,1.6117095947265625,1.9612988780992486
1785512951.479144,-0.0986328125,-0.13623046875,0.9750975966453552,0.9894960814985841,-0.0934600830078125,0.7152557373046875,1.3713836669921875,1.5495220937295597
1785512951.48712,-0.08984375,-0.1181640625,0.9697265028953552,0.9810219852267439,0.0896453857421875,0.0438690185546875,1.0051727294921875,1.0101153409826975
1785512951.4978,-0.09521484375,-0.12890625,0.9741210341453552,0.9872155169585898,0.0896453857421875,0.0438690185546875,1.1234283447265625,1.1278528413356421
1785512951.508481,-0.0771484300494194,-0.119140625,0.9658202528953552,0.9761942069523506,-0.0324249267578125,-0.3223419189453125,0.8182525634765625,0.8800528087680658
1785512951.51916,-0.0903320237994194,-0.115234375,0.9863280653953552,0.9971368453185769,0.2117156982421875,-0.8106231689453125,0.0896453857421875,0.8425970294856155
1785512951.529814,-0.0883788987994194,-0.1201171875,0.9799804091453552,0.9912621100367984,-0.0934600830078125,-0.8106231689453125,-0.1583099365234375,0.8312080035399219
1785512951.540468,-0.080078125,-0.11962890625,0.9824218153953552,0.9929129894803433,0.2727508544921875,-0.6275177001953125,-0.3986358642578125,0.7918851210606281
1785512951.551121,-0.0869140550494194,-0.13427734375,0.9682616591453552,0.981384276713564,-0.278472900390625,-0.0762939453125,-1.1920928955078125,1.2265616143771638
1785512951.561808,-0.0849609375,-0.12548828125,0.9726561903953552,0.9843910474736975,0.0896453857421875,-0.0171661376953125,-1.9893646240234375,1.991457400695318
1785512951.572496,-0.0917968600988388,-0.14208984375,0.9731444716453552,0.9877379965936426,0.209808349609375,-0.019073486328125,-1.6803741455078125,1.6935290402994658
1785512951.583184,-0.103515625,-0.1318359375,0.9790038466453552,0.9932495813148107,0.026702880859375,0.102996826171875,-1.1920928955078125,1.1968320105878978
1785512951.591191,-0.09326171875,-0.12158203125,0.9770507216453552,0.9889934535550726,-0.0934600830078125,0.0438690185546875,-0.7648468017578125,0.7717835888796375
1785512951.599201,-0.1015624925494194,-0.13037109375,0.9614257216453552,0.9755260018163094,0.209808349609375,-0.0762939453125,-0.1583099365234375,0.27368292906063996
1785512951.607212,-0.1015624925494194,-0.1162109300494194,0.9809569716453552,0.9930239173229556,0.026702880859375,-0.202178955078125,0.5779266357421875,0.6128528126907435
1785512951.615222,-0.0981445237994194,-0.123046875,0.9702147841453552,0.9828985748149697,-0.0934600830078125,0.1659393310546875,0.3948211669921875,0.43835419766642725
1785512951.625862,-0.10986328125,-0.13037109375,0.9741210341453552,0.9889278799877189,0.0286102294921875,0.0438690185546875,0.9441375732421875,0.9455891249523728
1785512951.636503,-0.10546875,-0.12890625,0.9770507216453552,0.9911450908839403,0.152587890625,0.102996826171875,1.0662078857421875,1.08198459609446
1785512951.647145,-0.095703125,-0.13037109375,0.9843749403953552,0.9975719189605811,0.4558563232421875,-0.0782012939453125,1.0662078857421875,1.1622046658972904
1785512951.655163,-0.0810546875,-0.1220703125,0.9707030653953552,0.9817002927204971,0.209808349609375,-0.385284423828125,0.9441375732421875,1.0410856775587813
1785512951.663182,-0.08447265625,-0.12646484375,0.9711913466453552,0.9830267637035429,-0.095367431640625,-0.202178955078125,0.5779266357421875,0.619653510596442
1785512951.671201,-0.0874023362994194,-0.1206054612994194,0.9780272841453552,0.9893039038731132,0.087738037109375,-0.385284423828125,0.6999969482421875,0.8038269577146265
1785512951.67922,-0.0771484300494194,-0.13623046875,0.9741210341453552,0.9866217157752768,0.1506805419921875,-0.6275177001953125,0.3299713134765625,0.7248200863048163
1785512951.689858,-0.0874023362994194,-0.13427734375,0.9858397841453552,0.9987740752737393,0.1773834228515625,-0.2765655517578125,0.0286102294921875,0.32980589496434887
1785512951.700496,-0.080078125,-0.12548828125,0.9848632216453552,0.9960498884013104,-0.0667572021484375,-0.2155303955078125,-0.2765655517578125,0.35692909638406434
1785512951.711134,-0.0820312425494194,-0.12646484375,0.9765624403953552,0.9881278669533844,-0.1277923583984375,-0.0934600830078125,-0.7038116455078125,0.7213989924676057
1785512951.72183,-0.078125,-0.13232421875,0.9692382216453552,0.9813439482623045,-0.3719329833984375,-0.0934600830078125,-0.7648468017578125,0.8556047927721326
1785512951.732528,-0.0771484300494194,-0.1210937425494194,0.9794921278953552,0.9899597988568456,-0.12969970703125,0.209808349609375,-1.2531280517578125,1.2771732347932025
1785512951.743226,-0.09130859375,-0.1279296875,0.9755858778953552,0.9881655070813296,0.0553131103515625,0.2117156982421875,-0.8869171142578125,0.913512476445914
1785512951.753887,-0.08984375,-0.13134765625,0.9653319716453552,0.9783608340981049,-0.1277923583984375,0.3948211669921875,-0.7038116455078125,0.8170467998361675
1785512951.764548,-0.103515625,-0.1328125,0.9755858778953552,0.990011338280649,-0.12969970703125,0.514984130859375,-0.7038116455078125,0.8816924074717853
1785512951.775209,-0.1005859375,-0.1357421875,0.9755858778953552,0.9901067000272697,-0.0667572021484375,0.5168914794921875,-0.7038116455078125,0.8757763173109471
1785512951.783262,-0.08544921875,-0.13330078125,0.9829100966453552,0.9955817019984986,-0.3719329833984375,0.5168914794921875,-0.3986358642578125,0.751279906548723
1785512951.791314,-0.1059570163488388,-0.12158203125,0.9794921278953552,0.9926801641240722,-0.1888275146484375,0.3948211669921875,-0.2155303955078125,0.48784519632884854
1785512951.799366,-0.0981445237994194,-0.1396484375,0.9750975966453552,0.98992391456695,-0.0667572021484375,0.5168914794921875,0.0286102294921875,0.5219692240371127
1785512951.807418,-0.1044921875,-0.1279296875,0.9726561903953552,0.9865823264719413,-0.0057220458984375,0.3337860107421875,0.3299713134765625,0.46938993437641524
1785512951.818277,-0.09033203125,-0.12744140625,0.9804686903953552,0.9928343470802727,-0.1888275146484375,0.0286102294921875,0.8182525634765625,0.840244984011132
1785512951.829136,-0.10009765625,-0.1279296875,0.9648436903953552,0.9784216333597284,-0.0057220458984375,-0.0934600830078125,0.6999969482421875,0.7062317300103889
1785512951.839995,-0.09375,-0.1259765625,0.9711913466453552,0.9838047512581625,-0.1888275146484375,0.1506805419921875,0.3948211669921875,0.46286521788576646
1785512951.84799,-0.09130859375,-0.1376953125,0.9770507216453552,0.9909214757208488,-0.0667572021484375,-0.2155303955078125,0.5168914794921875,0.563991734866801
1785512951.855985,-0.0786132737994194,-0.115234375,0.9682616591453552,0.978258477382138,-0.0057220458984375,-0.1544952392578125,0.2727508544921875,0.31351961563642394
1785512951.863981,-0.09521484375,-0.1328125,0.9711913466453552,0.9848439766914379,-0.1277923583984375,-0.3986358642578125,-0.1583099365234375,0.44755276240870484
1785512951.871978,-0.0966796800494194,-0.119140625,0.9804686903953552,0.9924012806851025,-0.12969970703125,-0.278472900390625,-0.0934600830078125,0.32109804946742704
1785512951.882479,-0.0771484300494194,-0.1206054612994194,0.9692382216453552,0.9797552183339401,0.0553131103515625,-0.2155303955078125,-0.2765655517578125,0.3549667533496926
1785512951.892982,-0.0830078050494194,-0.142578125,0.9716796278953552,0.985586179232691,-0.0667572021484375,-0.2765655517578125,-0.4596710205078125,0.5405945574573281
1785512951.903483,-0.080078125,-0.1357421875,0.9716796278953552,0.9843778475959609,0.0553131103515625,-0.2765655517578125,-0.5245208740234375,0.5955419312543645
1785512951.914113,-0.0874023362994194,-0.1298828125,0.9682616591453552,0.980836048452759,-0.3719329833984375,0.1506805419921875,-0.5817413330078125,0.7067260773485214
1785512951.924741,-0.0791015625,-0.12109375,0.9707030653953552,0.9814199889175598,-0.1888275146484375,0.0896453857421875,-0.4596710205078125,0.5049649221162449
1785512951.93537,-0.0986328050494194,-0.1298828125,0.9750975966453552,0.9886421487061812,-0.0667572021484375,0.2727508544921875,-0.3414154052734375,0.44205659323544916
1785512951.943316,-0.0908203125,-0.13232421875,0.9731444716453552,0.9862901148872542,0.0553131103515625,0.2727508544921875,0.0286102294921875,0.2797697518220621
1785512951.951259,-0.1010742038488388,-0.13134765625,0.9760741591453552,0.9900449311204805,0.1773834228515625,0.5779266357421875,-0.0362396240234375,0.6056214868646748
1785512951.959203,-0.0917968675494194,-0.1240234375,0.9799804091453552,0.9920534664270368,0.1773834228515625,0.5779266357421875,-0.2155303955078125,0.6418079357491409
1785512951.967148,-0.1020507737994194,-0.123046875,0.9765624403953552,0.9895600506645655,-0.0057220458984375,0.2727508544921875,-0.0362396240234375,0.2752073414443052
1785512951.977831,-0.0917968675494194,-0.13427734375,0.9707030653953552,0.9842365117716273,0.0553131103515625,0.3948211669921875,-0.2155303955078125,0.4532070668795788
1785512951.988515,-0.0922851487994194,-0.1318359375,0.9770507216453552,0.9902148129437088,-0.1888275146484375,0.3337860107421875,0.0896453857421875,0.39383400874017366
1785512951.999199,-0.0947265625,-0.130859375,0.9633788466453552,0.9768296165822328,-0.2498626708984375,0.5168914794921875,0.0286102294921875,0.5748275403211984
1785512952.009866,-0.0874023362994194,-0.1215820237994194,0.9829100966453552,0.994250277842124,-0.3719329833984375,0.1506805419921875,0.2727508544921875,0.48521314749390315
1785512952.020532,-0.09521484375,-0.13427734375,0.9760741591453552,0.9898570784038496,-0.1888275146484375,0.0896453857421875,0.4520416259765625,0.4980298756989443
1785512952.031199,-0.0917968675494194,-0.1240234375,0.9814452528953552,0.9935005094976196,-0.0057220458984375,-0.2155303955078125,0.2727508544921875,0.3476767490403066
1785512952.041875,-0.0810546875,-0.12841796875,0.9687499403953552,0.9805801772826142,-0.6771087646484375,-0.0934600830078125,0.4520416259765625,0.8194831895134242
1785512952.052552,-0.0849609375,-0.12744140625,0.9755858778953552,0.9875360641904211,-0.74005126953125,-0.156402587890625,0.2727508544921875,0.8040713150336343
1785512952.063227,-0.08544921875,-0.12841796875,0.9770507216453552,0.989151584111642,-0.3108978271484375,-0.2765655517578125,0.0286102294921875,0.41709052803476443
1785512952.071229,-0.0947265625,-0.1337890625,0.9804686903953552,0.9940782100686436,-0.25177001953125,-0.156402587890625,-0.2155303955078125,0.36647409679458215
1785512952.079232,-0.0786132737994194,-0.13330078125,0.9731444716453552,0.9853726745720324,-0.12969970703125,-0.339508056640625,-0.0934600830078125,0.37526326977698354
1785512952.087234,-0.0922851487994194,-0.12890625,0.9760741591453552,0.9888650737736193,-0.1888275146484375,-0.5817413330078125,-0.0362396240234375,0.6126925160040496
1785512952.095235,-0.0869140550494194,-0.14892578125,0.9755858778953552,0.9907071951060552,0.05340576171875,-0.644683837890625,-0.0362396240234375,0.6479064257834658
1785512952.105942,-0.0859375,-0.13330078125,0.9814452528953552,0.9941776182448175,0.4825592041015625,-0.5817413330078125,0.0896453857421875,0.7611324846422636
1785512952.116647,-0.0781249925494194,-0.115234375,0.9760741591453552,0.9859529602338033,0.4215240478515625,0.0286102294921875,0.0896453857421875,0.4318997144403173
1785512952.127353,-0.08935546875,-0.12060546875,0.9755858778953552,0.9870652886394042,0.78582763671875,-0.034332275390625,-0.5817413330078125,0.9783285533470747
1785512952.137969,-0.0859375,-0.1328125,0.9687499403953552,0.9815807970200437,0.4215240478515625,0.5168914794921875,-0.7038116455078125,0.9696443455418092
1785512952.148583,-0.0927734300494194,-0.1376953125,0.9711913466453552,0.9852814522797156,-0.0057220458984375,1.1882781982421875,-0.7648468017578125,1.4131625696946966
1785512952.159197,-0.0883788987994194,-0.11865234375,0.9794921278953552,0.9906028654508007,-0.308990478515625,0.637054443359375,-0.9479522705078125,1.1831851025000928
1785512952.167201,-0.1059570237994194,-0.119140625,0.9848632216453552,0.9976857946104521,-0.3719329833984375,0.5168914794921875,-0.5245208740234375,0.8250049048324475
1785512952.175203,-0.09423828125,-0.13671875,0.9790038466453552,0.9929861036293101,-0.6771087646484375,0.5168914794921875,-0.1583099365234375,0.8664381782547503
1785512952.183206,-0.10498046875,-0.12451171875,0.9711913466453552,0.9847521001368148,-0.980377197265625,0.148773193359375,-0.2155303955078125,1.014754287189023
1785512952.19121,-0.0874023362994194,-0.123046875,0.9775390028953552,0.9891219358701473,-0.9822845458984375,0.0286102294921875,-0.1583099365234375,0.9953710415440817
1785512952.201875,-0.0893554612994194,-0.134765625,0.9648436903953552,0.9782992993156034,-1.2264251708984375,0.0286102294921875,-0.0362396240234375,1.2272939971311754
1785512952.212541,-0.1005859375,-0.12451171875,0.9589843153953552,0.9722507989727399,-1.5926361083984375,0.3948211669921875,0.0286102294921875,1.6410947787715333
1785512952.223207,-0.0917968600988388,-0.126953125,0.9765624403953552,0.9890490177247047,-1.468658447265625,-0.034332275390625,0.0286102294921875,1.4693382473378178
1785512952.231211,-0.1025390550494194,-0.12646484375,0.9750975966453552,0.988596448253122,-1.28936767578125,0.026702880859375,0.2727508544921875,1.3181711102212608
1785512952.239218,-0.09521484375,-0.13916015625,0.9824218153953552,0.996786857318337,-0.7991790771484375,-0.2155303955078125,0.1468658447265625,0.8406605290406045
1785512952.247223,-0.08447265625,-0.13037109375,0.9799804091453552,0.9922166366515932,-0.7991790771484375,-0.5817413330078125,0.2117156982421875,1.0109073710106737
1785512952.265915,-0.0874023362994194,-0.14111328125,0.9702147841453552,0.9843113602463179,-0.3719329833984375,-0.1544952392578125,0.2727508544921875,0.4864112989222285
1785512952.276603,-0.08642578125,-0.1396484375,0.9760741591453552,0.9897938502093133,-0.12969970703125,-0.213623046875,0.1468658447265625,0.2898730696484192
1785512952.287291,-0.09423828125,-0.1416015625,0.9721679091453552,0.9869358133776721,0.2994537353515625,-0.3376007080078125,-0.0362396240234375,0.45272517934475437
1785512952.295261,-0.0771484300494194,-0.14208984375,0.9887694716453552,1.0019014282921372,0.5435943603515625,0.0896453857421875,-0.0934600830078125,0.5588075795000612
1785512952.303231,-0.08447265625,-0.12744140625,0.9824218153953552,0.9942482411579181,0.84686279296875,0.026702880859375,-0.2765655517578125,0.8912789341054377
1785512952.311202,-0.08056640625,-0.12939453125,0.9755858778953552,0.9874217415483103,0.7877349853515625,0.2117156982421875,-0.0362396240234375,0.8164944913337526
1785512952.319171,-0.076171875,-0.1279296875,0.9853515028953552,0.9965368752549996,0.9708404541015625,0.6999969482421875,-0.3414154052734375,1.2446250012861422
1785512952.329842,-0.08984375,-0.13134765625,0.9829100966453552,0.9957089757071652,0.2994537353515625,0.7610321044921875,-0.6427764892578125,1.0401942216847824
1785512952.340513,-0.0966796800494194,-0.1142578125,0.9721679091453552,0.9836220065776258,-0.1888275146484375,0.8220672607421875,-0.2765655517578125,0.8876592341048297
1785512952.351184,-0.0971679612994194,-0.13818359375,0.9858397841453552,1.0002081774753249,-0.2498626708984375,0.6999969482421875,-0.2765655517578125,0.7930419826692531
