timestamp,accel_x,accel_y,accel_z,accel_rms,gyro_x,gyro_y,gyro_z,gyro_rms
1786718649.58024,-0.0166015587747097,0.181640625,0.9682616591453552,0.9852916162106815,-0.4425048828125,-0.072479248046875,1.2264251708984375,1.3058263715071796
1786718649.591115,-0.01318359375,0.17578125,0.9790038466453552,0.9947468958192982,-0.9899139404296875,-0.1964569091796875,0.7381439208984375,1.2503525001297777
1786718649.60199,-0.0195312462747097,0.18212890625,0.9838866591453552,1.000792369134114,-0.5016326904296875,-0.0133514404296875,0.4329681396484375,0.6627782638408588
1786718649.612467,-0.0087890625,0.18359375,0.9672850966453552,0.9845935053873277,-0.2593994140625,0.720977783203125,0.3108978271484375,0.8268944786452987
1786718649.622946,-0.0161132775247097,0.1865234375,0.9858397841453552,1.003459371600647,-0.0133514404296875,0.4177093505859375,-0.2384185791015625,0.48114735932901176
1786718649.633425,-0.0234375,0.19580078125,0.9697265028953552,0.9895740259131783,0.1697540283203125,0.4749298095703125,0.0667572021484375,0.5087546345618427
1786718649.641432,-0.02783203125,0.1943359375,0.9619140028953552,0.9817431576199909,-0.0762939453125,0.232696533203125,0.1277923583984375,0.27622333268776283
1786718649.649438,-0.009765621274709702,0.2021484225988388,0.9697265028953552,0.9906204331305383,0.1068115234375,-0.072479248046875,-0.1773834228515625,0.21937826154616202
1786718649.657444,-0.0224609337747097,0.19140625,0.9707030653953552,0.9896490727793533,-0.0762939453125,0.232696533203125,-0.0553131103515625,0.2510537449090611
1786718649.66545,-0.0273437462747097,0.1874999850988388,0.9809569716453552,0.9990898383488978,-0.133514404296875,0.537872314453125,-0.1163482666015625,0.5662770010790646
1786718649.675041,-0.0258789025247097,0.1874999850988388,0.9707030653953552,0.9889845313127438,-0.1964569091796875,0.8411407470703125,-0.0553131103515625,0.8655475802769039
1786718649.684632,-0.015624992549419403,0.1904296875,0.9716796278953552,0.9902872843475135,-0.0762939453125,1.087188720703125,0.1888275146484375,1.1060994127128674
1786718649.694223,-0.0336913987994194,0.1865234375,0.9770507216453552,0.9952659020370321,0.1087188720703125,0.7801055908203125,0.0667572021484375,0.7904688798504576
1786718649.703814,-0.0263671837747097,0.1884765475988388,0.9677733778953552,0.986308242051121,0.1087188720703125,0.4749298095703125,-0.1773834228515625,0.5185007192524138
1786718649.713405,-0.01806640625,0.1708984375,0.9804686903953552,0.9954152519528292,0.0457763671875,0.354766845703125,-0.3604888916015625,0.5078456769247454
1786718649.724052,-0.0209960900247097,0.16796875,0.9619140028953552,0.9766948785260695,0.354766845703125,-0.072479248046875,-0.2384185791015625,0.4335391274941552
1786718649.734699,-0.02880859375,0.18212890625,0.9746093153953552,0.9918992848173028,0.354766845703125,-0.072479248046875,-0.0553131103515625,0.366295367680714
1786718649.745346,-0.0283203125,0.18798828125,0.9741210341453552,0.9924985758941134,0.2918243408203125,-0.3185272216796875,0.0057220458984375,0.43203446466162226
1786718649.756001,-0.0205078087747097,0.1879882663488388,0.9731444716453552,0.9913477297091569,0.2918243408203125,-0.3795623779296875,-0.0553131103515625,0.48196326085253943
1786718649.766657,-0.02783203125,0.18603515625,0.9750975966453552,0.993075538067478,0.5970001220703125,-0.3795623779296875,-0.1773834228515625,0.7293432821341013
1786718649.777313,-0.0268554650247097,0.1831054538488388,0.9775390028953552,0.9949026713264609,0.4730224609375,-0.255584716796875,0.3719329833984375,0.6537644378146994
1786718649.785327,-0.0253906212747097,0.1977538913488388,0.9790038466453552,0.9990995030219594,0.7171630859375,-0.316619873046875,0.6160736083984375,0.9970545254923066
1786718649.79334,-0.02783203125,0.20068359375,0.9550780653953552,0.9763312131460565,0.9002685546875,-0.255584716796875,0.4940032958984375,1.0582278934037688
1786718649.801353,-0.0253906212747097,0.1874999850988388,0.9799804091453552,0.998079420872647,0.4119873046875,0.049591064453125,0.7381439208984375,0.8467876126022297
1786718649.809366,-0.0317382775247097,0.18701171875,0.9741210341453552,0.9924174980190953,0.5340576171875,-0.133514404296875,0.7991790771484375,0.9704281694090335
1786718649.820059,-0.0268554650247097,0.1889648288488388,0.9643554091453552,0.9830616855983504,0.3528594970703125,-0.0133514404296875,0.6771087646484375,0.7636519919426613
1786718649.830752,-0.0166015625,0.18505859375,0.9619140028953552,0.9796942604528897,0.3528594970703125,-0.0133514404296875,0.4329681396484375,0.5587034057394766
1786718649.841445,-0.017578125,0.19482421875,0.9707030653953552,0.9902171013762602,0.1697540283203125,-0.3795623779296875,0.6160736083984375,0.7432568330232046
1786718649.852101,-0.010253902524709702,0.1865234375,0.9633788466453552,0.9813230545633469,-0.3795623779296875,-0.1964569091796875,0.3719329833984375,0.5665660244346966
1786718649.862757,-0.0234375,0.18505859375,0.9755858778953552,0.9932591830312109,-0.1964569091796875,-0.3185272216796875,0.4329681396484375,0.5722904140958903
1786718649.873413,-0.0224609375,0.1845703125,0.9702147841453552,0.9878701439682975,-0.316619873046875,-0.438690185546875,0.4329681396484375,0.6929347969715475
1786718649.881428,-0.0278320275247097,0.1977538913488388,0.9697265028953552,0.9900761151130755,-0.1964569091796875,-0.3795623779296875,0.4329681396484375,0.6083784396695069
1786718649.889443,-0.02685546875,0.19482421875,0.9731444716453552,0.9928181379826054,0.1068115234375,-0.255584716796875,0.1277923583984375,0.30506251140415974
1786718649.897458,-0.012207027524709702,0.1835937350988388,0.9716796278953552,0.9889474052523661,0.1068115234375,-0.133514404296875,0.3719329833984375,0.4093518557835684
1786718649.905473,-0.015624996274709702,0.1826171875,0.9702147841453552,0.987375260502922,0.1087188720703125,-0.0133514404296875,0.3108978271484375,0.329629357053355
1786718649.916203,-0.02294921875,0.1884765625,0.9731444716453552,0.9914939454918368,-0.0133514404296875,0.1125335693359375,0.1888275146484375,0.2202223773310506
1786718649.926933,-0.011718746274709702,0.1889648288488388,0.9619140028953552,0.9803691062667609,0.1068115234375,0.110626220703125,0.4329681396484375,0.45946520237850985
1786718649.937663,-0.0200195275247097,0.1884765475988388,0.9658202528953552,0.9842423235057197,0.1068115234375,0.049591064453125,0.0667572021484375,0.1353680141367264
1786718649.94561,-0.0317382775247097,0.1923827975988388,0.9707030653953552,0.9900923695494933,-0.2574920654296875,0.2918243408203125,0.3719329833984375,0.5383286670744173
1786718649.953559,-0.030273430049419403,0.2001953125,0.9609374403953552,0.9820363578134501,-0.5645751953125,0.171661376953125,0.6160736083984375,0.8530881961817675
1786718649.961508,-0.0161132775247097,0.2080077975988388,0.9750975966453552,0.9971670895883276,-0.621795654296875,0.415802001953125,0.4329681396484375,0.8642815227004071
1786718649.969457,-0.0205078087747097,0.19189453125,0.9765624403953552,0.9954487838835954,-0.7457733154296875,0.2918243408203125,0.4329681396484375,0.9103849152159909
1786718649.980149,-0.01416015625,0.18212890625,0.9692382216453552,0.9863032894678474,-0.8068084716796875,-0.0133514404296875,0.5550384521484375,0.9793803420015096
1786718649.990841,-0.012207027524709702,0.1982421725988388,0.9707030653953552,0.9908145193151118,-1.110076904296875,-0.072479248046875,0.2498626708984375,1.1401558354713073
1786718650.001533,-0.0200195275247097,0.19189453125,0.9663085341453552,0.9853813859456221,-0.9899139404296875,-0.1354217529296875,0.4329681396484375,1.0889123337414308
1786718650.009492,-0.011230465024709702,0.1962890625,0.9736327528953552,0.9932855867837749,-0.9899139404296875,0.0476837158203125,0.3719329833984375,1.0585544342881597
1786718650.017451,-0.013671875,0.17626953125,0.9741210341453552,0.9900351796666251,-1.110076904296875,-0.255584716796875,0.4329681396484375,1.2186286107194846
1786718650.02541,-0.0258789025247097,0.1933593600988388,0.9619140028953552,0.9814968714671898,-0.8697509765625,-0.133514404296875,0.2498626708984375,0.9147263042542686
1786718650.041384,-0.0058593712747097015,0.1943359225988388,0.9697265028953552,0.9890249104353904,-0.804901123046875,0.232696533203125,0.4940032958984375,0.9726524306274019
1786718650.049401,-0.01416015625,0.18896484375,0.9819335341453552,1.0000508425463546,-0.7476806640625,0.354766845703125,0.6771087646484375,1.0692811460915315
1786718650.057418,-0.0302734337747097,0.1787109225988388,0.9653319716453552,0.9822015527015566,-0.8068084716796875,0.3528594970703125,0.1888275146484375,0.9006139933040863
1786718650.065435,-0.0214843712747097,0.1874999850988388,0.9736327528953552,0.9917552924646897,-0.8068084716796875,0.2918243408203125,0.5550384521484375,1.0218458979869012
1786718650.076053,-0.02880859375,0.1865234375,0.9741210341453552,0.9922362203503182,-0.8697509765625,0.049591064453125,0.6771087646484375,1.1033595579269477
1786718650.086671,-0.0244140587747097,0.1831054538488388,0.9746093153953552,0.9919611742152246,-0.6847381591796875,0.3528594970703125,0.4329681396484375,0.8836501464154973
1786718650.097289,-0.012207027524709702,0.1879882663488388,0.9702147841453552,0.9883346230806899,-0.316619873046875,0.232696533203125,0.4940032958984375,0.6312171392884476
1786718650.105326,-0.01806640625,0.1865234375,0.9755858778953552,0.9934209545406506,-0.1354217529296875,0.2918243408203125,0.4329681396484375,0.5394088495866453
1786718650.113361,-0.01708984375,0.1953125,0.9653319716453552,0.9850405326159722,0.2288818359375,0.476837158203125,0.1277923583984375,0.5441428646324303
1786718650.121396,-0.01416015625,0.193359375,0.9721679091453552,0.991311657097538,-0.0133514404296875,0.2918243408203125,0.2498626708984375,0.38441001699391014
1786718650.129431,-0.0161132775247097,0.1977538913488388,0.9750975966453552,0.99507867138219,-0.0762939453125,0.537872314453125,0.5550384521484375,0.7766563436358719
1786718650.140063,-0.024414055049419403,0.18115234375,0.9853515028953552,1.0021625626554853,-0.1964569091796875,0.3528594970703125,0.5550384521484375,0.6864202977771587
1786718650.150695,-0.0258789025247097,0.185546875,0.9716796278953552,0.9895749894197029,-0.0762939453125,0.232696533203125,0.4940032958984375,0.5513689318547237
1786718650.161327,-0.0205078087747097,0.1874999850988388,0.9589843153953552,0.977357525068029,-0.2593994140625,0.354766845703125,0.6160736083984375,0.7567656584380561
1786718650.172097,-0.024414055049419403,0.18359375,0.9946288466453552,1.01172587873499,-0.3814697265625,0.232696533203125,0.1277923583984375,0.4647555440373533
1786718650.182867,-0.012695308774709702,0.1879882663488388,0.9819335341453552,0.999847100625348,-0.0762939453125,-0.072479248046875,0.4329681396484375,0.44557313365980233
1786718650.193637,-0.0317382775247097,0.18701171875,0.9741210341453552,0.9924174980190953,-0.1354217529296875,0.3528594970703125,0.6771087646484375,0.7754515813401868
1786718650.201569,-0.0263671837747097,0.1708984375,0.9755858778953552,0.9907922635290415,-0.1983642578125,-0.072479248046875,0.4940032958984375,0.5372530842475114
1786718650.209501,-0.015624996274709702,0.1728515625,0.9790038466453552,0.9942687438080704,-0.5645751953125,0.110626220703125,0.3108978271484375,0.653942482787916
1786718650.217433,-0.0258789025247097,0.181640625,0.9853515028953552,1.0022876924837545,-0.1354217529296875,0.1125335693359375,0.3719329833984375,0.4115057709603815
1786718650.225365,-0.0258789025247097,0.1694335788488388,0.9755858778953552,0.9905277686093712,-0.0152587890625,-0.255584716796875,0.5550384521484375,0.6112479541619146
1786718650.236026,-0.0195312462747097,0.18212890625,0.9809569716453552,0.9979123149317733,-0.0762939453125,-0.255584716796875,0.4329681396484375,0.5085329128995629
1786718650.246687,-0.020019523799419403,0.1806640625,0.9697265028953552,0.9866153126876831,0.0476837158203125,-0.3795623779296875,0.1888275146484375,0.42661125838680947
1786718650.257348,-0.029785148799419403,0.18115234375,0.9638671278953552,0.9811947650555228,0.5950927734375,-0.621795654296875,0.3719329833984375,0.9376030017228384
1786718650.268021,-0.02294921875,0.18408203125,0.9575194716453552,0.9753237408421686,0.7781982421875,-1.049041748046875,0.5550384521484375,1.41920709434962
1786718650.278697,-0.01171875,0.18017578125,0.9770507216453552,0.9935938576291219,0.4749298095703125,-0.6847381591796875,0.6160736083984375,1.0363258954693508
1786718650.289373,-0.01318359375,0.18408203125,0.9726561903953552,0.9900101343358544,0.2899169921875,-0.743865966796875,0.3108978271484375,0.8567647855994761
1786718650.300083,-0.0292968712747097,0.177734375,0.9677733778953552,0.9843948017366373,0.5950927734375,-0.560760498046875,0.7381439208984375,1.1015644298572072
1786718650.310794,-0.01416015625,0.18017578125,0.9721679091453552,0.9888246890860503,0.9002685546875,-0.560760498046875,0.4329681396484375,1.14559906454201
1786718650.321505,-0.0161132775247097,0.18603515625,0.9687499403953552,0.9865825683081748,1.4514923095703125,-0.5016326904296875,0.6160736083984375,1.6546939208852367
1786718650.329489,-0.0214843712747097,0.18115234375,0.9833983778953552,1.0001750444309254,1.6345977783203125,-0.4405975341796875,1.1043548583984375,2.021295559111323
1786718650.337473,-0.013671875,0.18017578125,0.9663085341453552,0.9830576867494647,1.4514923095703125,-0.3795623779296875,0.2498626708984375,1.5209631414961704
1786718650.345457,-0.0170898400247097,0.1879882663488388,0.9570311903953552,0.9754692974699218,1.4514923095703125,-0.3185272216796875,0.6160736083984375,1.608675295595047
1786718650.353441,-0.0249023400247097,0.1972656100988388,0.9692382216453552,0.9894223454948974,0.7801055908203125,-0.3185272216796875,0.5550384521484375,1.0090054544666363
1786718650.361735,-0.005371086299419403,0.18115234375,0.9653319716453552,0.9821969434359195,1.2054443359375,-0.499725341796875,0.3108978271484375,1.3414465785872443
1786718650.370029,-0.013183590024709702,0.2021484225988388,0.9643554091453552,0.9854030378241402,0.4749298095703125,-0.0705718994140625,0.4329681396484375,0.6465292931925287
1786718650.378323,-0.0166015587747097,0.1865234375,0.9707030653953552,0.9886005490887135,0.4119873046875,-0.133514404296875,0.1888275146484375,0.4724568400041704
1786718650.386617,-0.01708984375,0.19482421875,0.9799804091453552,0.9993048290084688,0.1697540283203125,-0.0705718994140625,0.1277923583984375,0.2238921838361418
1786718650.396935,-0.01318359375,0.19677734375,0.9760741591453552,0.9957991234725923,-0.1354217529296875,0.1697540283203125,0.1277923583984375,0.2519650137669067
1786718650.407253,-0.0073242150247097015,0.1831054538488388,0.9648436903953552,0.9820919499978836,0.0457763671875,0.171661376953125,0.0057220458984375,0.17775220375452883
1786718650.417571,-0.02734375,0.18408203125,0.9721679091453552,0.9898203465605464,0.0457763671875,-0.133514404296875,0.0057220458984375,0.14125973862675112
1786718650.428249,-0.01416015625,0.193359375,0.9677733778953552,0.9870023651888586,0.1697540283203125,-0.0133514404296875,0.0057220458984375,0.17037439039299532
1786718650.438929,-0.0068359337747097015,0.1889648288488388,0.9702147841453552,0.9884691011390601,0.1697540283203125,-0.1964569091796875,0.3108978271484375,0.4050545719048597
1786718650.449609,-0.010253898799419403,0.18603515625,0.9614257216453552,0.9793128407423456,0.5340576171875,-0.316619873046875,-0.1163482666015625,0.6316665272320497
1786718650.457545,-0.0185546837747097,0.1874999850988388,0.9785155653953552,0.9964904577681795,0.5340576171875,0.110626220703125,0.1277923583984375,0.5601665699129872
1786718650.465479,-0.0219726525247097,0.17724609375,0.9790038466453552,0.9951620506003068,0.4749298095703125,0.0476837158203125,-0.1163482666015625,0.49129317104363857
1786718650.473413,-0.02783203125,0.1953125,0.9760741591453552,0.9958124114365432,0.5340576171875,0.232696533203125,-0.0553131103515625,0.5851707060486773
1786718650.481347,-0.014648430049419403,0.2001953125,0.9628905653953552,0.9835908603567197,0.4749298095703125,0.3528594970703125,0.1277923583984375,0.6053090413633699
1786718650.491995,-0.019531242549419403,0.18408203125,0.9697265028953552,0.9872371316367237,0.1697540283203125,0.4749298095703125,-0.2384185791015625,0.5578693153510729
1786718650.502643,-0.0170898400247097,0.1982421725988388,0.9707030653953552,0.9908867053284736,-0.0762939453125,0.354766845703125,-0.6046295166015625,0.7051646142904016
1786718650.513291,-0.01708984375,0.17578125,0.9721679091453552,0.9880797306811903,-0.0133514404296875,0.1697540283203125,-0.0553131103515625,0.17903695503801745
1786718650.524245,-0.01318359375,0.1904296875,0.9648436903953552,0.9835449252175728,-0.2593994140625,0.110626220703125,-0.4825592041015625,0.5589182428460877
1786718650.535197,-0.02734375,0.189453125,0.9775390028953552,0.9961037443047654,-0.3185272216796875,0.3528594970703125,-0.4215240478515625,0.6353360831409318
1786718650.546149,-0.0053710900247097015,0.18701171875,0.9628905653953552,0.980897789010287,-0.7648468017578125,0.2460479736328125,-0.7953643798828125,1.1305462097032295
1786718650.556538,-0.02783203125,0.18994140625,0.9736327528953552,0.9923774973679705,-0.339508056640625,0.064849853515625,-0.8563995361328125,0.923521190614156
1786718650.566925,-0.0161132775247097,0.1987304538488388,0.9780272841453552,0.9981436767982319,-0.156402587890625,0.308990478515625,-0.6732940673828125,0.7571405328504681
1786718650.577312,-0.0087890625,0.19775390625,0.9770507216453552,0.9969011825273717,-0.0972747802734375,0.7343292236328125,-1.1615753173828125,1.3776643312183836
1786718650.585368,-0.0209960900247097,0.1840820163488388,0.9648436903953552,0.9824715626597585,-0.095367431640625,0.675201416015625,-0.9174346923828125,1.1431003079322393
1786718650.593423,-0.0224609337747097,0.1987304538488388,0.9619140028953552,0.9824850308270161,0.1468658447265625,0.7343292236328125,-0.9784698486328125,1.2321575506857616
1786718650.601478,-0.0166015587747097,0.18701171875,0.9711913466453552,0.9891721925440473,0.331878662109375,0.797271728515625,-1.0395050048828125,1.351427508462891
1786718650.609533,-0.024414055049419403,0.19140625,0.9682616591453552,0.9873008858468296,0.026702880859375,0.431060791015625,-0.8563995361328125,0.9591384753442553
1786718650.620137,-0.0327148400247097,0.1826171875,0.9658202528953552,0.9834775334653559,-0.0362396240234375,0.7343292236328125,-0.9174346923828125,1.1756866648125575
1786718650.630741,-0.013671875,0.19970703125,0.9628905653953552,0.9834775337668324,-0.034332275390625,0.797271728515625,-1.4667510986328125,1.6697843272603659
1786718650.641345,-0.0170898400247097,0.18212890625,0.9721679091453552,0.9892287120256584,0.026702880859375,0.614166259765625,-0.9784698486328125,1.1555589483726938
1786718650.64932,-0.0234374962747097,0.1923827975988388,0.9624022841453552,0.9817222690617646,-0.278472900390625,0.858306884765625,-1.0395050048828125,1.3765204393195383
1786718650.657296,-0.0234375,0.1904296875,0.9667968153953552,0.9856514924384776,-0.4024505615234375,0.3070831298828125,-0.8563995361328125,0.9948299697021853
1786718650.665272,-0.02197265625,0.18505859375,0.9829100966453552,1.0004207808871175,-0.034332275390625,0.370025634765625,-0.7953643798828125,0.8778964473692625
1786718650.673248,-0.015624992549419403,0.1904296875,0.9741210341453552,0.9926829279472541,-0.339508056640625,0.125885009765625,-1.0395050048828125,1.100764921036277
1786718650.683956,-0.0224609337747097,0.1874999850988388,0.9575194716453552,0.9759632557315346,-0.339508056640625,0.125885009765625,-0.6732940673828125,0.7644852237816481
1786718650.694664,-0.0170898400247097,0.1840820163488388,0.9746093153953552,0.9919886940033779,-0.0972747802734375,0.0667572021484375,-0.9174346923828125,0.9249893630218018
1786718650.705372,-0.030273430049419403,0.1904296875,0.9780272841453552,0.9968537079135755,0.1468658447265625,0.2460479736328125,-0.7343292236328125,0.7882566779655147
1786718650.713376,-0.02392578125,0.18408203125,0.9643554091453552,0.9820590574835376,0.209808349609375,0.186920166015625,-0.6122589111328125,0.6736613884516878
1786718650.721383,-0.01904296875,0.18505859375,0.9721679091453552,0.989807941649082,0.026702880859375,0.186920166015625,-0.6122589111328125,0.6407130142045158
1786718650.72939,-0.0312499962747097,0.1933593600988388,0.9604491591453552,0.9802178287034069,-0.156402587890625,0.003814697265625,-0.4291534423828125,0.4567811275908091
1786718650.737397,-0.02880859375,0.18017578125,0.9755858778953552,0.9925024193279084,0.0858306884765625,0.0667572021484375,-0.4901885986328125,0.5021038670958914
1786718650.748162,-0.02392578125,0.1875,0.9638671278953552,0.9822263146778668,0.087738037109375,0.186920166015625,-0.4291534423828125,0.4762455130792655
1786718650.758927,-0.033203125,0.193359375,0.9726561903953552,0.9922451109098809,0.148773193359375,-0.118255615234375,-0.3681182861328125,0.41428121630381187
1786718650.769692,-0.029296867549419403,0.185546875,0.9833983778953552,1.0011784650688855,0.5741119384765625,-0.1811981201171875,-0.3070831298828125,0.6758234423974528
1786718650.777727,-0.0234375,0.18603515625,0.9755858778953552,0.9934415941141497,0.270843505859375,-0.423431396484375,-0.1239776611328125,0.517707265406685
1786718650.785762,-0.030761711299419403,0.1953125,0.9697265028953552,0.9896781021907952,0.087738037109375,0.003814697265625,0.0591278076171875,0.10587073582746824
1786718650.793797,-0.011230465024709702,0.1933593600988388,0.9531249403953552,0.9726053246235871,-0.156402587890625,0.003814697265625,0.0,0.15644910167243864
1786718650.801832,-0.0185546875,0.1953125,0.9731444716453552,0.9927242375294311,-0.0972747802734375,-0.1811981201171875,-0.4291534423828125,0.47588635063454615
1786718650.812508,-0.0292968712747097,0.2070312350988388,0.9741210341453552,0.9963092030777664,0.2689361572265625,-0.0591278076171875,-0.1239776611328125,0.3019821431100984
1786718650.823184,-0.01904296875,0.1884765625,0.9672850966453552,0.9856604422735266,-0.156402587890625,-0.301361083984375,-0.1239776611328125,0.36145640525391814
1786718650.83386,-0.014648430049419403,0.1943359375,0.9697265028953552,0.9891160313757795,-0.156402587890625,-0.179290771484375,0.1201629638671875,0.2665447206824665
1786718650.841739,-0.0209960900247097,0.1943359225988388,0.9731444716453552,0.9925812053945939,-0.278472900390625,-0.301361083984375,-0.2460479736328125,0.47844045033945204
1786718650.84962,-0.0161132775247097,0.1938476413488388,0.9672850966453552,0.9866493824866616,-0.339508056640625,-0.057220458984375,-0.2460479736328125,0.42317786659877377
1786718650.857501,-0.0166015587747097,0.1835937350988388,0.9692382216453552,0.9866128934995445,-0.217437744140625,0.064849853515625,-0.3070831298828125,0.3818176590161673
1786718650.865382,-0.015136715024709702,0.1835937350988388,0.9726561903953552,0.9899473947759484,-0.0972747802734375,0.0667572021484375,-0.1239776611328125,0.17114136664142712
1786718650.876063,-0.0029296837747097015,0.1928710788488388,0.9853515028953552,1.0040544907331823,-0.156402587890625,0.431060791015625,0.0,0.45855771179852706
1786718650.886744,-0.0058593712747097015,0.1831054538488388,0.9843749403953552,1.0012771657934096,-0.461578369140625,0.308990478515625,-0.2460479736328125,0.6075107505226942
1786718650.897425,-0.0205078087747097,0.1743163913488388,0.9838866591453552,0.9994196979036535,-0.0362396240234375,-0.0591278076171875,-0.3681182861328125,0.3745937540434096
1786718650.908117,-0.0126953125,0.185546875,0.9892577528953552,1.006588155824072,0.2689361572265625,0.4291534423828125,-0.3070831298828125,0.5922831944529852
1786718650.91881,-0.013671871274709702,0.16796875,0.9726561903953552,0.9871476514458818,0.0858306884765625,0.1239776611328125,-0.4901885986328125,0.512856929146837
1786718650.929503,-0.020507805049419403,0.18994140625,0.9672850966453552,0.9859709762809383,0.637054443359375,0.431060791015625,-0.1850128173828125,0.7911267357072856
1786718650.940125,-0.0166015587747097,0.1953125,0.9687499403953552,0.9883820270654482,0.9403228759765625,0.2460479736328125,-0.3070831298828125,1.0193364337019801
1786718650.950749,-0.02392578125,0.18701171875,0.9707030653953552,0.9888428930452963,0.6351470947265625,0.7343292236328125,-0.6732940673828125,1.181514342610217
1786718650.961373,-0.02392578125,0.19140625,0.9624022841453552,0.981543148351453,0.453948974609375,0.614166259765625,-0.3681182861328125,0.847809494384652
1786718650.972032,-0.015136715024709702,0.1879882663488388,0.9580077528953552,0.9763951879409224,0.209808349609375,0.492095947265625,-0.3681182861328125,0.6493758830341806
1786718650.982693,-0.0224609375,0.18994140625,0.9726561903953552,0.9912831564371565,0.2117156982421875,0.2460479736328125,-0.4291534423828125,0.5380853271740534
1786718650.993354,-0.0336913987994194,0.19384765625,0.9707030653953552,0.9904425603509872,0.148773193359375,0.614166259765625,-0.6122589111328125,0.8798833058754896
1786718651.001361,-0.0273437462747097,0.1982421725988388,0.9697265028953552,0.9901601536492463,0.3910064697265625,0.3070831298828125,-0.4901885986328125,0.6981912132476705
1786718651.009369,-0.01806640625,0.201171875,0.9794921278953552,1.0001006684003249,-0.0972747802734375,0.4291534423828125,-0.3070831298828125,0.5365958522434625
1786718651.017377,-0.01806640625,0.193359375,0.9775390028953552,0.9966427369508223,-0.034332275390625,0.064849853515625,-0.4291534423828125,0.43538131074210534
1786718651.025385,-0.033203125,0.1845703125,0.9550780653953552,0.9733153439484286,-0.0972747802734375,0.0667572021484375,-0.3681182861328125,0.3865617408659218
1786718651.036044,-0.0312499962747097,0.1992187350988388,0.9736327528953552,0.9942964367793633,-0.034332275390625,0.064849853515625,-0.6122589111328125,0.6166402378178324
1786718651.046703,-0.0336913987994194,0.18115234375,0.9707030653953552,0.9880362964826337,-0.0972747802734375,0.1239776611328125,-0.1239776611328125,0.20050761530966976
1786718651.057362,-0.0395507737994194,0.19384765625,0.9677733778953552,0.9877886861595131,-0.156402587890625,-0.301361083984375,-0.1850128173828125,0.3866652493243324
1786718651.065407,-0.02880859375,0.19580078125,0.9809569716453552,1.0007219699954575,-0.034332275390625,-0.606536865234375,0.0591278076171875,0.6103783840008222
1786718651.073452,-0.02392578125,0.19921875,0.9765624403953552,0.996962764275034,0.209808349609375,-0.484466552734375,0.4253387451171875,0.6779678697268791
1786718651.081497,-0.025390617549419403,0.19921875,0.9687499403953552,0.9893478866541878,0.148773193359375,-0.667572021484375,0.6694793701171875,0.9570728780733403
1786718651.089542,-0.02392578125,0.18505859375,0.9697265028953552,0.9875163879889821,-0.156402587890625,-0.728607177734375,0.3643035888671875,0.8294861625165597
1786718651.10016,-0.0283203125,0.18798828125,0.9692382216453552,0.987706618528841,-0.034332275390625,-0.484466552734375,0.7305145263671875,0.8772331611865245
1786718651.110778,-0.01806640625,0.1767578125,0.9750975966453552,0.9911533898938767,-0.278472900390625,-0.423431396484375,0.2422332763671875,0.5617101244950612
1786718651.121396,-0.011230465024709702,0.1962890625,0.9833983778953552,1.0028598551388006,-0.4024505615234375,-0.3643035888671875,0.3032684326171875,0.62181613162906
1786718651.129603,-0.012207027524709702,0.1889648288488388,0.9687499403953552,0.9870831601637545,-0.4024505615234375,0.1239776611328125,0.1201629638671875,0.43792242785205654
1786718651.137812,-0.0185546875,0.18212890625,0.9721679091453552,0.9892551028385427,-0.461578369140625,0.003814697265625,0.1201629638671875,0.4769782811188518
1786718651.146021,-0.0219726525247097,0.1923827975988388,0.9707030653953552,0.989827449325824,0.026702880859375,0.186920166015625,-0.1850128173828125,0.26435191488889337
1786718651.15423,-0.0234375,0.19580078125,0.9770507216453552,0.9967524140989426,-0.278472900390625,0.308990478515625,-0.2460479736328125,0.48328239921819527
1786718651.164645,-0.010253898799419403,0.17626953125,0.9667968153953552,0.9827879589953694,-0.278472900390625,0.553131103515625,-0.1239776611328125,0.6315628507031921
1786718651.17506,-0.0214843712747097,0.18115234375,0.9716796278953552,0.9886551719998453,0.087738037109375,0.370025634765625,-0.7343292236328125,0.8269560703088641
1786718651.185475,-0.012207027524709702,0.1879882663488388,0.9682616591453552,0.9864173763558441,-0.156402587890625,0.064849853515625,-0.3681182861328125,0.4051892713106332
1786718651.193542,-0.0180664025247097,0.1879882663488388,0.9580077528953552,0.9764449998810147,-0.156402587890625,0.125885009765625,-0.3681182861328125,0.4193088095520238
1786718651.201609,-0.015136715024709702,0.19140625,0.9648436903953552,0.9837625829317406,-0.156402587890625,-0.057220458984375,-0.2460479736328125,0.2971120255965423
1786718651.209676,-0.017578125,0.201171875,0.9628905653953552,0.9838380734129566,-0.2193450927734375,0.4291534423828125,-0.8563995361328125,0.9827029624058851
1786718651.217743,-0.011230465024709702,0.1943359225988388,0.9760741591453552,0.995295603480858,-0.7076263427734375,0.4291534423828125,-0.3681182861328125,0.9057697227669336
1786718651.228265,-0.0302734337747097,0.1928710788488388,0.9614257216453552,0.9810479866398579,-0.278472900390625,0.980377197265625,-0.4291534423828125,1.1058296805021048
1786718651.238787,-0.01904296875,0.193359375,0.9770507216453552,0.9961820090861476,-0.461578369140625,0.614166259765625,-0.4901885986328125,0.9113394799538845
1786718651.249309,-0.015624996274709702,0.1928710788488388,0.9799804091453552,0.9989018950195246,-0.0972747802734375,0.9174346923828125,-0.0629425048828125,0.9247218806677574
1786718651.259996,-0.029785148799419403,0.185546875,0.9775390028953552,0.9954382452432268,-0.156402587890625,0.736236572265625,-0.3681182861328125,0.8378646265511397
1786718651.270682,-0.0185546875,0.18603515625,0.9682616591453552,0.9861460319648914,0.026702880859375,0.675201416015625,-0.7343292236328125,0.9979225444476462
1786718651.281368,-0.0214843712747097,0.1928710788488388,0.9750975966453552,0.9942213809051444,-0.339508056640625,0.186920166015625,-0.5512237548828125,0.6738341761400275
1786718651.289355,-0.0351562425494194,0.185546875,0.9702147841453552,0.988423154112993,0.1468658447265625,-0.2422332763671875,-0.8563995361328125,0.9020347565450709
1786718651.297345,-0.0209960900247097,0.185546875,0.9755858778953552,0.9932956678489252,0.453948974609375,-0.179290771484375,-0.4291534423828125,0.6499134783933808
1786718651.305335,-0.019531242549419403,0.18408203125,0.9750975966453552,0.9925134692527845,0.209808349609375,-0.484466552734375,-0.3681182861328125,0.6436135928253053
1786718651.313325,-0.0322265587747097,0.19189453125,0.9580077528953552,0.9775688808578785,0.270843505859375,-0.423431396484375,-0.3070831298828125,0.589024957750968
1786718651.324009,-0.0341796837747097,0.177734375,0.9746093153953552,0.9912724532110144,0.148773193359375,-0.118255615234375,-0.0629425048828125,0.20019893235911473
1786718651.334693,-0.0356445237994194,0.1845703125,0.9750975966453552,0.9930518895389017,0.209808349609375,-0.362396240234375,-0.2460479736328125,0.4856852724045004
1786718651.345377,-0.0410156175494194,0.18017578125,0.9750975966453552,0.9924519716417294,-0.034332275390625,0.003814697265625,0.3032684326171875,0.30522942071630593
1786718651.353367,-0.025390617549419403,0.19921875,0.9677733778953552,0.9883916757915808,-0.034332275390625,0.370025634765625,0.3643035888671875,0.5203986744590288
1786718651.361358,-0.0253906212747097,0.1831054538488388,0.9775390028953552,0.9948642083518485,-0.095367431640625,0.186920166015625,0.2422332763671875,0.3204856559358318
1786718651.369349,-0.0249023400247097,0.19140625,0.9716796278953552,0.9906653210568263,-0.156402587890625,-0.301361083984375,0.2422332763671875,0.41708180566731085
1786718651.37734,-0.0229492150247097,0.19189453125,0.9692382216453552,0.9883182219771921,-0.156402587890625,-0.240325927734375,0.1811981201171875,0.3391918038135288
1786718651.388015,-0.009765617549419403,0.18505859375,0.9755858778953552,0.993030641800997,-0.4024505615234375,-0.5474090576171875,0.3032684326171875,0.744039564172466
1786718651.39869,-0.0253906212747097,0.18701171875,0.9648436903953552,0.9831283809830093,-0.156402587890625,-0.240325927734375,0.0591278076171875,0.2927702489562214
1786718651.409365,-0.014648430049419403,0.1787109375,0.9833983778953552,0.9996121974707278,-0.0972747802734375,-0.3643035888671875,-0.0629425048828125,0.38228424851108006
1786718651.420079,-0.0283203125,0.18701171875,0.9873046278953552,1.0052590966081891,-0.034332275390625,0.064849853515625,-0.0629425048828125,0.09667454450587605
1786718651.430793,-0.013671875,0.19775390625,0.9750975966453552,0.9950421350810714,-0.0362396240234375,0.2460479736328125,0.1201629638671875,0.2762101619483257
1786718651.441507,-0.0166015587747097,0.1874999850988388,0.9702147841453552,0.9883059159693587,-0.2765655517578125,-0.0591278076171875,-0.0629425048828125,0.2897349840347922
1786718651.449571,-0.0175781212747097,0.1831054538488388,0.9809569716453552,0.998054696795904,-0.0972747802734375,0.2460479736328125,-0.0629425048828125,0.27196276790579554
1786718651.457637,-0.0073242150247097015,0.18603515625,0.9741210341453552,0.9917532518984278,0.270843505859375,-0.179290771484375,-0.0629425048828125,0.33085214874106916
1786718651.465703,-0.0078124962747097015,0.1884765475988388,0.9814452528953552,0.9994094398811968,-0.034332275390625,-0.118255615234375,-0.1239776611328125,0.17473853647069598
1786718651.473769,-0.019531242549419403,0.1748046875,0.9726561903953552,0.9884321994562411,0.026702880859375,0.186920166015625,-0.4291534423828125,0.4688548489868872
1786718651.484493,-0.010253898799419403,0.19580078125,0.9541015028953552,0.9740394069060423,0.270843505859375,0.186920166015625,0.0,0.3290825931730606
1786718651.495217,-0.021484375,0.19482421875,0.9814452528953552,1.0008260783030767,0.209808349609375,0.186920166015625,-0.0629425048828125,0.28795911333041957
1786718651.505941,-0.0234375,0.1962890625,0.9814452528953552,1.0011560801864046,0.3910064697265625,-0.1163482666015625,-0.3681182861328125,0.5494852601249434
1786718651.513818,-0.0229492150247097,0.1874999850988388,0.9716796278953552,0.9898708047766491,0.331878662109375,0.308990478515625,-0.1850128173828125,0.4897431007913736
1786718651.521697,-0.02294921875,0.1796875,0.9707030653953552,0.9874607361639371,0.270843505859375,0.064849853515625,-0.0629425048828125,0.28552314632638487
1786718651.529576,-0.0180664025247097,0.1826171875,0.9672850966453552,0.9845384148233167,0.148773193359375,-0.118255615234375,-0.3070831298828125,0.3611341887102782
1786718651.537455,-0.0161132775247097,0.1889648288488388,0.9736327528953552,0.9919314904594203,-0.156402587890625,0.125885009765625,-0.1239776611328125,0.2359645431893077
1786718651.548402,-0.0214843712747097,0.19140625,0.9780272841453552,0.9968125697847472,0.026702880859375,0.186920166015625,-0.4291534423828125,0.4688548489868872
1786718651.559349,0.0019531287252902985,0.18701171875,0.9697265028953552,0.987596419636737,-0.156402587890625,0.308990478515625,-0.3070831298828125,0.462857358125399
1786718651.570296,-0.01806640625,0.18603515625,0.9711913466453552,0.9890137037445793,0.026702880859375,0.492095947265625,-0.1850128173828125,0.526404034708482
1786718651.580731,-0.0175781212747097,0.177734375,0.9746093153953552,0.9908389455706674,-0.0972747802734375,0.1239776611328125,-0.1239776611328125,0.20050761530966976
1786718651.591169,-0.02783203125,0.1953125,0.9638671278953552,0.9838503112043986,-0.156402587890625,0.308990478515625,-0.3681182861328125,0.5054185967072826
1786718651.601607,-0.0249023400247097,0.1977538913488388,0.9609374403953552,0.9813905911694342,-0.0972747802734375,-0.1163482666015625,-0.4291534423828125,0.4551614868675202
1786718651.612176,-0.0258789025247097,0.1938476413488388,0.9794921278953552,0.9988250368614927,-0.0972747802734375,0.3719329833984375,-0.1850128173828125,0.42664536750424686
1786718651.622744,-0.02392578125,0.1904296875,0.9643554091453552,0.9832686632033363,0.0858306884765625,-0.1811981201171875,-0.5512237548828125,0.5865554481593964
1786718651.633312,-0.025390617549419403,0.18505859375,0.9721679091453552,0.9899504079257304,0.148773193359375,0.308990478515625,-0.1239776611328125,0.36466291192774647
1786718651.64135,-0.0229492150247097,0.2070312350988388,0.9682616591453552,0.9904136708202876,0.087738037109375,0.186920166015625,-0.1239776611328125,0.24084761173629554
1786718651.649389,-0.011230465024709702,0.1948242038488388,0.9707030653953552,0.9901247572492794,-0.339508056640625,0.186920166015625,-0.0629425048828125,0.3926405836234017
1786718651.657428,-0.029296867549419403,0.17919921875,0.9755858778953552,0.9923398972114693,0.026702880859375,0.003814697265625,-0.1239776611328125,0.12687811561250753
1786718651.665467,-0.0253906212747097,0.1923827975988388,0.9750975966453552,0.9942188629493103,-0.522613525390625,-0.118255615234375,0.2422332763671875,0.588035923762537
1786718651.675043,-0.02783203125,0.18896484375,0.9765624403953552,0.9950660953564314,-0.400543212890625,-0.118255615234375,-0.0629425048828125,0.4223517667160017
1786718651.684619,-0.019531242549419403,0.17529296875,0.9736327528953552,0.989479576261835,-0.3414154052734375,-0.2422332763671875,0.1201629638671875,0.4355233369441353
1786718651.694195,-0.0161132775247097,0.18603515625,0.9824218153953552,1.0000106701622016,-0.034332275390625,-0.362396240234375,-0.0629425048828125,0.3694204907560373
1786718651.703771,-0.0200195275247097,0.1982421725988388,0.9794921278953552,0.9995526844984167,0.026702880859375,0.064849853515625,-0.3070831298828125,0.31498983476584175
1786718651.713347,-0.020019523799419403,0.17041015625,0.9677733778953552,0.9828660710642579,-0.034332275390625,0.308990478515625,-0.0629425048828125,0.3171995899551818
1786718651.722994,-0.015624996274709702,0.1884765475988388,0.9799804091453552,0.9980626993391045,0.0858306884765625,0.4291534423828125,-0.1850128173828125,0.4751518986485318
1786718651.732641,-0.019531242549419403,0.1767578125,0.9506835341453552,0.9671731881159714,-0.034332275390625,0.308990478515625,0.2422332763671875,0.3941202622631763
1786718651.742288,-0.0263671837747097,0.185546875,0.9648436903953552,0.9828765019564782,0.026702880859375,0.370025634765625,-0.4291534423828125,0.5672783191158566
1786718651.751935,-0.0268554650247097,0.1874999850988388,0.9716796278953552,0.9899690700626026,0.026702880859375,0.308990478515625,-0.4901885986328125,0.5800629464886595
1786718651.761582,-0.024902336299419403,0.185546875,0.9663085341453552,0.9842763597372336,-0.095367431640625,0.186920166015625,-0.1850128173828125,0.27975674804544753
1786718651.771173,-0.024902336299419403,0.19970703125,0.9672850966453552,0.9879997382975726,-0.278472900390625,0.064849853515625,-0.1850128173828125,0.3405618920972969
1786718651.780765,-0.0258789025247097,0.185546875,0.9648436903953552,0.9828635242564845,-0.2765655517578125,-0.2422332763671875,-0.3070831298828125,0.47902558726785127
1786718651.790357,-0.02392578125,0.19384765625,0.9667968153953552,0.9863292751919318,-0.339508056640625,-0.057220458984375,-0.0629425048828125,0.35000237195081874
1786718651.799949,-0.02685546875,0.185546875,0.9697265028953552,0.9876833244728308,-0.7076263427734375,0.1239776611328125,-0.1239776611328125,0.7290239789655999
1786718651.809541,-0.0390624925494194,0.1845703125,0.9799804091453552,0.9979747897062424,-0.4596710205078125,-0.2422332763671875,0.1201629638671875,0.5333043644670677
1786718651.819141,-0.02734375,0.18115234375,0.9755858778953552,0.9926387346154851,-0.644683837890625,-0.118255615234375,0.0,0.6554400364425766
1786718651.828742,-0.0234375,0.1865234375,0.9785155653953552,0.9964100666211969,-0.705718994140625,-0.423431396484375,-0.0629425048828125,0.8254060849911917
1786718651.838343,-0.033203125,0.189453125,0.9907225966453552,1.0092205891606385,-0.522613525390625,-0.667572021484375,0.0591278076171875,0.8498666945018891
1786718651.847944,-0.0214843712747097,0.1791992038488388,0.9833983778953552,0.9998231356176667,-0.644683837890625,-0.545501708984375,0.1811981201171875,0.8637257227130972
1786718651.857545,-0.0205078087747097,0.1923827975988388,0.9721679091453552,0.9912326440370834,-0.522613525390625,-0.667572021484375,0.0591278076171875,0.8498666945018891
1786718651.865511,-0.010742180049419403,0.1904296875,0.9672850966453552,0.9859104008507953,-0.4024505615234375,-0.3643035888671875,0.1811981201171875,0.5722904140958903
1786718651.873477,-0.0126953125,0.18408203125,0.9775390028953552,0.9948014210736955,-0.644683837890625,-0.179290771484375,0.1811981201171875,0.6932497315620474
1786718651.881443,-0.02783203125,0.1845703125,0.9711913466453552,0.9889658507848829,-0.827789306640625,-0.057220458984375,0.5474090576171875,0.9940653869219502
1786718651.889409,-0.01416015625,0.18505859375,0.9780272841453552,0.9954820750161659,-0.644683837890625,0.125885009765625,0.3032684326171875,0.7234887896458125
1786718651.897375,-0.0297851525247097,0.1874999850988388,0.9775390028953552,0.9958041483668515,-0.827789306640625,0.064849853515625,0.1201629638671875,0.8389754332368211
1786718651.905341,-0.012695308774709702,0.1874999850988388,0.9775390028953552,0.9954395599224471,-0.827789306640625,0.125885009765625,-0.1850128173828125,0.8575033028905393
1786718651.914948,-0.0214843712747097,0.1923827975988388,0.9765624403953552,0.9955636187667551,-0.766754150390625,0.125885009765625,-0.0629425048828125,0.7795644436131394
1786718651.924555,-0.0190429650247097,0.2021484225988388,0.9829100966453552,1.0036627308829957,-0.522613525390625,-0.179290771484375,-0.3681182861328125,0.6639135111187594
1786718651.934162,-0.02685546875,0.1796875,0.9750975966453552,0.9918790938625434,-0.156402587890625,0.003814697265625,-0.3681182861328125,0.39998424218895456
1786718651.943769,-0.0200195275247097,0.1933593600988388,0.9833983778953552,1.0024275501338542,-0.339508056640625,-0.301361083984375,-0.3681182861328125,0.5844615436874274
1786718651.953376,-0.01806640625,0.18994140625,0.9682616591453552,0.9868813370481446,-0.339508056640625,-0.423431396484375,-0.3681182861328125,0.6557979419287324
1786718651.963001,-0.012207027524709702,0.2026367038488388,0.9819335341453552,1.0026984146526305,-0.2193450927734375,-0.2422332763671875,-0.0629425048828125,0.33279271149514833
1786718651.972624,-0.0200195275247097,0.1865234375,0.9736327528953552,0.9915404740754241,-0.217437744140625,-0.179290771484375,-0.3681182861328125,0.46361128750472147
1786718651.982247,-0.01416015625,0.1826171875,0.9619140028953552,0.9791976798183296,-0.156402587890625,0.064849853515625,-0.1850128173828125,0.25079277420972207
1786718651.99187,-0.011230465024709702,0.1733398288488388,0.9819335341453552,0.9971791639866947,-0.5245208740234375,0.4291534423828125,0.0,0.6777129365707347
1786718652.001493,-0.01904296875,0.1806640625,0.9614257216453552,0.9784383252812154,-0.278472900390625,0.492095947265625,0.0,0.5654251299396055
1786718652.011072,-0.02783203125,0.1845703125,0.9555663466453552,0.9736261423467427,-0.2765655517578125,0.9174346923828125,-0.1850128173828125,0.9759122203367345
1786718652.020648,-0.0317382775247097,0.1782226413488388,0.9746093153953552,0.9912789444979628,-0.7076263427734375,0.6122589111328125,-0.5512237548828125,1.0860219349513869
1786718652.030224,-0.012207027524709702,0.17138671875,0.9887694716453552,1.0035873090781466,-0.583648681640625,0.186920166015625,-0.2460479736328125,0.6603972572421555
1786718652.0398,-0.02294921875,0.18359375,0.9780272841453552,0.9953746531899621,-0.217437744140625,0.186920166015625,-0.4901885986328125,0.5678936372859563
1786718652.049376,-0.024414055049419403,0.19091796875,0.9672850966453552,0.9862485361549573,-0.4024505615234375,-0.0591278076171875,-0.4291534423828125,0.5912996103610785
1786718652.057365,-0.0336913987994194,0.1806640625,0.9741210341453552,0.9913054034940402,-0.0972747802734375,-0.3643035888671875,-0.4901885986328125,0.6184370218287056
1786718652.065354,-0.0283203125,0.18115234375,0.9794921278953552,0.9965054141123302,0.270843505859375,-0.179290771484375,-0.4291534423828125,0.5382137702759728
1786718652.073343,-0.0395507775247097,0.1977538913488388,0.9833983778953552,1.0038641517623952,0.3910064697265625,-0.1811981201171875,-0.2460479736328125,0.49624431828570603
1786718652.081332,-0.02294921875,0.1845703125,0.9667968153953552,0.9845247326279739,0.331878662109375,-0.301361083984375,-0.3070831298828125,0.5433801597062323
1786718652.092006,-0.03173828125,0.1953125,0.9565429091453552,0.9767950799370426,0.0858306884765625,-0.1811981201171875,0.1811981201171875,0.27024511938676365
1786718652.10268,-0.0161132775247097,0.2045898288488388,0.9633788466453552,0.9849951461528733,0.331878662109375,0.003814697265625,-0.2460479736328125,0.41315566510402624
1786718652.113354,-0.0258789025247097,0.1928710788488388,0.9760741591453552,0.9952837458752708,0.209808349609375,-0.179290771484375,0.0,0.2759795722608326
1786718652.121401,-0.014648433774709702,0.1972656100988388,0.9726561903953552,0.9925665530603601,0.331878662109375,0.003814697265625,0.1811981201171875,0.37814118661254
1786718652.129448,-0.011718746274709702,0.1928710788488388,0.9750975966453552,0.9940583006313634,0.514984130859375,0.064849853515625,-0.0629425048828125,0.522853629096047
1786718652.137495,-0.0224609375,0.1845703125,0.9741210341453552,0.991706853427031,0.5741119384765625,-0.0591278076171875,-0.1850128173828125,0.6060778482429937
1786718652.145542,-0.0234375,0.2041015625,0.9609374403953552,0.9826533104685335,0.514984130859375,-0.118255615234375,-0.0629425048828125,0.5321229223519405
1786718652.156187,-0.0180664025247097,0.19189453125,0.9770507216453552,0.9958805243057781,0.4520416259765625,-0.0591278076171875,-0.2460479736328125,0.5180514786948907
1786718652.166832,-0.015624996274709702,0.19677734375,0.9614257216453552,0.9814809635256215,0.331878662109375,-0.057220458984375,-0.0629425048828125,0.34260675155462733
1786718652.177477,-0.0224609337747097,0.1831054538488388,0.9755858778953552,0.9928745670647788,0.576019287109375,0.186920166015625,-0.1239776611328125,0.6181487102997659
1786718652.188076,-0.0161132775247097,0.185546875,0.9785155653953552,0.996082322027575,-0.034332275390625,-0.179290771484375,0.0,0.1825483110657562
1786718652.198674,-0.0170898400247097,0.1889648288488388,0.9731444716453552,0.9914685733132739,-0.0972747802734375,0.2460479736328125,-0.1239776611328125,0.29218564075946857
1786718652.209272,-0.02880859375,0.18896484375,0.9702147841453552,0.9888651953737337,-0.2193450927734375,-0.0591278076171875,-0.1850128173828125,0.29298141571323083
1786718652.220016,-0.0234375,0.18896484375,0.9770507216453552,0.9954321379418194,-0.095367431640625,0.186920166015625,-0.1850128173828125,0.27975674804544753
1786718652.230759,-0.0126953125,0.17578125,0.9780272841453552,0.9937794460260156,0.2117156982421875,0.2460479736328125,-0.1850128173828125,0.3736213120352158
1786718652.241502,-0.02880859375,0.18505859375,0.9711913466453552,0.9890850570064228,0.2689361572265625,0.1239776611328125,0.0591278076171875,0.3019821431100984
1786718652.24947,-0.029296867549419403,0.18017578125,0.9721679091453552,0.9891572484541109,0.087738037109375,0.186920166015625,0.1201629638671875,0.23890636137294854
1786718652.25744,-0.0195312462747097,0.18212890625,0.9711913466453552,0.9883142414595083,0.148773193359375,0.370025634765625,-0.3681182861328125,0.5427370505423496
1786718652.26541,-0.02392578125,0.17578125,0.9687499403953552,0.9848593492859727,0.0858306884765625,-0.0591278076171875,-0.1850128173828125,0.21235052934688387
1786718652.27338,-0.02294921875,0.1865234375,0.9653319716453552,0.9834548667116151,0.3910064697265625,0.0019073486328125,-0.1850128173828125,0.43257304578852607
1786718652.284046,-0.02392578125,0.185546875,0.9785155653953552,0.996239327446814,0.392913818359375,0.186920166015625,0.0,0.4351096610293234
1786718652.294712,-0.0268554650247097,0.1835937350988388,0.9697265028953552,0.9873182698536939,0.087738037109375,-0.118255615234375,-0.3681182861328125,0.39647626193206803
1786718652.305378,-0.025390617549419403,0.185546875,0.9584960341453552,0.9766201788587928,0.3910064697265625,-0.2422332763671875,-0.1239776611328125,0.47637535621353666
1786718652.31337,-0.0185546875,0.19482421875,0.9697265028953552,0.9892776369945021,0.3910064697265625,0.0019073486328125,-0.0629425048828125,0.3960447654846093
1786718652.321362,-0.0341796837747097,0.18212890625,0.9599608778953552,0.9776830142558383,0.0858306884765625,0.0667572021484375,0.0,0.10873560191146259
1786718652.329354,-0.01708984375,0.1845703125,0.9702147841453552,0.9877626184412758,-0.156402587890625,-0.179290771484375,0.1201629638671875,0.2665447206824665
1786718652.337346,-0.0170898400247097,0.1840820163488388,0.9692382216453552,0.9867122081303014,-0.034332275390625,0.308990478515625,0.1811981201171875,0.35984243729834775
1786718652.348017,-0.0214843712747097,0.1928710788488388,0.9770507216453552,0.9961370106230839,-0.034332275390625,0.186920166015625,0.2422332763671875,0.30788766421600716
1786718652.358688,-0.0263671837747097,0.1938476413488388,0.9741210341453552,0.9935712987003669,-0.156402587890625,0.003814697265625,0.0,0.15644910167243864
1786718652.369359,-0.02392578125,0.19873046875,0.9804686903953552,1.0006923078866952,-0.0972747802734375,0.1239776611328125,-0.1239776611328125,0.20050761530966976
1786718652.380015,-0.02880859375,0.20166015625,0.9682616591453552,0.9894581316374852,-0.339508056640625,-0.057220458984375,0.0,0.3442962408308815
1786718652.390672,-0.0185546875,0.19140625,0.9814452528953552,1.0001077008993147,0.026702880859375,0.003814697265625,0.1201629638671875,0.12315329328428595
1786718652.401329,-0.02392578125,0.1875,0.9741210341453552,0.9922905230691459,0.087738037109375,0.492095947265625,-0.0629425048828125,0.5038036754450902
1786718652.4095,-0.014648430049419403,0.19384765625,0.9726561903953552,0.9918929151127839,0.087738037109375,0.003814697265625,0.0,0.08782092615677901
1786718652.417669,-0.012695308774709702,0.18701171875,0.9697265028953552,0.9876760826467196,-0.2193450927734375,0.2460479736328125,-0.3070831298828125,0.45050185761129263
1786718652.425838,-0.0263671837747097,0.1865234375,0.9736327528953552,0.9916889424752167,0.026702880859375,0.064849853515625,0.1201629638671875,0.13913189868802556
1786718652.434007,-0.020507805049419403,0.189453125,0.9741210341453552,0.9925849312802542,-0.2193450927734375,0.1239776611328125,-0.0629425048828125,0.2597007683944606
1786718652.444433,-0.0214843712747097,0.1933593600988388,0.9677733778953552,0.9871346064797283,-0.0972747802734375,-0.2422332763671875,0.1811981201171875,0.31776107658243874
1786718652.454859,-0.0234374962747097,0.1874999850988388,0.9765624403953552,0.9946757062654258,0.026702880859375,-0.057220458984375,0.2422332763671875,0.25032815453351376
1786718652.465285,-0.030273430049419403,0.19482421875,0.9736327528953552,0.9933950343589869,0.026702880859375,-0.362396240234375,0.3643035888671875,0.514549495815236
1786718652.476103,-0.0234375,0.18408203125,0.9863280653953552,1.0036326834165576,0.637054443359375,-0.179290771484375,0.2422332763671875,0.704741445299599
1786718652.486921,-0.01318359375,0.20361328125,0.9824218153953552,1.0033866646563836,0.8792877197265625,-0.0591278076171875,0.0591278076171875,0.8832548269492605
1786718652.497739,-0.0175781212747097,0.1977538913488388,0.9750975966453552,0.9951034694315484,0.820159912109375,0.003814697265625,0.1201629638671875,0.8289245871801808
1786718652.50564,-0.0170898400247097,0.1879882663488388,0.9614257216453552,0.9797811332936577,0.8792877197265625,0.1239776611328125,0.3032684326171875,0.9383438051929506
1786718652.513543,-0.0234375,0.18603515625,0.9663085341453552,0.9843325550490327,0.698089599609375,0.186920166015625,0.1201629638671875,0.7326031500283311
1786718652.521446,-0.0224609337747097,0.19677734375,0.9658202528953552,0.9859181393311442,0.453948974609375,0.125885009765625,-0.1239776611328125,0.4871213069580892
1786718652.529349,-0.0224609375,0.18896484375,0.9653319716453552,0.9839095595467856,0.331878662109375,0.125885009765625,0.1201629638671875,0.3747394026954561
1786718652.537348,-0.02783203125,0.18603515625,0.9575194716453552,0.9758213155616469,0.331878662109375,-0.179290771484375,-0.0629425048828125,0.3824269682225535
1786718652.545347,-0.0200195275247097,0.18212890625,0.9624022841453552,0.9796886630467513,-0.156402587890625,-0.057220458984375,-0.3070831298828125,0.34933651266921917
1786718652.553346,-0.0209960900247097,0.19189453125,0.9628905653953552,0.9820501961953726,0.148773193359375,-0.301361083984375,0.0591278076171875,0.3412448734211236
1786718652.561345,-0.0224609337747097,0.1738281100988388,0.9843749403953552,0.9998573541685459,-0.583648681640625,-0.301361083984375,0.1201629638671875,0.6677600050964599
1786718652.572124,-0.014648430049419403,0.19091796875,0.9648436903953552,0.9836603042668067,-0.827789306640625,-0.423431396484375,0.0591278076171875,0.9316787973067165
1786718652.582903,-0.0317382775247097,0.17578125,0.9833983778953552,0.9994892374403107,-0.217437744140625,-0.179290771484375,0.1811981201171875,0.33504792500540725
1786718652.593682,-0.0258789025247097,0.1791992038488388,0.9858397841453552,1.0023283654869304,-0.5855560302734375,-0.6694793701171875,0.6084442138671875,1.0776283464119496
1786718652.604216,-0.0185546875,0.18505859375,0.9672850966453552,0.9850032577312444,-0.522613525390625,0.064849853515625,0.6694793701171875,0.8517822652736564
1786718652.61475,-0.0253906212747097,0.19677734375,0.9863280653953552,1.0060860098662368,-0.522613525390625,-0.789642333984375,0.4863739013671875,1.0645278223102708
1786718652.625284,-0.0253906212747097,0.1840820163488388,0.9687499403953552,0.986411333779055,-0.339508056640625,-0.911712646484375,0.6084442138671875,1.1474711463352343
1786718652.633315,-0.013671875,0.1884765625,0.9794921278953552,0.9975545916824817,-0.461578369140625,-0.911712646484375,0.9136199951171875,1.3707574680066463
1786718652.641346,-0.01708984375,0.185546875,0.9653319716453552,0.9831508129795621,-0.8907318115234375,-0.8525848388671875,0.7915496826171875,1.465214990224091
1786718652.649377,-0.024902336299419403,0.17529296875,0.9760741591453552,0.9920022759034729,-0.4024505615234375,-0.3643035888671875,1.0967254638671875,1.2237198627246109
1786718652.657408,-0.0200195275247097,0.1884765475988388,0.9619140028953552,0.9804094753944678,-0.7076263427734375,-0.2422332763671875,1.0356903076171875,1.2775235475163176
1786718652.668059,-0.0175781212747097,0.181640625,0.9843749403953552,1.001147506752276,-0.583648681640625,-0.301361083984375,0.6694793701171875,0.9379055994787446
1786718652.67871,-0.014648430049419403,0.173828125,0.9785155653953552,0.9939434115003328,-0.278472900390625,-0.179290771484375,0.4253387451171875,0.5390782736201609
1786718652.689361,-0.00830078125,0.1689453125,0.9829100966453552,0.9973583506806691,-0.034332275390625,0.003814697265625,0.5474090576171875,0.5484978882457647
1786718652.697472,-0.00390625,0.1943359375,0.9780272841453552,0.9971554963624308,-0.0972747802734375,-0.1163482666015625,0.1201629638671875,0.1934901545396582
1786718652.705584,-0.0166015587747097,0.1845702975988388,0.9721679091453552,0.9896727995057385,-0.0972747802734375,-0.0591278076171875,0.3032684326171875,0.32392934836619275
1786718652.713696,-0.005859367549419403,0.18017578125,0.9716796278953552,0.9882605646305953,0.0858306884765625,0.1239776611328125,0.1201629638671875,0.19281209876371921
1786718652.721808,-0.008300777524709702,0.18701171875,0.9638671278953552,0.981876838556947,0.3910064697265625,0.0019073486328125,-0.1850128173828125,0.43257304578852607
1786718652.7325,-0.01806640625,0.17919921875,0.9687499403953552,0.9853502940839896,0.576019287109375,-0.118255615234375,-0.1850128173828125,0.6164514192151552
1786718652.743192,-0.0205078087747097,0.1782226413488388,0.9741210341453552,0.990502735621923,0.3910064697265625,0.0019073486328125,-0.3070831298828125,0.49718180377550086
1786718652.753884,-0.020019523799419403,0.1845703125,0.9794921278953552,0.9969311963212276,0.698089599609375,-0.057220458984375,-0.2460479736328125,0.742389975240758
1786718652.764372,-0.01416015625,0.1767578125,0.9829100966453552,0.9987772986968572,1.308441162109375,0.064849853515625,-0.1850128173828125,1.3230470591778116
1786718652.774859,-0.02392578125,0.18994140625,0.9868163466453552,1.005214744630786,1.3027191162109375,0.3185272216796875,-0.5741119384765625,1.4588150001263707
1786718652.785346,-0.0332031212747097,0.1826171875,0.9726561903953552,0.9902078312895727,1.239776611328125,0.2593994140625,-0.2689361572265625,1.2948593586471109
1786718652.796035,-0.0258789025247097,0.2041015475988388,0.9682616591453552,0.9898776691586898,1.3027191162109375,0.6237030029296875,-0.4520416259765625,1.513414736025935
1786718652.806722,-0.013183590024709702,0.1831054538488388,0.9658202528953552,0.98311249365369,1.1196136474609375,0.4444122314453125,-0.0286102294921875,1.204929664449582
1786718652.817409,-0.01708984375,0.18994140625,0.9775390028953552,0.9959680229551912,0.6313323974609375,0.1964569091796875,-0.0858306884765625,0.6667404445003857
1786718652.828078,-0.004882805049419403,0.185546875,0.9731444716453552,0.9906874619683717,0.5092620849609375,0.0133514404296875,-0.0858306884765625,0.5166169172846252
1786718652.838746,-0.0258789025247097,0.19580078125,0.9667968153953552,0.9867642807644561,0.202178955078125,0.1983642578125,-0.3299713134765625,0.4348629397539348
1786718652.849414,-0.0224609375,0.18603515625,0.9726561903953552,0.9905420928909313,-0.102996826171875,0.0762939453125,-0.2689361572265625,0.2979190644396839
1786718652.857415,-0.0390624925494194,0.189453125,0.9736327528953552,0.9926626327242437,0.080108642578125,0.3814697265625,-0.0858306884765625,0.39912836780131156
1786718652.865417,-0.019531242549419403,0.181640625,0.9726561903953552,0.989664009045656,0.385284423828125,-0.1678466796875,0.0362396240234375,0.42181738403727337
1786718652.873419,-0.0234375,0.20068359375,0.9809569716453552,1.0015487014750162,0.1430511474609375,0.2613067626953125,-0.0858306884765625,0.31001897055592575
1786718652.881421,-0.0234375,0.201171875,0.9653319716453552,0.986349458953557,0.1430511474609375,-0.0438690185546875,-0.0858306884765625,0.17249645985701598
1786718652.892062,-0.0253906212747097,0.2060546875,0.9638671278953552,0.9859731528427533,0.202178955078125,-0.0457763671875,0.0362396240234375,0.21044029086353075
1786718652.902703,-0.0209960900247097,0.1928710788488388,0.9697265028953552,0.9889436684009338,0.4482269287109375,-0.0438690185546875,0.2765655517578125,0.5285076866325547
1786718652.913344,-0.01220703125,0.20556640625,0.9633788466453552,0.9851423050271536,0.2651214599609375,-0.1697540283203125,0.4024505615234375,0.5109523198237998
1786718652.921348,-0.0253906212747097,0.1884765475988388,0.9672850966453552,0.9858035051853423,0.202178955078125,0.0152587890625,0.2765655517578125,0.34292515938501744
1786718652.929354,-0.0219726525247097,0.1972656100988388,0.9765624403953552,0.996529336435998,0.385284423828125,0.0762939453125,0.4596710205078125,0.6046174827364909
1786718652.93736,-0.0395507737994194,0.1962890625,0.9570311903953552,0.9777537313428225,-0.102996826171875,-0.2288818359375,0.3414154052734375,0.42374487605353495
1786718652.945366,-0.0166015587747097,0.1791992038488388,0.9721679091453552,0.9886851925592187,-0.225067138671875,-0.2288818359375,0.2765655517578125,0.42371053344372844
1786718652.956022,-0.0336913987994194,0.18701171875,0.9711913466453552,0.9896065506562237,-0.3452301025390625,-0.4100799560546875,0.5245208740234375,0.7499810273221962
1786718652.966678,-0.0209960900247097,0.1928710788488388,0.9555663466453552,0.9750626296263188,-0.591278076171875,-0.4119873046875,0.2765655517578125,0.7719014231132676
1786718652.977334,-0.008789058774709702,0.2021484225988388,0.9770507216453552,0.9977822132013846,-0.286102294921875,-0.2288818359375,0.0362396240234375,0.36817757717037075
1786718652.988043,-0.0078125,0.19921875,0.9726561903953552,0.9928792525892652,-0.591278076171875,-0.2899169921875,0.4024505615234375,0.7717694475626065
1786718652.99875,-0.020507805049419403,0.1943359375,0.9658202528953552,0.9853911850502808,-0.4673004150390625,-0.3528594970703125,0.3414154052734375,0.6778229721147104
1786718653.009457,-0.012695308774709702,0.1884765475988388,0.9711913466453552,0.989392344653263,-0.64849853515625,-0.1068115234375,0.5245208740234375,0.840881203812496
1786718653.017486,-0.0258789025247097,0.1835937350988388,0.9643554091453552,0.982017175161072,-0.7114410400390625,-0.0438690185546875,0.4596710205078125,0.8481569968676249
1786718653.025514,-0.0180664025247097,0.177734375,0.9858397841453552,1.0018961937050095,-0.713348388671875,-0.1068115234375,0.5245208740234375,0.8918501961911041
1786718653.033542,-0.0209960900247097,0.1748046725988388,0.9658202528953552,0.9817363547620923,-0.7114410400390625,0.0133514404296875,0.6427764892578125,0.9588994887661633
1786718653.04157,-0.029296867549419403,0.1943359375,0.9707030653953552,0.9903985077836857,-0.5283355712890625,0.0133514404296875,0.6427764892578125,0.8321528417264982
1786718653.052502,-0.0209960900247097,0.18212890625,0.9658202528953552,0.9830669027034706,-0.46539306640625,0.2593994140625,0.7648468017578125,0.9321316390049933
1786718653.063434,0.0024414099752902985,0.1835937350988388,0.9770507216453552,0.9941532742580087,-0.5283355712890625,0.1354217529296875,0.4024505615234375,0.6778229721147104
1786718653.074366,-0.0224609337747097,0.1831054538488388,0.9716796278953552,0.9890366019728881,-0.408172607421875,0.0762939453125,0.3414154052734375,0.5375780152674999
1786718653.082087,-0.024902336299419403,0.18115234375,0.9697265028953552,0.9868159850838164,-0.2231597900390625,0.1354217529296875,0.4024505615234375,0.47969344119693563
1786718653.089809,-0.0346679612994194,0.1953125,0.9755858778953552,0.9955484143655491,-0.4673004150390625,-0.1697540283203125,0.9479522705078125,1.0704202983817013
1786718653.097531,-0.01318359375,0.18115234375,0.9780272841453552,0.9947498918436848,-0.102996826171875,-0.1068115234375,0.4024505615234375,0.4289329810250655
1786718653.113351,-0.02392578125,0.1904296875,0.9663085341453552,0.9851842934456049,-0.041961669921875,-0.1068115234375,0.3414154052734375,0.3601860106107643
1786718653.121448,-0.020507805049419403,0.18017578125,0.9648436903953552,0.9817368431065022,-0.102996826171875,-0.5340576171875,0.2765655517578125,0.610175703463005
1786718653.129545,-0.020019523799419403,0.17919921875,0.9667968153953552,0.9834679575829435,-0.1621246337890625,0.2613067626953125,0.5855560302734375,0.6613935936347802
1786718653.137642,-0.0205078087747097,0.201171875,0.9531249403953552,0.9743396971874877,-0.225067138671875,-0.0457763671875,0.6427764892578125,0.6825776936330608
1786718653.148225,-0.02294921875,0.18505859375,0.9594725966453552,0.977425707394349,-0.408172607421875,0.0152587890625,0.4596710205078125,0.6149269510990063
1786718653.158808,-0.01806640625,0.18408203125,0.9702147841453552,0.9876888764373801,-0.2231597900390625,0.1354217529296875,0.2765655517578125,0.38029968114098
1786718653.169391,-0.011718746274709702,0.1889648288488388,0.9741210341453552,0.9923491445658319,-0.4673004150390625,0.1964569091796875,0.4024505615234375,0.6472491402316779
1786718653.177389,-0.029785148799419403,0.18603515625,0.9765624403953552,0.9945704773624126,-0.591278076171875,0.6866455078125,0.6427764892578125,1.1109695908994082
1786718653.185387,-0.0219726525247097,0.1791992038488388,0.9736327528953552,0.9902302205192574,-0.3452301025390625,0.4444122314453125,0.5245208740234375,0.7692907138680698
1786718653.193385,-0.016113273799419403,0.18017578125,0.9702147841453552,0.9869344847130437,-0.4062652587890625,0.3185272216796875,0.4024505615234375,0.6545819321677424
1786718653.201383,-0.0170898400247097,0.19580078125,0.9721679091453552,0.991836908035909,-0.591278076171875,0.1983642578125,0.2765655517578125,0.6822365033902252
1786718653.212054,-0.00927734375,0.1845703125,0.9711913466453552,0.9886176718844458,-0.286102294921875,-0.2899169921875,0.3414154052734375,0.5314798815351679
1786718653.222725,-0.009765617549419403,0.18505859375,0.9711913466453552,0.9887136502575796,-0.6504058837890625,-0.4749298095703125,0.4024505615234375,0.9003069433012582
1786718653.233396,-0.0161132775247097,0.1835937350988388,0.9907225966453552,1.00771898899636,-0.286102294921875,0.0762939453125,0.2765655517578125,0.4051713139772034
1786718653.24141,-0.010253898799419403,0.18115234375,0.9799804091453552,0.9966357992744415,-0.3452301025390625,-0.2269744873046875,0.5245208740234375,0.6677000740397354
1786718653.249424,-0.021484375,0.18505859375,0.9775390028953552,0.9951335406223194,-0.408172607421875,0.0762939453125,0.5855560302734375,0.7178450446513549
1786718653.257438,-0.0166015587747097,0.1738281100988388,0.9838866591453552,0.9992621185947622,-0.1621246337890625,0.2613067626953125,0.2765655517578125,0.41358690202984577
1786718653.265452,-0.0073242150247097015,0.19140625,0.9677733778953552,0.986547164421335,-0.3452301025390625,0.3795623779296875,0.2193450927734375,0.5579997241599304
1786718653.276109,-0.0185546875,0.17333984375,0.9780272841453552,0.9934426739335473,0.2651214599609375,0.0133514404296875,0.4024505615234375,0.48211420220098955
1786718653.286766,-0.02294921875,0.1806640625,0.9755858778953552,0.9924383987276441,0.568389892578125,0.5035400390625,0.3414154052734375,0.8325767951859229
1786718653.297423,-0.013671871274709702,0.177734375,0.9785155653953552,0.9946200982494696,0.5092620849609375,-0.0438690185546875,0.2193450927734375,0.556223544711567
1786718653.305464,-0.0283203125,0.16845703125,0.9687499403953552,0.9836952060946853,0.873565673828125,-0.2899169921875,0.0362396240234375,0.9211309131709744
1786718653.313508,-0.010253898799419403,0.1943359375,0.9829100966453552,1.0019899486182355,0.99945068359375,-0.2288818359375,0.2765655517578125,1.0619684873748552
1786718653.321552,-0.01318359375,0.18603515625,0.9731444716453552,0.9908547064020257,1.1196136474609375,-0.3528594970703125,0.2193450927734375,1.1942180763902739
1786718653.329596,-0.0302734337747097,0.17236328125,0.9755858778953552,0.9911575993073096,0.751495361328125,-0.4119873046875,0.1583099365234375,0.8715164102433269
1786718653.340172,-0.0161132775247097,0.1806640625,0.9736327528953552,0.9903837027648325,1.2416839599609375,-0.4749298095703125,0.1583099365234375,1.3388052197555935
1786718653.350748,-0.02734375,0.17529296875,0.9760741591453552,0.9920665651601022,0.81634521484375,-0.4119873046875,0.4024505615234375,0.9990593092967451
1786718653.361324,-0.015624996274709702,0.1787109225988388,0.9770507216453552,0.9933830313793478,0.751495361328125,-0.2288818359375,0.5245208740234375,0.9445921448996496
1786718653.371995,-0.01806640625,0.17626953125,0.9721679091453552,0.9881840852057557,0.568389892578125,-0.4730224609375,0.4596710205078125,0.8706978612762495
1786718653.382667,-0.01904296875,0.18212890625,0.9775390028953552,0.9945431490550222,0.6313323974609375,-0.2918243408203125,0.5245208740234375,0.8711281130036477
1786718653.393339,-0.0166015587747097,0.1977538913488388,0.9599608778953552,0.9802586905439704,0.690460205078125,-0.5340576171875,0.3414154052734375,0.9372925435692648
1786718653.404074,-0.0161132775247097,0.1884765475988388,0.9775390028953552,0.9956734147746493,0.1430511474609375,-0.1087188720703125,0.1583099365234375,0.23946912104943024
1786718653.414808,-0.00390625,0.18896484375,0.9711913466453552,0.9894117458173534,0.263214111328125,-0.2288818359375,0.4024505615234375,0.5325739551413544
1786718653.425542,-0.01318359375,0.19140625,0.9687499403953552,0.9875660011863672,0.202178955078125,-0.0457763671875,0.5245208740234375,0.5639981852414758
1786718653.433527,-0.01904296875,0.18017578125,0.9614257216453552,0.9783482841243978,0.263214111328125,0.1983642578125,0.1583099365234375,0.36563928014070557
1786718653.441511,-0.01904296875,0.19580078125,0.9780272841453552,0.9976161331542626,0.446319580078125,0.2593994140625,0.4024505615234375,0.6545652588150491
1786718653.449495,-0.0166015587747097,0.19189453125,0.9765624403953552,0.995375970610271,0.385284423828125,0.3204345703125,0.7076263427734375,0.8670971353215493
1786718653.457479,-0.0087890625,0.18798828125,0.9843749403953552,1.0022030057754352,0.263214111328125,0.1983642578125,0.1583099365234375,0.36563928014070557
1786718653.468187,-0.0200195275247097,0.1977538913488388,0.9765624403953552,0.9965849602602141,0.4482269287109375,0.3185272216796875,-0.0286102294921875,0.5506228435183345
1786718653.478895,-0.0161132775247097,0.17724609375,0.9707030653953552,0.9868841150966822,0.3871917724609375,0.1354217529296875,0.0972747802734375,0.4215671983269539
1786718653.489603,-0.0126953125,0.1904296875,0.9658202528953552,0.9844965199246101,0.385284423828125,-0.2899169921875,0.0362396240234375,0.48353827144599143
1786718653.500205,-0.0283203125,0.19091796875,0.9697265028953552,0.9887472889011525,0.080108642578125,-0.2899169921875,-0.1468658447265625,0.3347220239571987
1786718653.510808,-0.013671875,0.189453125,0.9672850966453552,0.9857585226263557,0.202178955078125,-0.2899169921875,0.2193450927734375,0.41598132405111327
1786718653.521411,-0.01220703125,0.1904296875,0.9653319716453552,0.9840113276654873,0.0209808349609375,0.0133514404296875,-0.4520416259765625,0.45272517934475437
1786718653.532097,-0.0058593712747097015,0.17578125,0.9658202528953552,0.9817036930694237,0.202178955078125,0.0762939453125,-0.1468658447265625,0.26127891670602893
1786718653.542783,-0.01171875,0.17529296875,0.9814452528953552,0.9970455046915255,0.080108642578125,0.1983642578125,-0.2689361572265625,0.34364579156015296
1786718653.553469,-0.029296867549419403,0.19189453125,0.9775390028953552,0.9966264695228151,0.3261566162109375,0.6847381591796875,-0.3910064697265625,0.8533056570203815
1786718653.56147,-0.01904296875,0.1845703125,0.9633788466453552,0.9810849285759597,0.3261566162109375,0.6237030029296875,-0.5168914794921875,0.8732470301886524
1786718653.569473,-0.0087890625,0.18212890625,0.9707030653953552,0.9876804277089779,0.385284423828125,0.4425048828125,-0.3299713134765625,0.67315356812166
1786718653.577476,-0.009765621274709702,0.17724609375,0.9711913466453552,0.9872812045751369,-0.102996826171875,0.4425048828125,-0.6999969482421875,0.8345146164464464
1786718653.585479,-0.0219726525247097,0.2026367038488388,0.9638671278953552,0.9851823544110677,-0.102996826171875,0.5035400390625,-1.1882781982421875,1.2946682947991903
1786718653.593444,-0.0161132775247097,0.19677734375,0.9838866591453552,1.0035008314745446,-0.041961669921875,0.5645751953125,-1.0623931884765625,1.2038210912864822
1786718653.601409,-0.02392578125,0.19921875,0.9663085341453552,0.9869208359955375,-0.1621246337890625,0.4444122314453125,-1.2454986572265625,1.3323113500577144
1786718653.609374,-0.0283203125,0.189453125,0.9682616591453552,0.9870284531072442,-0.1621246337890625,0.1964569091796875,-1.2454986572265625,1.271277553958554
1786718653.617339,-0.01806640625,0.1806640625,0.9643554091453552,0.9812987586162022,-0.102996826171875,0.3814697265625,-0.8792877197265625,0.963988792749732
1786718653.628054,-0.030761711299419403,0.18994140625,0.9648436903953552,0.9838431620873442,-0.102996826171875,0.8087158203125,-1.1882781982421875,1.4410533302563437
1786718653.638769,-0.014648430049419403,0.201171875,0.9692382216453552,0.9900037525646956,0.202178955078125,0.5035400390625,-1.3065338134765625,1.414729481764325
1786718653.649484,-0.01220703125,0.20068359375,0.9863280653953552,1.0066111309730772,0.202178955078125,0.6866455078125,-0.7572174072265625,1.0419868449661378
1786718653.657625,-0.02783203125,0.1953125,0.9755858778953552,0.9953338132348373,0.385284423828125,0.6866455078125,-0.6999969482421875,1.0535282949176221
1786718653.665765,-0.0283203125,0.19677734375,0.9658202528953552,0.9860690259896876,0.5092620849609375,0.1964569091796875,-0.6999969482421875,0.8876592341048297
1786718653.673905,-0.020507805049419403,0.1953125,0.9692382216453552,0.9889339073074832,0.690460205078125,0.5645751953125,-0.9403228759765625,1.29602760659004
1786718653.682045,-0.0234375,0.19189453125,0.9663085341453552,0.9854567523194777,0.6313323974609375,0.3185272216796875,-1.1234283447265625,1.3274529870280982
1786718653.692558,-0.0312499962747097,0.1938476413488388,0.9677733778953552,0.9874911550422432,0.5702972412109375,0.3185272216796875,-0.8182525634765625,1.0470127945348868
1786718653.703071,-0.033203125,0.1865234375,0.9672850966453552,0.985664191516967,0.51116943359375,0.3814697265625,-0.7572174072265625,0.9900462332291061
1786718653.713584,-0.015136715024709702,0.1923827975988388,0.9726561903953552,0.9916150087952988,0.385284423828125,0.2593994140625,-0.8182525634765625,0.9408875601773596
1786718653.724153,-0.0214843712747097,0.1943359225988388,0.9790038466453552,0.9983368974288257,0.1430511474609375,-0.0438690185546875,-0.6351470947265625,0.6525334884267897
1786718653.734722,-0.02880859375,0.18212890625,0.9643554091453552,0.9818259666119955,-0.1621246337890625,-0.0438690185546875,-0.8182525634765625,0.8353120047659767
1786718653.745291,-0.017578125,0.18603515625,0.9575194716453552,0.9755827019886514,0.080108642578125,0.0762939453125,-0.1468658447265625,0.18386880391818317
1786718653.755989,-0.02880859375,0.18994140625,0.9682616591453552,0.9871364208927741,-0.16021728515625,0.0762939453125,-0.2117156982421875,0.27624967228281533
1786718653.76669,-0.02392578125,0.18310546875,0.9750975966453552,0.9924290295422278,-0.0400543212890625,-0.3528594970703125,-0.2689361572265625,0.4454669796858479
1786718653.777391,-0.02294921875,0.20068359375,0.9755858778953552,0.9962772588945817,-0.286102294921875,-0.5340576171875,-0.1468658447265625,0.6234112911896933
1786718653.785397,-0.0307617150247097,0.1889648288488388,0.9770507216453552,0.9956315093049445,-0.225067138671875,-0.7171630859375,0.0972747802734375,0.7579185257127501
1786718653.793403,-0.01806640625,0.1904296875,0.9765624403953552,0.9951201238579539,-0.286102294921875,-0.7781982421875,0.2193450927734375,0.8576475365947636
1786718653.801409,-0.0380859375,0.1904296875,0.9765624403953552,0.9956847917426144,0.080108642578125,-0.4119873046875,0.2193450927734375,0.4735643605289239
1786718653.809415,-0.019531242549419403,0.18896484375,0.9638671278953552,0.982409803415167,0.1430511474609375,-0.2269744873046875,0.3414154052734375,0.43421829491068453
1786718653.820103,-0.0068359337747097015,0.1874999850988388,0.9726561903953552,0.9905872193386317,-0.225067138671875,-0.2899169921875,0.2765655517578125,0.4595602068152716
1786718653.830791,-0.005371086299419403,0.19921875,0.9829100966453552,1.0029103733669225,-0.041961669921875,-0.4119873046875,0.2193450927734375,0.4686220125966035
1786718653.841479,-0.0175781212747097,0.1884765475988388,0.9755858778953552,0.9937807627898503,-0.286102294921875,-0.4730224609375,0.4024505615234375,0.6837918003175106
1786718653.852138,-0.0078124962747097015,0.1865234375,0.9809569716453552,0.9985632719334739,-0.102996826171875,-0.2288818359375,0.4024505615234375,0.47430127081226575
1786718653.862797,-0.02392578125,0.18505859375,0.9755858778953552,0.9932708247391551,0.1430511474609375,-0.1087188720703125,0.2193450927734375,0.2835413438247053
1786718653.873456,-0.0170898400247097,0.1865234375,0.9838866591453552,1.001556794901365,0.080108642578125,-0.2899169921875,0.0362396240234375,0.3029563785829848
1786718653.88144,-0.0200195275247097,0.1977538913488388,0.9746093153953552,0.99467115203032,0.202178955078125,-0.1678466796875,0.0362396240234375,0.2652586437949965
1786718653.889425,-0.0185546875,0.19580078125,0.9819335341453552,1.001436811708817,0.690460205078125,0.1373291015625,-0.2117156982421875,0.7351313582038702
1786718653.89741,-0.02685546875,0.18505859375,0.9687499403953552,0.9866328325869326,0.6313323974609375,-0.0438690185546875,-0.5741119384765625,0.8544645134667929
1786718653.905395,-0.0214843712747097,0.1894531100988388,0.9633788466453552,0.9820656094675789,0.51116943359375,0.2593994140625,-0.2117156982421875,0.6110693763712108
1786718653.916051,-0.0283203125,0.18798828125,0.9692382216453552,0.987706618528841,0.080108642578125,0.2593994140625,-0.1468658447265625,0.30866653038339753
1786718653.926707,-0.0224609375,0.18408203125,0.9760741591453552,0.9935348268147509,0.385284423828125,0.3204345703125,-0.3299713134765625,0.6000028906708489
1786718653.937363,-0.0336914025247097,0.1874999850988388,0.9780272841453552,0.9964079102199491,0.080108642578125,0.0152587890625,-0.2689361572265625,0.2810282582288728
1786718653.948076,-0.0229492150247097,0.18212890625,0.9736327528953552,0.9907867290555821,0.263214111328125,0.2593994140625,-0.2689361572265625,0.45705183631839097
1786718653.958788,-0.0278320275247097,0.1972656100988388,0.9829100966453552,1.0028961066686743,-0.041961669921875,-0.1068115234375,-0.0858306884765625,0.14330523495683165
1786718653.9695,-0.02392578125,0.1826171875,0.9658202528953552,0.9832244103365625,-0.102996826171875,-0.0457763671875,-0.1468658447265625,0.18513076011730473
1786718653.977457,-0.01708984375,0.20068359375,0.9750975966453552,0.9956813197722263,-0.041961669921875,0.2593994140625,0.2765655517578125,0.38149356767539866
1786718653.985415,-0.01904296875,0.18994140625,0.9882811903953552,1.0065485997984902,0.202178955078125,0.1983642578125,0.0362396240234375,0.28554862808871373
1786718653.993373,-0.01806640625,0.20166015625,0.9702147841453552,0.9911155033737403,0.080108642578125,0.0762939453125,0.0972747802734375,0.14731104366035178
1786718654.001331,-0.01318359375,0.18505859375,0.9770507216453552,0.9945092271731831,0.385284423828125,0.3204345703125,-0.0286102294921875,0.5019371936084458
1786718654.012236,-0.02197265625,0.1953125,0.9746093153953552,0.9942298969224038,0.1430511474609375,0.3795623779296875,0.0972747802734375,0.41712541568067435
1786718654.023141,-0.03173828125,0.1953125,0.9775390028953552,0.9973649248567945,0.263214111328125,-0.1068115234375,0.0362396240234375,0.28636284725965117
1786718654.034046,-0.02783203125,0.19580078125,0.9716796278953552,0.9916016675906043,0.080108642578125,0.5035400390625,-0.0286102294921875,0.5106745644599596
1786718654.0445,-0.0361328087747097,0.19140625,0.9760741591453552,0.9953203989471553,0.202178955078125,0.0762939453125,-0.1468658447265625,0.26127891670602893
1786718654.054956,-0.02880859375,0.19287109375,0.9682616591453552,0.9877043254178296,0.0209808349609375,-0.1697540283203125,-0.2117156982421875,0.27217671180468134
1786718654.065412,-0.01806640625,0.18896484375,0.9721679091453552,0.9905274104134139,0.385284423828125,-0.2899169921875,-0.0286102294921875,0.4830263914479341
1786718654.073427,-0.024414055049419403,0.189453125,0.9653319716453552,0.9840499723778923,0.080108642578125,-0.2288818359375,0.0972747802734375,0.26127891670602893
1786718654.081444,-0.01416015625,0.1943359375,0.9667968153953552,0.986236811768669,0.02288818359375,-0.2288818359375,0.1583099365234375,0.27923610041038155
1786718654.089461,-0.015136715024709702,0.1831054538488388,0.9638671278953552,0.9812219767250271,0.080108642578125,-0.2899169921875,-0.0286102294921875,0.30213871351806665
1786718654.097478,-0.02392578125,0.18505859375,0.9750975966453552,0.9927912414564798,-0.4062652587890625,-0.3528594970703125,0.0362396240234375,0.5393279109419592
1786718654.108115,-0.0219726525247097,0.18701171875,0.9687499403953552,0.986880249789611,-0.286102294921875,-0.2899169921875,-0.0286102294921875,0.4083196428659857
1786718654.118752,-0.030761711299419403,0.18505859375,0.9633788466453552,0.9814742829878587,-0.225067138671875,-0.2899169921875,-0.2117156982421875,0.42371053344372844
1786718654.129389,-0.0053710900247097015,0.19189453125,0.9594725966453552,0.9784886424711793,-0.102996826171875,-0.4119873046875,0.2193450927734375,0.47796878051703157
1786718654.14007,-0.0268554650247097,0.1889648288488388,0.9824218153953552,1.000790460540202,-0.408172607421875,-0.5340576171875,0.3414154052734375,0.7539143816665046
1786718654.150752,-0.02392578125,0.19677734375,0.9746093153953552,0.9945637655158825,-0.4673004150390625,-0.4749298095703125,0.4024505615234375,0.7783922252853657
1786718654.161434,-0.0166015625,0.19970703125,0.9682616591453552,0.9887816496977713,-0.3452301025390625,-0.3528594970703125,0.4024505615234375,0.6369145176885008
1786718654.16941,-0.012695308774709702,0.2021484225988388,0.9711913466453552,0.9920875906001961,-0.8335113525390625,-0.3528594970703125,0.3414154052734375,0.9673755622519296
1786718654.177387,-0.010742180049419403,0.2099609375,0.9609374403953552,0.9836664851776082,-0.4673004150390625,0.1354217529296875,0.4024505615234375,0.6314073039906646
1786718654.185364,-0.0078125,0.18603515625,0.9814452528953552,0.9989519002174427,-0.7114410400390625,0.0133514404296875,0.4024505615234375,0.8174919381155636
1786718654.193341,0.0034179724752902985,0.1943359225988388,0.9833983778953552,1.0024223176862133,-0.64849853515625,0.0762939453125,0.4024505615234375,0.7670316620985596
1786718654.20401,-0.019531242549419403,0.18359375,0.9746093153953552,0.9919432706208504,-0.225067138671875,0.0762939453125,0.0972747802734375,0.25678466830894964
1786718654.214679,-0.00927734375,0.20263671875,0.9731444716453552,0.9940613017247678,0.080108642578125,0.2593994140625,-0.0286102294921875,0.2729908347605717
1786718654.225348,-0.02392578125,0.177734375,0.9770507216453552,0.993373073790896,-0.0400543212890625,0.3185272216796875,0.0362396240234375,0.3230746816980067
1786718654.233391,-0.0258789025247097,0.18701171875,0.9843749403953552,1.0023158802613434,-0.041961669921875,-0.1068115234375,-0.0858306884765625,0.14330523495683165
1786718654.241434,-0.013671871274709702,0.1923827975988388,0.9628905653953552,0.9820164468090617,0.385284423828125,0.0762939453125,-0.2117156982421875,0.4461932207218012
1786718654.249477,-0.029785148799419403,0.19384765625,0.9760741591453552,0.9955826600910312,0.51116943359375,0.2593994140625,-0.4520416259765625,0.7300163542497236
1786718654.25752,-0.0175781212747097,0.1962890625,0.9799804091453552,0.9995999143224129,0.202178955078125,-0.2899169921875,-0.2117156982421875,0.41200937989044184
1786718654.265627,-0.01416015625,0.2041015625,0.9702147841453552,0.9915516553433734,0.1430511474609375,-0.4749298095703125,-0.3910064697265625,0.6315916514461012
1786718654.273734,-0.0263671837747097,0.19580078125,0.9638671278953552,0.9839070151978594,-0.041961669921875,-0.1068115234375,-0.2117156982421875,0.24081740004378627
1786718654.281841,-0.0224609337747097,0.1767578125,0.9799804091453552,0.9960468965538294,0.3871917724609375,0.1354217529296875,-0.2117156982421875,0.4616059539370877
1786718654.289948,-0.01416015625,0.17724609375,0.9833983778953552,0.999344313748707,0.202178955078125,0.2593994140625,-0.0286102294921875,0.3301256293050366
1786718654.301585,-0.020019523799419403,0.185546875,0.9799804091453552,0.9975921142752276,0.1430511474609375,0.5016326904296875,-0.1468658447265625,0.5419119515611963
1786718654.313222,-0.0307617150247097,0.18603515625,0.9819335341453552,0.9998744060887902,0.0820159912109375,0.3185272216796875,-0.0286102294921875,0.33015868759868944
1786718654.324859,-0.0175781212747097,0.18212890625,0.9692382216453552,0.9863582813246008,0.0209808349609375,0.6237030029296875,-0.3910064697265625,0.7364317284495536
1786718654.333763,-0.0371093712747097,0.17724609375,0.9750975966453552,0.9917704402580195,0.0209808349609375,0.4444122314453125,-0.3299713134765625,0.5539165050901697
1786718654.342666,-0.0317382775247097,0.1865234375,0.9638671278953552,0.9822617529122739,0.02288818359375,-0.1068115234375,-0.1468658447265625,0.18303591678822925
1786718654.351569,-0.017578125,0.185546875,0.9677733778953552,0.9855566672007081,0.0820159912109375,-0.1697540283203125,-0.2689361572265625,0.32843524416401537
1786718654.360472,-0.0209960900247097,0.1972656100988388,0.9687499403953552,0.988853378282138,-0.102996826171875,0.0152587890625,-0.4520416259765625,0.463878010322399
1786718654.369375,-0.02294921875,0.18896484375,0.9770507216453552,0.9954207610264147,0.263214111328125,-0.2899169921875,-0.2117156982421875,0.4451483658775785
1786718654.379005,-0.0268554650247097,0.1865234375,0.9736327528953552,0.9917020450967607,0.3261566162109375,-0.2269744873046875,0.2193450927734375,0.4538808499035649
1786718654.388637,-0.0219726525247097,0.18212890625,0.9741210341453552,0.9912444325771567,0.3261566162109375,-0.2269744873046875,0.2193450927734375,0.4538808499035649
1786718654.398269,-0.021484375,0.19482421875,0.9829100966453552,1.0022625966622072,0.3261566162109375,-0.3528594970703125,0.3414154052734375,0.5894509665179185
1786718654.407901,-0.015624992549419403,0.185546875,0.9653319716453552,0.9831264408483498,0.1430511474609375,-0.1697540283203125,0.2193450927734375,0.31207744334484067
1786718654.417533,-0.02197265625,0.17529296875,0.9721679091453552,0.9880895030754657,0.385284423828125,0.0152587890625,0.4596710205078125,0.5999786371054538
1786718654.427099,-0.0336913987994194,0.18115234375,0.9594725966453552,0.9770050899112861,0.02288818359375,0.0762939453125,0.4024505615234375,0.41025734546757125
1786718654.436667,-0.0317382775247097,0.1894531100988388,0.9775390028953552,0.9962340595301907,0.32806396484375,0.0762939453125,0.4024505615234375,0.5247982332200425
1786718654.446235,-0.0185546875,0.2041015625,0.9741210341453552,0.9954463890172993,0.263214111328125,0.1983642578125,0.5245208740234375,0.6194773558945229
1786718654.455803,-0.020019523799419403,0.20068359375,0.9707030653953552,0.9914328657561791,0.202178955078125,-0.1678466796875,-0.0858306884765625,0.2764339791757906
1786718654.465371,-0.033203125,0.18701171875,0.9726561903953552,0.9910276964716981,0.02288818359375,-0.4119873046875,0.1583099365234375,0.4419495946077414
1786718654.474991,-0.0166015625,0.18505859375,0.9838866591453552,1.0012768113975163,-0.1621246337890625,-0.2269744873046875,-0.0286102294921875,0.28039322388399296
1786718654.484611,-0.014648430049419403,0.18603515625,0.9711913466453552,0.9889571718040641,-0.1621246337890625,-0.1087188720703125,-0.0286102294921875,0.197288456978796
1786718654.494231,-0.012207027524709702,0.19677734375,0.9677733778953552,0.9876515810230249,-0.1621246337890625,-0.3528594970703125,0.0362396240234375,0.3900096561667565
1786718654.503851,-0.0307617150247097,0.17724609375,0.9736327528953552,0.9901127200331703,0.0209808349609375,-0.2918243408203125,-0.0286102294921875,0.2939731051685913
1786718654.513471,-0.0205078087747097,0.1826171875,0.9667968153953552,0.9841065438506904,0.080108642578125,-0.1068115234375,0.4596710205078125,0.47866851081875356
1786718654.521486,-0.0234375,0.1884765625,0.9780272841453552,0.9962981981067746,-0.1621246337890625,-0.0438690185546875,0.1583099365234375,0.2308049472438664
1786718654.529501,-0.0263671837747097,0.1933593600988388,0.9760741591453552,0.9953912972642236,0.1430511474609375,-0.1697540283203125,0.2193450927734375,0.31207744334484067
1786718654.537516,-0.020019523799419403,0.1953125,0.9702147841453552,0.9898810440470227,0.02288818359375,-0.1068115234375,0.4024505615234375,0.4170120201598402
1786718654.545531,-0.0273437462747097,0.1879882663488388,0.9633788466453552,0.9819297688271359,0.0820159912109375,0.1354217529296875,0.5245208740234375,0.5478939872522537
1786718654.55614,-0.00048827752470970154,0.19677734375,0.9667968153953552,0.9866193002809378,-0.408172607421875,-0.1068115234375,-0.0286102294921875,0.42288547411823846
1786718654.566749,-0.0087890625,0.17431640625,0.9682616591453552,0.9838669105516559,-0.225067138671875,-0.0457763671875,0.0972747802734375,0.24942549103905837
1786718654.577358,-0.014648433774709702,0.1782226413488388,0.9697265028953552,0.9860767601556505,-0.2231597900390625,0.0133514404296875,-0.0858306884765625,0.23946912104943024
1786718654.585435,-0.0166015587747097,0.18115234375,0.9770507216453552,0.9938409812779797,-0.286102294921875,-0.2899169921875,-0.0286102294921875,0.4083196428659857
1786718654.593515,-0.014648433774709702,0.1928710788488388,0.9638671278953552,0.9830837552851782,-0.1621246337890625,-0.2918243408203125,0.0362396240234375,0.3357962970698272
1786718654.601595,-0.0209960900247097,0.1835937350988388,0.9838866591453552,1.0010896330539423,-0.286102294921875,0.0152587890625,0.2193450927734375,0.36083184938001983
1786718654.609675,-0.0166015587747097,0.1831054538488388,0.9780272841453552,0.9951585740552501,-0.1621246337890625,0.2613067626953125,-0.1468658447265625,0.34078614622485576
1786718654.620267,-0.015136715024709702,0.181640625,0.9770507216453552,0.9939067106423215,-0.102996826171875,0.3204345703125,-0.0858306884765625,0.3473522234522138
1786718654.630859,-0.0166015587747097,0.1992187350988388,0.9785155653953552,0.9987274041945196,0.1430511474609375,-0.0438690185546875,0.3414154052734375,0.3727634645950002
1786718654.641451,-0.01416015625,0.181640625,0.9716796278953552,0.9886127279892116,-0.408172607421875,0.2593994140625,-0.4520416259765625,0.6619928738899497
1786718654.652125,-0.0297851525247097,0.1874999850988388,0.9672850966453552,0.9857402588487493,-0.3452301025390625,0.1354217529296875,0.0972747802734375,0.3833865643745572
1786718654.6628,-0.030273430049419403,0.189453125,0.9780272841453552,0.9966676154425617,-0.2231597900390625,0.3185272216796875,0.0362396240234375,0.39060618683095555
1786718654.673475,-0.01220703125,0.185546875,0.9619140028953552,0.9797220031214822,-0.5283355712890625,0.1354217529296875,-0.2117156982421875,0.5850650083008437
1786718654.681444,-0.0385742112994194,0.1943359375,0.9702147841453552,0.9902379278514807,-0.225067138671875,-0.0457763671875,-0.0858306884765625,0.24518890632977372
1786718654.689413,-0.029785148799419403,0.18408203125,0.9628905653953552,0.9807811123005562,-0.6504058837890625,0.1964569091796875,0.0362396240234375,0.6803943277109441
1786718654.697382,-0.01318359375,0.1943359375,0.9794921278953552,0.9986716639402261,-0.408172607421875,0.1983642578125,0.4024505615234375,0.606563855416399
1786718654.705351,-0.02783203125,0.18017578125,0.9614257216453552,0.9785588139472461,-0.3452301025390625,0.1964569091796875,0.1583099365234375,0.42759931813044605
1786718654.71602,-0.024414055049419403,0.2060546875,0.9697265028953552,0.9916774025570685,-0.6504058837890625,-0.0438690185546875,-0.0858306884765625,0.6575098566110957
1786718654.726689,-0.0219726525247097,0.19189453125,0.9794921278953552,0.9983542142904991,-0.3452301025390625,-0.1697540283203125,0.2765655517578125,0.47380244643649566
1786718654.737358,-0.0366210900247097,0.17724609375,0.9653319716453552,0.9821522781447592,-0.46539306640625,0.0762939453125,0.1583099365234375,0.4974670927331915
1786718654.745421,-0.02392578125,0.17919921875,0.9814452528953552,0.9979577082421184,-0.2231597900390625,-0.3528594970703125,0.2765655517578125,0.5007979842033069
1786718654.753483,-0.0268554650247097,0.1835937350988388,0.9775390028953552,0.9949926521089898,0.202178955078125,-0.2899169921875,0.2193450927734375,0.41598132405111327
1786718654.761545,-0.012207027524709702,0.17724609375,0.9604491591453552,0.9767434548404421,0.1430511474609375,-0.2918243408203125,0.0972747802734375,0.3392454267375558
1786718654.769607,-0.0312499962747097,0.1865234375,0.9785155653953552,0.9966244361468253,0.2651214599609375,-0.1697540283203125,-0.1468658447265625,0.34738364240424335
1786718654.781075,-0.0209960900247097,0.1894531100988388,0.9799804091453552,0.9983460918094217,0.202178955078125,0.0762939453125,-0.2689361572265625,0.34499819221500216
1786718654.792543,-0.001953125,0.18017578125,0.9653319716453552,0.9820045531091097,0.3261566162109375,0.0133514404296875,-0.3299713134765625,0.46415241782970834
1786718654.804011,-0.0322265625,0.1953125,0.9736327528953552,0.9935523446187444,0.202178955078125,0.2593994140625,0.0362396240234375,0.3308741395784973
1786718654.811779,-0.0283203125,0.18603515625,0.9663085341453552,0.9844609198049482,0.3261566162109375,-0.1087188720703125,0.0972747802734375,0.35729583585546487
1786718654.819548,-0.0356445275247097,0.1840820163488388,0.9702147841453552,0.9881667108639778,-0.2231597900390625,0.0133514404296875,-0.3910064697265625,0.45040494249048285
1786718654.827317,-0.0283203125,0.19384765625,0.9682616591453552,0.9878813666147529,0.0209808349609375,0.1354217529296875,-0.3910064697265625,0.4143251210948193
1786718654.835086,-0.01806640625,0.1904296875,0.9521483778953552,0.9711726903310728,-0.286102294921875,-0.2899169921875,-0.0286102294921875,0.4083196428659857
1786718654.845289,-0.0234375,0.18408203125,0.9643554091453552,0.9820472828653829,0.263214111328125,-0.2899169921875,-0.1468658447265625,0.41821418807657434
1786718654.855492,-0.0292968712747097,0.1879882663488388,0.9663085341453552,0.9848604358554942,-0.2231597900390625,-0.5321502685546875,-0.0858306884765625,0.5833961838214793
1786718654.865695,-0.0224609375,0.1904296875,0.9677733778953552,0.9865866766573085,-0.3452301025390625,-0.2918243408203125,0.1583099365234375,0.47896482709735205
1786718654.876267,-0.0302734337747097,0.1962890625,0.9711913466453552,0.9912913338915352,-0.591278076171875,-0.4730224609375,0.0362396240234375,0.7580721088803112
1786718654.886839,-0.0258789025247097,0.2060546875,0.9770507216453552,0.9988775523077468,-0.8335113525390625,-0.5321502685546875,0.0362396240234375,0.9895647495155047
1786718654.897411,-0.02392578125,0.1865234375,0.9624022841453552,0.9806026678902298,-0.4673004150390625,-0.5321502685546875,0.1583099365234375,0.7256828661478517
1786718654.905607,-0.029785148799419403,0.18603515625,0.9770507216453552,0.99504992192235,-0.408172607421875,-0.5340576171875,0.2193450927734375,0.7070605954579496
1786718654.913803,-0.029296867549419403,0.18408203125,0.9843749403953552,1.0018675181657968,-0.591278076171875,-0.7781982421875,0.3414154052734375,1.035261680186828
1786718654.921999,-0.020019523799419403,0.18115234375,0.9790038466453552,0.9958240229707636,-0.591278076171875,-0.4119873046875,0.0972747802734375,0.7271902677170743
1786718654.930195,-0.0205078087747097,0.19580078125,0.9702147841453552,0.9899874966549167,-0.8335113525390625,-0.4749298095703125,0.5245208740234375,1.0933533948894572
1786718654.939656,-0.009765617549419403,0.185546875,0.9741210341453552,0.9916828118268479,-1.1386871337890625,-0.1697540283203125,0.3414154052734375,1.2008285879948684
1786718654.949116,-0.01904296875,0.1884765625,0.9731444716453552,0.9914112224322194,-0.896453857421875,-0.2899169921875,0.3414154052734375,1.0021206812573185
1786718654.958576,-0.011718746274709702,0.1904296875,0.9741210341453552,0.9926291271466977,-0.6504058837890625,-0.0438690185546875,0.2765655517578125,0.7081248540162153
1786718654.968036,-0.0273437462747097,0.1884765475988388,0.9746093153953552,0.9930430036561941,-0.4673004150390625,0.1964569091796875,0.2193450927734375,0.5523379986782586
1786718654.977496,-0.02734375,0.18896484375,0.9907225966453552,1.008953247847114,-0.347137451171875,0.0762939453125,0.2193450927734375,0.41765709118993843
1786718654.98707,-0.012207027524709702,0.1938476413488388,0.9790038466453552,0.9980853928015875,-0.041961669921875,-0.1068115234375,0.1583099365234375,0.19552881957329668
1786718654.996644,-0.02685546875,0.2001953125,0.9765624403953552,0.9972329614185877,0.0820159912109375,-0.3528594970703125,-0.0286102294921875,0.3633937158491078
1786718655.006218,-0.01708984375,0.19482421875,0.9790038466453552,0.9983471694342352,0.690460205078125,0.0152587890625,-0.0858306884765625,0.6959418312794116
1786718655.015792,-0.011230465024709702,0.1845702975988388,0.9741210341453552,0.9915160650563416,0.67901611328125,0.041961669921875,0.0553131103515625,0.6825563742394997
1786718655.025366,-0.015624996274709702,0.1982421725988388,0.9672850966453552,0.9875143329073794,0.4978179931640625,-0.0209808349609375,-0.1850128173828125,0.5315004161329308
1786718655.033541,-0.012207027524709702,0.1787109225988388,0.9545897841453552,0.9712508745796798,0.6809234619140625,-0.0209808349609375,-0.3681182861328125,0.7743436117164324
1786718655.041713,-0.0205078087747097,0.18603515625,0.9653319716453552,0.9833084282474197,0.2536773681640625,-0.0209808349609375,-0.4329681396484375,0.5022487556031695
1786718655.049885,-0.0205078087747097,0.18115234375,0.9663085341453552,0.9833559503196202,0.31280517578125,0.408172607421875,-0.1239776611328125,0.5289824344012505
1786718655.058057,-0.012207027524709702,0.1933593600988388,0.9780272841453552,0.9970327086869121,0.6198883056640625,0.5283355712890625,-0.5512237548828125,0.9834874759423778
1786718655.066229,-0.02294921875,0.1904296875,0.9667968153953552,0.9856400026283346,0.4367828369140625,0.5283355712890625,-0.2498626708984375,0.7296225577793888
1786718655.083797,-0.0185546875,0.19921875,0.9736327528953552,0.993978432507654,0.5588531494140625,0.4673004150390625,-0.4329681396484375,0.8474360922549413
1786718655.093196,-0.0078124962747097015,0.1767578125,0.9824218153953552,0.9982269194639728,0.133514404296875,0.713348388671875,-0.1850128173828125,0.7489471025188866
1786718655.102595,-0.0278320275247097,0.18212890625,0.9731444716453552,0.9904320890105869,0.1926422119140625,-0.0209808349609375,-0.5512237548828125,0.5842934581132221
1786718655.111994,-0.0268554650247097,0.1879882663488388,0.9628905653953552,0.9814372344749929,-0.11444091796875,0.225067138671875,-0.6122589111328125,0.6622785779994793
1786718655.121393,-0.011230465024709702,0.1943359225988388,0.9697265028953552,0.9890713142006842,0.31280517578125,0.225067138671875,-0.3681182861328125,0.5329290454561872
1786718655.132091,-0.0263671837747097,0.1865234375,0.9824218153953552,1.0003193712418705,0.0095367431640625,0.6504058837890625,-0.4901885986328125,0.8144959333030517
1786718655.142789,-0.0405273400247097,0.19140625,0.9794921278953552,0.9988411517541275,0.06866455078125,0.225067138671875,-0.4329681396484375,0.4927793090162824
1786718655.153487,-0.0297851525247097,0.17236328125,0.9711913466453552,0.9868175554949381,0.1316070556640625,0.3452301025390625,-0.1239776611328125,0.3897110484187711
1786718655.161461,-0.014648430049419403,0.18603515625,0.9760741591453552,0.9937526956014695,0.19073486328125,0.225067138671875,-0.2498626708984375,0.38660879360066686
1786718655.169433,-0.011230465024709702,0.18115234375,0.9628905653953552,0.9798472002910332,-0.0514984130859375,0.3452301025390625,-0.1239776611328125,0.3704137830986638
1786718655.177405,-0.0166015587747097,0.1904296875,0.9658202528953552,0.9845546396914423,0.1316070556640625,-0.0209808349609375,-0.0629425048828125,0.14738511273919297
1786718655.185377,-0.0283203125,0.18701171875,0.9760741591453552,0.9942314555480726,0.0705718994140625,-0.1430511474609375,0.2384185791015625,0.28685787881389535
1786718655.196033,-0.013671875,0.1845703125,0.9770507216453552,0.9944250766599124,-0.2346038818359375,0.3452301025390625,0.1811981201171875,0.4550335853600532
1786718655.206689,-0.0234375,0.1865234375,0.9716796278953552,0.9896977358819825,0.1926422119140625,0.1621246337890625,0.2384185791015625,0.34675472246703176
1786718655.217345,-0.0351562425494194,0.185546875,0.9726561903953552,0.9908196954677801,0.49591064453125,-0.141143798828125,0.1201629638671875,0.5294223995944836
1786718655.228055,-0.0258789025247097,0.1826171875,0.9667968153953552,0.984233121280164,0.31280517578125,0.041961669921875,0.1811981201171875,0.3639239185216792
1786718655.238767,-0.0327148400247097,0.1977538913488388,0.9809569716453552,1.0012259697596126,0.00762939453125,-0.202178955078125,0.1811981201171875,0.27160135542997327
1786718655.249479,-0.0292968712747097,0.1977538913488388,0.9682616591453552,0.9886837455834961,-0.17547607421875,-0.690460205078125,0.4253387451171875,0.8297229631133602
1786718655.257449,-0.0161132775247097,0.185546875,0.9838866591453552,1.0013591955832144,-0.11444091796875,-0.568389892578125,0.1811981201171875,0.6074508642059088
1786718655.265417,-0.0317382775247097,0.1835937350988388,0.9682616591453552,0.9860246540521662,-0.17547607421875,-0.263214111328125,0.4253387451171875,0.5300816626929691
1786718655.273385,-0.0253906212747097,0.1884765475988388,0.9829100966453552,1.0011395261055647,-0.2346038818359375,-0.3833770751953125,0.2384185791015625,0.5087832367704451
1786718655.289345,-0.0258789025247097,0.1904296875,0.9804686903953552,0.9991256359051218,-0.0514984130859375,-0.2651214599609375,0.6084442138671875,0.6656919982023584
1786718655.297339,-0.0317382775247097,0.20654296875,0.9824218153953552,1.0044002885130034,-0.049591064453125,-0.080108642578125,0.5435943603515625,0.5516987374422097
1786718655.305333,-0.014648430049419403,0.17919921875,0.9702147841453552,0.9867338363904125,0.0705718994140625,-0.3261566162109375,0.1811981201171875,0.37972528230166613
1786718655.313327,-0.019531242549419403,0.193359375,0.9672850966453552,0.9866153128388637,0.00762939453125,0.041961669921875,0.5435943603515625,0.5452649062699435
1786718655.321327,-0.00927734375,0.1943359375,0.9755858778953552,0.994796627889294,-0.11444091796875,-0.385284423828125,0.3643035888671875,0.5424554505317586
1786718655.329327,-0.0209960900247097,0.17578125,0.9794921278953552,0.9953615987453299,-0.29754638671875,0.102996826171875,0.3032684326171875,0.4371658045558332
1786718655.337327,-0.0205078087747097,0.1987304538488388,0.9755858778953552,0.9958323998829103,-0.2346038818359375,0.1049041748046875,0.1201629638671875,0.2836952681122651
1786718655.345327,-0.0058593712747097015,0.18212890625,0.9702147841453552,0.9871788075611097,-0.48065185546875,0.041961669921875,-0.0019073486328125,0.4824838089376592
1786718655.356024,-0.0078124962747097015,0.1835937350988388,0.9775390028953552,0.9946608451362857,-0.17547607421875,-0.385284423828125,0.0553131103515625,0.4269607476625441
1786718655.366721,-0.010742180049419403,0.185546875,0.9702147841453552,0.9878561457159124,-0.11444091796875,-0.080108642578125,0.1201629638671875,0.18426409364438573
1786718655.377418,-0.0258789025247097,0.1791992038488388,0.9790038466453552,0.9956056468312859,0.0705718994140625,-0.4482269287109375,0.1811981201171875,0.48859035125813843
1786718655.388074,-0.024902336299419403,0.18115234375,0.9663085341453552,0.9834574119713739,0.31280517578125,0.164031982421875,-0.0019073486328125,0.3532098628741787
1786718655.398731,-0.02197265625,0.189453125,0.9692382216453552,0.987824890602174,0.49591064453125,0.164031982421875,0.0553131103515625,0.5252555556997129
1786718655.409388,-0.0185546875,0.1796875,0.9716796278953552,0.9883284744209936,0.19073486328125,0.286102294921875,0.1201629638671875,0.36424366722817253
1786718655.420166,-0.0258789025247097,0.17626953125,0.9687499403953552,0.9849959960624116,0.19073486328125,0.102996826171875,-0.3070831298828125,0.37588320384265755
1786718655.430946,-0.0200195275247097,0.18212890625,0.9672850966453552,0.9844857429980122,0.06866455078125,0.102996826171875,-0.1239776611328125,0.17519596797709924
1786718655.441726,-0.0209960900247097,0.177734375,0.9707030653953552,0.9870637188251352,-0.1125335693359375,0.1621246337890625,-0.6122589111328125,0.6432800131904155
1786718655.449701,-0.015136715024709702,0.1865234375,0.9589843153953552,0.9770726841196892,0.133514404296875,0.102996826171875,-0.1850128173828125,0.25032815453351376
1786718655.457678,-0.0224609375,0.1904296875,0.9741210341453552,0.992814055480251,0.0705718994140625,0.0400543212890625,-0.3070831298828125,0.3176236614288367
1786718655.465655,-0.0336913987994194,0.19287109375,0.9697265028953552,0.9892946272850359,-0.11444091796875,0.225067138671875,0.0553131103515625,0.25847916897158135
1786718655.473632,-0.03271484375,0.19482421875,0.9731444716453552,0.9929939072859674,0.0705718994140625,0.0400543212890625,0.0553131103515625,0.09820530442700195
1786718655.484237,-0.024902336299419403,0.1904296875,0.9707030653953552,0.9895190919848168,-0.2346038818359375,0.1049041748046875,0.1201629638671875,0.2836952681122651
1786718655.494842,-0.0209960900247097,0.1943359225988388,0.9658202528953552,0.9854014651458133,-0.2346038818359375,0.4673004150390625,0.1201629638671875,0.5365144892298042
1786718655.505447,-0.0273437462747097,0.17236328125,0.9565429091453552,0.9723328227617648,-0.3566741943359375,0.3452301025390625,-0.0629425048828125,0.5003619325300882
1786718655.513558,-0.013671875,0.189453125,0.9760741591453552,0.9943843174998254,-0.5397796630859375,-0.1430511474609375,0.2384185791015625,0.6071813026863286
1786718655.52167,-0.0185546875,0.1796875,0.9765624403953552,0.9931294347039586,-0.2346038818359375,0.0400543212890625,0.3032684326171875,0.38550625448688064
1786718655.529782,-0.0161132775247097,0.1865234375,0.9707030653953552,0.9885924699376099,-0.4177093505859375,0.0400543212890625,0.1201629638671875,0.43649122340111274
1786718655.537894,-0.0185546875,0.17919921875,0.9746093153953552,0.9911205547683066,0.00762939453125,0.041961669921875,0.3643035888671875,0.36679162240304597
1786718655.548404,-0.0166015587747097,0.18115234375,0.9785155653953552,0.9952811136160779,-0.17547607421875,-0.202178955078125,0.1201629638671875,0.29344048866005823
1786718655.558914,-0.013183590024709702,0.16748046875,0.9741210341453552,0.9885015445729337,0.0705718994140625,-0.2002716064453125,-0.3681182861328125,0.42497080125633796
1786718655.569424,-0.0253906212747097,0.1835937350988388,0.9653319716453552,0.9829634574575838,-0.0514984130859375,0.3452301025390625,-0.2498626708984375,0.42926363060245665
1786718655.577412,-0.0126953125,0.1962890625,0.9663085341453552,0.9861251189269781,-0.17547607421875,0.347137451171875,-0.2498626708984375,0.46230684284123574
1786718655.5854,-0.017578125,0.17919921875,0.9716796278953552,0.9882219638046819,-0.29754638671875,-0.202178955078125,-0.3070831298828125,0.47298015897550155
1786718655.593388,-0.0161132775247097,0.1879882663488388,0.9790038466453552,0.9970194369939999,-0.4177093505859375,-0.2002716064453125,-0.1239776611328125,0.47954173788636406
1786718655.601376,-0.024902336299419403,0.18603515625,0.9687499403953552,0.9867652470218717,-0.0514984130859375,-0.2651214599609375,0.1201629638671875,0.29560211935562275
1786718655.612321,-0.025390617549419403,0.18994140625,0.9746093153953552,0.9932702245225976,0.1926422119140625,-0.3261566162109375,-0.0629425048828125,0.3839933840969584
1786718655.623266,-0.0273437462747097,0.181640625,0.9711913466453552,0.9884096463053893,0.3757476806640625,-0.5092620849609375,-0.1239776611328125,0.6449066995799826
1786718655.634211,-0.03271484375,0.1904296875,0.9624022841453552,0.981606786555152,0.00762939453125,-0.751495361328125,0.0553131103515625,0.7535668689209782
1786718655.64198,-0.0234375,0.1904296875,0.9765624403953552,0.9952321248224102,0.37384033203125,-0.751495361328125,0.6694793701171875,1.0736407681172648
1786718655.649752,-0.02880859375,0.193359375,0.9604491591453552,0.9801430356214663,0.1316070556640625,-0.6313323974609375,0.3643035888671875,0.7406875981450287
1786718655.657524,-0.01171875,0.18994140625,0.9643554091453552,0.9829529093795366,0.2536773681640625,-0.3833770751953125,0.4253387451171875,0.6262932516016929
1786718655.665296,-0.019531242549419403,0.18603515625,0.9638671278953552,0.9818504922001756,0.37384033203125,-0.263214111328125,0.6694793701171875,0.810703946745047
1786718655.676047,-0.015136715024709702,0.1835937350988388,0.9697265028953552,0.987069030071827,0.25177001953125,-0.080108642578125,0.5435943603515625,0.6044008321937522
1786718655.686798,-0.00927734375,0.19287109375,0.9853515028953552,1.004093079435125,0.49591064453125,-0.263214111328125,0.3643035888671875,0.6692728446778392
1786718655.697549,-0.010253902524709702,0.1767578125,0.9873046278953552,1.0030547816846083,0.31280517578125,-0.324249267578125,0.4863739013671875,0.6629813251152915
1786718655.708175,-0.013671875,0.189453125,0.9672850966453552,0.9857585226263557,0.3757476806640625,-0.3261566162109375,0.3643035888671875,0.6166697355019978
1786718655.718799,-0.01318359375,0.20458984375,0.9775390028953552,0.998805943860698,0.86212158203125,-0.080108642578125,0.3643035888671875,0.939355162694754
1786718655.729423,-0.01708984375,0.18505859375,0.9707030653953552,0.9883335403840477,0.4367828369140625,0.0400543212890625,0.3643035888671875,0.5701760255729249
1786718655.737397,-0.0263671837747097,0.20166015625,0.9677733778953552,0.9889122094311353,0.25177001953125,-0.080108642578125,0.1811981201171875,0.32037212126600295
1786718655.745373,-0.01708984375,0.18994140625,0.9726561903953552,0.991176001163281,0.06866455078125,0.225067138671875,0.1811981201171875,0.29698955567147234
1786718655.753349,-0.0185546875,0.19775390625,0.9711913466453552,0.9912938593899263,0.0705718994140625,0.2880096435546875,-0.0019073486328125,0.29653597715321794
1786718655.761325,-0.0209960900247097,0.1845702975988388,0.9687499403953552,0.986399248564218,0.1926422119140625,0.4673004150390625,-0.1850128173828125,0.5382475659979788
1786718655.771977,-0.0019531212747097015,0.1733398288488388,0.9736327528953552,0.9889445123254622,0.2536773681640625,0.5283355712890625,-0.3681182861328125,0.6920995272309789
1786718655.782629,-0.0166015625,0.18505859375,0.9765624403953552,0.9940807286076422,0.1316070556640625,0.4673004150390625,-0.1850128173828125,0.519538100231513
1786718655.793281,-0.0185546837747097,0.1826171875,0.9721679091453552,0.9893451152315057,0.2536773681640625,-0.2002716064453125,-0.2498626708984375,0.40852451306541243
1786718655.803987,-0.0263671837747097,0.19140625,0.9755858778953552,0.9945347586022938,0.55694580078125,0.225067138671875,-0.2498626708984375,0.6505960315174952
1786718655.814695,-0.020019523799419403,0.19482421875,0.9716796278953552,0.9912207407089297,-0.1125335693359375,0.3452301025390625,-0.4329681396484375,0.5650743649089442
1786718655.825403,-0.029785148799419403,0.185546875,0.9707030653953552,0.9887260687769936,0.0705718994140625,0.7114410400390625,-0.3070831298828125,0.7780930504106792
1786718655.836059,-0.0390624925494194,0.1767578125,0.9794921278953552,0.9960793297789737,0.19073486328125,0.225067138671875,-0.1850128173828125,0.34823088257187657
1786718655.846717,-0.02392578125,0.18798828125,0.9843749403953552,1.002450028766577,0.3757476806640625,0.6504058837890625,-0.0019073486328125,0.7511443078201824
1786718655.857375,-0.0234375,0.18408203125,0.9672850966453552,0.984924346753389,0.49591064453125,0.347137451171875,-0.1850128173828125,0.6329782934362217
1786718655.868036,-0.0185546837747097,0.1874999850988388,0.9755858778953552,0.9936137709648026,0.49591064453125,0.530242919921875,-0.4329681396484375,0.845308423853273
1786718655.878697,-0.0385742112994194,0.181640625,0.9731444716453552,0.9907025028340649,0.31280517578125,0.225067138671875,-0.3070831298828125,0.49274977784277896
1786718655.889358,-0.0336913987994194,0.18017578125,0.9755858778953552,0.9926561477424901,0.4367828369140625,-0.1430511474609375,-0.4329681396484375,0.6314303503659103
1786718655.897353,-0.02392578125,0.2001953125,0.9677733778953552,0.9885524351891414,0.00762939453125,-0.202178955078125,-0.3681182861328125,0.4200542942558202
1786718655.905351,-0.021484375,0.18017578125,0.9663085341453552,0.9831973726980425,-0.11444091796875,-0.263214111328125,-0.0019073486328125,0.28702269960160265
1786718655.913349,-0.0161132775247097,0.18115234375,0.9702147841453552,0.9871132339974602,-0.17547607421875,-0.202178955078125,-0.1850128173828125,0.3254196138766572
1786718655.921347,-0.024414055049419403,0.1884765625,0.9692382216453552,0.9876953938305185,-0.1125335693359375,-0.1430511474609375,0.0553131103515625,0.1902287443951131
1786718655.932178,-0.0302734337747097,0.18701171875,0.9682616591453552,0.9866207499912298,-0.2346038818359375,-0.2002716064453125,0.2384185791015625,0.38986038088203406
1786718655.943009,-0.0263671837747097,0.19189453125,0.9770507216453552,0.9960656866751189,-0.2346038818359375,-0.2651214599609375,0.4253387451171875,0.5533908365722848
1786718655.95384,-0.0361328087747097,0.1796874850988388,0.9741210341453552,0.9912138827394981,-0.2346038818359375,-0.4482269287109375,0.2384185791015625,0.5592761212987181
1786718655.964368,-0.0327148400247097,0.18701171875,0.9682616591453552,0.9866986795767934,-0.29754638671875,-0.385284423828125,0.4253387451171875,0.6464448836457892
1786718655.974898,-0.011718746274709702,0.1938476413488388,0.9794921278953552,0.9985584938699035,-0.2346038818359375,-0.3261566162109375,0.1811981201171875,0.4407378794756153
1786718655.985428,-0.01416015625,0.18603515625,0.9750975966453552,0.9927864384496468,-0.48065185546875,-0.263214111328125,0.4863739013671875,0.7327123900269091
1786718655.9934,-0.02734375,0.1904296875,0.9643554091453552,0.9833577689189807,-0.354766845703125,-0.080108642578125,0.6084442138671875,0.7088591332657812
1786718656.001372,-0.02294921875,0.18017578125,0.9658202528953552,0.9827505989278923,-0.1125335693359375,-0.1430511474609375,0.6084442138671875,0.6350840860908396
1786718656.009344,-0.0209960900247097,0.1874999850988388,0.9814452528953552,0.9994157616523857,-0.17547607421875,-0.141143798828125,0.3032684326171875,0.37773690155046286
1786718656.017316,-0.0161132775247097,0.1787109225988388,0.9882811903953552,1.0044386207518987,-0.0514984130859375,-0.2651214599609375,0.3643035888671875,0.45349595361337197
1786718656.028126,-0.014648430049419403,0.1865234375,0.9912108778953552,1.0087143171868882,-0.2346038818359375,-0.5092620849609375,0.3643035888671875,0.6686583263616512
1786718656.038936,-0.0219726525247097,0.1884765475988388,0.9726561903953552,0.9909925686745358,-0.17547607421875,-0.324249267578125,0.4863739013671875,0.6103187790649354
1786718656.049746,-0.010742183774709702,0.1933593600988388,0.9584960341453552,0.9778639394734095,-0.2956390380859375,-0.3261566162109375,0.1201629638671875,0.45631098718296736
1786718656.057643,-0.0166015587747097,0.1923827975988388,0.9741210341453552,0.9930752950960577,-0.2956390380859375,-0.3261566162109375,0.5435943603515625,0.6994822426227641
1786718656.065542,-0.0336913987994194,0.1796875,0.9716796278953552,0.988728480057173,-0.29754638671875,-0.263214111328125,0.3032684326171875,0.4997872175973732
1786718656.073441,-0.0234375,0.18115234375,0.9643554091453552,0.9815023398852769,-0.4787445068359375,-0.0209808349609375,0.4863739013671875,0.6827855228345001
1786718656.08134,-0.01318359375,0.1962890625,0.9609374403953552,0.9808689859277185,-0.41961669921875,-0.263214111328125,0.4253387451171875,0.6528957732772952
1786718656.092,-0.02197265625,0.18994140625,0.9765624403953552,0.9951053891030035,-0.1125335693359375,-0.1430511474609375,0.2384185791015625,0.29995141919681784
1786718656.10266,-0.01220703125,0.1845703125,0.9770507216453552,0.9944060159391613,-0.3566741943359375,-0.0209808349609375,0.3643035888671875,0.5102683423477896
1786718656.11332,-0.01416015625,0.18310546875,0.9692382216453552,0.9864840865464746,-0.354766845703125,0.286102294921875,0.3643035888671875,0.5834647742848074
1786718656.124046,-0.0273437462747097,0.19140625,0.9721679091453552,0.9912085938748967,-0.2346038818359375,0.1049041748046875,0.4863739013671875,0.5500940275944483
1786718656.134774,-0.01708984375,0.1796875,0.9663085341453552,0.9830217920157185,-0.17547607421875,0.102996826171875,0.3032684326171875,0.36520123363262247
1786718656.145502,-0.024414055049419403,0.19091796875,0.9799804091453552,0.9987028182518961,0.0705718994140625,0.1621246337890625,0.5435943603515625,0.5716289167582153
1786718656.153466,-0.024414055049419403,0.18603515625,0.9726561903953552,0.990588305079019,0.00762939453125,-0.324249267578125,0.6084442138671875,0.6894926805806743
1786718656.161428,-0.01904296875,0.18701171875,0.9672850966453552,0.9853813859622358,-0.17547607421875,-0.202178955078125,0.4253387451171875,0.5025746020219989
1786718656.16939,-0.02294921875,0.18603515625,0.9750975966453552,0.9929506880936964,-0.29754638671875,-0.263214111328125,0.2384185791015625,0.46331300382403096
1786718656.177352,-0.0214843712747097,0.1767578125,0.9682616591453552,0.9844976094738731,-0.48065185546875,-0.446319580078125,0.7266998291015625,0.9789382081331314
1786718656.188033,-0.02197265625,0.1845703125,0.9824218153953552,0.999850799491471,0.0705718994140625,-0.3261566162109375,0.6694793701171875,0.7480382064424139
1786718656.198714,-0.010253902524709702,0.1938476413488388,0.9726561903953552,0.9918377464524627,0.0705718994140625,-0.3261566162109375,0.5435943603515625,0.6378505780283512
1786718656.209395,-0.0126953125,0.185546875,0.9775390028953552,0.9950735228933506,-0.0514984130859375,-0.3833770751953125,0.2384185791015625,0.4543935378022999
1786718656.220069,-0.02392578125,0.1796875,0.9750975966453552,0.9918040953979878,-0.0514984130859375,-0.3833770751953125,0.3643035888671875,0.5313635038250133
1786718656.230744,-0.0053710900247097015,0.1884765475988388,0.9848632216453552,1.002750129869101,0.00762939453125,-0.141143798828125,0.3032684326171875,0.3345915746557783
1786718656.241419,-0.0161132775247097,0.1943359225988388,0.9853515028953552,1.004461882195171,0.00762939453125,-0.080108642578125,0.6084442138671875,0.6137425874624337
1786718656.249396,-0.015624996274709702,0.1791992038488388,0.9711913466453552,0.9877090295058869,0.80108642578125,0.408172607421875,0.2384185791015625,0.9301546956723695
1786718656.257373,-0.0185546875,0.17041015625,0.9780272841453552,0.9929356808545614,0.55694580078125,0.102996826171875,0.1201629638671875,0.5789957764048839
1786718656.26535,-0.011230465024709702,0.1787109225988388,0.9809569716453552,0.9971661333100045,1.35040283203125,0.225067138671875,-0.1850128173828125,1.3814748525629743
1786718656.273327,-0.02685546875,0.18505859375,0.9877929091453552,1.0053371228997534,0.98419189453125,0.102996826171875,-0.1850128173828125,1.0067133524784582
1786718656.284028,0.0009765625,0.185546875,0.9775390028953552,0.9949930143866476,1.293182373046875,0.041961669921875,0.3032684326171875,1.328929333683272
1786718656.294729,-0.0175781212747097,0.1933593600988388,0.9775390028953552,0.9966340023634684,1.0471343994140625,0.0400543212890625,0.1201629638671875,1.0547672430330417
1786718656.30543,-0.0234375,0.1787109375,0.9750975966453552,0.9916159733343987,1.3523101806640625,0.1621246337890625,0.1201629638671875,1.3672843009024327
1786718656.316073,-0.0385742112994194,0.181640625,0.9584960341453552,0.9763175374334606,1.4133453369140625,0.1621246337890625,0.0553131103515625,1.423688511730964
1786718656.326715,-0.0126953125,0.2001953125,0.9658202528953552,0.9864320022228057,1.293182373046875,0.225067138671875,0.1811981201171875,1.3250692908686303
1786718656.337357,-0.020019523799419403,0.18603515625,0.9716796278953552,0.9895307776724145,1.110076904296875,0.408172607421875,-0.2498626708984375,1.2088453024317902
1786718656.345484,-0.024414055049419403,0.19921875,0.9736327528953552,0.9941050718843086,0.37384033203125,0.225067138671875,-0.3070831298828125,0.533583975979231
1786718656.353614,-0.0224609375,0.1904296875,0.9643554091453552,0.9832341098348002,0.4367828369140625,0.3452301025390625,-0.0629425048828125,0.5602899510456626
1786718656.361744,-0.02392578125,0.19873046875,0.9692382216453552,0.9896913521478645,0.37384033203125,0.041961669921875,-0.0629425048828125,0.38141727086852073
1786718656.369874,-0.02880859375,0.1884765625,0.9770507216453552,0.9954805183193584,-0.11444091796875,0.225067138671875,-0.3070831298828125,0.3975575295150369
1786718656.380398,-0.025390617549419403,0.2001953125,0.9663085341453552,0.9871550181043799,-0.0514984130859375,0.0400543212890625,0.1201629638671875,0.13673175596636034
1786718656.390922,-0.015624996274709702,0.19091796875,0.9638671278953552,0.9827174830730608,0.49591064453125,-0.446319580078125,-0.0629425048828125,0.6701419952826688
1786718656.401446,-0.015136711299419403,0.19091796875,0.9633788466453552,0.9822309265057392,0.19073486328125,-0.446319580078125,0.2384185791015625,0.54076277099375
1786718656.409473,-0.02783203125,0.1845703125,0.9619140028953552,0.9798568115730043,0.2536773681640625,-0.3261566162109375,0.1201629638671875,0.4303132385857552
1786718656.417501,-0.0327148400247097,0.19677734375,0.9697265028953552,0.9900308450693864,0.06866455078125,-0.568389892578125,0.3032684326171875,0.6478839654915446
1786718656.425529,-0.02734375,0.20068359375,0.9667968153953552,0.9877842212361352,-0.23651123046875,-0.080108642578125,-0.0629425048828125,0.2575203208961864
