timestamp,accel_x,accel_y,accel_z,accel_rms,gyro_x,gyro_y,gyro_z,gyro_rms
1781889093.148918,0.0302734375,0.0830078050494194,0.9833983778953552,0.9873596843928785,-0.9784698486328125,0.6847381591796875,0.2117156982421875,1.2128862799959785
1781889093.156945,0.04345703125,0.07666015625,0.9912108778953552,0.995120242774419,-0.7953643798828125,0.1354217529296875,0.1468658447265625,0.8200689753308358
1781889093.164972,0.0244140587747097,0.08447265625,0.9838866591453552,0.9878079944827305,-0.492095947265625,-0.0457763671875,0.3299713134765625,0.5942516006083496
1781889093.172999,0.0439453087747097,0.09912109375,0.9736327528953552,0.9796514272434297,-0.3070831298828125,0.1964569091796875,0.4520416259765625,0.580721101251362
1781889093.183715,0.0351562537252903,0.07958984375,0.9882811903953552,0.9921039344208885,-0.3681182861328125,0.1354217529296875,-0.0362396240234375,0.3939079005316708
1781889093.194431,0.0419921912252903,0.0810546875,0.9833983778953552,0.9876262330137043,-0.370025634765625,0.1983642578125,0.2117156982421875,0.47020302640815137
1781889093.205147,0.03955078125,0.09521484375,0.9887694716453552,0.9941303731531681,-0.308990478515625,0.5645751953125,0.2727508544921875,0.6990087950817793
1781889093.215782,0.0375976599752903,0.1044921875,0.9863280653953552,0.9925599497615732,-0.186920166015625,0.2593994140625,0.2727508544921875,0.4202621004867029
1781889093.226419,0.05126953125,0.0966796800494194,0.9892577528953552,0.9952921315034197,-0.244140625,0.2593994140625,0.3948211669921875,0.5317672937445774
1781889093.237056,0.0415039099752903,0.0947265625,0.9868163466453552,0.992220841442463,-0.4901885986328125,0.3185272216796875,0.5168914794921875,0.7803340661230956
1781889093.247651,0.0371093787252903,0.0947265625,0.9907225966453552,0.9959324731808672,-0.2460479736328125,0.0133514404296875,0.0896453857421875,0.2622101475443433
1781889093.258247,0.0317382849752903,0.095703125,0.9780272841453552,0.9832109516277154,-0.7953643798828125,-0.0438690185546875,0.4520416259765625,0.9158988040121336
1781889093.268843,0.03076171875,0.1079101487994194,0.9819335341453552,0.9883240101472565,-0.6122589111328125,-0.0438690185546875,0.3948211669921875,0.7298419136741611
1781889093.276865,0.03759765625,0.1010742112994194,0.9897460341453552,0.9956037324416535,-0.553131103515625,-0.0457763671875,0.5168914794921875,0.7584367442581619
1781889093.284886,0.041015625,0.0917968675494194,0.9785155653953552,0.9836674530078842,-0.2460479736328125,0.1354217529296875,0.3948211669921875,0.4845228688105808
1781889093.292907,0.0332031287252903,0.08984375,0.9912108778953552,0.9958279729096243,-0.614166259765625,0.0762939453125,0.5168914794921875,0.8063484124728382
1781889093.300928,0.03173828125,0.1020507737994194,0.9863280653953552,0.9921011700004735,-0.3070831298828125,0.5016326904296875,0.2117156982421875,0.6251071441349298
1781889093.311583,0.03466796875,0.1030273362994194,0.9926757216453552,0.9986098279239651,-0.858306884765625,0.2593994140625,0.6999969482421875,1.1375299960881982
1781889093.322238,0.0332031287252903,0.09130859375,0.9824218153953552,0.9872144298046176,-0.9174346923828125,0.1354217529296875,0.3948211669921875,1.0079232212123936
1781889093.332893,0.0332031287252903,0.09423828125,0.9785155653953552,0.9836035853590073,-0.797271728515625,0.0762939453125,0.4520416259765625,0.9196763598120665
1781889093.34095,0.0302734375,0.09130859375,0.9833983778953552,0.9880921566118642,-1.041412353515625,-0.1678466796875,0.2117156982421875,1.0758883468182228
1781889093.349009,0.0400390625,0.1015624925494194,0.9741210341453552,0.98021928953839,-1.220703125,-0.2899169921875,-0.0934600830078125,1.2581346386057575
1781889093.357068,0.04443359375,0.0971679612994194,0.9887694716453552,0.9945255275831085,-0.7953643798828125,-0.2918243408203125,0.2727508544921875,0.8900331293315992
1781889093.365127,0.0385742150247097,0.07861328125,0.9858397841453552,0.9897212223941774,-0.9784698486328125,0.0133514404296875,0.0896453857421875,0.9826585372498079
1781889093.375732,0.0424804724752903,0.08203125,0.9799804091453552,0.9843248035211671,-0.492095947265625,0.2593994140625,-0.0934600830078125,0.5640755839841397
1781889093.386337,0.0332031287252903,0.09033203125,0.9809569716453552,0.9856667306176695,-0.675201416015625,0.3814697265625,0.2117156982421875,0.803890316744362
1781889093.396942,0.0219726599752903,0.0791015625,0.9858397841453552,0.9892522099950506,-0.370025634765625,0.3204345703125,0.0896453857421875,0.497627952812064
1781889093.407612,0.0312500037252903,0.09326171875,0.9907225966453552,0.9955930767239947,-0.003814697265625,0.3814697265625,-0.0934600830078125,0.3927702780439529
1781889093.418283,0.0400390625,0.08984375,0.9902343153953552,0.9951075446033204,0.1811981201171875,0.4444122314453125,0.0896453857421875,0.4882328188242473
1781889093.428954,0.0385742150247097,0.0849609375,0.9882811903953552,0.9926762021197606,-0.1239776611328125,0.1964569091796875,-0.3986358642578125,0.4613852293875169
1781889093.439609,0.0302734412252903,0.0791015625,0.9843749403953552,0.9880119238713274,0.118255615234375,0.3814697265625,-0.2765655517578125,0.4857901267391427
1781889093.450264,0.037109375,0.0961913987994194,0.9843749403953552,0.9897595234167937,0.2422332763671875,0.0133514404296875,-0.4596710205078125,0.5197621265885227
1781889093.460919,0.0283203162252903,0.08203125,0.9956054091453552,0.9993804565865559,-0.1239776611328125,0.3795623779296875,-0.1583099365234375,0.42953474271781117
1781889093.468907,0.0419921912252903,0.0927734375,0.9892577528953552,0.9944853726893299,0.1201629638671875,0.1354217529296875,-0.0934600830078125,0.20374733413648272
1781889093.476896,0.03466796875,0.1010742112994194,0.9731444716453552,0.9789933743090237,0.2422332763671875,0.0133514404296875,-0.2155303955078125,0.324512823365863
1781889093.484885,0.0175781287252903,0.08251953125,0.9843749403953552,0.9879840519591203,0.244140625,0.2593994140625,-0.3414154052734375,0.49341380174188937
1781889093.492874,0.0224609412252903,0.095703125,0.9780272841453552,0.9829552128903081,0.423431396484375,0.1373291015625,-0.2155303955078125,0.4945773762035881
1781889093.503567,0.0307617224752903,0.09423828125,0.9873046278953552,0.9922688977722656,0.179290771484375,-0.1068115234375,-0.1583099365234375,0.26194640345031805
1781889093.51426,0.0312500037252903,0.099609375,0.9873046278953552,0.9928086515458591,-0.064849853515625,-0.0457763671875,-0.3986358642578125,0.40646221419272904
1781889093.524953,0.0463867224752903,0.09765625,0.9775390028953552,0.9834993509747261,0.2422332763671875,0.1354217529296875,-0.1583099365234375,0.31949655295196283
1781889093.535632,0.0385742150247097,0.07958984375,0.9794921278953552,0.9834771689784633,-0.003814697265625,-0.2288818359375,-0.1583099365234375,0.2783226234775101
1781889093.546309,0.0327148474752903,0.091796875,0.9794921278953552,0.9843280734156006,-0.4291534423828125,-0.2269744873046875,-0.6427764892578125,0.8055133208947214
1781889093.556986,0.0361328162252903,0.09423828125,0.9804686903953552,0.9856496775766265,-0.4291534423828125,-0.1697540283203125,-0.0362396240234375,0.46292809116465544
1781889093.567608,0.0419921912252903,0.09033203125,0.9946288466453552,0.999604803196104,-0.4291534423828125,-0.2269744873046875,-0.3414154052734375,0.5935103823474946
1781889093.578231,0.0424804724752903,0.0908203125,1.00146484375,1.006471436739033,-0.4291534423828125,-0.0438690185546875,-0.2765655517578125,0.5124311390978038
1781889093.588854,0.0424804724752903,0.087890625,0.9970702528953552,1.0018375325936946,-0.064849853515625,-0.0457763671875,-0.3414154052734375,0.3505216944097875
1781889093.599532,0.0371093787252903,0.08984375,0.9956054091453552,1.0003395104277994,-0.1239776611328125,-0.2918243408203125,-0.2765655517578125,0.42073793598185993
1781889093.61021,0.0424804724752903,0.09423828125,0.9775390028953552,0.982989291079167,-0.064849853515625,-0.2288818359375,-0.3414154052734375,0.41612122906809773
1781889093.620888,0.03515625,0.0971679612994194,0.9814452528953552,0.9868699808221829,0.0591278076171875,-0.1087188720703125,-0.3986358642578125,0.41740441187226235
1781889093.628889,0.0458984412252903,0.103515625,0.9897460341453552,0.9962024712037763,-0.186920166015625,-0.2288818359375,-0.3414154052734375,0.45154238144769426
1781889093.636892,0.03173828125,0.1010742112994194,0.9902343153953552,0.99588519121082,-0.0019073486328125,0.1354217529296875,-0.3986358642578125,0.4210145382500817
1781889093.644895,0.0258789099752903,0.0986328125,0.9682616591453552,0.9736163465421508,-0.1239776611328125,0.1354217529296875,-0.2765655517578125,0.33196086523205576
1781889093.652898,0.02978515625,0.1069335862994194,0.9858397841453552,0.9920695678305291,-0.003814697265625,-0.0457763671875,-0.3414154052734375,0.3444916641460846
1781889093.660904,0.0400390625,0.095703125,0.9887694716453552,0.9941968028104292,-0.308990478515625,0.0762939453125,-0.1583099365234375,0.35546858919842195
1781889093.66891,0.046875,0.0869140550494194,0.9780272841453552,0.9829998408559754,-0.064849853515625,-0.4119873046875,-0.4596710205078125,0.6206742219710456
1781889093.676916,0.04052734375,0.1025390550494194,1.00634765625,1.0123696600756695,0.301361083984375,-0.2899169921875,0.0896453857421875,0.42767588251402494
1781889093.684922,0.0478515662252903,0.1015625,0.9858397841453552,0.9922120709809088,0.789642333984375,-0.2288818359375,-0.3986358642578125,0.9136916672023364
1781889093.695582,0.0244140625,0.0971679612994194,0.9877929091453552,0.9928607608867838,1.094818115234375,-0.0457763671875,-0.0934600830078125,1.0997531397336682
1781889093.706242,0.04541015625,0.10546875,0.9794921278953552,0.9862000649595308,1.155853271484375,0.5645751953125,-0.2155303955078125,1.304298772425641
1781889093.716902,0.0502929724752903,0.0888671875,0.9853515028953552,0.990628257396636,0.8525848388671875,0.5016326904296875,-0.1583099365234375,1.0017975342233427
1781889093.727547,0.03515625,0.0981445237994194,0.9702147841453552,0.9757996909407666,0.1811981201171875,0.4444122314453125,0.0896453857421875,0.4882328188242473
1781889093.73819,0.0283203162252903,0.10205078125,0.9843749403953552,0.9900557689055677,0.118255615234375,0.4425048828125,-0.0362396240234375,0.45946520237850985
1781889093.748833,0.03662109375,0.1069335862994194,0.9829100966453552,0.989387767497498,-0.6122589111328125,0.1964569091796875,0.0286102294921875,0.6436418543394834
1781889093.756841,0.03857421875,0.1030273362994194,0.9741210341453552,0.9803134149554125,-0.7343292236328125,0.1964569091796875,0.2727508544921875,0.8076061877374539
1781889093.764852,0.01611328125,0.1020507737994194,0.9858397841453552,0.9912386585830187,-0.797271728515625,0.3814697265625,0.1468658447265625,0.8959525309530677
1781889093.772863,0.0302734375,0.1005859375,0.9892577528953552,0.9948190355559086,-0.6732940673828125,0.3185272216796875,0.2117156982421875,0.7743436117164324
1781889093.780874,0.0317382849752903,0.08544921875,0.9877929091453552,0.9919897777074127,-0.6122589111328125,0.3795623779296875,0.4520416259765625,0.8504529408595813
1781889093.791551,0.01953125,0.0927734300494194,0.9780272841453552,0.982611697255043,-0.4291534423828125,0.1354217529296875,0.2117156982421875,0.4973281262483998
1781889093.802228,0.0390625,0.0908203125,1.00634765625,1.0111922731650573,-0.492095947265625,0.4425048828125,0.5168914794921875,0.8397295958817812
1781889093.812905,0.0278320349752903,0.07958984375,0.9677733778953552,0.9714393837816137,-0.6122589111328125,0.2613067626953125,0.3948211669921875,0.7739676688317894
1781889093.823564,0.04052734375,0.0869140550494194,0.9780272841453552,0.9827176029202406,-0.1850128173828125,0.3185272216796875,0.2727508544921875,0.458347425184352
1781889093.834223,0.029296875,0.0859375,0.9824218153953552,0.9866084249365201,-0.1239776611328125,0.3795623779296875,0.2117156982421875,0.45195309057664207
1781889093.844882,0.0263671875,0.1010742112994194,0.9946288466453552,1.0000988787842577,-0.1239776611328125,0.3795623779296875,0.3948211669921875,0.5615352287298404
1781889093.852881,0.0371093787252903,0.08544921875,0.9833983778953552,0.9878011159244448,0.1201629638671875,0.6237030029296875,0.2727508544921875,0.6912579853969683
1781889093.860881,0.0273437537252903,0.09521484375,0.9877929091453552,0.9927478928187006,-0.186920166015625,0.5035400390625,0.1468658447265625,0.5568314787703903
1781889093.868881,0.0273437537252903,0.087890625,0.9877929091453552,0.9920722121844376,-0.0019073486328125,0.3185272216796875,0.5168914794921875,0.6071573358705389
1781889093.876881,0.0327148474752903,0.0986328125,0.9956054091453552,1.0010138978388272,-0.064849853515625,0.1983642578125,-0.0362396240234375,0.2118187730770389
1781889093.88754,0.03564453125,0.09130859375,0.9838866591453552,0.9887571744087843,0.3414154052734375,0.6046295166015625,0.1850128173828125,0.7185896422157716
1781889093.898199,0.029296875,0.1020507737994194,0.9931640028953552,0.9988230093289556,0.6465911865234375,0.7877349853515625,0.1201629638671875,1.0261801535412582
1781889093.908858,0.04052734375,0.0927734300494194,0.9760741591453552,0.9813104193199405,0.4634857177734375,0.2994537353515625,-0.1201629638671875,0.5647394869152583
1781889093.919545,0.0415039099752903,0.10986328125,0.9750975966453552,0.982144509781428,0.70953369140625,0.118255615234375,0.2460479736328125,0.760238156832353
1781889093.930232,0.0283203162252903,0.09619140625,0.9848632216453552,0.9899547425499415,0.09918212890625,0.057220458984375,0.4291534423828125,0.44416658218485605
1781889093.940919,0.0288085974752903,0.1025390625,0.9814452528953552,0.9872076676453136,0.09918212890625,-0.186920166015625,0.3032684326171875,0.36979451777949657
1781889093.951721,0.0263671912252903,0.09814453125,0.9921874403953552,0.9973783107054613,0.22125244140625,0.057220458984375,0.1201629638671875,0.2581975244651963
1781889093.962524,0.03125,0.0966796800494194,0.9824218153953552,0.9876619595788649,0.40435791015625,-0.003814697265625,0.3032684326171875,0.5054617825743544
1781889093.973327,0.0380859412252903,0.09912109375,0.9829100966453552,0.9886292471056043,0.3414154052734375,0.1163482666015625,0.6732940673828125,0.7638234738943973
1781889093.981224,0.02978515625,0.0942382737994194,0.9921874403953552,0.9970977508047131,0.1583099365234375,0.4825592041015625,0.1850128173828125,0.5405137963651938
1781889093.989121,0.0332031287252903,0.09423828125,0.9809569716453552,0.9860323938034331,0.1583099365234375,0.4215240478515625,0.0629425048828125,0.4546496649510962
1781889093.997018,0.048828125,0.095703125,0.9897460341453552,0.9955603879384917,0.22125244140625,0.484466552734375,-0.3032684326171875,0.6128884284832278
1781889094.004915,0.0317382849752903,0.1005859375,0.9946288466453552,1.0002056749164125,-0.08392333984375,0.057220458984375,0.0629425048828125,0.11949504934446017
1781889094.015568,0.02978515625,0.10546875,0.9882811903953552,0.9943392399219996,0.1010894775390625,-0.0667572021484375,0.0629425048828125,0.1365187365482513
1781889094.026221,0.0419921912252903,0.09130859375,0.9887694716453552,0.9938640105539283,0.03814697265625,0.301361083984375,0.0629425048828125,0.3102183962694622
1781889094.036874,0.0263671875,0.0966796800494194,0.9907225966453552,0.9957778128753589,0.22125244140625,0.118255615234375,-0.0591278076171875,0.2577462531178713
1781889094.047587,0.03466796875,0.0849609375,0.9843749403953552,0.9886426312052748,0.03814697265625,0.118255615234375,-0.0591278076171875,0.13760697544424252
1781889094.058299,0.0322265662252903,0.10009765625,0.9775390028953552,0.9831788212421286,0.09918212890625,0.057220458984375,-0.8563995361328125,0.8640205096577598
1781889094.069011,0.04443359375,0.0986328050494194,0.9790038466453552,0.9849625912855061,-0.14495849609375,-0.003814697265625,-0.5474090576171875,0.566289849693889
1781889094.076984,0.0312500037252903,0.09521484375,0.9760741591453552,0.981204970102822,0.09918212890625,0.057220458984375,-0.4253387451171875,0.4404819221246456
1781889094.084958,0.0288085974752903,0.09326171875,0.9780272841453552,0.9828860829238741,0.09918212890625,0.179290771484375,-0.6732940673828125,0.7037806310255559
1781889094.092932,0.0209960974752903,0.10498046875,0.9838866591453552,0.9896942421638968,0.16021728515625,-0.003814697265625,-0.6732940673828125,0.6921047836498161
1781889094.100906,0.0229492224752903,0.09619140625,0.9848632216453552,0.9898156488954097,0.4634857177734375,-0.0667572021484375,-0.3681182861328125,0.5956396622153407
1781889094.111568,0.0336914025247097,0.09423828125,0.9838866591453552,0.9889635596427426,0.22125244140625,0.057220458984375,-0.5474090576171875,0.5931976905854792
1781889094.12223,0.0302734375,0.0986328050494194,0.9902343153953552,0.9955947522142184,0.22125244140625,-0.370025634765625,-0.4863739013671875,0.6499470633390603
1781889094.132892,0.0278320349752903,0.10693359375,0.9838866591453552,0.990071903291556,0.22125244140625,-0.125885009765625,-0.3681182861328125,0.44756089093806756
1781889094.143587,0.02734375,0.1059570237994194,0.9916991591453552,0.9977182938114835,0.34332275390625,-0.003814697265625,-0.3032684326171875,0.45810130701307267
1781889094.154283,0.0415039099752903,0.10546875,0.9921874403953552,0.9986401497276615,0.1583099365234375,-0.0667572021484375,-0.3681182861328125,0.40623839383556715
1781889094.164979,0.0302734412252903,0.0888671875,0.9892577528953552,0.9937025510289027,0.1583099365234375,0.1163482666015625,-0.6084442138671875,0.6393772880949893
1781889094.175641,0.0317382849752903,0.09326171875,0.9902343153953552,0.9951226388259312,0.2803802490234375,-0.3108978271484375,-0.4863739013671875,0.6417399121912266
1781889094.186302,0.0317382849752903,0.0830078125,0.9746093153953552,0.9786526111571004,0.22125244140625,-0.125885009765625,-0.5474090576171875,0.6037022071131221
1781889094.196963,0.0288085974752903,0.1025390625,0.9941405653953552,0.9998298147142186,0.22125244140625,-0.370025634765625,-0.7915496826171875,0.9013448359331183
1781889094.204943,0.0302734375,0.0976562425494194,0.9833983778953552,0.9886989391994679,-0.02288818359375,-0.431060791015625,-0.3681182861328125,0.5673167960536659
1781889094.212923,0.0288085974752903,0.10205078125,0.9887694716453552,0.9944392215213876,0.16021728515625,-0.308990478515625,-0.4863739013671875,0.5980838287458479
1781889094.220903,0.02978515625,0.1005859375,0.9672850966453552,0.9729569078575911,-0.0820159912109375,-0.5550384521484375,-0.5474090576171875,0.7838692381634728
1781889094.228883,0.0288085974752903,0.09033203125,0.9960936903953552,1.0005960479652525,0.09918212890625,-0.308990478515625,-0.0591278076171875,0.3298610436855284
1781889094.236892,0.0371093787252903,0.083984375,0.9877929091453552,0.9920510634999399,-0.14495849609375,-0.492095947265625,-0.5474090576171875,0.7502186769644913
1781889094.244901,0.03466796875,0.0971679612994194,0.9843749403953552,0.989766388618393,0.03814697265625,-0.308990478515625,-0.5474090576171875,0.6297515253633681
1781889094.25291,0.02001953125,0.1030273362994194,0.9863280653953552,0.9918963989464663,0.22125244140625,-0.370025634765625,-0.6732940673828125,0.7994976637769625
1781889094.260919,0.03564453125,0.095703125,0.9921874403953552,0.9974294649854116,-0.08392333984375,-0.247955322265625,-0.2422332763671875,0.3566537943019277
1781889094.271576,0.0424804724752903,0.0966796875,0.9716796278953552,0.9774010700749604,0.09918212890625,-0.247955322265625,-0.3681182861328125,0.45478567382843665
1781889094.282233,0.0439453125,0.1025390550494194,0.9809569716453552,0.987280116542806,0.03814697265625,-0.003814697265625,-0.4863739013671875,0.48788248110503385
1781889094.29289,0.0336914025247097,0.10498046875,0.9902343153953552,0.9963533553963471,0.4062652587890625,-0.0667572021484375,-0.3032684326171875,0.5113508841878704
1781889094.303562,0.0380859412252903,0.095703125,0.9990233778953552,1.0043193399687311,0.16021728515625,0.179290771484375,-0.5474090576171875,0.5978891498962319
1781889094.314237,0.0288085974752903,0.10693359375,0.9916991591453552,0.9978636936026823,0.70953369140625,-0.003814697265625,-0.5474090576171875,0.8961636499641934
1781889094.324912,0.04443359375,0.10009765625,0.9843749403953552,0.9904483370265419,-0.0247955322265625,0.2994537353515625,-0.3681182861328125,0.4751825234788853
1781889094.33292,0.0244140587747097,0.099609375,0.9687499403953552,0.9741634980175299,0.1583099365234375,-0.0667572021484375,0.0,0.17180966224500344
1781889094.34093,0.0341796875,0.08544921875,0.9907225966453552,0.9949879815989228,0.09918212890625,-0.308990478515625,-0.1850128173828125,0.373553146290614
1781889094.34894,0.0375976599752903,0.10498046875,0.9965819716453552,1.0028011313631087,-0.0247955322265625,-0.2460479736328125,0.3681182861328125,0.4434698370042442
1781889094.35695,0.0361328162252903,0.1005859375,1.00048828125,1.0061808545931012,0.6465911865234375,0.1163482666015625,0.3032684326171875,0.7235943779860791
1781889094.36758,0.0556640625,0.0927734300494194,0.9794921278953552,0.9854492507410563,0.40435791015625,0.118255615234375,-0.1201629638671875,0.43809684765555834
1781889094.37821,0.0380859412252903,0.09619140625,0.9794921278953552,0.984940685607179,0.89263916015625,0.484466552734375,0.1201629638671875,1.0227177757564065
1781889094.38884,0.03076171875,0.1123046800494194,0.9785155653953552,0.9854193707363623,0.46539306640625,0.362396240234375,-0.1850128173828125,0.6181840209767225
1781889094.396864,0.0278320349752903,0.09326171875,0.9794921278953552,0.9843155992688731,0.2803802490234375,0.4215240478515625,-0.1201629638671875,0.5203217704891447
1781889094.404888,0.0458984412252903,0.09033203125,0.9731444716453552,0.9784051847116204,0.09918212890625,0.057220458984375,0.0629425048828125,0.1306638226200405
1781889094.412912,0.0429687537252903,0.08837890625,0.9663085341453552,0.9712926068022942,0.03814697265625,0.057220458984375,0.3032684326171875,0.310968028374791
1781889094.420936,0.0283203162252903,0.09912109375,0.9843749403953552,0.9897580789342696,-0.20599365234375,0.362396240234375,0.4291534423828125,0.5982784442472807
1781889094.431595,0.02490234375,0.0981445237994194,0.9970702528953552,1.0021983653373545,-0.45013427734375,0.179290771484375,0.2460479736328125,0.5434203287585546
1781889094.442254,0.03564453125,0.0883788987994194,0.9897460341453552,0.9943231740573528,-0.57220458984375,0.240325927734375,0.3681182861328125,0.7215855574808863
1781889094.452913,0.0322265625,0.1015624925494194,0.9882811903953552,0.9940086531377268,-0.14495849609375,0.362396240234375,0.3681182861328125,0.5365212699522096
1781889094.460901,0.0229492224752903,0.09716796875,0.9858397841453552,0.9908826171484602,-0.38909912109375,0.545501708984375,0.3681182861328125,0.7645137756287729
1781889094.468892,0.03857421875,0.0917968675494194,0.9902343153953552,0.9952279309939841,-0.26702880859375,0.362396240234375,0.4863739013671875,0.6627178822743106
1781889094.476883,0.0322265662252903,0.08740234375,0.9965819716453552,1.0009262447714167,-0.32806396484375,0.179290771484375,0.3681182861328125,0.5246734397259145
1781889094.484874,0.0341796875,0.0976562425494194,0.9868163466453552,0.9922255261546916,-0.1468658447265625,0.6046295166015625,0.2460479736328125,0.6690934419211558
1781889094.49559,0.023925788700580597,0.0961913987994194,0.9892577528953552,0.994211310653576,0.09918212890625,0.545501708984375,0.1201629638671875,0.5673167960536659
1781889094.506306,0.0307617224752903,0.09912109375,0.9833983778953552,0.988859769857718,0.22125244140625,0.301361083984375,0.2460479736328125,0.44756089093806756
1781889094.517022,0.04052734375,0.095703125,0.9897460341453552,0.9951878043026126,0.03814697265625,0.484466552734375,0.1850128173828125,0.5199930526815638
1781889094.524984,0.041015625,0.09130859375,0.9931640028953552,0.9981955106259837,0.2803802490234375,0.2994537353515625,0.0629425048828125,0.41502696608698975
1781889094.532947,0.0361328162252903,0.07861328125,0.9819335341453552,0.9857378423680657,-0.0247955322265625,0.2994537353515625,0.1850128173828125,0.3528698069123059
1781889094.54091,0.0219726599752903,0.1025390625,0.9887694716453552,0.9943149024240779,0.4634857177734375,0.1163482666015625,0.1201629638671875,0.49274239477286086
1781889094.548873,0.0288085974752903,0.08740234375,0.9902343153953552,0.9945014350758848,0.52642822265625,0.057220458984375,0.1850128173828125,0.560919421246338
1781889094.559552,0.03515625,0.0878906175494194,0.9912108778953552,0.9957207073398452,0.70953369140625,0.240325927734375,0.2460479736328125,0.7885012467401563
1781889094.570231,0.0302734375,0.1005859375,0.9897460341453552,0.9953045885291995,0.70953369140625,-0.186920166015625,-0.1850128173828125,0.7567079689680917
1781889094.58091,0.0283203162252903,0.1005859375,0.9848632216453552,0.9903914056995459,0.83160400390625,0.179290771484375,0.0629425048828125,0.8530370208691365
1781889094.591571,0.0336914025247097,0.0947265625,0.9819335341453552,0.987067220469982,0.40435791015625,0.179290771484375,0.1201629638671875,0.45835536227990104
1781889094.602232,0.02685546875,0.0971679612994194,0.9750975966453552,0.9802949310735088,0.4634857177734375,0.2994537353515625,-0.0591278076171875,0.5549663483758067
1781889094.612893,0.0380859412252903,0.10498046875,0.9858397841453552,0.9921449076328248,0.3414154052734375,-0.3719329833984375,0.1201629638671875,0.5189776112541223
1781889094.623552,0.029296875,0.09521484375,0.9794921278953552,0.9845450736071323,-0.0247955322265625,-0.4940032958984375,0.0,0.4946251861530281
1781889094.63421,0.03515625,0.1020507737994194,0.9975585341453552,1.0033809602505683,0.22125244140625,-0.125885009765625,-0.1201629638671875,0.2814939011724137
1781889094.644868,0.0317382849752903,0.09521484375,0.9843749403953552,0.989478250636096,0.16021728515625,-0.247955322265625,-0.1201629638671875,0.3187327378667527
1781889094.652885,0.0229492224752903,0.09033203125,0.9848632216453552,0.9892634169075694,0.16021728515625,0.179290771484375,-0.0591278076171875,0.24761029226572276
1781889094.660901,0.0341796837747097,0.09912109375,0.9887694716453552,0.9943129839577528,0.34332275390625,0.484466552734375,-0.1850128173828125,0.6219389814636371
1781889094.668917,0.029296875,0.09033203125,0.9877929091453552,0.9923472245702916,0.03814697265625,-0.003814697265625,-0.3681182861328125,0.37010919472964227
1781889094.676933,0.0317382849752903,0.10888671875,0.9760741591453552,0.9826415421732518,0.2803802490234375,-0.1888275146484375,0.1201629638671875,0.35875904478646625
1781889094.687559,0.0361328162252903,0.103515625,0.9873046278953552,0.993373793338186,0.09918212890625,-0.186920166015625,-0.1850128173828125,0.2810800344272263
1781889094.698185,0.0273437537252903,0.103515625,0.9829100966453552,0.9887241392695495,-0.38909912109375,-0.614166259765625,-0.2422332763671875,0.7663388812072686
1781889094.708811,0.0380859412252903,0.1005859375,0.9902343153953552,0.9960582659304013,-0.08392333984375,-0.370025634765625,-0.4253387451171875,0.5699781973480188
1781889094.716828,0.0239257849752903,0.09130859375,0.9892577528953552,0.9937507756690578,-0.0820159912109375,-0.0667572021484375,-0.6084442138671875,0.6175657926419336
1781889094.724844,0.03564453125,0.095703125,0.9897460341453552,0.9950009210293509,-0.14495849609375,-0.492095947265625,-0.2422332763671875,0.5673167960536659
1781889094.73286,0.0458984412252903,0.099609375,0.9853515028953552,0.991436472373766,0.03814697265625,-0.125885009765625,-0.3681182861328125,0.39091341725743745
1781889094.748874,0.0419921912252903,0.09521484375,0.9882811903953552,0.99374489778992,0.34332275390625,0.179290771484375,-0.4863739013671875,0.6217517720283333
1781889094.756873,0.0429687537252903,0.107421875,0.9902343153953552,0.9969702966546837,0.22125244140625,-0.125885009765625,-0.3681182861328125,0.44756089093806756
1781889094.764872,0.0234375037252903,0.1064453125,0.9868163466453552,0.9928174168197199,0.22125244140625,-0.247955322265625,-0.3681182861328125,0.4959289840828375
1781889094.772871,0.02587890625,0.0878906175494194,0.9785155653953552,0.9827955993811258,0.70953369140625,-0.308990478515625,-0.4863739013671875,0.9140419831632643
1781889094.783553,0.03466796875,0.109375,0.9785155653953552,0.9852195036656769,0.46539306640625,-0.431060791015625,-0.4253387451171875,0.7637520277602491
1781889094.794235,0.0185546912252903,0.10791015625,0.9809569716453552,0.9870488633335188,0.16021728515625,-0.492095947265625,-0.4253387451171875,0.6698813685093471
1781889094.804917,0.0341796875,0.10009765625,0.9829100966453552,0.9885848723866466,0.3414154052734375,-0.5550384521484375,-0.3032684326171875,0.718751629245767
1781889094.812947,0.0263671912252903,0.09033203125,0.9775390028953552,0.9820578429117642,0.16021728515625,-0.247955322265625,-0.2422332763671875,0.3818748230536694
1781889094.820978,0.0380859412252903,0.0947265625,0.9960936903953552,1.0013122892522195,0.16021728515625,-0.431060791015625,-0.1850128173828125,0.4956941865805785
1781889094.829009,0.0327148474752903,0.09521484375,0.9912108778953552,0.9963107608440999,0.1010894775390625,-0.3719329833984375,-0.7915496826171875,0.8803999810655116
1781889094.83704,0.0434570275247097,0.0947265625,0.9809569716453552,0.98647768099637,0.3414154052734375,0.1163482666015625,-0.3681182861328125,0.5153760478374728
1781889094.847657,0.0385742150247097,0.08544921875,0.9951171278953552,0.9995237052118667,0.40435791015625,-0.308990478515625,-0.4253387451171875,0.6632446633159657
1781889094.858274,0.0429687537252903,0.09130859375,0.9829100966453552,0.9880768346523912,0.40435791015625,0.057220458984375,-0.4863739013671875,0.6350898144069476
1781889094.868891,0.0244140625,0.0981445237994194,0.9916991591453552,0.9968428242452133,0.4062652587890625,-0.0667572021484375,-0.1850128173828125,0.4513731573028653
1781889094.87967,0.029296875,0.1005859375,0.9804686903953552,0.9860500446494095,0.40435791015625,-0.247955322265625,-0.4253387451171875,0.6371029818197712
1781889094.890451,0.0278320349752903,0.0947265625,0.9853515028953552,0.9902854780678486,0.52642822265625,-0.186920166015625,-0.3681182861328125,0.6690118793098419
1781889094.901232,0.0234375037252903,0.1015625,0.9833983778953552,0.9889067840976412,0.34332275390625,-0.125885009765625,-0.3032684326171875,0.4750676701855732
1781889094.909162,0.0351562537252903,0.09912109375,0.9907225966453552,0.9962892235219191,0.2803802490234375,-0.0667572021484375,0.0629425048828125,0.2950107913315292
1781889094.917093,0.0263671912252903,0.10302734375,0.9799804091453552,0.9857339725514128,0.16021728515625,-0.003814697265625,-0.1201629638671875,0.20030793360078003
1781889094.925024,0.03466796875,0.1030273362994194,0.9858397841453552,0.9918147912216096,0.16021728515625,-0.125885009765625,-0.1201629638671875,0.236549681952603
1781889094.932955,0.0185546912252903,0.09716796875,0.9921874403953552,0.9971067182582581,0.16021728515625,0.240325927734375,-0.0591278076171875,0.2948257580976301
1781889094.943578,0.03955078125,0.0927734300494194,0.9829100966453552,0.9880705600856658,0.09918212890625,-0.003814697265625,-0.2422332763671875,0.26177969132304096
1781889094.954201,0.05517578125,0.1108398362994194,0.9995116591453552,1.0071511271477238,-0.02288818359375,0.057220458984375,0.0629425048828125,0.08808977690700905
1781889094.964824,0.03466796875,0.10986328125,0.9897460341453552,0.9964281312421515,0.03814697265625,-0.003814697265625,-0.3681182861328125,0.37010919472964227
1781889094.975532,0.0288085974752903,0.10546875,0.9853515028953552,0.9913985963139099,0.03814697265625,-0.186920166015625,-0.4253387451171875,0.46616240526667235
1781889094.98624,0.0390624962747097,0.09912109375,0.9799804091453552,0.9857547728264398,0.1010894775390625,0.1163482666015625,-0.1850128173828125,0.2408022927761171
1781889094.996948,0.0361328125,0.0976562425494194,0.9824218153953552,0.9879245645355401,0.4634857177734375,-0.0667572021484375,-0.1201629638671875,0.4834404539382207
1781889095.004935,0.0424804724752903,0.09716796875,0.9736327528953552,0.9793911078845431,0.1583099365234375,0.2994537353515625,-0.2422332763671875,0.41642710742414535
1781889095.012922,0.02490234375,0.0937499925494194,0.9858397841453552,0.9906004582226984,-0.2079010009765625,-0.0057220458984375,-0.1201629638671875,0.24019722292663476
1781889095.020909,0.04443359375,0.099609375,0.9697265028953552,0.9758411050263696,-0.14495849609375,-0.003814697265625,0.0,0.14500868079184123
1781889095.028896,0.0400390625,0.099609375,0.9814452528953552,0.9872993155799296,-0.32806396484375,-0.308990478515625,-0.1850128173828125,0.48716611482967703
1781889095.039579,0.0419921912252903,0.0947265625,1.00439453125,1.0097251309994593,0.1010894775390625,-0.0667572021484375,-0.0591278076171875,0.13480246341006943
1781889095.050262,0.04052734375,0.1015624925494194,0.9951171278953552,1.0011071389791315,0.5245208740234375,0.1163482666015625,-0.0591278076171875,0.5405137963651938
1781889095.060945,0.0341796837747097,0.0947265625,0.9931640028953552,0.9982565347009409,0.4062652587890625,0.4215240478515625,0.2460479736328125,0.6350382577017888
1781889095.071601,0.0419921912252903,0.11328125,0.9858397841453552,0.993215014852889,0.58746337890625,0.301361083984375,-0.1201629638671875,0.6710967608188351
1781889095.082258,0.025390625,0.1059570237994194,0.9931640028953552,0.9991227709232967,0.2803802490234375,0.2994537353515625,0.0629425048828125,0.41502696608698975
1781889095.092915,0.0322265662252903,0.1025390625,0.9858397841453552,0.9916818496437315,0.4634857177734375,0.1773834228515625,0.1201629638671875,0.5106104456117616
1781889095.10357,0.0322265662252903,0.09716796875,0.9887694716453552,0.9940549450505787,0.2803802490234375,0.1163482666015625,0.0,0.3035621899770014
1781889095.114223,0.0375976599752903,0.107421875,0.9775390028953552,0.9841420351990755,-0.57220458984375,0.118255615234375,0.0,0.5842965712484669
1781889095.124876,0.0166015662252903,0.115234375,0.9941405653953552,1.000934581752159,-0.32806396484375,-0.003814697265625,-0.0591278076171875,0.3333715863384952
1781889095.132887,0.02490234375,0.0991210862994194,0.9853515028953552,0.9906375223721113,0.03814697265625,0.118255615234375,0.1850128173828125,0.22286615860920464
1781889095.140899,0.0327148474752903,0.09130859375,0.9921874403953552,0.9969169661592788,-0.08392333984375,0.240325927734375,0.1850128173828125,0.3146894041874361
1781889095.148911,0.029296875,0.0917968675494194,0.9765624403953552,0.9813048312158577,-0.32806396484375,0.179290771484375,0.1850128173828125,0.4171341371362329
1781889095.156923,0.029296875,0.1005859375,0.9804686903953552,0.9860500446494095,-0.2079010009765625,0.4215240478515625,0.3681182861328125,0.5970062158048124
1781889095.167579,0.0312500037252903,0.09521484375,0.9775390028953552,0.9826621654387702,-0.1468658447265625,0.1163482666015625,0.3681182861328125,0.4130587949357745
1781889095.178235,0.0375976599752903,0.08984375,0.9907225966453552,0.9954982405576592,-0.45013427734375,0.362396240234375,0.2460479736328125,0.6280855896329768
1781889095.188891,0.0253906287252903,0.099609375,0.9804686903953552,0.9858425657581129,0.03814697265625,0.057220458984375,0.1850128173828125,0.1973806349294306
1781889095.199575,0.0332031287252903,0.08935546875,0.9916991591453552,0.9962700787448577,0.03814697265625,0.240325927734375,0.2460479736328125,0.3460510777226939
1781889095.210258,0.029296875,0.0986328050494194,0.9790038466453552,0.9843958903119642,0.03814697265625,0.240325927734375,0.3032684326171875,0.38882320569419504
1781889095.220941,0.0380859412252903,0.09765625,0.9868163466453552,0.9923677665510728,0.5245208740234375,-0.0667572021484375,0.1201629638671875,0.5422340907858387
1781889095.228966,0.03955078125,0.1044921875,0.9936522841453552,0.9999138679572868,0.03814697265625,-0.003814697265625,0.1850128173828125,0.18894307617372746
1781889095.236993,0.0361328125,0.0927734300494194,0.9814452528953552,0.986482272467743,0.52642822265625,-0.125885009765625,0.2460479736328125,0.5945698568053405
1781889095.24502,0.0468750037252903,0.0908203125,0.9775390028953552,0.9828672836749064,0.40435791015625,0.179290771484375,-0.0591278076171875,0.4462584429218202
1781889095.253047,0.0234375037252903,0.09912109375,0.9775390028953552,0.9828310180232992,0.16021728515625,-0.125885009765625,-0.1201629638671875,0.236549681952603
1781889095.263654,0.0371093787252903,0.09912109375,0.9907225966453552,0.9963600557626187,0.4634857177734375,0.1163482666015625,-0.1201629638671875,0.49274239477286086
1781889095.274261,0.02490234375,0.0981445237994194,0.9824218153953552,0.9876259907681467,0.40435791015625,-0.186920166015625,0.0,0.4454710629987528
1781889095.284868,0.0361328162252903,0.09521484375,0.9819335341453552,0.9872005431308752,0.22125244140625,0.118255615234375,-0.1850128173828125,0.3117158577272137
1781889095.295556,0.03515625,0.0888671800494194,0.9804686903953552,0.985115318350893,0.34332275390625,-0.125885009765625,0.0629425048828125,0.37105162437912315
1781889095.306243,0.0375976599752903,0.09521484375,0.9785155653953552,0.983855762917993,-0.08392333984375,-0.186920166015625,0.1201629638671875,0.23753192063212342
1781889095.31693,0.0410156287252903,0.10400390625,0.9902343153953552,0.9965255108131941,-0.08392333984375,-0.186920166015625,-0.1850128173828125,0.2760652423427554
1781889095.324952,0.03857421875,0.095703125,0.9824218153953552,0.9878257345562748,0.1010894775390625,-0.0667572021484375,-0.1201629638671875,0.17063043220116095
1781889095.332976,0.0322265625,0.0966796800494194,0.9868163466453552,0.9920645210224537,0.34332275390625,-0.125885009765625,-0.1850128173828125,0.4098137279659979
1781889095.341,0.0395507775247097,0.09912109375,1.00146484375,1.0071350894970432,0.3414154052734375,0.4215240478515625,0.0,0.5424453906848061
1781889095.349024,0.03173828125,0.0971679612994194,0.9965819716453552,1.0018106394964734,0.34332275390625,0.362396240234375,-0.1201629638671875,0.513459527296095
1781889095.359699,0.03564453125,0.1005859375,0.9833983778953552,0.9891715892998555,0.52642822265625,-0.003814697265625,-0.4253387451171875,0.6767970697499439
1781889095.370374,0.0332031287252903,0.0888671875,0.9750975966453552,0.9797015605554869,0.03814697265625,-0.003814697265625,-0.1201629638671875,0.12613041395084718
1781889095.381049,0.0322265662252903,0.1044921875,0.9809569716453552,0.9870328003865092,0.22125244140625,-0.125885009765625,0.0,0.25455780976414294
1781889095.389064,0.0327148474752903,0.0869140625,0.9863280653953552,0.990690349247498,-0.1468658447265625,-0.3719329833984375,-0.3681182861328125,0.543520738401276
1781889095.397082,0.0302734375,0.09033203125,0.9863280653953552,0.9909184676220145,0.09918212890625,-0.125885009765625,-0.3032684326171875,0.3430100182212658
1781889095.4051,0.029296875,0.1020507737994194,0.9794921278953552,0.9852296665888602,-0.08392333984375,-0.308990478515625,0.1201629638671875,0.34199032247885536
1781889095.413118,0.0473632849752903,0.09814453125,0.9838866591453552,0.9899033224624216,0.03814697265625,-0.186920166015625,-0.1850128173828125,0.2657519192443799
1781889095.423704,0.0302734375,0.10546875,0.9814452528953552,0.9875600856026213,0.03814697265625,-0.186920166015625,-0.1201629638671875,0.22546280817796205
1781889095.43429,0.0419921912252903,0.10693359375,0.9951171278953552,1.0017266272925425,0.16021728515625,0.179290771484375,-0.1850128173828125,0.3033883679349415
1781889095.444876,0.03076171875,0.1103515625,0.9877929091453552,0.9944136875790123,-0.0247955322265625,-0.0667572021484375,-0.0591278076171875,0.09256046721306556
1781889095.455616,0.0424804724752903,0.10791015625,0.9956054091453552,1.0023369309184977,0.28228759765625,-0.125885009765625,-0.0591278076171875,0.3146894041874361
1781889095.466355,0.0361328162252903,0.09033203125,0.9985350966453552,1.003263572303246,0.40435791015625,0.057220458984375,0.0,0.4083864596583884
1781889095.477094,0.02734375,0.1015624925494194,0.9921874403953552,0.99774673010499,0.4634857177734375,0.2422332763671875,0.0,0.5229684223349826
1781889095.487701,0.0385742150247097,0.099609375,0.9794921278953552,0.9852993587035537,0.5245208740234375,0.1163482666015625,0.1201629638671875,0.5505435535112968
1781889095.498306,0.0332031287252903,0.0986328125,0.9965819716453552,1.0020012503322298,0.28228759765625,-0.125885009765625,-0.3681182861328125,0.4806707772057582
1781889095.508911,0.0332031287252903,0.10791015625,0.9853515028953552,0.99179868614411,0.09918212890625,-0.186920166015625,-0.2422332763671875,0.3216414204316152
1781889095.516952,0.029296875,0.0922851487994194,0.9965819716453552,1.0012744288067283,0.2803802490234375,0.2422332763671875,-0.0591278076171875,0.3752147942920724
1781889095.524994,0.0283203162252903,0.09521484375,0.9833983778953552,0.9884028917544977,0.34332275390625,-0.003814697265625,0.0,0.3433439460147796
1781889095.533036,0.0327148474752903,0.0966796875,0.9863280653953552,0.9915948143304165,0.3414154052734375,0.1163482666015625,0.0,0.3606957140017245
1781889095.541078,0.03369140625,0.095703125,0.9873046278953552,0.9925042202698455,0.22125244140625,0.118255615234375,-0.0591278076171875,0.2577462531178713
1781889095.551726,0.0380859412252903,0.08935546875,0.9897460341453552,0.9945009556662111,0.40435791015625,0.118255615234375,0.0,0.4212952765464983
1781889095.562374,0.0312500037252903,0.09375,0.9926757216453552,0.9975824344769496,0.4634857177734375,0.1773834228515625,0.0629425048828125,0.500245587890006
1781889095.573022,0.0302734375,0.1103515625,0.9936522841453552,1.0002193810117557,0.2803802490234375,-0.2460479736328125,0.1850128173828125,0.41639216127009876
1781889095.583672,0.03173828125,0.1010742112994194,0.9848632216453552,0.9905447390381577,0.3414154052734375,0.2994537353515625,0.4863739013671875,0.6654296285146671
1781889095.594321,0.02587890625,0.1020507737994194,0.9907225966453552,0.9963008289294312,0.22125244140625,0.179290771484375,0.0,0.28477679604856937
1781889095.60497,0.0283203162252903,0.09228515625,0.9887694716453552,0.9934705121104613,0.52642822265625,0.240325927734375,0.1850128173828125,0.6075466794793074
1781889095.613034,0.0327148474752903,0.09423828125,0.9907225966453552,0.9957320816374257,0.34332275390625,-0.003814697265625,0.6084442138671875,0.6986339718718663
1781889095.621098,0.0292968712747097,0.099609375,0.9814452528953552,0.9869220428611397,0.40435791015625,0.057220458984375,0.3681182861328125,0.5498095788704228
1781889095.629162,0.0322265662252903,0.10546875,0.9794921278953552,0.9856810018490801,0.16021728515625,0.179290771484375,0.4863739013671875,0.5425627439600328
1781889095.637226,0.0327148474752903,0.10693359375,0.9873046278953552,0.9936173725238541,0.4062652587890625,0.4215240478515625,0.4863739013671875,0.7611133656343507
1781889095.64785,0.0288085974752903,0.1005859375,0.9858397841453552,0.9913765914701677,0.3414154052734375,0.1163482666015625,0.4291534423828125,0.5606015297947659
1781889095.658474,0.0371093787252903,0.08837890625,0.9829100966453552,0.9875728809291519,0.70953369140625,0.240325927734375,0.3681182861328125,0.8346889740300436
1781889095.669098,0.0341796875,0.1010742112994194,0.9877929091453552,0.9935386648667687,0.09918212890625,0.057220458984375,0.3681182861328125,0.38551569125797946
1781889095.67705,0.0268554724752903,0.1005859375,0.9858397841453552,0.9913217576692169,0.2803802490234375,0.5474090576171875,0.4863739013671875,0.7841105357887501
1781889095.685002,0.0239257849752903,0.1044921875,0.9824218153953552,0.9882528440636659,0.2193450927734375,0.4215240478515625,0.1850128173828125,0.509926009570879
1781889095.692954,0.0273437537252903,0.1025390625,0.9892577528953552,0.9949335866628164,0.3414154052734375,0.1163482666015625,0.3032684326171875,0.4712463690271782
1781889095.700906,0.04052734375,0.0961913987994194,0.9829100966453552,0.9884369018211537,0.16021728515625,0.057220458984375,0.1201629638671875,0.20828561466065937
1781889095.711579,0.0366210974752903,0.1044921875,0.9843749403953552,0.9905825282666705,0.3414154052734375,0.1163482666015625,0.0,0.3606957140017245
1781889095.722252,0.0288085974752903,0.099609375,0.9936522841453552,0.9990479591409341,0.2803802490234375,-0.0057220458984375,0.1201629638671875,0.3050982853721988
1781889095.732925,0.0327148474752903,0.1064453125,0.9946288466453552,1.0008433485704062,0.34332275390625,0.240325927734375,-0.0591278076171875,0.4232294443027029
1781889095.743567,0.02490234375,0.0976562425494194,0.9819335341453552,0.9870918568767051,-0.08392333984375,-0.186920166015625,-0.1850128173828125,0.2760652423427554
1781889095.754208,0.0307617224752903,0.11328125,0.9819335341453552,0.9889248660289601,-0.2079010009765625,-0.2460479736328125,0.0629425048828125,0.3282136353913297
1781889095.764849,0.0327148474752903,0.1015625,0.9907225966453552,0.9964519387081832,-0.2079010009765625,-0.4940032958984375,0.1201629638671875,0.5492733567641187
1781889095.775549,0.0336914025247097,0.09033203125,0.9921874403953552,0.9968605235197748,0.4634857177734375,-0.3719329833984375,0.4291534423828125,0.7330251235998934
1781889095.786249,0.0419921912252903,0.1025390625,0.9877929091453552,0.9939881462171087,0.89263916015625,-0.003814697265625,0.1850128173828125,0.9116188703376042
1781889095.796949,0.044921875,0.1083984300494194,0.9848632216453552,0.991828493158148,0.64849853515625,0.057220458984375,0.4863739013671875,0.8126402051076006
1781889095.804959,0.029296875,0.1074218675494194,0.9736327528953552,0.9799788273341208,0.34332275390625,0.484466552734375,0.4863739013671875,0.7675532072757165
1781889095.812969,0.0312500037252903,0.0986328125,0.9853515028953552,0.9907686807184742,0.22125244140625,0.240325927734375,-0.3681182861328125,0.49215878225931653
1781889095.820979,0.0229492224752903,0.09619140625,0.9750975966453552,0.9800993706926461,0.09918212890625,-0.125885009765625,0.1850128173828125,0.24477310508712638
1781889095.828989,0.0288085974752903,0.1044921875,0.9843749403953552,0.9903244800646844,0.03814697265625,0.118255615234375,0.3032684326171875,0.32773666911009947
1781889095.839602,0.0390625,0.1059570237994194,0.9907225966453552,0.9971379209028187,-0.2079010009765625,-0.0057220458984375,0.0629425048828125,0.21729548301159723
1781889095.850215,0.0380859412252903,0.099609375,0.9780272841453552,0.983824138268444,-0.20599365234375,-0.125885009765625,0.2460479736328125,0.34470280796422653
1781889095.860828,0.0273437537252903,0.09765625,0.9853515028953552,0.9905564134818304,-0.32806396484375,0.057220458984375,0.2460479736328125,0.4140528363436205
1781889095.871557,0.0322265662252903,0.103515625,0.9848632216453552,0.9908125965789302,-0.6961822509765625,0.2422332763671875,-0.1201629638671875,0.7468506039628827
1781889095.882285,0.0205078125,0.0932617112994194,0.9809569716453552,0.9855936776317397,-0.87738037109375,0.545501708984375,-0.2422332763671875,1.0611528590476786
1781889095.893013,0.0263671912252903,0.08984375,0.9853515028953552,0.9897902365881919,-0.63323974609375,0.484466552734375,-0.2422332763671875,0.8332930918535135
1781889095.900975,0.03369140625,0.08642578125,0.9951171278953552,0.999431150580407,-0.6351470947265625,0.1163482666015625,-0.0591278076171875,0.6484171872447525
1781889095.908938,0.03515625,0.0966796800494194,0.9804686903953552,0.9858507875404389,-0.8182525634765625,-0.0667572021484375,0.0629425048828125,0.8233805563623519
1781889095.916901,0.0375976599752903,0.1025390625,0.9863280653953552,0.9923562344040272,-0.75531005859375,-0.308990478515625,0.1201629638671875,0.8248681945084051
1781889095.924864,0.0400390625,0.0966796800494194,0.9980468153953552,1.003517579707076,-0.2079010009765625,-0.3719329833984375,0.1850128173828125,0.46452848453312845
1781889095.932946,0.029296875,0.10546875,0.9843749403953552,0.9904423190623911,-0.6351470947265625,-0.3719329833984375,0.1201629638671875,0.7457781935432293
1781889095.941028,0.0327148474752903,0.08154296875,0.9780272841453552,0.9819658270686584,-0.26702880859375,-0.431060791015625,0.1201629638671875,0.5211112434551388
1781889095.94911,0.0283203162252903,0.09423828125,0.9853515028953552,0.9902527345189155,-0.14495849609375,-0.308990478515625,-0.0591278076171875,0.3463873251674948
1781889095.957192,0.037109375,0.0966796800494194,0.9838866591453552,0.9893214969318908,-0.32806396484375,-0.125885009765625,0.1201629638671875,0.3713652361194297
1781889095.967838,0.02001953125,0.0937499925494194,0.9902343153953552,0.9948637304279384,-0.2079010009765625,-0.3719329833984375,0.0629425048828125,0.43071885176718455
1781889095.978484,0.0429687537252903,0.08837890625,0.9858397841453552,0.9907256052360873,-0.0247955322265625,-0.0057220458984375,-0.1850128173828125,0.1867546594427787
1781889095.98913,0.03564453125,0.095703125,0.9941405653953552,0.9993723452784725,-0.38909912109375,-0.247955322265625,0.2460479736328125,0.5228953750078421
1781889095.999709,0.0361328162252903,0.0830078125,0.9843749403953552,0.9885291602288548,-0.14495849609375,-0.308990478515625,0.0,0.3413035033559964
1781889096.010289,0.0361328162252903,0.10302734375,0.9853515028953552,0.9913817621011023,0.09918212890625,0.301361083984375,0.0629425048828125,0.3234460643685998
1781889096.020869,0.0424804724752903,0.0966796875,0.9907225966453552,0.996334690764372,0.0362396240234375,-0.0667572021484375,-0.4253387451171875,0.43206814565055734
1781889096.031555,0.02587890625,0.0927734300494194,0.9770507216453552,0.9817865041746806,-0.26702880859375,-0.308990478515625,-0.0591278076171875,0.4126446389642396
1781889096.04224,0.02978515625,0.1015624925494194,0.9931640028953552,0.9987876811779433,-0.45013427734375,-0.125885009765625,-0.3032684326171875,0.5571711097549451
1781889096.052925,0.0390625,0.1010742112994194,0.9829100966453552,0.9888650732953567,-0.26702880859375,-0.003814697265625,-0.3032684326171875,0.4040924136337028
1781889096.060918,0.037109375,0.0961913987994194,0.9760741591453552,0.9815042817365556,-0.26702880859375,-0.003814697265625,-0.0591278076171875,0.27352337042351804
1781889096.068911,0.02978515625,0.099609375,0.9775390028953552,0.9830522291833598,-0.26702880859375,0.179290771484375,0.1850128173828125,0.37105162437912315
1781889096.076904,0.0283203162252903,0.10302734375,0.9819335341453552,0.9877297906565685,-0.08392333984375,0.606536865234375,-0.4253387451171875,0.745548887704043
1781889096.084897,0.0322265662252903,0.09423828125,0.9902343153953552,0.995230327416792,-0.3299713134765625,0.4215240478515625,-0.1850128173828125,0.5663862050143349
1781889096.095577,0.0322265662252903,0.08837890625,0.9863280653953552,0.9908039337967747,-0.26702880859375,0.240325927734375,-0.1850128173828125,0.4040924136337028
1781889096.106257,0.0327148474752903,0.10400390625,0.9863280653953552,0.9923356923678269,-0.32806396484375,-0.247955322265625,-0.3681182861328125,0.5519228926708969
1781889096.116937,0.0322265662252903,0.09814453125,0.9848632216453552,0.9902658561894494,-0.32806396484375,0.057220458984375,-0.1201629638671875,0.35403288525323573
1781889096.127595,0.0327148474752903,0.09375,0.9887694716453552,0.9937426184899018,-0.522613525390625,-0.217437744140625,0.3032684326171875,0.6421649412107975
1781889096.138253,0.025390625,0.0932617112994194,0.9746093153953552,0.979390498365075,-0.7076263427734375,-0.4634857177734375,0.3032684326171875,0.8986243897140532
1781889096.148911,0.028808601200580597,0.0961913987994194,0.9858397841453552,0.9909403618330841,-0.8907318115234375,-0.0972747802734375,0.0,0.896027646301759
1781889096.159552,0.03515625,0.0986328050494194,0.9819335341453552,0.9875008139870907,-0.5855560302734375,-0.0972747802734375,-0.0629425048828125,0.5969087085876326
1781889096.170195,0.03857421875,0.0922851487994194,0.9848632216453552,0.9899293330287632,-0.766754150390625,-0.095367431640625,0.3643035888671875,0.8542388301994304
1781889096.180838,0.0327148474752903,0.09912109375,0.9985350966453552,1.0039758919934665,-0.705718994140625,0.148773193359375,-0.0629425048828125,0.7239713534899874
1781889096.189017,0.0332031287252903,0.11572265625,0.9819335341453552,0.9892864329434076,-0.522613525390625,-0.034332275390625,0.0,0.5237400137995141
1781889096.197195,0.03369140625,0.0908203125,0.9838866591453552,0.988643716442839,-0.766754150390625,-0.095367431640625,-0.3070831298828125,0.8314486892271842
1781889096.205373,0.0312500037252903,0.095703125,0.9931640028953552,0.9982536689212423,-0.5245208740234375,-0.2803802490234375,-0.1850128173828125,0.6228683439738141
1781889096.213551,0.0400390625,0.0966796800494194,0.9838866591453552,0.9894357205521466,-0.522613525390625,-0.095367431640625,-0.2460479736328125,0.5854566160423502
1781889096.224252,0.0341796837747097,0.09423828125,0.9853515028953552,0.9904376248376414,-0.583648681640625,-0.034332275390625,-0.4901885986328125,0.7629609104953791
1781889096.234953,0.0380859412252903,0.09521484375,0.9824218153953552,0.9877596006893877,-0.522613525390625,-0.034332275390625,-0.4901885986328125,0.7173482168963102
1781889096.245654,0.0283203162252903,0.10107421875,0.9946288466453552,1.0001522786986454,-0.4024505615234375,0.0247955322265625,0.1201629638671875,0.42073793598185993
1781889096.25348,0.0302734412252903,0.09912109375,0.9858397841453552,0.991272693295633,-0.5855560302734375,0.3337860107421875,-0.1239776611328125,0.685317025920656
1781889096.261306,0.0156250037252903,0.103515625,0.9912108778953552,0.9967239486531047,-0.4024505615234375,0.3337860107421875,-0.3070831298828125,0.6063658995164043
1781889096.269132,0.0366210974752903,0.08984375,0.9838866591453552,0.988658668215965,-0.522613525390625,0.087738037109375,-0.0629425048828125,0.5336521516849214
1781889096.276958,0.0258789099752903,0.08837890625,0.9868163466453552,0.9911039557271182,-0.4024505615234375,0.2079010009765625,-0.0629425048828125,0.45733033968730924
1781889096.28761,0.025390625,0.1005859375,0.9829100966453552,0.9883696033104347,-0.5855560302734375,0.2689361572265625,0.1811981201171875,0.6693543754898297
1781889096.298262,0.03955078125,0.0878906175494194,0.9926757216453552,0.9973435282262729,-0.400543212890625,-0.522613525390625,0.1811981201171875,0.6829293675395463
1781889096.308914,0.02685546875,0.1015624925494194,0.9902343153953552,0.9957912208295175,-0.5245208740234375,0.0247955322265625,0.1811981201171875,0.5554905259666559
1781889096.319623,0.03955078125,0.10546875,0.9843749403953552,0.9907986398872412,-0.7076263427734375,-0.2803802490234375,0.0591278076171875,0.7634423505825246
1781889096.330332,0.0317382849752903,0.0986328125,0.9936522841453552,0.9990398451624012,-0.705718994140625,-0.217437744140625,0.0,0.7384568174699313
1781889096.341041,0.02587890625,0.0966796800494194,0.9775390028953552,0.9826490627405084,-0.766754150390625,-0.095367431640625,-0.1239776611328125,0.7825454201635461
1781889096.351679,0.037109375,0.1108398362994194,0.9897460341453552,0.9966241955372303,-0.5855560302734375,0.0247955322265625,0.2422332763671875,0.6341668890659363
1781889096.362316,0.041015625,0.1025390550494194,0.9946288466453552,1.0007412662040265,-0.888824462890625,0.270843505859375,-0.0629425048828125,0.9313038652448127
1781889096.372953,0.0283203162252903,0.1005859375,0.9873046278953552,0.9928192178828128,-0.827789306640625,0.087738037109375,0.0,0.8324260323562525
1781889096.380986,0.0205078125,0.09521484375,0.9887694716453552,0.9935549833309212,-0.827789306640625,0.087738037109375,-0.0629425048828125,0.8348022869310407
1781889096.389019,0.03076171875,0.0922851487994194,0.9897460341453552,0.9945149793421131,-0.766754150390625,0.087738037109375,0.2422332763671875,0.808879997574818
1781889096.397052,0.0268554724752903,0.09375,0.9965819716453552,1.0013420520034173,-0.644683837890625,0.270843505859375,-0.1850128173828125,0.7233278634889637
1781889096.405085,0.0322265662252903,0.08642578125,0.9921874403953552,0.9964656964058685,-0.644683837890625,0.148773193359375,-0.0629425048828125,0.6646145294986068
1781889096.415729,0.02587890625,0.1010742112994194,0.9838866591453552,0.9894031898183391,-0.766754150390625,0.148773193359375,0.0,0.7810540251503703
1781889096.426373,0.02978515625,0.0937499925494194,0.9882811903953552,0.993164602633981,-0.8296966552734375,0.0247955322265625,-0.0629425048828125,0.8324500688397177
1781889096.437017,0.0346679650247097,0.09423828125,0.9780272841453552,0.9831683935037009,-0.705718994140625,-0.156402587890625,0.0591278076171875,0.7252566206684055
1781889096.447697,0.0380859412252903,0.10009765625,0.9902343153953552,0.9960090758081812,-0.705718994140625,-0.217437744140625,0.0591278076171875,0.7408202001170288
1781889096.458377,0.0224609412252903,0.10546875,0.9887694716453552,0.9946322029600305,-0.7076263427734375,-0.0972747802734375,0.3032684326171875,0.7759955966925596
1781889096.469057,0.0288085974752903,0.0869140625,0.9892577528953552,0.9934862310129491,-0.522613525390625,-0.095367431640625,0.2422332763671875,0.5838636862475084
1781889096.479682,0.0332031287252903,0.0986328125,0.9838866591453552,0.989375478523203,-0.461578369140625,-0.278472900390625,0.1201629638671875,0.5523050651549676
1781889096.490307,0.03857421875,0.0859375,0.9941405653953552,0.99859335468599,-0.400543212890625,-0.522613525390625,0.4253387451171875,0.7838831611993115
1781889096.500932,0.0458984375,0.0976562425494194,1.01171875,1.017456749633799,-0.217437744140625,-0.705718994140625,0.1811981201171875,0.7603625648345809
1781889096.508929,0.0380859412252903,0.1005859375,0.9960936903953552,1.0018835809549969,0.3910064697265625,-0.4024505615234375,0.3032684326171875,0.6378277636326636
1781889096.516925,0.0371093787252903,0.087890625,1.00048828125,1.0050267005760827,0.820159912109375,-0.095367431640625,0.2422332763671875,0.8604848567107787
1781889096.524921,0.03515625,0.08984375,0.9912108778953552,0.9958950074110251,0.759124755859375,0.270843505859375,0.1811981201171875,0.8261109842864672
1781889096.532917,0.0185546912252903,0.095703125,0.9794921278953552,0.9843313432529731,0.514984130859375,0.331878662109375,0.1811981201171875,0.6388934654028771
1781889096.540919,0.03662109375,0.1015624925494194,0.9765624403953552,0.9825122108102416,0.453948974609375,0.453948974609375,0.0,0.6419807965179379
1781889096.548921,0.0268554724752903,0.08251953125,0.9819335341453552,0.9857606986073133,0.148773193359375,-0.034332275390625,-0.1850128173828125,0.23987895028903564
1781889096.556923,0.029296875,0.09130859375,0.9780272841453552,0.9827171183560952,-0.461578369140625,-0.095367431640625,0.1201629638671875,0.4864038196412476
1781889096.572929,0.0166015662252903,0.0859375,0.9746093153953552,0.97853164668435,-1.071929931640625,-0.034332275390625,0.5474090576171875,1.204105128235035
1781889096.580934,0.0273437537252903,0.10009765625,0.9794921278953552,0.9849731215944441,-1.071929931640625,-0.217437744140625,0.5474090576171875,1.2230983718758586
1781889096.588939,0.03857421875,0.0878906175494194,0.9853515028953552,0.9900153106207632,-0.949859619140625,-0.034332275390625,0.4863739013671875,1.0676945130226199
1781889096.596944,0.0439453087747097,0.09375,0.9902343153953552,0.9956325888849824,-0.9479522705078125,0.0247955322265625,0.3032684326171875,0.9955903112231461
1781889096.607645,0.0390624962747097,0.08935546875,0.9907225966453552,0.9955106940231527,-0.705718994140625,0.331878662109375,0.3643035888671875,0.8607553949385836
1781889096.618346,0.0458984375,0.0820312425494194,0.9799804091453552,0.9844782342072581,-0.705718994140625,0.087738037109375,0.3032684326171875,0.7731164233598632
1781889096.629047,0.029296875,0.1015624925494194,0.9902343153953552,0.9958600535035654,-0.827789306640625,-0.034332275390625,0.0,0.8285009603627894
1781889096.639661,0.02978515625,0.0986328050494194,0.9868163466453552,0.9921804713716349,-0.461578369140625,-0.278472900390625,0.1811981201171875,0.5687130259142028
1781889096.650275,0.01953125,0.1005859375,0.9907225966453552,0.9960071606434522,-0.522613525390625,0.331878662109375,0.0591278076171875,0.6219038839871811
1781889096.660889,0.03076171875,0.08544921875,0.9936522841453552,0.9977939236699737,-0.0972747802734375,-0.0972747802734375,0.1811981201171875,0.22750280105636897
1781889096.671554,0.04541015625,0.0810546875,0.9785155653953552,0.9829164035549329,-0.339508056640625,-0.339508056640625,0.3643035888671875,0.6027010419016218
1781889096.682221,0.02587890625,0.0878906175494194,0.9999999403953552,1.0041884082345447,0.026702880859375,-0.156402587890625,0.3032684326171875,0.34226679004419963
1781889096.692888,0.0312500037252903,0.0947265625,0.9799804091453552,0.9850437993737106,-0.339508056640625,0.209808349609375,0.3643035888671875,0.5403724354102607
1781889096.700895,0.0390625,0.1005859375,0.9868163466453552,0.9926982984449454,0.087738037109375,-0.034332275390625,0.6084442138671875,0.6156955657447628
1781889096.708901,0.0283203162252903,0.09375,0.9907225966453552,0.9955512876365615,-0.156402587890625,0.026702880859375,0.4253387451171875,0.4539690093419797
1781889096.716907,0.02001953125,0.0888671800494194,0.9960936903953552,1.0002503673415188,-0.034332275390625,0.087738037109375,0.6084442138671875,0.6156955657447628
1781889096.724913,0.0405273474752903,0.09912109375,0.9873046278953552,0.9930951038964824,0.0858306884765625,0.0247955322265625,0.2422332763671875,0.2581834341748933
1781889096.735573,0.0273437537252903,0.10009765625,0.9956054091453552,1.0009981780073443,0.148773193359375,-0.034332275390625,0.3032684326171875,0.33953484418823543
1781889096.746233,0.0239257849752903,0.095703125,0.9746093153953552,0.9795891225288552,0.026702880859375,0.331878662109375,0.2422332763671875,0.41174439934172863
1781889096.756893,0.04345703125,0.076171875,0.9721679091453552,0.9761153167931188,-0.461578369140625,-0.156402587890625,0.2422332763671875,0.5442364564571047
1781889096.764893,0.03125,0.0927734300494194,0.9946288466453552,0.9994348475024293,-0.2765655517578125,-0.4634857177734375,0.4253387451171875,0.687183063744244
1781889096.772894,0.0312500037252903,0.0947265625,0.9848632216453552,0.9899016363889723,-0.156402587890625,-0.217437744140625,0.3032684326171875,0.40461424134344826
1781889096.780895,0.04345703125,0.0820312425494194,0.9770507216453552,0.9814508398218296,-0.0362396240234375,0.0247955322265625,0.4863739013671875,0.48835202538629574
1781889096.788896,0.0410156287252903,0.10009765625,0.9887694716453552,0.9946692368040287,0.0858306884765625,0.0247955322265625,0.6084442138671875,0.6149683625124296
1781889096.799605,0.0410156287252903,0.0947265625,0.9902343153953552,0.9956000215092932,-0.2193450927734375,0.2079010009765625,0.1811981201171875,0.35237459423864154
1781889096.810314,0.03173828125,0.0917968675494194,0.9824218153953552,0.9872115309057604,0.0858306884765625,-0.2803802490234375,0.3032684326171875,0.4218432568489049
1781889096.821023,0.0322265625,0.1064453050494194,1.00341796875,1.0095626648742544,0.2689361572265625,0.2079010009765625,0.4253387451171875,0.5444837288374289
1781889096.83165,0.0317382849752903,0.08447265625,0.9873046278953552,0.9914198790879116,0.209808349609375,0.087738037109375,0.3032684326171875,0.379063647615676
1781889096.842279,0.0327148474752903,0.09716796875,0.9921874403953552,0.9974706974516189,0.087738037109375,-0.217437744140625,0.4253387451171875,0.4856852724045004
1781889096.852908,0.0429687537252903,0.10107421875,0.9858397841453552,0.9919387034975438,0.2689361572265625,-0.2803802490234375,0.2422332763671875,0.45783916486667825
1781889096.86357,0.02978515625,0.0937499925494194,0.9863280653953552,0.991221100069201,0.3910064697265625,0.0247955322265625,-0.0629425048828125,0.3968156205435348
1781889096.874233,0.0371093787252903,0.08203125,0.9926757216453552,0.9967503801404173,0.209808349609375,0.148773193359375,-0.0629425048828125,0.2647919287838634
1781889096.884896,0.0317382849752903,0.08984375,0.9892577528953552,0.9938360628447747,0.5741119384765625,0.3910064697265625,0.1811981201171875,0.7178602482401071
1781889096.892895,0.03076171875,0.10546875,0.9912108778953552,0.9972807754213943,0.576019287109375,0.148773193359375,-0.0629425048828125,0.5982419586632665
1781889096.900894,0.0498046912252903,0.09423828125,0.9951171278953552,1.0008094020100438,0.7572174072265625,-0.0972747802734375,0.0,0.763439967963535
1781889096.908893,0.0405273474752903,0.1044921875,0.9799804091453552,0.9863684329147075,0.6999969482421875,0.0247955322265625,-0.1239776611328125,0.711323419006247
1781889096.916892,0.029296875,0.09130859375,0.9814452528953552,0.9861188318900496,0.270843505859375,-0.034332275390625,0.1201629638671875,0.29828517845350955
1781889096.927559,0.0395507775247097,0.09912109375,0.9873046278953552,0.9930557303055007,0.453948974609375,-0.217437744140625,0.3643035888671875,0.6213420547390782
1781889096.938226,0.0380859412252903,0.10107421875,0.9960936903953552,1.00193272062568,0.2689361572265625,0.0247955322265625,0.0591278076171875,0.2764734575249566
1781889096.948893,0.0473632849752903,0.091796875,0.9941405653953552,0.9994925766547808,0.514984130859375,-0.034332275390625,0.1811981201171875,0.5470101634380172
1781889096.959608,0.0390625,0.0981445237994194,0.9980468153953552,1.0036212792577064,0.3910064697265625,0.2079010009765625,0.0,0.44284182907115477
1781889096.970324,0.0390625,0.1059570237994194,0.9916991591453552,0.9981082065829763,0.3910064697265625,-0.1544952392578125,0.2422332763671875,0.48521314749390315
1781889096.98104,0.0429687537252903,0.0888671875,0.9770507216453552,0.9820243395550714,0.3910064697265625,0.2079010009765625,0.2422332763671875,0.5047631580797752
1781889096.989018,0.0361328162252903,0.0947265625,0.9960936903953552,1.0012399023694944,0.209808349609375,0.148773193359375,0.1811981201171875,0.31462003331345323
1781889096.996995,0.0322265662252903,0.09765625,0.9775390028953552,0.9829332616797444,0.514984130859375,-0.034332275390625,0.1811981201171875,0.5470101634380172
1781889097.004972,0.0327148474752903,0.0908203125,0.9975585341453552,1.002218349190514,0.148773193359375,0.148773193359375,0.1201629638671875,0.24229334289253382
1781889097.012949,0.0278320349752903,0.08447265625,1.00146484375,1.005406427815144,0.209808349609375,0.087738037109375,0.1811981201171875,0.2907752834331324
1781889097.023636,0.0249023474752903,0.09423828125,0.9956054091453552,1.0003654888500624,0.5741119384765625,0.0247955322265625,0.0591278076171875,0.577681083257302
1781889097.034323,0.03125,0.0927734300494194,0.9921874403953552,0.9970052099670398,0.637054443359375,0.392913818359375,0.1811981201171875,0.7700989489641379
1781889097.04501,0.025390625,0.08544921875,0.9863280653953552,0.9903480728559126,0.514984130859375,0.148773193359375,0.0591278076171875,0.5392941829214802
1781889097.053013,0.02978515625,0.07958984375,0.9814452528953552,0.9851174971503724,0.331878662109375,0.087738037109375,0.1201629638671875,0.36370392822275344
1781889097.061018,0.0278320349752903,0.09326171875,0.9809569716453552,0.9857732754415166,0.759124755859375,-0.034332275390625,0.1201629638671875,0.7693427311526381
1781889097.069023,0.0292968712747097,0.099609375,0.9887694716453552,0.9942059154482096,0.148773193359375,0.270843505859375,-0.3070831298828125,0.4356486157296584
1781889097.084999,0.0288085974752903,0.09716796875,0.9980468153953552,1.0031794431507777,0.2689361572265625,0.0247955322265625,0.1811981201171875,0.3252295094486224
1781889097.092972,0.0439453125,0.0825195237994194,0.9902343153953552,0.9946379550797936,0.148773193359375,0.087738037109375,-0.1239776611328125,0.2126073533020778
1781889097.100945,0.0390625,0.1005859375,0.9926757216453552,0.9985231585061664,0.3910064697265625,0.2079010009765625,-0.1239776611328125,0.4598688356858381
1781889097.108918,0.0278320349752903,0.0849609375,0.9873046278953552,0.9913442446170404,0.209808349609375,0.270843505859375,-0.3070831298828125,0.4600823805479094
1781889097.119705,0.0288085974752903,0.091796875,0.9838866591453552,0.9885795666472513,0.026702880859375,0.209808349609375,-0.3070831298828125,0.37287080345694
1781889097.130492,0.0366210974752903,0.099609375,0.9951171278953552,1.0007603262514386,0.331878662109375,0.209808349609375,-0.3070831298828125,0.49846066904816344
1781889097.141279,0.0366210974752903,0.09423828125,0.9863280653953552,0.9914963494737603,0.087738037109375,0.148773193359375,0.0591278076171875,0.18255827522127607
1781889097.149221,0.0327148474752903,0.09423828125,1.00048828125,1.0054491115003608,0.2117156982421875,-0.4634857177734375,-0.0629425048828125,0.5134240999242813
1781889097.157163,0.03466796875,0.0917968675494194,0.9882811903953552,0.993140596410396,0.087738037109375,-0.034332275390625,0.3032684326171875,0.31756638756548117
1781889097.165105,0.0244140625,0.09130859375,0.9755858778953552,0.9801536159649707,0.209808349609375,0.148773193359375,0.2422332763671875,0.3533128455175922
1781889097.173047,0.0380859412252903,0.1044921875,0.9794921278953552,0.9857859731080182,0.026702880859375,0.209808349609375,0.2422332763671875,0.32157354927229626
1781889097.1837,0.0361328125,0.1069335862994194,0.9868163466453552,0.9932506602185077,0.026702880859375,-0.461578369140625,0.3643035888671875,0.5886295435723744
1781889097.194353,0.0263671875,0.0859375,0.9907225966453552,0.9947923129913225,-0.156402587890625,-0.278472900390625,0.4863739013671875,0.5818663916072059
1781889097.205006,0.0375976599752903,0.1025390625,0.9838866591453552,0.9899296951896154,0.514984130859375,-0.766754150390625,0.1201629638671875,0.9314288593680046
1781889097.212989,0.0434570275247097,0.08935546875,0.9912108778953552,0.9961786574178833,1.003265380859375,-0.278472900390625,0.3032684326171875,1.0844631496297876
1781889097.220971,0.0361328125,0.0966796800494194,0.9951171278953552,1.0004552158414284,1.003265380859375,0.087738037109375,0.1811981201171875,1.0232654329746098
1781889097.228953,0.0375976599752903,0.095703125,0.9736327528953552,0.9790471948179879,1.308441162109375,0.087738037109375,-0.1239776611328125,1.3172268970522505
1781889097.236935,0.0322265662252903,0.0947265625,0.9794921278953552,0.9845895092995407,0.820159912109375,0.209808349609375,0.2422332763671875,0.8805445957909512
1781889097.247604,0.0341796837747097,0.109375,0.9999999403953552,1.006544098486824,0.759124755859375,-0.217437744140625,-0.0629425048828125,0.7921561250513957
1781889097.258273,0.0263671912252903,0.10791015625,0.9873046278953552,0.9935342263146228,0.2689361572265625,-0.0972747802734375,-0.1239776611328125,0.3117041866914822
1781889097.268942,0.03466796875,0.0961913987994194,0.9843749403953552,0.9896709940877316,0.148773193359375,0.087738037109375,-0.0629425048828125,0.18382922819583103
1781889097.279598,0.0302734375,0.08056640625,0.9843749403953552,0.9881302799289503,-0.339508056640625,-0.095367431640625,-0.1239776611328125,0.3738062706825363
1781889097.290254,0.0366210974752903,0.08935546875,0.9902343153953552,0.9949319092090346,-0.217437744140625,0.087738037109375,-0.2460479736328125,0.3398775383304745
1781889097.30091,0.0473632849752903,0.09716796875,0.9809569716453552,0.9868948652892454,-0.0972747802734375,0.1506805419921875,0.0,0.179351633982813
1781889097.308962,0.0375976599752903,0.0927734375,0.9902343153953552,0.9952811131171393,-0.156402587890625,0.514984130859375,0.0,0.5382103905870552
1781889097.317014,0.0429687537252903,0.08984375,0.9956054091453552,1.0005740072229827,-0.4024505615234375,0.5130767822265625,0.1201629638671875,0.6630636295377997
1781889097.325066,0.0502929724752903,0.0888671875,0.9931640028953552,0.998399467518731,-0.0972747802734375,0.5741119384765625,-0.0629425048828125,0.5856864858433091
1781889097.333118,0.0244140625,0.1025390550494194,0.9843749403953552,0.990002185622103,-0.4024505615234375,0.0247955322265625,-0.0629425048828125,0.40809684121523354
1781889097.343715,0.02685546875,0.08642578125,0.9819335341453552,0.9860953794363112,-0.217437744140625,0.270843505859375,0.0,0.34732603882110713
1781889097.354312,0.02099609375,0.0869140550494194,0.9824218153953552,0.986482393295794,0.148773193359375,0.087738037109375,0.1201629638671875,0.21040571309614922
1781889097.364909,0.0322265662252903,0.0947265625,0.9809569716453552,0.9860467805501754,0.270843505859375,-0.339508056640625,0.3643035888671875,0.5668677359416426
1781889097.375585,0.048828125,0.1079101487994194,0.9907225966453552,0.9977775551237077,0.209808349609375,-0.034332275390625,0.1811981201171875,0.2793403075700142
1781889097.38626,0.03369140625,0.0874023362994194,0.9853515028953552,0.9897938489927256,0.331878662109375,-0.034332275390625,0.0591278076171875,0.33884841615480743
1781889097.396935,0.03857421875,0.1079101487994194,0.9975585341453552,1.0041193154263668,0.209808349609375,-0.034332275390625,0.3032684326171875,0.370364672885243
1781889097.407599,0.0327148474752903,0.087890625,0.9819335341453552,0.9864017886679898,0.453948974609375,-0.034332275390625,0.4253387451171875,0.6230260225546478
1781889097.418265,0.0332031287252903,0.095703125,0.9916991591453552,0.9968594475358692,0.026702880859375,0.026702880859375,0.1811981201171875,0.18509145422299395
1781889097.428931,0.0361328125,0.0908203125,0.9941405653953552,0.9989341184814714,0.209808349609375,-0.095367431640625,0.1811981201171875,0.2931676130092506
1781889097.439593,0.0336914025247097,0.0888671875,0.9853515028953552,0.9899242758294078,0.453948974609375,-0.095367431640625,0.1811981201171875,0.4979933506590575
1781889097.450255,0.03564453125,0.08544921875,0.9941405653953552,0.9984425698845247,0.2689361572265625,-0.2803802490234375,0.1201629638671875,0.40666802012401
1781889097.460917,0.0341796875,0.095703125,0.9707030653953552,0.9760080841572485,0.0858306884765625,-0.0972747802734375,-0.1850128173828125,0.22596245829237252
1781889097.468919,0.03466796875,0.1113281175494194,0.9794921278953552,0.9864079513179723,0.1468658447265625,-0.4634857177734375,0.0591278076171875,0.4897802410886136
1781889097.476923,0.0229492224752903,0.1044921875,1.00048828125,1.006191872845003,-0.278472900390625,-0.583648681640625,0.1201629638671875,0.657747731062718
1781889097.484927,0.0263671912252903,0.08935546875,0.9863280653953552,0.9907182652778677,0.209808349609375,-0.522613525390625,0.3643035888671875,0.6707171873066471
1781889097.492931,0.0263671875,0.1015624925494194,0.9970702528953552,1.0025763101521592,0.148773193359375,0.087738037109375,0.3032684326171875,0.349003106634078
1781889097.503584,0.0341796875,0.1020507737994194,0.9868163466453552,0.9926676752454185,-0.2193450927734375,-0.0972747802734375,0.2422332763671875,0.34095690751268803
1781889097.514237,0.0473632849752903,0.0888671875,0.9902343153953552,0.9953414776669958,0.331878662109375,0.209808349609375,0.2422332763671875,0.4613458031768585
1781889097.52489,0.03564453125,0.1030273362994194,0.9819335341453552,0.9879669175190905,0.209808349609375,0.087738037109375,0.1201629638671875,0.2572093400461243
1781889097.535575,0.0234375037252903,0.1005859375,0.9741210341453552,0.9795808473873114,0.514984130859375,0.026702880859375,0.0,0.5156759630651557
1781889097.546261,0.0214843787252903,0.08837890625,0.9882811903953552,0.9924576166710689,0.148773193359375,-0.156402587890625,0.3032684326171875,0.3722458526072739
1781889097.556947,0.0341796875,0.0981445237994194,0.9843749403953552,0.9898457566044174,0.148773193359375,-0.339508056640625,0.1201629638671875,0.38966437028754225
1781889097.564947,0.0336914025247097,0.1083984375,0.9829100966453552,0.9894430705926971,0.148773193359375,-0.339508056640625,0.0,0.37067395860275887
1781889097.572948,0.0488281212747097,0.09912109375,0.9819335341453552,0.9881308830982876,0.209808349609375,-0.278472900390625,0.1201629638671875,0.3687896930543527
1781889097.580949,0.03857421875,0.1025390550494194,0.9790038466453552,0.9851145922729004,0.209808349609375,-0.034332275390625,0.0591278076171875,0.2206679549298506
1781889097.58895,0.0307617224752903,0.10888671875,0.9814452528953552,0.9879460438306417,0.026702880859375,-0.095367431640625,0.3032684326171875,0.31902936085257866
1781889097.599622,0.0341796875,0.1015624925494194,0.9941405653953552,0.9998993222795208,0.0858306884765625,0.0858306884765625,-0.1239776611328125,0.17350583456669094
1781889097.610294,0.03466796875,0.1025390550494194,0.9916991591453552,0.9975887670364394,-0.034332275390625,-0.095367431640625,-0.1239776611328125,0.16013779257623567
1781889097.620966,0.0312500037252903,0.0947265625,0.9804686903953552,0.9855295719670111,0.148773193359375,0.209808349609375,0.0591278076171875,0.2639111673684364
1781889097.631609,0.0410156287252903,0.08935546875,0.9887694716453552,0.9936456861744523,0.087738037109375,-0.034332275390625,0.0,0.09421607235129142
1781889097.642255,0.0473632849752903,0.087890625,0.9892577528953552,0.9942831308988949,-0.2193450927734375,0.2079010009765625,0.1811981201171875,0.35237459423864154
1781889097.652901,0.0356445349752903,0.080078125,0.9824218153953552,0.9863243190461369,0.148773193359375,-0.217437744140625,0.2422332763671875,0.35789606845967464
1781889097.6609,0.029296875,0.08056640625,0.9882811903953552,0.991992421337011,-0.217437744140625,0.148773193359375,-0.0629425048828125,0.27087708385951137
1781889097.668898,0.0322265662252903,0.09228515625,0.9931640028953552,0.9979628441389414,0.331878662109375,-0.156402587890625,-0.1850128173828125,0.41089531325913087
1781889097.676896,0.0205078162252903,0.09423828125,0.9809569716453552,0.9856865649885417,0.2689361572265625,-0.0972747802734375,-0.3681182861328125,0.4661546010996728
1781889097.684894,0.0322265625,0.1010742112994194,1.00048828125,1.0060970869846235,0.331878662109375,0.026702880859375,-0.0629425048828125,0.33884841615480743
1781889097.695557,0.03466796875,0.1010742112994194,0.9853515028953552,0.9911283713551872,0.2689361572265625,-0.0972747802734375,0.0,0.2859878311065628
1781889097.70622,0.0332031287252903,0.08984375,0.9995116591453552,1.0040905855243896,0.2689361572265625,0.0247955322265625,-0.1850128173828125,0.32737015392077934
1781889097.716883,0.0229492224752903,0.11279296875,0.9707030653953552,0.977503637732156,0.331878662109375,-0.034332275390625,0.2422332763671875,0.41230948530998973
1781889097.727585,0.0332031287252903,0.0947265625,0.9868163466453552,0.9919082978817652,0.209808349609375,0.087738037109375,0.0,0.22741483399641235
1781889097.738289,0.0327148474752903,0.099609375,0.9858397841453552,0.9913991975168139,0.1468658447265625,0.0247955322265625,0.1201629638671875,0.19137275838267126
1781889097.748993,0.0390625,0.0922851487994194,0.9838866591453552,0.9889769388814834,0.148773193359375,-0.156402587890625,0.3032684326171875,0.3722458526072739
1781889097.75963,0.0317382849752903,0.10009765625,0.9931640028953552,0.9986999530224486,0.026702880859375,-0.156402587890625,-0.3070831298828125,0.34565135903638355
1781889097.770269,0.0288085974752903,0.09814453125,0.9882811903953552,0.9935602626876922,0.209808349609375,0.087738037109375,-0.3070831298828125,0.3821224350653074
1781889097.780908,0.0400390625,0.0883788987994194,0.9843749403953552,0.9891450750811207,-0.0972747802734375,-0.0972747802734375,0.0591278076171875,0.1497359789366144
1781889097.788905,0.0234375037252903,0.09912109375,0.9868163466453552,0.9920588741670301,0.087738037109375,-0.339508056640625,0.1811981201171875,0.3947105805697418
1781889097.796901,0.0351562537252903,0.109375,0.9833983778953552,0.9900864722074597,0.209808349609375,-0.095367431640625,0.0,0.2304658121794619
1781889097.804897,0.03564453125,0.1005859375,0.9873046278953552,0.9930551302391887,0.026702880859375,-0.278472900390625,0.0,0.27975024593046727
1781889097.812893,0.0244140587747097,0.099609375,0.9926757216453552,0.9979594992773366,0.209808349609375,-0.095367431640625,0.0,0.2304658121794619
1781889097.820898,0.0224609412252903,0.09912109375,0.9824218153953552,0.9876649778500944,0.209808349609375,-0.278472900390625,0.1201629638671875,0.3687896930543527
1781889097.828903,0.04052734375,0.09521484375,0.9760741591453552,0.9815442405786302,0.209808349609375,-0.156402587890625,0.0,0.26168934457614895
1781889097.836908,0.03076171875,0.0976562425494194,0.9799804091453552,0.9853144814514921,0.0858306884765625,-0.1544952392578125,0.4863739013671875,0.5174893795710479
1781889097.844913,0.0380859412252903,0.10400390625,0.9780272841453552,0.9842787816299884,-0.339508056640625,-0.156402587890625,0.1201629638671875,0.3926405836234017
1781889097.855578,0.03662109375,0.0922851487994194,0.9956054091453552,1.0005437441290947,-0.2193450927734375,-0.4634857177734375,-0.1239776611328125,0.5275431174451136
1781889097.866243,0.0366210974752903,0.09521484375,0.9814452528953552,0.9867328694644054,-0.156402587890625,-0.217437744140625,-0.1239776611328125,0.2951464086446099
1781889097.876908,0.0327148474752903,0.09423828125,0.9838866591453552,0.9889307725733354,-0.2765655517578125,-0.4634857177734375,-0.1239776611328125,0.553785134740022
1781889097.88757,0.0322265662252903,0.09765625,0.9863280653953552,0.9916745168255962,-0.2765655517578125,-0.4634857177734375,-0.1850128173828125,0.5705587240547529
1781889097.898232,0.0253906287252903,0.119140625,0.9897460341453552,0.9972143123014806,-0.278472900390625,-0.217437744140625,0.1201629638671875,0.37318288641667086
1781889097.908894,0.0244140625,0.1132812425494194,0.9809569716453552,0.9877779439635815,-0.095367431640625,-0.034332275390625,0.0,0.10135902599782122
1781889097.919594,0.0239257849752903,0.10791015625,0.9902343153953552,0.9963839844131834,-0.2765655517578125,-0.4634857177734375,-0.0629425048828125,0.5433868547544969
1781889097.930296,0.0351562537252903,0.09912109375,0.9985350966453552,1.00405841096758,-0.0972747802734375,-0.5855560302734375,0.0591278076171875,0.5965185203331473
1781889097.940998,0.0273437537252903,0.09130859375,0.9956054091453552,1.000157523033188,0.209808349609375,-0.339508056640625,-0.1239776611328125,0.41791832282117763
1781889097.948968,0.03076171875,0.0971679612994194,0.9907225966453552,0.9959513841283895,0.637054443359375,-0.339508056640625,0.0,0.7218753939066056
1781889097.956938,0.03466796875,0.1005859375,0.9956054091453552,1.0012739533212152,0.698089599609375,-0.095367431640625,0.1201629638671875,0.7147469300289815
1781889097.964908,0.0332031287252903,0.1044921875,0.9892577528953552,0.995315008763181,0.6999969482421875,0.0247955322265625,-0.1850128173828125,0.7244586175639711
1781889097.972878,0.0371093787252903,0.09375,0.9824218153953552,0.9875822962437523,0.331878662109375,0.087738037109375,-0.2460479736328125,0.4223517667160017
1781889097.983555,0.0439453125,0.0976562425494194,0.9804686903953552,0.9862995412374359,0.453948974609375,0.148773193359375,-0.1239776611328125,0.49353175690244233
1781889097.994232,0.03466796875,0.0981445237994194,0.9746093153953552,0.9801517909306031,0.3910064697265625,-0.2803802490234375,-0.0629425048828125,0.48524313733570407
1781889098.004909,0.0400390625,0.0981445237994194,0.9897460341453552,0.9954057897079724,0.3910064697265625,-0.3376007080078125,0.0591278076171875,0.5199580704720532
1781889098.01557,0.03955078125,0.0966796800494194,0.9863280653953552,0.9918438775424727,-0.339508056640625,-0.278472900390625,0.3643035888671875,0.5705523478501981
1781889098.026234,0.04150390625,0.08154296875,0.9829100966453552,0.9871596061802538,-0.034332275390625,-0.156402587890625,0.0,0.1601264332719067
1781889098.036898,0.03662109375,0.0922851487994194,0.9873046278953552,0.9922842745201412,-0.2193450927734375,0.0247955322265625,0.1811981201171875,0.2855868464691417
1781889098.044912,0.04150390625,0.0961913987994194,0.9794921278953552,0.9850787725080511,-0.278472900390625,0.331878662109375,0.3643035888671875,0.5660456761401755
1781889098.052927,0.02099609375,0.1127929612994194,0.9804686903953552,0.9871585186367152,-0.217437744140625,-0.217437744140625,-0.1850128173828125,0.35887057242110804
1781889098.060942,0.03173828125,0.0971679612994194,0.9882811903953552,0.9935535428395643,-0.0972747802734375,0.1506805419921875,-0.0629425048828125,0.1900756889589718
1781889098.068957,0.03173828125,0.1010742112994194,0.9809569716453552,0.9866609827626356,0.148773193359375,-0.095367431640625,0.0591278076171875,0.18634513064121208
1781889098.079656,0.0288085974752903,0.09033203125,0.9980468153953552,1.0025404016193336,-0.156402587890625,0.209808349609375,-0.0629425048828125,0.26915250692798176
1781889098.090355,0.0239257849752903,0.0966796875,0.9965819716453552,1.001546320132187,0.148773193359375,-0.217437744140625,-0.1239776611328125,0.29117537000795995
1781889098.101054,0.025390625,0.08056640625,0.9868163466453552,0.9904252276978897,-0.0362396240234375,-0.2803802490234375,0.2422332763671875,0.37229471467022895
1781889098.109007,0.03955078125,0.0961913987994194,0.9853515028953552,0.990825228664778,-0.339508056640625,-0.095367431640625,-0.0629425048828125,0.3582211976733733
1781889098.11696,0.0234375037252903,0.0869140625,0.9887694716453552,0.9928587205131261,0.270843505859375,-0.217437744140625,0.0591278076171875,0.3523229695560259
1781889098.124913,0.0424804724752903,0.0869140625,0.9946288466453552,0.999322364095314,-0.0972747802734375,0.2079010009765625,0.1811981201171875,0.29243455305128513
1781889098.132866,0.03466796875,0.07958984375,0.9819335341453552,0.9857636008519426,0.209808349609375,-0.095367431640625,0.3643035888671875,0.43108188948858867
1781889098.14359,0.0327148474752903,0.09326171875,0.9799804091453552,0.9849515783723753,-0.034332275390625,-0.156402587890625,0.4253387451171875,0.4544815977905444
1781889098.154314,0.03125,0.0820312425494194,0.9824218153953552,0.9863358001304156,0.331878662109375,-0.095367431640625,0.1811981201171875,0.3899630137785386
1781889098.165038,0.029296875,0.10546875,0.9882811903953552,0.9943247333746599,0.148773193359375,-0.034332275390625,-0.0629425048828125,0.16514819743723083
1781889098.175687,0.0341796875,0.0874023362994194,0.9887694716453552,0.9932132135075677,0.270843505859375,-0.156402587890625,0.0,0.31275865162307176
1781889098.186336,0.0278320349752903,0.1015625,0.9794921278953552,0.9851367378116028,0.087738037109375,0.148773193359375,0.2422332763671875,0.2975035905627599
1781889098.196985,0.0424804724752903,0.099609375,0.9794921278953552,0.9854600178285192,0.148773193359375,0.209808349609375,0.4253387451171875,0.49705739580658037
1781889098.20766,0.03515625,0.1025390550494194,0.9819335341453552,0.9878986209139468,-0.2193450927734375,-0.2803802490234375,0.0591278076171875,0.3608620947118828
1781889098.218334,0.0209960974752903,0.099609375,0.9809569716453552,0.9862248445038833,0.209808349609375,-0.339508056640625,0.3032684326171875,0.5012554302067851
1781889098.229008,0.0234375037252903,0.0986328125,0.9804686903953552,0.9856959983322019,0.1468658447265625,0.0247955322265625,0.0,0.14894426731380186
1781889098.236997,0.03857421875,0.1025390550494194,0.9873046278953552,0.9933643120357135,0.026702880859375,-0.400543212890625,0.2422332763671875,0.4688548489868872
1781889098.244985,0.0332031287252903,0.095703125,0.9960936903953552,1.0012313298820366,0.148773193359375,-0.034332275390625,0.1201629638671875,0.19429695335025382
1781889098.252973,0.03369140625,0.0966796800494194,0.9931640028953552,0.9984271671167035,-0.0972747802734375,0.0247955322265625,-0.1239776611328125,0.15952323265156876
1781889098.260961,0.012695316225290298,0.10009765625,0.9829100966453552,0.9880753867636745,0.148773193359375,-0.095367431640625,0.0,0.176715619230659
1781889098.271592,0.0234375037252903,0.09228515625,0.9833983778953552,0.987997083139508,0.2689361572265625,0.0247955322265625,-0.1239776611328125,0.29717324163213504
1781889098.282223,0.0327148474752903,0.1005859375,0.9912108778953552,0.9968384004070902,0.0858306884765625,-0.2803802490234375,0.2422332763671875,0.38033794355334544
1781889098.292854,0.044921875,0.0883788987994194,0.9897460341453552,0.9946989578324551,-0.278472900390625,-0.400543212890625,0.3643035888671875,0.6088506602659015
1781889098.303547,0.0253906287252903,0.08935546875,0.9980468153953552,1.0023604788415235,-0.400543212890625,-0.339508056640625,0.1811981201171875,0.5554577793591886
1781889098.314242,0.0278320349752903,0.08203125,0.9877929091453552,0.991583874165606,-0.2193450927734375,-0.2803802490234375,0.3643035888671875,0.5093549436569214
1781889098.324937,0.0517578125,0.1064453050494194,0.9931640028953552,1.0001920869357916,-0.4596710205078125,0.0247955322265625,0.3032684326171875,0.5512567530064171
1781889098.332954,0.0366210974752903,0.08544921875,0.9877929091453552,0.9921580041118068,-0.4024505615234375,-0.1544952392578125,0.1811981201171875,0.4676194950575324
1781889098.34097,0.029296875,0.0976562425494194,0.9995116591453552,1.0046982658296655,-0.156402587890625,0.087738037109375,0.0,0.17933134877842954
1781889098.348986,0.02978515625,0.095703125,0.9848632216453552,0.9899504073524444,-0.278472900390625,-0.034332275390625,-0.1850128173828125,0.3360886846970463
1781889098.357002,0.02587890625,0.0961913987994194,0.9931640028953552,0.9981469028348534,0.0705718994140625,-0.1544952392578125,-0.2117156982421875,0.2714271703835382
1781889098.367643,0.04052734375,0.095703125,0.9868163466453552,0.992274183747961,-0.4177093505859375,-0.1544952392578125,-0.3337860107421875,0.5565635466749849
1781889098.378284,0.0371093787252903,0.103515625,0.9916991591453552,0.9977774365348828,-0.29754638671875,-0.034332275390625,-0.1506805419921875,0.3352867177773987
1781889098.388925,0.03076171875,0.1074218675494194,0.9921874403953552,0.998459642572771,-0.17547607421875,-0.156402587890625,-0.1506805419921875,0.2792100425435452
1781889098.399609,0.0302734412252903,0.08935546875,0.9838866591453552,0.9883996353112245,-0.049591064453125,-0.034332275390625,-0.3948211669921875,0.3994017184642106
1781889098.410293,0.0400390625,0.0981445237994194,0.9843749403953552,0.9900654005448594,0.133514404296875,-0.034332275390625,-0.2117156982421875,0.2526427085241609
1781889098.420977,0.0307617224752903,0.099609375,0.9799804091453552,0.9855099763402881,-0.0514984130859375,0.2117156982421875,-0.3337860107421875,0.3986084851075433
1781889098.431602,0.0400390625,0.1127929612994194,0.9829100966453552,0.9901705089185159,0.0095367431640625,0.0896453857421875,-0.2727508544921875,0.28726342141188344
1781889098.442227,0.0424804724752903,0.0859375,0.9868163466453552,0.9914617221327607,0.1316070556640625,-0.1544952392578125,-0.3948211669921875,0.44392899202346
1781889098.452852,0.03564453125,0.1118163987994194,0.9838866591453552,0.9908614422272729,0.133514404296875,-0.034332275390625,-0.0896453857421875,0.16444177228767848
1781889098.460922,0.02197265625,0.1015624925494194,0.9804686903953552,0.9859597305981185,0.621795654296875,-0.034332275390625,0.0934600830078125,0.629716863321766
1781889098.468995,0.0419921912252903,0.1083984375,0.9833983778953552,0.9902453913164951,0.2536773681640625,-0.3376007080078125,-0.0896453857421875,0.43169751024402164
1781889098.477068,0.03125,0.1020507737994194,0.9838866591453552,0.9896584668345281,0.1926422119140625,-0.2155303955078125,-0.0896453857421875,0.3026560232074727
1781889098.485141,0.0424804724752903,0.10546875,0.9814452528953552,0.9880096316327661,0.00762939453125,-0.278472900390625,0.0324249267578125,0.2804580891829115
1781889098.495732,0.044921875,0.0981445237994194,0.9746093153953552,0.98056801908931,0.2536773681640625,-0.0934600830078125,-0.2727508544921875,0.3840312784926391
1781889098.506323,0.0332031287252903,0.10400390625,0.9838866591453552,0.9899253599724654,0.0705718994140625,-0.1544952392578125,-0.0896453857421875,0.19205589583530852
1781889098.516914,0.0424804724752903,0.08740234375,0.9887694716453552,0.9935335063763838,0.19073486328125,-0.339508056640625,-0.2727508544921875,0.47543510305932335
1781889098.524908,0.02490234375,0.09130859375,0.9824218153953552,0.9869701157489781,0.0705718994140625,-0.1544952392578125,-0.1506805419921875,0.2270546138604029
1781889098.532904,0.0424804724752903,0.09521484375,0.9843749403953552,0.9898810435049354,0.06866455078125,-0.339508056640625,-0.3337860107421875,0.4810339302222541
1781889098.5409,0.03515625,0.0966796800494194,0.9916991591453552,0.9970206340382957,0.1926422119140625,-0.2155303955078125,-0.2117156982421875,0.358312587109459
1781889098.548896,0.0366210974752903,0.09326171875,0.9965819716453552,1.0016059500487418,0.1316070556640625,-0.2155303955078125,-0.0896453857421875,0.26797399812889183
1781889098.559591,0.0327148474752903,0.087890625,0.9921874403953552,0.9966097230543703,0.19073486328125,-0.156402587890625,-0.0896453857421875,0.2624459044349281
1781889098.570286,0.0410156287252903,0.09423828125,0.9858397841453552,0.9911827356529398,0.1316070556640625,0.0286102294921875,-0.0896453857421875,0.1617876927242146
1781889098.580981,0.0322265662252903,0.0947265625,0.9814452528953552,0.9865325426181172,0.2536773681640625,0.2117156982421875,-0.0896453857421875,0.3423624383393831
1781889098.59162,0.0390625,0.1025390550494194,0.9858397841453552,0.9919275259415067,0.06866455078125,-0.034332275390625,-0.2117156982421875,0.22520449051842986
1781889098.602258,0.0317382849752903,0.09423828125,0.9819335341453552,0.9869557426071922,0.2536773681640625,0.3337860107421875,-0.0286102294921875,0.42021881599641
1781889098.612896,0.0292968712747097,0.10400390625,0.9936522841453552,0.9995098703709872,0.31280517578125,0.026702880859375,-0.2727508544921875,0.4158763644016658
1781889098.620922,0.0366210974752903,0.09814453125,0.9838866591453552,0.9894475285929948,0.2536773681640625,0.2117156982421875,-0.2117156982421875,0.39242742116600277
1781889098.628951,0.0366210974752903,0.1044921875,0.9980468153953552,1.0041698898839977,0.1316070556640625,-0.2765655517578125,-0.2117156982421875,0.3723337997037657
1781889098.63698,0.0234375037252903,0.0849609375,0.9951171278953552,0.9990124001795236,0.2536773681640625,-0.3376007080078125,-0.2727508544921875,0.5027121182070708
1781889098.645009,0.0253906287252903,0.09423828125,0.9995116591453552,1.004265450191094,0.1926422119140625,-0.2765655517578125,-0.1506805419921875,0.3691939218964814
1781889098.655706,0.02490234375,0.08984375,0.9902343153953552,0.994613505601454,0.1316070556640625,-0.3986358642578125,-0.2117156982421875,0.47016433962532056
1781889098.666403,0.0356445349752903,0.099609375,0.9858397841453552,0.9915001969063122,0.3757476806640625,0.0896453857421875,-0.2117156982421875,0.4405066986907973
1781889098.6771,0.04150390625,0.1108398362994194,0.9765624403953552,0.983708413878738,0.2536773681640625,-0.2155303955078125,-0.2117156982421875,0.39449853661145107
1781889098.68773,0.03173828125,0.1015624925494194,0.9912108778953552,0.9969058445247654,-0.0514984130859375,-0.3986358642578125,-0.0286102294921875,0.40296548742359883
1781889098.69836,0.0356445349752903,0.099609375,1.001953125,1.0075230147042602,0.0705718994140625,-0.7038116455078125,0.2155303955078125,0.7394488330689808
1781889098.70899,0.0351562537252903,0.1044921875,0.9970702528953552,1.0031468828807373,0.5588531494140625,-0.4596710205078125,0.3376007080078125,0.798491407437855
1781889098.716982,0.0336914025247097,0.08984375,0.9873046278953552,0.9919563691421767,0.9250640869140625,-0.1544952392578125,-0.0286102294921875,0.9383127885108848
1781889098.724976,0.0429687537252903,0.10498046875,0.9863280653953552,0.9928294240211752,0.5588531494140625,0.2117156982421875,0.1544952392578125,0.6172593931610293
1781889098.73297,0.03515625,0.10009765625,1.0009765625,1.0065831219403205,0.6809234619140625,0.2727508544921875,0.2155303955078125,0.7645280511524768
1781889098.740964,0.0458984375,0.09130859375,0.9838866591453552,0.9891799047199414,0.5588531494140625,0.5779266357421875,0.1544952392578125,0.818648164881366
1781889098.751616,0.04052734375,0.0971679612994194,0.9863280653953552,0.9919310111499994,0.37384033203125,0.453948974609375,0.0934600830078125,0.5954502939103863
1781889098.762268,0.0224609412252903,0.0966796875,0.9731444716453552,0.9781930374674219,0.133514404296875,-0.034332275390625,0.4596710205078125,0.47989816459634527
1781889098.77292,0.0302734375,0.0976562425494194,0.9902343153953552,0.9954984792120203,0.0095367431640625,-0.0934600830078125,0.1544952392578125,0.18081624799595092
1781889098.782538,0.0429687537252903,0.095703125,0.9780272841453552,0.9836375198538381,-0.4177093505859375,0.0896453857421875,0.1544952392578125,0.4542974528930577
1781889098.792158,0.02978515625,0.10986328125,0.9921874403953552,0.998695655832216,-0.17547607421875,0.026702880859375,0.0934600830078125,0.20059831401395536
1781889098.801778,0.0288085974752903,0.1064453125,0.9799804091453552,0.9861653726178048,-0.17547607421875,0.148773193359375,0.1544952392578125,0.2771174744380061
1781889098.811398,0.0400390625,0.10009765625,0.9809569716453552,0.9868633378195019,-0.2346038818359375,0.2727508544921875,0.4596710205078125,0.5837203586422207
1781889098.821018,0.03466796875,0.0932617112994194,0.9960936903953552,1.001050575594053,-0.5397796630859375,0.0896453857421875,0.3376007080078125,0.6429406021658689
1781889098.830606,0.0268554724752903,0.095703125,0.9873046278953552,0.9922956881898775,-0.354766845703125,0.148773193359375,0.7038116455078125,0.8020871587457972
1781889098.840196,0.0283203162252903,0.1064453125,0.9941405653953552,1.000224029219914,-0.29754638671875,0.026702880859375,0.2155303955078125,0.36837514504011803
1781889098.849786,0.03076171875,0.09033203125,0.9809569716453552,0.9855875097777119,-0.2956390380859375,0.2117156982421875,0.3376007080078125,0.4961856666308809
1781889098.859376,0.0283203162252903,0.0908203125,0.9936522841453552,0.9981959884015663,-0.17547607421875,0.091552734375,0.5207061767578125,0.5570535686166115
1781889098.868966,0.01953125,0.0986328050494194,0.9863280653953552,0.9914398380865191,-0.29754638671875,0.331878662109375,0.0934600830078125,0.4554251702845593
1781889098.878561,0.0307617224752903,0.0849609375,0.9941405653953552,0.998238502681159,0.0095367431640625,-0.0934600830078125,0.4596710205078125,0.46917287185076917
1781889098.888152,0.0336914025247097,0.09375,0.9921874403953552,0.9971760576660315,0.1926422119140625,-0.2155303955078125,0.5207061767578125,0.5955663654981155
1781889098.897743,0.0375976599752903,0.095703125,0.9819335341453552,0.9873024550002754,-0.11444091796875,0.148773193359375,0.4596710205078125,0.49651549206703505
1781889098.907334,0.0229492224752903,0.1015625,0.9863280653953552,0.9918087823794537,0.1926422119140625,0.0896453857421875,0.2155303955078125,0.3026560232074727
1781889098.916925,0.03662109375,0.0874023362994194,1.00244140625,1.006910644428055,0.00762939453125,0.274658203125,0.4596710205078125,0.53553037570194
1781889098.927568,0.0263671912252903,0.10009765625,0.9858397841453552,0.9912592242010234,0.2536773681640625,0.0286102294921875,0.3376007080078125,0.42325523079770344
1781889098.938212,0.0366210974752903,0.09375,0.9887694716453552,0.9938788836362958,0.133514404296875,-0.034332275390625,0.2765655517578125,0.309019911506282
1781889098.948856,0.025390625,0.0883788987994194,0.9887694716453552,0.9930360424721368,0.19073486328125,-0.034332275390625,0.3986358642578125,0.4432482887468241
1781889098.956925,0.0429687537252903,0.10546875,0.9824218153953552,0.989000806060325,-0.17547607421875,-0.156402587890625,0.3376007080078125,0.41137313982500756
1781889098.964997,0.03955078125,0.1059570237994194,0.9848632216453552,0.9913358263169874,-0.48065185546875,-0.339508056640625,-0.0896453857421875,0.595254753760364
1781889098.973069,0.03466796875,0.0981445237994194,0.9931640028953552,0.9986035010233996,-0.2346038818359375,-0.2155303955078125,0.0934600830078125,0.33200469857529397
1781889098.981141,0.03515625,0.0878906175494194,0.9970702528953552,1.0015536988979115,-0.1125335693359375,0.2727508544921875,-0.2117156982421875,0.36315336944035326
1781889098.991842,0.0258789099752903,0.09375,0.9868163466453552,0.9915973388871084,-0.2346038818359375,-0.2155303955078125,-0.0896453857421875,0.3309510960022798
1781889099.002543,0.0385742150247097,0.10009765625,0.9824218153953552,0.9882611670081047,0.00762939453125,0.026702880859375,0.2155303955078125,0.21731222444873535
1781889099.013244,0.04052734375,0.0976562425494194,0.9897460341453552,0.9953775260707669,-0.2346038818359375,0.0896453857421875,0.2155303955078125,0.3309510960022798
1781889099.021164,0.0405273474752903,0.099609375,0.9902343153953552,0.9960564707223086,-0.1125335693359375,0.2727508544921875,-0.2117156982421875,0.36315336944035326
1781889099.029084,0.03466796875,0.0869140550494194,0.9848632216453552,0.9892984819416497,-0.0514984130859375,0.2727508544921875,-0.0896453857421875,0.2916871789459624
1781889099.037004,0.03466796875,0.095703125,0.9848632216453552,0.9901093482750705,-0.354766845703125,-0.034332275390625,0.3376007080078125,0.4909301966583629
1781889099.044924,0.0439453125,0.1113281175494194,0.9916991591453552,0.99889557136741,0.0705718994140625,-0.4596710205078125,0.1544952392578125,0.49004756813490163
1781889099.055727,0.0410156287252903,0.099609375,0.9775390028953552,0.9834565631329463,-0.2956390380859375,-0.2155303955078125,0.1544952392578125,0.3971455289707555
1781889099.06653,0.0424804724752903,0.10693359375,0.9877929091453552,0.9944718273394465,-0.48065185546875,-0.156402587890625,0.0324249267578125,0.506497138728035
1781889099.077333,0.04052734375,0.0981445237994194,0.9833983778953552,0.9891143426270096,-0.7228851318359375,-0.1544952392578125,0.3986358642578125,0.8398465604236065
1781889099.087847,0.0385742150247097,0.1044921875,0.9799804091453552,0.9862901143284392,-0.17547607421875,0.209808349609375,-0.1506805419921875,0.3122755544772811
1781889099.098362,0.0424804724752903,0.08740234375,0.9941405653953552,0.9988789836608405,-0.354766845703125,-0.034332275390625,0.0934600830078125,0.36847388925060864
1781889099.108877,0.03515625,0.09521484375,0.9877929091453552,0.9929937863563112,-0.5397796630859375,0.3337860107421875,-0.0896453857421875,0.6409457705868863
1781889099.119573,0.0322265662252903,0.0908203125,0.9848632216453552,0.9895667971809375,-0.7228851318359375,-0.0934600830078125,-0.0896453857421875,0.7343936247886099
1781889099.130269,0.0283203162252903,0.09228515625,0.9858397841453552,0.9905547286136934,-0.29754638671875,-0.034332275390625,-0.2727508544921875,0.4050994766833204
1781889099.140965,0.0278320349752903,0.10009765625,0.9726561903953552,0.9781892596384477,-0.537872314453125,-0.034332275390625,-0.1506805419921875,0.559633770892821
1781889099.148943,0.0375976599752903,0.09814453125,0.9775390028953552,0.9831726375522994,-0.41961669921875,-0.034332275390625,-0.2117156982421875,0.47125408887235515
1781889099.156921,0.04052734375,0.1064453050494194,0.9863280653953552,0.99288273282651,-0.66375732421875,0.026702880859375,-0.2727508544921875,0.7181085279583047
1781889099.164899,0.03369140625,0.1059570237994194,0.9882811903953552,0.9945158183944555,-0.3566741943359375,-0.2155303955078125,-0.2117156982421875,0.4674327429428978
1781889099.172877,0.0341796837747097,0.08935546875,0.9916991591453552,0.9963031028899167,-0.354766845703125,-0.034332275390625,-0.1506805419921875,0.38696620741183846
1781889099.183548,0.0380859412252903,0.10302734375,0.9882811903953552,0.9943665741407729,-0.3566741943359375,-0.0934600830078125,-0.0286102294921875,0.36982403011785614
1781889099.194219,0.0336914025247097,0.1044921875,0.9975585341453552,1.0035819632191718,-0.29754638671875,-0.156402587890625,-0.1506805419921875,0.36837514504011803
1781889099.20489,0.02587890625,0.0878906175494194,0.9985350966453552,1.002729683251904,-0.2346038818359375,0.2117156982421875,-0.0286102294921875,0.31730279463985683
1781889099.215844,0.0244140625,0.0878906175494194,0.9838866591453552,0.9881061507475706,-0.3566741943359375,0.0286102294921875,-0.2727508544921875,0.449920053746223
1781889099.226799,0.0390624962747097,0.10400390625,0.9931640028953552,0.9993585081328901,-0.4177093505859375,-0.2155303955078125,-0.2727508544921875,0.5434404121712869
1781889099.237754,0.02978515625,0.0927734300494194,0.9799804091453552,0.9848125035582506,-0.1125335693359375,0.0896453857421875,-0.2117156982421875,0.25597585099873943
1781889099.248191,0.03662109375,0.0922851487994194,0.9853515028953552,0.9903409702998823,-0.48065185546875,0.148773193359375,-0.2117156982421875,0.5458783803285079
1781889099.258628,0.0371093787252903,0.1005859375,0.9882811903953552,0.9940796487713605,-0.4177093505859375,0.0286102294921875,-0.1506805419921875,0.44497671010242845
1781889099.269065,0.029296875,0.0937499925494194,0.9858397841453552,0.9907206710226361,-0.17547607421875,-0.213623046875,-0.0896453857421875,0.29062510897072935
1781889099.277229,0.0268554724752903,0.095703125,0.9912108778953552,0.996182367337787,-0.2346038818359375,-0.2155303955078125,-0.1506805419921875,0.35241588853981026
1781889099.285392,0.0371093787252903,0.10888671875,0.9892577528953552,0.9959238551079527,-0.2346038818359375,0.0286102294921875,-0.2117156982421875,0.31730279463985683
1781889099.293555,0.0332031287252903,0.09130859375,0.9941405653953552,0.998876954791904,-0.049591064453125,-0.034332275390625,-0.0286102294921875,0.0667572021484375
1781889099.301718,0.04541015625,0.1074218675494194,0.9750975966453552,0.9820472813984071,-0.3566741943359375,0.0896453857421875,0.0934600830078125,0.379456931951286
1781889099.312111,0.0268554724752903,0.095703125,0.9863280653953552,0.9913240424418147,-0.66375732421875,-0.034332275390625,0.3376007080078125,0.7454708100488635
1781889099.322504,0.04052734375,0.095703125,0.9882811903953552,0.9937309822157386,-0.3566741943359375,-0.1544952392578125,0.3376007080078125,0.5148392932808209
1781889099.332897,0.0410156287252903,0.10009765625,0.9912108778953552,0.9970961974877623,-0.3566741943359375,0.0896453857421875,0.2765655517578125,0.4601535401462853
1781889099.340901,0.04052734375,0.095703125,0.9741210341453552,0.9796496020979198,-0.3566741943359375,0.0286102294921875,0.3986358642578125,0.5356730144494483
1781889099.348905,0.0439453125,0.0932617112994194,0.9838866591453552,0.9892734178827546,-0.9670257568359375,0.2117156982421875,0.1544952392578125,1.0019137339210515
1781889099.356909,0.0322265625,0.1010742112994194,0.9907225966453552,0.9963863763741861,-0.66375732421875,0.274658203125,-0.0286102294921875,0.7189085193746727
1781889099.364913,0.05029296875,0.0874023362994194,0.9838866591453552,0.9890407014579803,-0.6008148193359375,0.0286102294921875,0.0934600830078125,0.608713216121597
1781889099.375659,0.0429687537252903,0.09912109375,0.9746093153953552,0.9805787182466811,-0.5397796630859375,0.2727508544921875,0.0324249267578125,0.6056455144576208
1781889099.386405,0.03955078125,0.0883788987994194,0.9897460341453552,0.9944708674249548,-0.66375732421875,-0.156402587890625,-0.2117156982421875,0.7140441805904565
1781889099.397151,0.0283203162252903,0.11083984375,0.9853515028953552,0.9919703098035546,-0.66375732421875,-0.034332275390625,0.0934600830078125,0.6711834903387893
1781889099.407766,0.025390625,0.095703125,0.9843749403953552,0.9893421022331029,-0.66375732421875,-0.396728515625,0.0324249267578125,0.7739629683901551
1781889099.418379,0.03857421875,0.1059570237994194,0.9907225966453552,0.9971189120402435,-0.7228851318359375,-0.2155303955078125,0.2155303955078125,0.784518716542167
1781889099.428992,0.0322265662252903,0.095703125,0.9882811903953552,0.9934270738180528,-0.5397796630859375,-0.1544952392578125,0.1544952392578125,0.5823226275766945
1781889099.439642,0.0429687537252903,0.0986328125,0.9868163466453552,0.9926637132004225,-0.5397796630859375,-0.0934600830078125,0.0324249267578125,0.5487697583433738
1781889099.450293,0.0473632849752903,0.09326171875,0.9848632216453552,0.9904022386371725,-0.8449554443359375,0.2117156982421875,0.1544952392578125,0.8846705707484833
1781889099.460944,0.0322265662252903,0.0888671875,1.005859375,1.0102915474555965,-0.3566741943359375,-0.1544952392578125,0.2765655517578125,0.47704692041519575
1781889099.468944,0.0366210974752903,0.1005859375,1.00048828125,1.0061985075131188,0.00762939453125,-0.156402587890625,0.2765655517578125,0.31781831536099586
1781889099.476944,0.0356445349752903,0.07861328125,0.9926757216453552,0.9964214315271541,0.31280517578125,-0.095367431640625,0.0934600830078125,0.3401129402552852
1781889099.484944,0.0527343787252903,0.1005859375,0.9916991591453552,0.9981811798325496,0.6198883056640625,0.2117156982421875,0.2155303955078125,0.68959292323007
1781889099.492944,0.0390625,0.0908203125,0.9892577528953552,0.9941856515422134,0.3757476806640625,0.3948211669921875,-0.0896453857421875,0.5523643440831068
1781889099.503626,0.0390625,0.095703125,0.9775390028953552,0.9829890483737146,0.37384033203125,0.453948974609375,-0.0896453857421875,0.5948634806298029
1781889099.514308,0.0273437537252903,0.09814453125,0.9907225966453552,0.9959474350515627,-0.17547607421875,0.392913818359375,0.0324249267578125,0.43153736472780396
1781889099.52499,0.02099609375,0.10546875,0.9843749403953552,0.9902315468907665,-0.2956390380859375,0.2727508544921875,0.3376007080078125,0.5251377985957335
1781889099.532974,0.0361328162252903,0.09033203125,0.9804686903953552,0.9852838723554266,-0.8449554443359375,-0.2765655517578125,0.2155303955078125,0.9148177735045373
1781889099.54096,0.0375976599752903,0.09326171875,0.9731444716453552,0.9783258633572657,-1.2111663818359375,-0.1544952392578125,0.4596710205078125,1.3046418016212644
1781889099.548946,0.06005859375,0.0883788987994194,0.9853515028953552,0.9911283714506213,-0.9059906005859375,0.0896453857421875,0.1544952392578125,0.9234305834702802
1781889099.556932,0.0468750037252903,0.099609375,0.9946288466453552,1.0007026711971974,-0.9670257568359375,-0.2155303955078125,0.1544952392578125,1.002726754766821
1781889099.56757,0.0322265662252903,0.08251953125,0.9897460341453552,0.9937027909364305,-0.9670257568359375,0.2117156982421875,0.0934600830078125,0.9943325089637379
1781889099.578208,0.03076171875,0.0830078050494194,0.9941405653953552,0.998074166985687,-0.7228851318359375,0.2727508544921875,0.2155303955078125,0.8021279784694169
1781889099.588846,0.03564453125,0.0878906175494194,0.9863280653953552,0.9908775635000495,-0.9059906005859375,0.2117156982421875,0.2155303955078125,0.9550370969862892
1781889099.599616,0.0478515662252903,0.08837890625,0.9873046278953552,0.9924066866581187,-0.5397796630859375,0.0286102294921875,-0.1506805419921875,0.5611463763117635
1781889099.610386,0.0371093787252903,0.09228515625,0.9931640028953552,0.9981324524834312,-0.6008148193359375,0.3948211669921875,-0.0896453857421875,0.7244987896633186
1781889099.621156,0.0400390625,0.0859375,0.9902343153953552,0.9947624740703866,-0.66375732421875,0.148773193359375,0.2155303955078125,0.7135549032163782
1781889099.631747,0.0219726599752903,0.09326171875,0.9765624403953552,0.9812516221446594,-0.2956390380859375,0.0896453857421875,0.1544952392578125,0.34540919932534037
1781889099.64234,0.0375976599752903,0.0888671875,0.9882811903953552,0.9929807008895178,-0.48065185546875,0.026702880859375,0.1544952392578125,0.5055769268519588
1781889099.652933,0.0317382849752903,0.08935546875,0.9912108778953552,0.9957362718043296,-0.17547607421875,-0.034332275390625,0.0934600830078125,0.20175565635825227
1781889099.66093,0.0380859412252903,0.09033203125,1.001953125,1.006737542503523,-0.17547607421875,0.331878662109375,0.2765655517578125,0.4662872541747589
1781889099.668928,0.0351562537252903,0.09912109375,0.9819335341453552,0.9875497045118189,-0.2956390380859375,0.3948211669921875,0.0324249267578125,0.49430513918095237
1781889099.676926,0.0366210974752903,0.10546875,0.9858397841453552,0.9921415433347289,-0.2956390380859375,-0.0934600830078125,-0.0896453857421875,0.3227592340136393
1781889099.684924,0.0302734375,0.0859375,0.9936522841453552,0.9978209241700627,-0.17547607421875,0.274658203125,0.0324249267578125,0.3275368025769433
1781889099.695587,0.02978515625,0.0981445237994194,0.9809569716453552,0.9863042549357058,-0.2346038818359375,0.0286102294921875,-0.0286102294921875,0.23806736827142394
1781889099.70625,0.0341796875,0.1103515625,0.9843749403953552,0.9911305371454097,-0.354766845703125,-0.034332275390625,-0.3337860107421875,0.488314776461686
1781889099.716913,0.0375976599752903,0.09716796875,0.9858397841453552,0.9913300551231053,-0.2346038818359375,0.0286102294921875,-0.2727508544921875,0.3609024178781636
1781889099.724903,0.0214843787252903,0.0986328125,0.9892577528953552,0.994394746513898,-0.66375732421875,-0.644683837890625,-0.0896453857421875,0.929638279911217
1781889099.732893,0.0268554724752903,0.09228515625,0.9916991591453552,0.9963458178341306,-0.66375732421875,-0.522613525390625,-0.0896453857421875,0.8495498676123243
1781889099.740883,0.0332031287252903,0.0986328125,0.9970702528953552,1.0024868920178538,-0.2346038818359375,-0.3986358642578125,0.1544952392578125,0.48766618972242926
1781889099.756883,0.0317382849752903,0.09033203125,0.9736327528953552,0.978329153257487,-0.354766845703125,-0.339508056640625,0.0324249267578125,0.4921144289789604
1781889099.764893,0.03466796875,0.0859375,0.9790038466453552,0.9833797098323227,-0.6008148193359375,-0.1544952392578125,0.3376007080078125,0.7062729388376566
1781889099.772903,0.0278320349752903,0.09521484375,0.9956054091453552,1.0005351664787665,-0.2956390380859375,0.0896453857421875,0.4596710205078125,0.5538376866194081
1781889099.780913,0.0512695349752903,0.083984375,0.9960936903953552,1.0009418467154627,-0.4787445068359375,0.0896453857421875,0.2765655517578125,0.560108116732434
1781889099.791591,0.05029296875,0.0859375,0.9907225966453552,0.9957137641489414,-0.4177093505859375,-0.2155303955078125,0.1544952392578125,0.49477594111679324
1781889099.802269,0.02978515625,0.0849609375,0.9858397841453552,0.9899422187367687,-0.5397796630859375,-0.4596710205078125,0.4596710205078125,0.8449597498523559
1781889099.812947,0.0385742150247097,0.09326171875,0.9838866591453552,0.9890493801085894,-0.6008148193359375,-0.3986358642578125,0.0324249267578125,0.7217619935141347
1781889099.820933,0.03076171875,0.1015624925494194,0.9985350966453552,1.0041581361846619,-0.41961669921875,-0.522613525390625,0.2155303955078125,0.7040287086278587
1781889099.828919,0.0356445349752903,0.10498046875,0.9936522841453552,0.9998181302016163,-0.1125335693359375,-0.4596710205078125,0.2765655517578125,0.5481329726820704
1781889099.836905,0.0390625,0.0971679612994194,0.9770507216453552,0.9826472430516685,-0.4177093505859375,-0.3986358642578125,0.0934600830078125,0.5849157554343412
1781889099.844891,0.04443359375,0.08642578125,0.9790038466453552,0.9838151714954466,-0.17547607421875,-0.278472900390625,0.3986358642578125,0.5169618565694807
1781889099.855582,0.044921875,0.0888671800494194,0.9999999403953552,1.004945387239608,0.00762939453125,0.148773193359375,0.2765655517578125,0.3141340082550164
1781889099.866273,0.0424804724752903,0.087890625,0.9936522841453552,0.9984358839163866,-0.0514984130859375,-0.2155303955078125,0.1544952392578125,0.27013740372531286
1781889099.876964,0.0375976599752903,0.0966796875,0.9794921278953552,0.9849697328444595,0.1316070556640625,-0.3986358642578125,0.2765655517578125,0.5027121182070708
1781889099.887607,0.0332031287252903,0.0947265625,0.9868163466453552,0.9919082978817652,0.00762939453125,-0.461578369140625,0.2765655517578125,0.53814617246482
1781889099.898251,0.0307617224752903,0.09375,0.9892577528953552,0.9941661067111545,0.0705718994140625,-0.2155303955078125,0.3376007080078125,0.4067038018288481
1781889099.908895,0.03564453125,0.0869140550494194,0.9863280653953552,0.9907914201080417,0.2536773681640625,-0.4596710205078125,0.0934600830078125,0.5332770774458305
1781889099.916906,0.041015625,0.0878906175494194,0.9838866591453552,0.9886556529912562,0.1316070556640625,0.0896453857421875,0.0934600830078125,0.18463883503005657
1781889099.92492,0.0454101599752903,0.0888671875,0.9882811903953552,0.9933071886040098,0.3757476806640625,-0.0934600830078125,0.0934600830078125,0.39831632373790143
1781889099.932934,0.037109375,0.0966796800494194,0.9941405653953552,0.9995196496377373,0.438690185546875,-0.034332275390625,0.0934600830078125,0.4498472753551771
1781889099.940948,0.048828125,0.0981445237994194,0.9829100966453552,0.9890039390367522,0.19073486328125,-0.034332275390625,0.2765655517578125,0.33770845062497046
1781889099.951624,0.0361328125,0.0859375,1.001953125,1.0062807256142174,0.621795654296875,0.148773193359375,0.2765655517578125,0.6966001745506013
1781889099.9623,0.0361328125,0.0927734300494194,0.9799804091453552,0.9850249193654912,0.37384033203125,0.148773193359375,0.1544952392578125,0.43099748939977595
1781889099.972976,0.041015625,0.0917968675494194,0.9951171278953552,1.0001835054712345,0.19073486328125,0.148773193359375,-0.0896453857421875,0.2579719874678813
1781889099.981003,0.03662109375,0.0917968675494194,0.9799804091453552,0.9849514565236348,0.0705718994140625,0.3337860107421875,0.0934600830078125,0.35373476090132766
1781889099.989031,0.0366210974752903,0.087890625,0.9907225966453552,0.9952874611120651,0.2536773681640625,0.2727508544921875,0.1544952392578125,0.40325428044621237
1781889099.997059,0.0283203162252903,0.0888671875,0.9931640028953552,0.9975340364981967,0.438690185546875,0.453948974609375,0.0934600830078125,0.6381641932605446
1781889100.005087,0.0380859412252903,0.08251953125,0.9882811903953552,0.9924513707210023,0.31280517578125,0.091552734375,0.0324249267578125,0.3275368025769433
1781889100.015713,0.0478515662252903,0.08642578125,0.9970702528953552,1.001952233024955,0.2536773681640625,0.3337860107421875,-0.0896453857421875,0.4287208920389752
1781889100.026339,0.0268554724752903,0.0888671875,0.9946288466453552,0.998952018865321,0.0705718994140625,0.2727508544921875,0.2765655517578125,0.39479352329063133
1781889100.036965,0.0317382849752903,0.095703125,0.9853515028953552,0.9904968405432062,0.2536773681640625,0.3337860107421875,0.0934600830078125,0.42953474271781117
1781889100.044988,0.0332031287252903,0.10009765625,0.9990233778953552,1.0045743865564845,0.2536773681640625,0.0896453857421875,0.0324249267578125,0.27099793021121105
1781889100.053011,0.037109375,0.0966796800494194,0.9975585341453552,1.0029192865298675,0.2536773681640625,0.3337860107421875,0.2765655517578125,0.5022487556031695
1781889100.061034,0.04345703125,0.09130859375,0.9858397841453552,0.9910125392049419,0.1316070556640625,0.2727508544921875,0.5207061767578125,0.6023689635435414
1781889100.069057,0.0327148474752903,0.0927734375,0.9921874403953552,0.9970521996511439,0.2536773681640625,0.2117156982421875,0.7648468017578125,0.8331664744575221
1781889100.079858,0.0385742150247097,0.10498046875,0.9853515028953552,0.9916786037531905,0.31280517578125,0.331878662109375,0.3986358642578125,0.6057235975522338
1781889100.090659,0.0361328162252903,0.09521484375,0.9873046278953552,0.9925431351544846,0.19073486328125,-0.034332275390625,0.4596710205078125,0.4988546284230594
1781889100.10146,0.0424804724752903,0.09033203125,0.9877929091453552,0.9928239006839626,0.19073486328125,-0.034332275390625,0.2765655517578125,0.33770845062497046
1781889100.111942,0.0322265662252903,0.09130859375,0.9877929091453552,0.9925274012444792,0.1316070556640625,-0.0934600830078125,0.3986358642578125,0.4300764542368763
1781889100.122427,0.0410156287252903,0.083984375,0.9941405653953552,0.998524471812518,0.19073486328125,-0.339508056640625,0.7648468017578125,0.8582750950330351
1781889100.132912,0.0288085974752903,0.0849609375,0.9804686903953552,0.9845644463593813,-0.049591064453125,-0.034332275390625,0.7038116455078125,0.7063914008250004
1781889100.140922,0.0483398400247097,0.10400390625,0.9926757216453552,0.999279060619705,0.133514404296875,-0.034332275390625,0.5207061767578125,0.5386461953843036
1781889100.148932,0.0390625,0.0932617112994194,0.9877929091453552,0.9929544083484348,-0.11444091796875,-0.034332275390625,0.3376007080078125,0.3581196265026592
1781889100.156942,0.0429687537252903,0.0908203125,0.9877929091453552,0.9928894572494695,0.06866455078125,0.453948974609375,0.2765655517578125,0.5359785410835
1781889100.164952,0.0356445349752903,0.0849609375,0.9824218153953552,0.9867327485896011,0.06866455078125,0.453948974609375,0.2765655517578125,0.5359785410835
1781889100.17562,0.0234375037252903,0.087890625,0.9921874403953552,0.9963483303654652,-0.0514984130859375,-0.1544952392578125,-0.0286102294921875,0.16534633571777219
1781889100.186288,0.0263671912252903,0.0947265625,0.9887694716453552,0.9936465259205671,0.2536773681640625,0.1506805419921875,-0.1506805419921875,0.3313026691543008
1781889100.196956,0.0478515662252903,0.07763671875,1.00048828125,1.0046362692074475,0.49591064453125,-0.213623046875,-0.1506805419921875,0.560595040337156
