timestamp,accel_x,accel_y,accel_z,accel_rms,gyro_x,gyro_y,gyro_z,gyro_rms
1786726891.578798,0.064453125,-0.09814453125,0.9819335341453552,0.9889287233242522,-0.63323974609375,-0.690460205078125,0.2765655517578125,0.976839994701541
1786726891.586786,0.07958984375,-0.0810546875,0.9848632216453552,0.9913929447719205,-0.5702972412109375,-0.5092620849609375,-0.1506805419921875,0.7792890607769538
1786726891.594774,0.0712890625,-0.08349609375,0.9887694716453552,0.9948461168248447,-0.5130767822265625,-0.3261566162109375,0.0324249267578125,0.6088327345284431
1786726891.602762,0.07861328125,-0.0830078125,0.9853515028953552,0.9919616571133493,-0.38909912109375,0.530242919921875,0.1544952392578125,0.6755919323944991
1786726891.613442,0.07470703125,-0.07568359375,0.9819335341453552,0.9876753577771853,-0.26702880859375,0.774383544921875,0.2155303955078125,0.8470109861462962
1786726891.624122,0.06103515625,-0.08544921875,0.9711913466453552,0.9768518265746683,-0.5130767822265625,0.6504058837890625,0.0934600830078125,0.8336728286583545
1786726891.634802,0.0590820275247097,-0.0869140625,0.9829100966453552,0.9885125180411556,-0.4520416259765625,0.9555816650390625,0.0324249267578125,1.057605468050166
1786726891.645478,0.07373046875,-0.08349609375,0.9843749403953552,0.9906572580726205,-0.5702972412109375,0.9555816650390625,-0.3337860107421875,1.161803926167758
1786726891.656154,0.0732421875,-0.09716796875,1.00341796875,1.0107688421153287,-0.57220458984375,0.652313232421875,-0.3948211669921875,0.953317575488883
1786726891.66683,0.06787109375,-0.07275390625,0.9897460341453552,0.9947345517010625,-0.08392333984375,0.591278076171875,-0.3337860107421875,0.6841534851911718
1786726891.674819,0.0771484375,-0.08349609375,0.9614257216453552,0.9681233895126655,-0.0247955322265625,0.8335113525390625,-0.2727508544921875,0.8773534190143185
1786726891.682808,0.06787109375,-0.09375,1.0009765625,1.007645585779612,0.6465911865234375,0.6504058837890625,-0.0286102294921875,0.9175655406502654
1786726891.690797,0.0610351599752903,-0.10107421875,1.01416015625,1.0210103383287343,1.2569427490234375,0.1621246337890625,-0.0896453857421875,1.2705218480564195
1786726891.698786,0.06591796875,-0.07080078125,0.9619140028953552,0.9667659893665591,1.38092041015625,0.286102294921875,-0.1506805419921875,1.4182737140907353
1786726891.709521,0.07958984375,-0.0849609375,0.9667968153953552,0.9737807691609179,0.64849853515625,1.079559326171875,-0.0896453857421875,1.2625509827366737
1786726891.720256,0.05712890625,-0.0859375,0.9912108778953552,0.9965680961648592,0.83160400390625,0.408172607421875,0.2155303955078125,0.9511169476726994
1786726891.730991,0.0444335900247097,-0.08740234375,0.9931640028953552,0.9979921093188073,1.1348724365234375,-0.3261566162109375,0.2155303955078125,1.2003195144904404
1786726891.74159,0.07568359375,-0.083984375,0.9868163466453552,0.9932713041327337,0.64849853515625,-0.690460205078125,0.0324249267578125,0.9478064257914577
1786726891.75219,0.060546875,-0.0888671875,0.9926757216453552,0.9984830441377323,0.1010894775390625,0.1621246337890625,-0.0286102294921875,0.1931890902249759
1786726891.76279,0.0571289099752903,-0.0888671875,0.9838866591453552,0.9895423424054847,0.2803802490234375,-0.1430511474609375,0.0324249267578125,0.3164302303946088
1786726891.770812,0.06689453125,-0.083984375,0.9804686903953552,0.9863301203962499,0.09918212890625,-0.446319580078125,0.0324249267578125,0.45835536227990104
1786726891.778833,0.0791015625,-0.0830078125,0.9697265028953552,0.9764818710778157,-0.08392333984375,-0.263214111328125,0.1544952392578125,0.31653368592633685
1786726891.786854,0.068359375,-0.091796875,0.9838866591453552,0.9905213922245014,0.1010894775390625,-0.3261566162109375,0.2155303955078125,0.40379521066382584
1786726891.794875,0.06201171875,-0.08544921875,0.9814452528953552,0.9871077989146587,-0.2079010009765625,-0.3261566162109375,0.2155303955078125,0.4427802117224521
1786726891.805522,0.07177734375,-0.076171875,0.9863280653953552,0.9918655121554361,-0.14495849609375,-0.446319580078125,0.2155303955078125,0.516398571394838
1786726891.816169,0.0615234412252903,-0.078125,0.9663085341453552,0.9714117729404698,-0.08392333984375,-0.202178955078125,0.5207061767578125,0.564848988102794
1786726891.826816,0.0791015625,-0.08349609375,0.9819335341453552,0.9886466104431035,-0.45013427734375,0.041961669921875,0.2155303955078125,0.5008343047058244
1786726891.83486,0.07568359375,-0.0830078125,0.9873046278953552,0.9936743589136916,-0.45013427734375,-0.080108642578125,0.3376007080078125,0.5683418868101013
1786726891.842906,0.0498046875,-0.078125,0.9765624403953552,0.980947614560994,-0.45013427734375,-0.141143798828125,0.3376007080078125,0.5801005754477326
1786726891.850952,0.07421875,-0.07470703125,0.9750975966453552,0.9807674986220225,-0.3299713134765625,0.3452301025390625,0.2155303955078125,0.5239448852735692
1786726891.858998,0.0615234375,-0.0810546875,0.9780272841453552,0.9833068515271712,-1.1234283447265625,0.1621246337890625,0.1544952392578125,1.1455323747365809
1786726891.869596,0.0654296875,-0.0771484375,0.9746093153953552,0.9798450097185993,-0.8754730224609375,-0.0209808349609375,-0.0286102294921875,0.8761916192957696
1786726891.880194,0.05859375,-0.0947265625,0.9838866591453552,0.9901713524569055,-0.63323974609375,0.041961669921875,-0.2117156982421875,0.6690118793098419
1786726891.890792,0.0610351599752903,-0.078125,0.9794921278953552,0.9844966404143695,-0.93841552734375,0.408172607421875,0.0324249267578125,1.0238554367119754
1786726891.901467,0.0634765625,-0.080078125,0.9799804091453552,0.9852935513840684,-0.93841552734375,0.164031982421875,-0.1506805419921875,0.9644868163703214
1786726891.912142,0.06591796875,-0.0927734375,0.9780272841453552,0.9846265575549097,-0.728607177734375,0.041961669921875,0.0286102294921875,0.7303750724253116
1786726891.922817,0.04931640625,-0.0859375,0.9819335341453552,0.9869198687385174,-0.6694793701171875,0.3452301025390625,-0.0362396240234375,0.7541218476221185
1786726891.930967,0.06494140625,-0.0917968675494194,0.9829100966453552,0.9893211355394136,-0.3643035888671875,0.5283355712890625,0.2117156982421875,0.6757803767741631
1786726891.939118,0.0512695349752903,-0.09814453125,0.9868163466453552,0.9930092729865873,-0.5435943603515625,0.1621246337890625,0.2117156982421875,0.6054773012834082
1786726891.947269,0.07958984375,-0.09033203125,0.9921874403953552,0.9994650248889088,-0.911712646484375,-0.080108642578125,0.0896453857421875,0.9196051541613489
1786726891.95542,0.0732421875,-0.087890625,0.9794921278953552,0.9861511084015708,-0.423431396484375,-0.324249267578125,0.0896453857421875,0.5408031344570075
1786726891.965882,0.06591796875,-0.08837890625,0.9921874403953552,0.9982945089262781,-0.606536865234375,-0.263214111328125,0.2117156982421875,0.6942565622108112
1786726891.976344,0.06103515625,-0.08984375,0.9824218153953552,0.988407716014616,-0.484466552734375,0.102996826171875,0.1468658447265625,0.5166098753092658
1786726891.986806,0.0507812537252903,-0.09765625,0.9863280653953552,0.9924507703057713,-0.606536865234375,0.225067138671875,0.2727508544921875,0.7020934513471165
1786726891.99492,0.0625,-0.08642578125,0.9804686903953552,0.9862527660342737,-0.545501708984375,-0.141143798828125,0.0286102294921875,0.5641916621894582
1786726892.003035,0.0654296875,-0.076171875,0.9833983778953552,0.988511794666396,-0.3643035888671875,-0.1430511474609375,0.3299713134765625,0.5119197235591255
1786726892.01115,0.0634765625,-0.09228515625,0.9780272841453552,0.9844202317017071,-0.301361083984375,0.225067138671875,0.4520416259765625,0.5880606698851037
1786726892.019265,0.05859375,-0.08837890625,0.9804686903953552,0.9861860430236232,0.0019073486328125,0.1621246337890625,0.0896453857421875,0.18526826507772537
1786726892.029806,0.0673828125,-0.087890625,0.9921874403953552,0.9983491985580933,0.003814697265625,0.286102294921875,0.5779266357421875,0.6448784934970889
1786726892.040347,0.0576171912252903,-0.0791015625,0.9916991591453552,0.996515940747682,0.1850128173828125,-0.3261566162109375,0.6351470947265625,0.7375769199437355
1786726892.050888,0.0625,-0.0849609375,0.9829100966453552,0.9885529166353516,0.064849853515625,-0.446319580078125,0.4520416259765625,0.6385517227896628
1786726892.061637,0.0537109337747097,-0.09765625,0.9863280653953552,0.9926049869699214,0.064849853515625,-0.690460205078125,0.2727508544921875,0.7452072375680089
1786726892.072388,0.0576171912252903,-0.0830078125,0.9897460341453552,0.9948905717550979,0.0019073486328125,-0.6313323974609375,0.3299713134765625,0.7123659886463068
1786726892.083139,0.06494140625,-0.10498046875,1.00048828125,1.0080749406583205,0.0019073486328125,-0.8144378662109375,0.3299713134765625,0.8787455511207325
1786726892.09372,0.07275390625,-0.10107421875,0.9824218153953552,0.9902836724571713,0.064849853515625,-1.117706298828125,0.5779266357421875,1.2599492332000313
1786726892.1043,0.06982421875,-0.1005859375,0.9975585341453552,1.0050452633553533,0.308990478515625,-0.751495361328125,0.2727508544921875,0.8570959237665423
1786726892.11488,0.06298828125,-0.08447265625,0.9829100966453552,0.988542063503694,0.431060791015625,-0.873565673828125,0.4520416259765625,1.0739050347481087
1786726892.122873,0.06640625,-0.08251953125,0.9848632216453552,0.9905426938938323,0.1850128173828125,-0.8144378662109375,0.6351470947265625,1.0492619370079828
1786726892.130867,0.07373046875,-0.09326171875,0.9936522841453552,1.0007391228454998,0.4329681396484375,-0.5092620849609375,0.4520416259765625,0.8069392249388577
1786726892.138861,0.080078125,-0.087890625,1.0078125,1.0148021005214052,0.431060791015625,-0.385284423828125,0.1468658447265625,0.5965124216165438
1786726892.146855,0.07861328125,-0.0986328125,0.9892577528953552,0.9972659531710282,0.919342041015625,-0.080108642578125,0.3948211669921875,1.0037384803321818
1786726892.157504,0.05810546875,-0.09033203125,0.9921874403953552,0.997983986969077,0.980377197265625,-0.080108642578125,0.2727508544921875,1.0207594585211202
1786726892.168153,0.08984375,-0.07958984375,0.9819335341453552,0.9892420877224136,1.468658447265625,-0.080108642578125,0.2727508544921875,1.4959171293780298
1786726892.178802,0.0634765625,-0.09033203125,0.9858397841453552,0.9920026360148082,1.3446807861328125,0.4673004150390625,0.1468658447265625,1.4311204249949356
1786726892.189529,0.08251953125,-0.078125,0.9794921278953552,0.9860617715293959,1.4095306396484375,0.9555816650390625,0.1468658447265625,1.70923448333276
1786726892.200254,0.07177734375,-0.0869140625,0.9658202528953552,0.9723758544096555,1.041412353515625,0.896453857421875,0.2727508544921875,1.400914785833789
1786726892.210979,0.05859375,-0.08349609375,0.9794921278953552,0.9847891418062763,0.7953643798828125,0.4673004150390625,-0.0934600830078125,0.9272049189892589
1786726892.218962,0.07275390625,-0.08935546875,0.9858397841453552,0.9925510619982866,0.736236572265625,0.286102294921875,-0.2155303955078125,0.8187503678709125
1786726892.226946,0.08544921875,-0.08544921875,0.9941405653953552,1.001458237638778,1.041412353515625,0.408172607421875,-0.0362396240234375,1.1191326453347188
1786726892.23493,0.0654296875,-0.08447265625,0.9863280653953552,0.9920986474372508,0.8563995361328125,0.4673004150390625,-0.0362396240234375,0.9762700209130344
1786726892.242914,0.0693359375,-0.0673828125,0.9838866591453552,0.988625750066031,0.4329681396484375,0.1621246337890625,-0.1583099365234375,0.4886796934945438
1786726892.253641,0.06689453125,-0.0791015625,0.9814452528953552,0.9868975225077457,0.858306884765625,0.835418701171875,-0.2765655517578125,1.229269546976121
1786726892.264368,0.0561523474752903,-0.10595703125,0.9873046278953552,0.9945604088550303,0.675201416015625,0.774383544921875,-0.3414154052734375,1.0826501308332717
1786726892.275095,0.06201171875,-0.09130859375,0.9858397841453552,0.9919993914104445,0.553131103515625,0.286102294921875,-0.1583099365234375,0.6425500578461039
1786726892.285682,0.0732421875,-0.0732421875,0.9873046278953552,0.9927231559317815,0.675201416015625,0.591278076171875,-0.1583099365234375,0.9113554474260158
1786726892.296269,0.0551757849752903,-0.09228515625,0.9941405653953552,0.9999381886278386,0.6122589111328125,0.0400543212890625,-0.0934600830078125,0.6206449146100304
1786726892.306856,0.0576171912252903,-0.0966796875,0.9853515028953552,0.991758179677851,0.980377197265625,-0.385284423828125,-0.2155303955078125,1.0751915585376992
1786726892.314853,0.06787109375,-0.0859375,0.9799804091453552,0.9860797845923874,0.553131103515625,-0.141143798828125,-0.0362396240234375,0.5720042831775015
1786726892.322851,0.0537109375,-0.08837890625,0.9843749403953552,0.9897927657623258,0.6732940673828125,-0.3261566162109375,0.0896453857421875,0.7534847939115464
1786726892.330849,0.0498046875,-0.095703125,0.9682616591453552,0.9742536813390311,0.492095947265625,-0.690460205078125,-0.0362396240234375,0.8486501201679874
1786726892.338847,0.06494140625,-0.0917968675494194,0.9892577528953552,0.995627918853816,0.553131103515625,-0.629425048828125,0.0896453857421875,0.8427135960417194
1786726892.349535,0.0620117224752903,-0.0986328125,0.9843749403953552,0.9912456348980164,0.186920166015625,-0.080108642578125,0.3948211669921875,0.4441174360280076
1786726892.360223,0.06005859375,-0.08642578125,0.9682616591453552,0.9739646250859507,-0.0553131103515625,-0.5092620849609375,0.3299713134765625,0.6093344558392978
1786726892.370911,0.08203125,-0.0927734375,1.00244140625,1.0100617850639666,-0.179290771484375,-0.751495361328125,0.2117156982421875,0.8010705310516225
1786726892.381555,0.0590820275247097,-0.10205078125,0.9848632216453552,0.9918974812347463,0.6732940673828125,-0.9975433349609375,0.0286102294921875,1.2038422452836068
1786726892.392202,0.07470703125,-0.0810546875,0.9565429091453552,0.9628734807440542,0.6122589111328125,-0.8144378662109375,0.0286102294921875,1.0193078815605017
1786726892.402849,0.06884765625,-0.0810546875,0.9687499403953552,0.9745698072241131,-0.240325927734375,-0.202178955078125,0.2117156982421875,0.3787564102428466
1786726892.410839,0.087890625,-0.08837890625,1.00439453125,1.0120987933189842,-0.179290771484375,-0.080108642578125,0.3299713134765625,0.38398390991370984
1786726892.418827,0.07275390625,-0.09375,1.02978515625,1.0366000489135,-0.7915496826171875,-0.3261566162109375,0.2727508544921875,0.8985110277429863
1786726892.426815,0.07177734375,-0.08251953125,0.9750975966453552,0.9812118951057784,0.3070831298828125,-0.8144378662109375,0.2727508544921875,0.9121414995509566
1786726892.434803,0.08935546875,-0.068359375,0.9526366591453552,0.9592570084672546,0.6122589111328125,-0.2002716064453125,0.1468658447265625,0.660711182709185
1786726892.445497,0.0712890625,-0.06884765625,0.9643554091453552,0.9694346214939678,0.064849853515625,0.591278076171875,-0.0934600830078125,0.6021212950712994
1786726892.456191,0.064453125,-0.05615234375,0.9711913466453552,0.9749461127824975,-0.362396240234375,0.408172607421875,-0.0362396240234375,0.5470367654325832
1786726892.466885,0.083984375,-0.09521484375,1.00390625,1.0119026635519546,-0.301361083984375,0.225067138671875,-0.3414154052734375,0.5079746044914136
1786726892.477531,0.064453125,-0.09375,1.00927734375,1.0156692495243327,0.6122589111328125,-0.0209808349609375,-0.3986358642578125,0.7308978875121808
1786726892.488177,0.07763671875,-0.0703125,0.9458007216453552,0.9515830561855289,0.4901885986328125,0.1621246337890625,-0.7648468017578125,0.9228000266959211
1786726892.498823,0.06494140625,-0.076171875,0.9716796278953552,0.9768218056808514,-0.1811981201171875,0.7762908935546875,-0.4596710205078125,0.9201944127436504
1786726892.506839,0.0595703125,-0.06298828125,0.9770507216453552,0.9808895240412583,-0.6694793701171875,1.0166168212890625,-0.8296966552734375,1.4731289584120981
1786726892.514853,0.06982421875,-0.1015624925494194,1.03271484375,1.0400434173237603,-0.484466552734375,1.018524169921875,-0.5245208740234375,1.2438735758587705
1786726892.522867,0.0502929724752903,-0.0927734375,0.9902343153953552,0.9958415000252171,0.4329681396484375,0.6504058837890625,-0.7038116455078125,1.051589300045638
1786726892.530881,0.06396484375,-0.0673828125,0.9521483778953552,0.9566705170460351,1.163482666015625,0.774383544921875,-0.5245208740234375,1.4928107502462953
1786726892.541727,0.0546875,-0.08935546875,0.9750975966453552,0.9807091543548118,0.431060791015625,0.713348388671875,-0.3414154052734375,0.900690739449342
1786726892.552573,0.04638671875,-0.0791015625,0.9667968153953552,0.971135864400514,0.003814697265625,0.713348388671875,-0.4596710205078125,0.8486329728632294
1786726892.563419,0.0625,-0.08984375,0.9780272841453552,0.984131860040514,-0.118255615234375,0.408172607421875,-0.4596710205078125,0.6260085583110876
1786726892.57387,0.0576171912252903,-0.087890625,1.041015625,1.04630685469499,0.492095947265625,-0.568389892578125,-0.5245208740234375,0.9167047717703536
1786726892.584321,0.05859375,-0.095703125,1.00048828125,1.0067616980161727,1.041412353515625,-0.568389892578125,-0.3986358642578125,1.2516058933675962
1786726892.594772,0.08349609375,-0.07421875,0.9404296278953552,0.9470416598790508,-0.3643035888671875,0.0400543212890625,-0.3986358642578125,0.5415090080395831
1786726892.602794,0.0424804724752903,-0.09228515625,1.02294921875,1.0279816363861012,-0.1811981201171875,0.6504058837890625,-0.5817413330078125,0.8912258697609382
1786726892.610817,0.0791015625,-0.08984375,0.9780272841453552,0.985325491975491,0.736236572265625,0.041961669921875,-0.5817413330078125,0.9392699561967134
1786726892.61884,0.0693359375,-0.0810546875,0.9682616591453552,0.9741190764817423,0.247955322265625,0.041961669921875,-0.2765655517578125,0.3738062706825363
1786726892.626863,0.06689453125,-0.08544921875,0.9794921278953552,0.9854852996900124,0.370025634765625,0.225067138671875,-0.1583099365234375,0.46112495410214305
1786726892.637554,0.06396484375,-0.080078125,0.9746093153953552,0.9799833289372225,0.370025634765625,0.591278076171875,0.0896453857421875,0.7032531755563447
1786726892.648245,0.0625,-0.07568359375,0.9980468153953552,1.0028617562175384,0.1239776611328125,0.2231597900390625,-0.0934600830078125,0.27185573281810366
1786726892.658936,0.0566406287252903,-0.0673828125,0.9799804091453552,0.9839259151742595,0.4329681396484375,0.4673004150390625,0.2117156982421875,0.6713081443930842
1786726892.666914,0.06298828125,-0.0791015625,0.9692382216453552,0.9744984920783722,0.064849853515625,0.347137451171875,-0.3414154052734375,0.49119689785780357
1786726892.674892,0.0693359375,-0.083984375,0.9970702528953552,1.003000466940047,-0.240325927734375,0.041961669921875,-0.1583099365234375,0.2908253243548011
1786726892.68287,0.076171875,-0.0810546875,0.9770507216453552,0.9833616473985792,-0.057220458984375,-0.080108642578125,-0.1583099365234375,0.18642320548726526
1786726892.690848,0.0615234375,-0.0908203125,0.9951171278953552,1.0011451247222427,0.1239776611328125,-0.2002716064453125,0.2117156982421875,0.316706036712794
1786726892.701503,0.0576171875,-0.076171875,0.9926757216453552,0.997259737069813,0.370025634765625,0.041961669921875,-0.3414154052734375,0.5052170138508418
1786726892.712158,0.0703125,-0.095703125,0.9824218153953552,0.9895734228220365,0.1239776611328125,-0.1430511474609375,-0.0934600830078125,0.21111342535632494
1786726892.722813,0.0556640625,-0.07470703125,0.9814452528953552,0.9858571969626332,0.186920166015625,-0.202178955078125,-0.0934600830078125,0.2907752834331324
1786726892.733569,0.06884765625,-0.09130859375,0.9892577528953552,0.9958454502217141,0.125885009765625,-0.080108642578125,0.0896453857421875,0.174071035741926
1786726892.744326,0.0712890625,-0.0830078125,0.9843749403953552,0.9904375046647432,-0.118255615234375,-0.324249267578125,0.2727508544921875,0.4399034060855059
1786726892.755083,0.06103515625,-0.083984375,0.9887694716453552,0.9942050762294656,-0.057220458984375,0.041961669921875,-0.1583099365234375,0.17348486582716585
1786726892.765676,0.06298828125,-0.078125,0.9731444716453552,0.9783052702984619,-0.118255615234375,0.041961669921875,-0.0362396240234375,0.1306081261884307
1786726892.776271,0.064453125,-0.0927734375,0.9843749403953552,0.9908355763224246,-0.179290771484375,0.225067138671875,0.2117156982421875,0.3572449223314229
1786726892.786866,0.07275390625,-0.07568359375,0.9956054091453552,1.0011250011647093,-0.545501708984375,0.286102294921875,-0.1583099365234375,0.6359942402777655
1786726892.794862,0.0703125,-0.09130859375,0.9731444716453552,0.979944523757733,-0.118255615234375,0.225067138671875,-0.0934600830078125,0.27087708385951137
1786726892.802857,0.064453125,-0.0859375,0.9804686903953552,0.986335800868091,-0.118255615234375,0.286102294921875,-0.0362396240234375,0.3116925152187396
1786726892.810852,0.07421875,-0.08544921875,0.9916991591453552,0.9981368714190216,-0.057220458984375,0.102996826171875,0.1468658447265625,0.18828728973329226
1786726892.818847,0.05908203125,-0.08642578125,0.9902343153953552,0.9957530323668649,0.064849853515625,0.164031982421875,-0.0934600830078125,0.19961658717169656
1786726892.829535,0.0703125,-0.068359375,0.9775390028953552,0.9824455984879193,0.431060791015625,-0.141143798828125,-0.0362396240234375,0.4550255903221385
1786726892.840223,0.05419921875,-0.08349609375,0.9741210341453552,0.9791940268144181,0.308990478515625,0.225067138671875,-0.1583099365234375,0.41375399541915575
1786726892.850911,0.05908203125,-0.06640625,0.9838866591453552,0.9878934327648387,0.1239776611328125,0.2880096435546875,0.1468658447265625,0.3462507640247273
1786726892.8616,0.0732421875,-0.10400390625,0.9907225966453552,0.9988555921897615,-0.301361083984375,0.347137451171875,0.0286102294921875,0.460588165477511
1786726892.87229,0.0693359375,-0.08740234375,1.00439453125,1.0105716284988928,0.675201416015625,0.408172607421875,-0.1583099365234375,0.8047135301715338
1786726892.88298,0.06591796875,-0.08837890625,0.9809569716453552,0.9871335218164251,0.6122589111328125,0.2231597900390625,-0.0934600830078125,0.6583282260906355
1786726892.890955,0.06884765625,-0.08447265625,0.9824218153953552,0.9884473950543622,0.247955322265625,0.286102294921875,-0.0934600830078125,0.3899630137785386
1786726892.898931,0.0512695349752903,-0.08203125,0.9672850966453552,0.9721101529072511,-0.118255615234375,0.225067138671875,-0.3986358642578125,0.47281091328032887
1786726892.906907,0.07958984375,-0.0830078125,0.9936522841453552,1.0002848104172464,-0.057220458984375,0.041961669921875,-0.0362396240234375,0.07967605046922845
1786726892.914883,0.0615234412252903,-0.09228515625,1.009765625,1.0158387181614654,-0.667572021484375,-0.263214111328125,0.0286102294921875,0.7181591867424555
1786726892.925577,0.06982421875,-0.09228515625,0.9887694716453552,0.995518477802381,0.1239776611328125,-0.3833770751953125,-0.0362396240234375,0.40455129785310895
1786726892.936271,0.0654296875,-0.0751953125,0.9628905653953552,0.9680359600529864,0.064849853515625,-0.751495361328125,0.1468658447265625,0.7684532243057699
1786726892.946965,0.06298828125,-0.0830078125,0.9726561903953552,0.9782217975619178,0.186920166015625,-0.080108642578125,-0.0934600830078125,0.22381092510162634
1786726892.954941,0.0693359375,-0.0917968675494194,0.9780272841453552,0.9847697729183349,0.064849853515625,-0.202178955078125,0.0896453857421875,0.23047370470911882
1786726892.962918,0.068359375,-0.08154296875,0.9560546278953552,0.9619577492920779,-0.484466552734375,-0.263214111328125,-0.1583099365234375,0.5736301466298981
1786726892.970895,0.06640625,-0.0732421875,0.9677733778953552,0.9728101145813779,-0.789642333984375,-0.385284423828125,0.0286102294921875,0.8790891013409603
1786726892.978872,0.076171875,-0.0966796875,1.001953125,1.0094846116773544,-0.240325927734375,-0.873565673828125,0.1468658447265625,0.9178469994391336
1786726892.98954,0.0537109337747097,-0.091796875,1.01611328125,1.0216641967884352,0.736236572265625,-1.178741455078125,0.0286102294921875,1.390069873600866
1786726893.000208,0.0605468787252903,-0.08251953125,0.9760741591453552,0.9814255762473316,0.3070831298828125,-0.6313323974609375,-0.0934600830078125,0.7082481428554731
1786726893.010876,0.0610351599752903,-0.08837890625,0.9599608778953552,0.9659508315192739,-0.179290771484375,-0.263214111328125,0.1468658447265625,0.3507084622431625
1786726893.018872,0.0693359375,-0.09423828125,0.9877929091453552,0.9946975204753463,-0.2384185791015625,-0.0209808349609375,-0.0934600830078125,0.25694046277745614
1786726893.026868,0.06787109375,-0.0791015625,0.9863280653953552,0.9918198400633589,-0.728607177734375,-0.263214111328125,0.1468658447265625,0.7884920191070753
1786726893.034864,0.05322265625,-0.06982421875,0.9604491591453552,0.9644535551105472,-0.911712646484375,0.591278076171875,-0.0362396240234375,1.0872640081739193
1786726893.04286,0.07275390625,-0.09619140625,0.9995116591453552,1.006761875658036,-0.606536865234375,0.286102294921875,-0.0362396240234375,0.6716061363606396
1786726893.053511,0.076171875,-0.0908203125,1.0185546875,1.025428756731464,0.3070831298828125,0.0400543212890625,-0.0934600830078125,0.32347980528678905
1786726893.064162,0.07470703125,-0.0820312425494194,0.9921874403953552,0.9983717655015474,0.6122589111328125,0.0400543212890625,-0.3414154052734375,0.7021608091267201
1786726893.074813,0.0634765625,-0.06982421875,0.9619140028953552,0.9665315537927511,0.186920166015625,0.347137451171875,-0.0934600830078125,0.4051892713106332
1786726893.085483,0.05859375,-0.095703125,0.9741210341453552,0.9805631569859458,0.0019073486328125,0.4673004150390625,-0.3414154052734375,0.5787381055646091
1786726893.096152,0.0703125,-0.0712890625,0.9511718153953552,0.9564276242826085,0.1239776611328125,0.7114410400390625,-0.3414154052734375,0.7988011597824899
1786726893.106821,0.06787109375,-0.0712890625,0.9843749403953552,0.9892839021622203,-0.4863739013671875,0.6504058837890625,-0.0362396240234375,0.8129579915025931
1786726893.114829,0.0537109375,-0.09521484375,1.02197265625,1.0278029195327996,0.1239776611328125,-0.0209808349609375,-0.5245208740234375,0.5393818713879169
1786726893.122837,0.0615234375,-0.09130859375,1.001953125,1.0079843537236501,0.492095947265625,-0.202178955078125,-0.2155303955078125,0.574010542219818
1786726893.130845,0.05615234375,-0.076171875,0.9555663466453552,0.9602407422572659,0.186920166015625,0.347137451171875,-0.4596710205078125,0.6055914510328795
1786726893.138853,0.0576171912252903,-0.0703125,0.9643554091453552,0.9686304473476183,-0.301361083984375,0.713348388671875,0.0896453857421875,0.7795644436131394
1786726893.149515,0.05517578125,-0.09033203125,0.9897460341453552,0.9953901018257905,-0.179290771484375,0.225067138671875,0.0286102294921875,0.2891694017025367
1786726893.160177,0.0429687537252903,-0.09228515625,0.9775390028953552,0.9828251960763098,0.003814697265625,-0.080108642578125,0.0286102294921875,0.08514981950969587
1786726893.170839,0.07275390625,-0.0771484375,0.9770507216453552,0.9827884436393391,-0.6694793701171875,-0.4482269287109375,-0.3414154052734375,0.8750282770243323
1786726893.181501,0.064453125,-0.09033203125,0.9946288466453552,1.0007999918920294,-0.179290771484375,-0.751495361328125,-0.0362396240234375,0.7734363381601046
1786726893.192165,0.06787109375,-0.10009765625,0.9897460341453552,0.9971074356657978,0.247955322265625,-1.483917236328125,-0.6427764892578125,1.6360482331686157
1786726893.202829,0.07373046875,-0.08642578125,0.9912108778953552,0.9976996552795077,0.3070831298828125,-1.4247894287109375,-0.1583099365234375,1.4660787839768772
1786726893.210812,0.06298828125,-0.0888671875,0.9956054091453552,1.001546320101312,1.102447509765625,-0.385284423828125,0.0896453857421875,1.1712689248067087
1786726893.218797,0.06103515625,-0.07080078125,0.9682616591453552,0.9727634252453102,0.736236572265625,0.041961669921875,0.5168914794921875,0.9005453201564548
1786726893.226782,0.064453125,-0.08447265625,0.9741210341453552,0.9798987825998217,0.492095947265625,0.041961669921875,0.0286102294921875,0.49470976166787006
1786726893.234767,0.06298828125,-0.0859375,0.9687499403953552,0.9745918245589194,0.2498626708984375,0.4673004150390625,-0.0362396240234375,0.5311443707256447
1786726893.245451,0.0595703125,-0.0703125,0.9794921278953552,0.983817716041223,0.308990478515625,0.225067138671875,0.4520416259765625,0.5920067265992798
1786726893.256135,0.07080078125,-0.08740234375,1.00146484375,1.0077617543774002,0.6122589111328125,0.1049041748046875,0.2117156982421875,0.656269302219117
1786726893.266819,0.0712890625,-0.08935546875,0.9873046278953552,0.9938998734738057,0.1850128173828125,0.1621246337890625,-0.0362396240234375,0.24865126146175826
1786726893.277505,0.06103515625,-0.0791015625,0.9863280653953552,0.9913755091159694,0.247955322265625,-0.263214111328125,-0.1583099365234375,0.39474744615280205
1786726893.288193,0.068359375,-0.08544921875,0.9702147841453552,0.9763663761670586,0.1850128173828125,-0.0209808349609375,-0.0362396240234375,0.1896925100813001
1786726893.298881,0.07080078125,-0.0888671875,0.9780272841453552,0.9846052489056261,0.247955322265625,-0.080108642578125,-0.1583099365234375,0.304895510720664
1786726893.306928,0.06298828125,-0.08935546875,0.9843749403953552,0.9904271536305538,-0.240325927734375,-0.385284423828125,-0.0934600830078125,0.46361128750472147
1786726893.314977,0.06298828125,-0.087890625,0.9877929091453552,0.993693673571269,0.0019073486328125,-0.5092620849609375,-0.3414154052734375,0.6131198807049024
1786726893.323026,0.0712890625,-0.09033203125,0.9838866591453552,0.9905932385929597,-0.057220458984375,-0.263214111328125,-0.1583099365234375,0.3124386104992338
1786726893.331075,0.06787109375,-0.08154296875,0.9736327528953552,0.9793959764211678,-0.057220458984375,0.041961669921875,0.1468658447265625,0.16310897895659116
1786726893.339192,0.0673828125,-0.0810546875,0.9916991591453552,0.9972850786188157,-0.3643035888671875,0.1621246337890625,0.0286102294921875,0.3997749954341142
1786726893.347309,0.078125,-0.0869140625,0.9824218153953552,0.9893483679927709,0.003814697265625,-0.202178955078125,0.2117156982421875,0.2927702489562214
1786726893.355426,0.07177734375,-0.0859375,0.9916991591453552,0.9980002320799631,-0.118255615234375,0.408172607421875,-0.1583099365234375,0.4534879314668555
1786726893.363543,0.064453125,-0.07666015625,0.9853515028953552,0.9904284775473065,-0.3032684326171875,0.1621246337890625,0.2117156982421875,0.4038312469157138
1786726893.37402,0.07373046875,-0.0830078125,0.9897460341453552,0.9959536590949343,0.003814697265625,0.530242919921875,0.0896453857421875,0.537780997458417
1786726893.384497,0.0634765625,-0.07421875,0.9780272841453552,0.9828911767693911,-0.057220458984375,0.225067138671875,0.0286102294921875,0.23398278369983375
1786726893.394974,0.06591796875,-0.07470703125,0.9814452528953552,0.9864892820264912,0.247955322265625,0.591278076171875,0.0286102294921875,0.6418022673946854
1786726893.403055,0.06787109375,-0.07861328125,0.9707030653953552,0.9762432967880764,-0.240325927734375,0.835418701171875,0.1468658447265625,0.8816181339765745
1786726893.411136,0.068359375,-0.08935546875,0.9829100966453552,0.9893278839865499,-0.301361083984375,0.530242919921875,-0.0362396240234375,0.6109741135407241
1786726893.419217,0.07275390625,-0.07861328125,0.9765624403953552,0.9824191462173654,-0.118255615234375,0.347137451171875,-0.2765655517578125,0.4593226588789951
1786726893.427298,0.05908203125,-0.080078125,0.9965819716453552,1.0015382262942765,-0.301361083984375,0.041961669921875,-0.0934600830078125,0.31829871472988563
1786726893.435415,0.0517578162252903,-0.07861328125,0.9995116591453552,1.0039335019296862,0.1850128173828125,-0.0209808349609375,-0.1583099365234375,0.24440125620307035
1786726893.443532,0.072265625,-0.080078125,0.9990233778953552,1.0048296055757922,0.1239776611328125,0.1621246337890625,0.0896453857421875,0.22291512404066643
1786726893.451649,0.0620117224752903,-0.07958984375,0.9785155653953552,0.9837035674803124,-0.240325927734375,-0.080108642578125,-0.1583099365234375,0.2987239229776427
1786726893.467532,0.068359375,-0.08837890625,0.9824218153953552,0.9887550043286973,0.003814697265625,0.225067138671875,0.0896453857421875,0.24229334289253382
1786726893.475297,0.0595703125,-0.0859375,0.9824218153953552,0.9879709000786931,0.3070831298828125,0.6504058837890625,0.1468658447265625,0.7340963415474174
1786726893.483062,0.05419921875,-0.087890625,0.9799804091453552,0.9854054594859412,0.064849853515625,0.408172607421875,0.2117156982421875,0.46436399282539886
1786726893.490827,0.06298828125,-0.0908203125,0.9990233778953552,1.005118680713314,0.003814697265625,0.286102294921875,-0.1583099365234375,0.3270032279303168
1786726893.50152,0.0625,-0.0947265625,0.9907225966453552,0.9972014014965992,0.064849853515625,-0.080108642578125,-0.2155303955078125,0.23890636137294854
1786726893.512213,0.0625,-0.08447265625,0.9790038466453552,0.9846270417779175,0.186920166015625,-0.263214111328125,0.0896453857421875,0.33504792500540725
1786726893.522906,0.0654296875,-0.08935546875,0.9975585341453552,1.0036874378251974,0.370025634765625,-0.263214111328125,-0.0362396240234375,0.4555369898650585
1786726893.533558,0.04931640625,-0.0791015625,0.9863280653953552,0.9907230782120201,0.431060791015625,-0.446319580078125,0.0896453857421875,0.6269376909207133
1786726893.544211,0.06396484375,-0.0966796875,0.9648436903953552,0.9717827998615677,-0.118255615234375,0.041961669921875,-0.2155303955078125,0.24939631846690724
1786726893.554864,0.06298828125,-0.09765625,0.9775390028953552,0.9844220481686383,-0.301361083984375,-0.080108642578125,0.0896453857421875,0.3244567655956844
1786726893.562889,0.0654296875,-0.083984375,0.9726561903953552,0.9784653718782764,-0.1811981201171875,-0.1430511474609375,-0.1583099365234375,0.2799257500230167
1786726893.570912,0.07470703125,-0.08349609375,0.9960936903953552,1.0023748691159087,-0.301361083984375,-0.202178955078125,0.0896453857421875,0.3738062706825363
1786726893.578935,0.05029296875,-0.09130859375,0.9965819716453552,1.0020190957296347,-0.118255615234375,-0.873565673828125,-0.0934600830078125,0.8864740064666723
1786726893.586958,0.064453125,-0.0810546875,0.9838866591453552,0.9893214976599854,0.064849853515625,-0.507354736328125,0.1468658447265625,0.5321502685546875
1786726893.597593,0.07177734375,-0.08642578125,0.9711913466453552,0.9776676503491855,0.247955322265625,-0.568389892578125,0.1468658447265625,0.6372742644827808
1786726893.608228,0.064453125,-0.0917968675494194,0.9858397841453552,0.9922000555421834,-0.240325927734375,-0.202178955078125,0.3299713134765625,0.4555369898650585
1786726893.618863,0.07470703125,-0.07568359375,0.9882811903953552,0.9939863470744273,-0.0553131103515625,-0.5092620849609375,0.3299713134765625,0.6093344558392978
1786726893.629522,0.06787109375,-0.08544921875,0.9882811903953552,0.9942875668744264,-0.301361083984375,0.102996826171875,0.1468658447265625,0.3507084622431625
1786726893.64018,0.0791015625,-0.103515625,0.9750975966453552,0.9837620976601151,-0.3643035888671875,0.1621246337890625,0.0286102294921875,0.3997749954341142
1786726893.650838,0.0712890625,-0.06884765625,0.9707030653953552,0.9757492359060222,-0.4863739013671875,0.1621246337890625,0.0286102294921875,0.5134807825459214
1786726893.661518,0.07421875,-0.08935546875,0.9985350966453552,1.005268701332954,-0.118255615234375,0.286102294921875,-0.2155303955078125,0.37721646979125684
1786726893.672197,0.0605468787252903,-0.0732421875,0.9838866591453552,0.9884651236120415,0.186920166015625,0.225067138671875,0.0896453857421875,0.30599127529738396
1786726893.682876,0.0634765625,-0.08251953125,0.9921874403953552,0.997634534237274,-0.118255615234375,0.408172607421875,-0.5817413330078125,0.7204250457290746
1786726893.693565,0.0654296875,-0.08203125,0.9838866591453552,0.9894660823025307,-0.118255615234375,0.225067138671875,-0.2155303955078125,0.3333061038027351
1786726893.704256,0.07421875,-0.07470703125,0.9790038466453552,0.9846512555804482,-0.1811981201171875,0.4673004150390625,-0.0362396240234375,0.5025094496415394
1786726893.714947,0.0615234375,-0.0810546875,0.9868163466453552,0.9920491407858912,-0.484466552734375,0.286102294921875,-0.0934600830078125,0.5703482716671627
1786726893.722956,0.06494140625,-0.0654296875,0.9882811903953552,0.9925714793108532,-0.545501708984375,0.347137451171875,-0.1583099365234375,0.665686533221932
1786726893.730964,0.06494140625,-0.10009765625,0.9780272841453552,0.9852787907821877,-0.911712646484375,0.286102294921875,-0.1583099365234375,0.9685744725735659
1786726893.738972,0.07275390625,-0.08544921875,0.9873046278953552,0.9936624819943666,-0.606536865234375,0.164031982421875,-0.3414154052734375,0.7150929583652871
1786726893.74698,0.0654296875,-0.083984375,0.9780272841453552,0.9838047508440014,-0.3643035888671875,0.1049041748046875,0.0896453857421875,0.389561658711212
1786726893.757643,0.068359375,-0.09130859375,0.9990233778953552,1.0055137855964178,-0.606536865234375,-0.202178955078125,0.0286102294921875,0.6399858154650152
1786726893.768306,0.05615234375,-0.08544921875,0.9843749403953552,0.9896709948118934,-0.179290771484375,-0.385284423828125,-0.0934600830078125,0.435113841540188
1786726893.778969,0.0673828125,-0.07421875,0.9677733778953552,0.9729512717679949,0.247955322265625,0.041961669921875,-0.0934600830078125,0.2682860613194609
1786726893.787039,0.05419921875,-0.0966796800494194,0.9799804091453552,0.9862282282292807,-0.545501708984375,0.102996826171875,0.0896453857421875,0.5623315355652916
1786726893.795111,0.0532226525247097,-0.08203125,0.9877929091453552,0.9926210798064751,-0.118255615234375,-0.202178955078125,-0.0362396240234375,0.23701061318072475
1786726893.803183,0.04931640625,-0.0908203125,0.9965819716453552,1.0019261765701883,0.186920166015625,-0.629425048828125,-0.0362396240234375,0.6575928458438066
1786726893.811255,0.0791015625,-0.07861328125,0.9838866591453552,0.9901868829786837,0.370025634765625,-0.568389892578125,0.0286102294921875,0.6788258875442743
1786726893.819184,0.06396484375,-0.08935546875,0.9873046278953552,0.9934013938459518,0.553131103515625,-0.385284423828125,0.0286102294921875,0.674697450827094
1786726893.827113,0.0732421875,-0.076171875,1.001953125,1.0075101177000985,0.858306884765625,0.347137451171875,-0.0362396240234375,0.926557299248966
1786726893.835042,0.0673828125,-0.0869140625,0.9770507216453552,0.9832205298651842,0.9212493896484375,0.4673004150390625,0.0896453857421875,1.0368733823414333
1786726893.842971,0.05859375,-0.0947265625,0.9682616591453552,0.9746471103702329,0.492095947265625,0.102996826171875,0.0896453857421875,0.5106888119996342
1786726893.853672,0.06298828125,-0.08251953125,0.9663085341453552,0.9718689107974872,0.1239776611328125,0.0400543212890625,0.1468658447265625,0.1963272407516
1786726893.864373,0.0673828125,-0.091796875,0.9765624403953552,0.9831791849256714,0.1239776611328125,0.3452301025390625,-0.0362396240234375,0.36860221717788705
1786726893.875074,0.06640625,-0.095703125,0.9868163466453552,0.993667640703024,0.186920166015625,0.041961669921875,-0.2155303955078125,0.28836310719940456
1786726893.885665,0.06640625,-0.0712890625,0.9760741591453552,0.9809244031129533,0.1850128173828125,-0.0209808349609375,-0.4596710205078125,0.49595099064955783
1786726893.896256,0.0624999962747097,-0.087890625,0.9814452528953552,0.9873529236944899,0.3070831298828125,-0.0209808349609375,-0.4596710205078125,0.5532067345838951
1786726893.906847,0.064453125,-0.07861328125,0.9824218153953552,0.9876673917244928,0.370025634765625,0.286102294921875,-0.0362396240234375,0.4691341001170426
1786726893.917539,0.0732421875,-0.06884765625,0.9843749403953552,0.9894940328669307,0.370025634765625,0.102996826171875,0.0286102294921875,0.38515693141468815
1786726893.928234,0.07373046875,-0.0732421875,0.9833983778953552,0.9888745975598199,0.3070831298828125,0.1621246337890625,0.0286102294921875,0.34842931962086304
1786726893.938929,0.06591796875,-0.07470703125,0.9824218153953552,0.9874608561796361,0.125885009765625,-0.080108642578125,-0.2155303955078125,0.2621407669309666
1786726893.946893,0.0693359375,-0.0888671875,0.9873046278953552,0.9937179064033967,0.2498626708984375,-0.0209808349609375,0.0896453857421875,0.26628526983110534
1786726893.954859,0.05810546875,-0.08056640625,0.9931640028953552,0.9981191952676907,0.247955322265625,0.164031982421875,-0.5245208740234375,0.6029183032413356
1786726893.962825,0.0673828125,-0.09423828125,0.9770507216453552,0.9838950196749009,-0.057220458984375,0.347137451171875,0.0896453857421875,0.3630631985169442
1786726893.970791,0.06787109375,-0.08740234375,0.9868163466453552,0.9930015896595031,0.003814697265625,0.408172607421875,-0.0934600830078125,0.4187531689201022
1786726893.981473,0.0654296875,-0.07958984375,0.9755858778953552,0.9810114129730336,-0.118255615234375,0.408172607421875,-0.0362396240234375,0.42650038491587877
1786726893.992155,0.0634765625,-0.0830078125,0.9853515028953552,0.9908769626855732,-0.1811981201171875,0.4673004150390625,-0.0362396240234375,0.5025094496415394
1786726894.002837,0.0673828125,-0.08642578125,0.9819335341453552,0.9880300220966317,-0.118255615234375,0.774383544921875,0.2117156982421875,0.8114664515939073
1786726894.010831,0.06591796875,-0.0859375,0.9770507216453552,0.9830353733096716,-0.3032684326171875,0.6504058837890625,-0.1583099365234375,0.7348888296140933
1786726894.018825,0.0693359375,-0.0869140550494194,0.9873046278953552,0.9935451441468189,-0.240325927734375,0.102996826171875,-0.0362396240234375,0.263966301054183
1786726894.026819,0.060546875,-0.08349609375,0.9892577528953552,0.9946197380945856,-0.118255615234375,0.102996826171875,-0.2155303955078125,0.2665447206824665
1786726894.034813,0.06201171875,-0.09521484375,0.9809569716453552,0.9875160251622717,0.003814697265625,-0.263214111328125,-0.2155303955078125,0.34021988728649744
1786726894.045494,0.06298828125,-0.09423828125,0.9760741591453552,0.982633777853731,0.064849853515625,-0.141143798828125,0.0896453857421875,0.17934149166742713
1786726894.056175,0.06494140625,-0.0859375,0.9941405653953552,0.9999590511198817,0.3070831298828125,-0.0209808349609375,-0.2155303955078125,0.37575736251208236
1786726894.066856,0.064453125,-0.0927734375,0.9868163466453552,0.9932611026484013,0.4329681396484375,-0.0209808349609375,-0.0934600830078125,0.44343702202467733
1786726894.077525,0.060546875,-0.09521484375,0.9765624403953552,0.9830595050827464,0.3070831298828125,0.6504058837890625,-0.2155303955078125,0.7508536566560823
1786726894.088197,0.0620117224752903,-0.07958984375,0.9692382216453552,0.9744756165501283,0.3070831298828125,0.5283355712890625,0.0286102294921875,0.6117655349719858
1786726894.098869,0.0624999962747097,-0.08203125,0.9765624403953552,0.9819926555233663,0.247955322265625,0.530242919921875,0.1468658447265625,0.6034972844299903
1786726894.106854,0.0581054650247097,-0.091796875,0.9799804091453552,0.9859840331537835,0.1239776611328125,0.5283355712890625,-0.0934600830078125,0.5506756971804092
1786726894.11484,0.0610351599752903,-0.08203125,0.9760741591453552,0.9814148872322469,0.370025634765625,0.225067138671875,0.1468658447265625,0.45732238480189824
1786726894.122826,0.06591796875,-0.07861328125,0.9804686903953552,0.9858215251446889,0.1239776611328125,-0.1430511474609375,-0.2155303955078125,0.28685787881389535
1786726894.130812,0.0751953125,-0.095703125,0.9721679091453552,0.9797570447456808,-0.118255615234375,-0.202178955078125,-0.1583099365234375,0.2827061308373022
1786726894.14149,0.06298828125,-0.0888671875,0.9873046278953552,0.9932951871687364,-0.1811981201171875,-0.0209808349609375,0.0896453857421875,0.20324676960415977
1786726894.152168,0.05419921875,-0.09521484375,0.9843749403953552,0.9904531513715358,-0.51116943359375,0.141143798828125,-0.0133514404296875,0.530465854461658
1786726894.162846,0.0546875,-0.09375,0.9682616591453552,0.9743256261266898,-0.5092620849609375,0.0782012939453125,-0.4405975341796875,0.6779303066530535
1786726894.170876,0.06689453125,-0.09326171875,0.9951171278953552,1.001713893647314,0.0400543212890625,-0.4673004150390625,-0.0743865966796875,0.47487618630038086
1786726894.178907,0.07568359375,-0.09130859375,0.9790038466453552,0.9861611417014563,-0.1430511474609375,-0.0438690185546875,0.1087188720703125,0.18495381781159148
1786726894.186938,0.064453125,-0.0791015625,0.9726561903953552,0.9779935210555398,-0.08392333984375,-0.164031982421875,-0.1964569091796875,0.2693416703598161
1786726894.194969,0.064453125,-0.08935546875,0.9858397841453552,0.9919771595765491,0.0400543212890625,-0.2880096435546875,-0.0133514404296875,0.2910878980582551
1786726894.205594,0.072265625,-0.09423828125,0.9877929091453552,0.9949060285109538,-0.38909912109375,-0.347137451171875,0.1697540283203125,0.5483784880655039
1786726894.216219,0.06298828125,-0.07958984375,0.9633788466453552,0.9687109315821275,-0.38909912109375,0.263214111328125,0.1697540283203125,0.4994959705234435
1786726894.226844,0.06640625,-0.0908203125,1.00390625,1.010191010646364,-0.5092620849609375,0.2002716064453125,-0.0743865966796875,0.5522589549229
1786726894.237513,0.07763671875,-0.08154296875,0.9916991591453552,0.9980701068063479,0.09918212890625,-0.408172607421875,-0.0743865966796875,0.4265856747589335
1786726894.248184,0.0712890625,-0.0908203125,0.9814452528953552,0.9882131571809567,0.225067138671875,-0.041961669921875,-0.0743865966796875,0.2407267422164889
1786726894.258855,0.06689453125,-0.08544921875,0.9877929091453552,0.9937360206080821,0.28228759765625,0.507354736328125,-0.0743865966796875,0.5853447548502546
1786726894.266836,0.06787109375,-0.06787109375,0.9741210341453552,0.9788384748762479,0.28228759765625,0.751495361328125,-0.2574920654296875,0.843050253334564
1786726894.27482,0.07470703125,-0.076171875,0.9760741591453552,0.9818880074685281,0.0400543212890625,0.2002716064453125,-0.0743865966796875,0.2173624410235128
1786726894.282804,0.0556640662252903,-0.08740234375,0.9985350966453552,1.0038974037192623,-0.20599365234375,0.263214111328125,-0.1354217529296875,0.360630149009649
1786726894.290788,0.05908203125,-0.08056640625,0.9912108778953552,0.9962332240448252,0.1621246337890625,0.4444122314453125,-0.1354217529296875,0.4920626784323202
1786726894.301471,0.07080078125,-0.09814453125,0.9716796278953552,0.9791866006572744,0.041961669921875,-0.041961669921875,-0.1354217529296875,0.14785335522677226
1786726894.312154,0.0595703125,-0.07421875,0.9814452528953552,0.9860485938399476,-0.08392333984375,-0.225067138671875,-0.0133514404296875,0.24057556991935417
1786726894.322837,0.0463867224752903,-0.083984375,0.9921874403953552,0.9968154393589752,-0.08392333984375,-0.041961669921875,0.2307891845703125,0.24913361159785669
1786726894.333496,0.0581054650247097,-0.091796875,0.9931640028953552,0.9990884084867707,0.3452301025390625,-0.4673004150390625,0.2307891845703125,0.6251537005484663
1786726894.344157,0.05908203125,-0.0791015625,0.9833983778953552,0.9883421033497375,0.40435791015625,-0.347137451171875,-0.1354217529296875,0.549862510704799
1786726894.354818,0.06787109375,-0.08544921875,0.9653319716453552,0.9714802467536412,0.3452301025390625,-0.8983612060546875,0.2307891845703125,0.9896970889912702
1786726894.362879,0.068359375,-0.0810546875,0.9750975966453552,0.9808456501915381,-0.32806396484375,-0.347137451171875,0.0476837158203125,0.4800042830949943
1786726894.370941,0.064453125,-0.095703125,0.9804686903953552,0.9872345953736701,0.0400543212890625,-0.2880096435546875,-0.1964569091796875,0.35092623241767146
1786726894.379003,0.07080078125,-0.07568359375,0.9775390028953552,0.9830174256696423,-0.6923675537109375,-0.2880096435546875,0.1087188720703125,0.7577217017852973
1786726894.387065,0.0615234412252903,-0.08837890625,0.9946288466453552,1.000441156425113,-0.934600830078125,0.446319580078125,-0.1964569091796875,1.0541703829591638
1786726894.397691,0.0654296875,-0.09228515625,0.9946288466453552,1.0010415259366137,-0.3261566162109375,0.3833770751953125,-0.0133514404296875,0.5035219767249773
1786726894.408317,0.06298828125,-0.087890625,0.9936522841453552,0.9995184577210176,-0.2651214599609375,-0.1049041748046875,-0.0743865966796875,0.2946653019764253
1786726894.418943,0.0624999962747097,-0.08740234375,1.00048828125,1.006241631093601,0.3452301025390625,0.0782012939453125,0.1087188720703125,0.37029590764427
1786726894.426916,0.06005859375,-0.087890625,1.001953125,1.0075921106000105,0.58746337890625,0.751495361328125,0.1697540283203125,0.9688523777049891
1786726894.43489,0.0654296875,-0.08056640625,0.9672850966453552,0.9728373183706523,0.95367431640625,0.507354736328125,0.0476837158203125,1.0812850072954594
1786726894.442864,0.0693359375,-0.08251953125,0.9887694716453552,0.9946265697861477,0.95367431640625,0.324249267578125,0.1087188720703125,1.0131397151637673
1786726894.450838,0.0610351599752903,-0.0869140625,0.9965819716453552,1.00222501027564,0.6504058837890625,0.5664825439453125,0.2918243408203125,0.9105447447310836
1786726894.461522,0.06298828125,-0.08251953125,0.9755858778953552,0.9810936763435996,0.89263916015625,0.751495361328125,-0.0743865966796875,1.1692233807565307
1786726894.472206,0.06884765625,-0.0869140625,0.9804686903953552,0.9867182510103657,0.7114410400390625,0.2613067626953125,0.3528594970703125,0.8360259579432215
1786726894.48289,0.07177734375,-0.0859375,0.9833983778953552,0.9897522976125246,0.7114410400390625,0.2002716064453125,0.1087188720703125,0.7470454222765106
1786726894.493555,0.05517578125,-0.09130859375,0.9775390028953552,0.9833433420279998,-0.08392333984375,-0.347137451171875,-0.1354217529296875,0.38195102846200685
1786726894.504219,0.06982421875,-0.0859375,0.9682616591453552,0.9745723759686675,0.1621246337890625,-0.4100799560546875,-0.1354217529296875,0.4612906008207856
1786726894.514883,0.06494140625,-0.07568359375,0.9829100966453552,0.9879562999930838,-0.08392333984375,-0.896453857421875,0.1087188720703125,0.906913688617241
1786726894.525541,0.06591796875,-0.08935546875,0.9882811903953552,0.9944995171888816,-0.02288818359375,-0.652313232421875,0.0476837158203125,0.6544540922748735
1786726894.5362,0.0634765625,-0.08544921875,0.9736327528953552,0.9794343165738015,0.1010894775390625,-1.0814666748046875,0.2307891845703125,1.1104291507776884
1786726894.546859,0.0585937462747097,-0.091796875,0.9780272841453552,0.9840717768003562,-0.1430511474609375,-0.8983612060546875,-0.0743865966796875,0.9127156474496918
1786726894.557522,0.0693359375,-0.08154296875,0.9853515028953552,0.9911479769639358,0.40435791015625,-0.652313232421875,0.4749298095703125,0.9025387508118964
1786726894.568185,0.0771484375,-0.0791015625,0.9829100966453552,0.9891012064930537,0.225067138671875,-0.469207763671875,0.3528594970703125,0.628745550340216
1786726894.578848,0.07861328125,-0.0830078125,0.9887694716453552,0.9953569274299354,-0.02288818359375,-0.347137451171875,0.4749298095703125,0.5887160631177142
1786726894.586886,0.06884765625,-0.0732421875,0.9814452528953552,0.9865795468342788,0.09918212890625,0.324249267578125,0.6580352783203125,0.7402601635461803
1786726894.594925,0.0693359375,-0.0869140550494194,0.9785155653953552,0.9848117774047633,0.2841949462890625,0.2002716064453125,0.0476837158203125,0.35092623241767146
1786726894.602964,0.078125,-0.07666015625,0.9921874403953552,0.9982064977045386,-0.141143798828125,0.141143798828125,0.4138946533203125,0.4595127070521664
1786726894.611003,0.0625,-0.07568359375,0.9951171278953552,0.9999461758482883,-0.2040863037109375,0.2002716064453125,-0.0133514404296875,0.2862484876329072
1786726894.619014,0.0561523474752903,-0.09228515625,0.9809569716453552,0.9868871345856621,-0.0820159912109375,-0.2880096435546875,-0.1964569091796875,0.3581501008784539
1786726894.627025,0.0654296875,-0.0654296875,0.9775390028953552,0.9819086465625714,-0.08392333984375,0.019073486328125,-0.0133514404296875,0.08709297223534297
1786726894.635036,0.07666015625,-0.0810546875,0.9877929091453552,0.9940731730007812,0.1621246337890625,0.0782012939453125,-0.2574920654296875,0.31416874926574934
1786726894.643047,0.06494140625,-0.07080078125,0.9868163466453552,0.9914820416315284,-0.1430511474609375,-0.0438690185546875,-0.1354217529296875,0.20180974393074216
1786726894.653738,0.0571289099752903,-0.0771484375,0.9765624403953552,0.9812694807006829,0.1010894775390625,-0.1049041748046875,-0.0743865966796875,0.1635766918792514
1786726894.664429,0.056640625,-0.08154296875,0.9790038466453552,0.9840253797028592,0.225067138671875,0.324249267578125,-0.0133514404296875,0.39493172244888486
1786726894.67512,0.068359375,-0.09423828125,0.9873046278953552,0.9941450025358125,-0.0209808349609375,0.0782012939453125,0.2307891845703125,0.24457981422228825
1786726894.683042,0.0654296875,-0.0986328125,0.9853515028953552,0.9924349147254661,-0.02288818359375,0.446319580078125,0.1697540283203125,0.4780601077692098
1786726894.690964,0.06591796875,-0.08349609375,0.9829100966453552,0.988650107147628,0.2231597900390625,0.2613067626953125,0.2918243408203125,0.45082475754531576
1786726894.698886,0.0517578162252903,-0.09423828125,0.9921874403953552,0.9979958126523636,-0.02288818359375,0.324249267578125,0.1087188720703125,0.34275537868487593
1786726894.706808,0.0517578162252903,-0.08740234375,0.9833983778953552,0.9886305735109652,0.16021728515625,0.141143798828125,-0.0743865966796875,0.22610731119550256
1786726894.717557,0.05517578125,-0.08984375,0.9785155653953552,0.9841793423820692,0.1621246337890625,-0.1049041748046875,-0.1964569091796875,0.2754715955178066
1786726894.728306,0.0615234412252903,-0.10595703125,0.9746093153953552,0.9822806849098267,-0.08392333984375,-0.347137451171875,0.2307891845703125,0.4252189843965874
1786726894.739055,0.0703125,-0.09033203125,0.9804686903953552,0.9871284497833015,-0.1430511474609375,-0.4100799560546875,0.2307891845703125,0.4918260351611483
1786726894.749632,0.0654296875,-0.09326171875,0.9785155653953552,0.9851251209422809,-0.446319580078125,-0.652313232421875,0.2918243408203125,0.842540899095705
1786726894.760211,0.0693359375,-0.08544921875,0.9999999403953552,1.0060362428882486,-0.446319580078125,-0.530242919921875,-0.0133514404296875,0.6932077485501278
1786726894.77079,0.07275390625,-0.09716796875,0.9921874403953552,0.9995852449410813,-0.263214111328125,-0.225067138671875,0.6580352783203125,0.7436042716568341
1786726894.7788,0.06982421875,-0.08154296875,1.00390625,1.009629851017527,-0.4482269287109375,-0.4100799560546875,0.2307891845703125,0.6498742937630969
1786726894.786813,0.06884765625,-0.08837890625,0.9824218153953552,0.98878888252537,-0.08392333984375,-0.530242919921875,0.1697540283203125,0.5630427259354115
1786726894.794826,0.060546875,-0.09033203125,0.9907225966453552,0.9966729972492141,0.1621246337890625,-0.5321502685546875,0.1697540283203125,0.5816225024318068
1786726894.802839,0.076171875,-0.07470703125,0.9965819716453552,1.0022768685686345,0.09918212890625,-0.835418701171875,0.2918243408203125,0.8904622096738797
1786726894.813544,0.076171875,-0.07177734375,0.9633788466453552,0.9690474414498788,0.2841949462890625,-0.5931854248046875,-0.0133514404296875,0.6578859906233816
1786726894.824249,0.05419921875,-0.078125,0.9785155653953552,0.9831245000807894,0.1010894775390625,-0.2880096435546875,0.1087188720703125,0.32401918213874276
1786726894.834954,0.0751953125,-0.083984375,0.9785155653953552,0.984987523772309,-0.08392333984375,-0.102996826171875,0.2307891845703125,0.26629893144103817
1786726894.845594,0.06884765625,-0.07568359375,0.9873046278953552,0.9925917763096866,-0.08392333984375,0.446319580078125,-0.0743865966796875,0.46019306850193853
1786726894.856234,0.0791015625,-0.08837890625,0.9931640028953552,1.0002212879693237,0.09918212890625,-0.225067138671875,-0.3185272216796875,0.4024324819833779
1786726894.866874,0.0703125,-0.083984375,0.9814452528953552,0.9875383573974321,0.041961669921875,-0.041961669921875,-0.4405975341796875,0.44457592221181486
1786726894.874912,0.0537109337747097,-0.09228515625,0.9892577528953552,0.9950036764427586,0.2231597900390625,0.0782012939453125,-0.4405975341796875,0.5000419196329648
1786726894.88295,0.06494140625,-0.07861328125,0.9853515028953552,0.9906134556388553,-0.08392333984375,0.141143798828125,-0.1354217529296875,0.2128467760731017
1786726894.890988,0.068359375,-0.08544921875,0.9936522841453552,0.9996596595455164,0.0400543212890625,0.5092620849609375,-0.3185272216796875,0.602006487326897
1786726894.899026,0.06103515625,-0.09033203125,0.9848632216453552,0.9908787673161036,0.09918212890625,0.568389892578125,-0.1354217529296875,0.5926577560834734
1786726894.909643,0.06494140625,-0.07763671875,0.9819335341453552,0.9871364200672477,0.09918212890625,0.751495361328125,-0.0133514404296875,0.7581296945467924
1786726894.92026,0.0590820275247097,-0.08251953125,0.9887694716453552,0.9939643992980761,-0.08392333984375,0.324249267578125,-0.1354217529296875,0.36127519380941364
1786726894.930877,0.05810546875,-0.07958984375,0.9804686903953552,0.9854083628488189,-0.263214111328125,0.507354736328125,0.0476837158203125,0.5735540372373541
1786726894.938868,0.0595703125,-0.08984375,0.9853515028953552,0.9912306017287528,-0.0820159912109375,0.2002716064453125,0.0476837158203125,0.22160567663516886
1786726894.946862,0.06787109375,-0.083984375,0.9819335341453552,0.9878528868663337,0.347137451171875,-0.347137451171875,-0.1354217529296875,0.5092620849609375
1786726894.954856,0.06298828125,-0.0888671875,0.9711913466453552,0.9772806825000726,0.46539306640625,-0.347137451171875,0.1697540283203125,0.604906229424108
1786726894.96285,0.06005859375,-0.0927734375,0.9765624403953552,0.9827960853502244,0.225067138671875,-0.347137451171875,-0.0743865966796875,0.42034865609590977
1786726894.973519,0.05419921875,-0.08642578125,0.9887694716453552,0.994018128122228,0.0400543212890625,-0.4100799560546875,0.1697540283203125,0.4456302830180141
1786726894.984188,0.0537109375,-0.09912109375,0.9912108778953552,0.9976015539740333,0.2231597900390625,-0.4100799560546875,0.2918243408203125,0.5505699847824097
1786726894.994857,0.06884765625,-0.09765625,0.9833983778953552,0.9906306640632504,-0.08392333984375,-0.225067138671875,0.0476837158203125,0.24489197748171926
1786726895.00285,0.064453125,-0.08056640625,0.9848632216453552,0.9902528548244502,0.2231597900390625,-0.2880096435546875,0.4749298095703125,0.5985884819216537
1786726895.010843,0.07177734375,-0.0859375,0.9780272841453552,0.9844158722383518,-0.02288818359375,-0.164031982421875,0.1697540283203125,0.23716405785119501
1786726895.018836,0.06787109375,-0.08349609375,0.9863280653953552,0.9921799915463294,-0.263214111328125,-0.347137451171875,0.3528594970703125,0.5606209977168839
1786726895.026829,0.072265625,-0.0859375,0.9833983778953552,0.9897878278247851,-0.1430511474609375,-0.2880096435546875,0.5970001220703125,0.6781020065759702
1786726895.037503,0.0673828125,-0.09423828125,0.9804686903953552,0.98728929393514,-0.1430511474609375,-0.2880096435546875,0.2307891845703125,0.39582424544868244
1786726895.048177,0.0624999962747097,-0.08349609375,0.9755858778953552,0.9811450720228372,-0.0209808349609375,-0.1049041748046875,0.2307891845703125,0.2543791049629279
1786726895.058851,0.05810546875,-0.08447265625,0.9829100966453552,0.9882429525374666,-0.0209808349609375,-0.4673004150390625,0.0476837158203125,0.4701952893062312
1786726895.066842,0.06884765625,-0.09716796875,0.9873046278953552,0.9944606790545844,-0.2651214599609375,-0.2880096435546875,-0.0743865966796875,0.39846243120011154
1786726895.074833,0.07080078125,-0.0908203125,0.9848632216453552,0.9915728138356135,-0.1430511474609375,-0.5321502685546875,0.1697540283203125,0.5765968862591008
1786726895.082824,0.0849609375,-0.0849609375,0.9868163466453552,0.9941042318631602,-0.1430511474609375,-0.1621246337890625,-0.0133514404296875,0.216624764587699
1786726895.090815,0.0751953125,-0.08447265625,0.9887694716453552,0.995216073389964,-0.08392333984375,-0.164031982421875,-0.0743865966796875,0.19870325612170114
1786726895.101506,0.08251953125,-0.08447265625,0.9824218153953552,0.9894936715595284,-0.08392333984375,0.080108642578125,-0.1354217529296875,0.17832434705555117
1786726895.112197,0.07763671875,-0.0791015625,0.9658202528953552,0.9721590807018448,-0.1430511474609375,-0.1621246337890625,-0.5016326904296875,0.5462448020611776
1786726895.122888,0.06982421875,-0.09521484375,0.9819335341453552,0.9890069531977883,-0.20599365234375,-0.041961669921875,-0.0743865966796875,0.2229967092002405
1786726895.133538,0.0732421875,-0.08837890625,0.9814452528953552,0.9881346231817602,-0.1430511474609375,0.3261566162109375,-0.0743865966796875,0.3638339385676468
1786726895.144189,0.06884765625,-0.07470703125,0.9824218153953552,0.9876607533227247,-0.20599365234375,0.324249267578125,-0.1354217529296875,0.4073205414626392
1786726895.15484,0.0693359375,-0.0791015625,0.9824218153953552,0.9880370199459384,-0.5092620849609375,0.2002716064453125,-0.1354217529296875,0.5637336593582971
1786726895.162845,0.0751953125,-0.0908203125,0.9726561903953552,0.9797768770995648,-0.1430511474609375,0.4444122314453125,0.2307891845703125,0.5207969949632224
1786726895.17085,0.05908203125,-0.08349609375,0.9809569716453552,0.9862752477416034,-0.75531005859375,0.446319580078125,0.1697540283203125,0.8935943611644946
1786726895.178855,0.07177734375,-0.0859375,0.9663085341453552,0.9727740869000371,-0.6923675537109375,0.5664825439453125,-0.0133514404296875,0.8946807044906961
1786726895.18686,0.06005859375,-0.083984375,0.9873046278953552,0.9926886914793348,-0.5702972412109375,0.6885528564453125,-0.0743865966796875,0.8971495668044386
1786726895.197525,0.0502929724752903,-0.08740234375,0.9746093153953552,0.9798121607883812,-0.6313323974609375,0.5664825439453125,0.2918243408203125,0.8970197960879893
1786726895.20819,0.05517578125,-0.08642578125,0.9785155653953552,0.9838732104403557,-0.6313323974609375,0.5092620849609375,0.1087188720703125,0.8183814883089532
1786726895.218855,0.0605468787252903,-0.0927734375,0.9956054091453552,1.0017499518085498,-0.934600830078125,-0.041961669921875,-0.0133514404296875,0.9356376191062971
1786726895.228667,0.0556640625,-0.08447265625,0.9887694716453552,0.993931177479492,-0.6313323974609375,-0.0438690185546875,-0.0133514404296875,0.632995535398374
1786726895.238478,0.0615234375,-0.080078125,0.9975585341453552,1.002656804949511,-0.3871917724609375,-0.5931854248046875,0.3528594970703125,0.7913888055405345
1786726895.248289,0.072265625,-0.08251953125,0.9951171278953552,1.0011442912113424,-0.4482269287109375,-0.1049041748046875,0.1697540283203125,0.4906411067614145
1786726895.2581,0.06982421875,-0.08056640625,0.9799804091453552,0.9857626335222824,-0.32806396484375,-0.835418701171875,0.2307891845703125,0.9267221908486565
1786726895.267911,0.0585937462747097,-0.0927734375,0.9838866591453552,0.989986411953356,-0.0820159912109375,-0.2880096435546875,0.2918243408203125,0.4181358911765655
1786726895.275764,0.05908203125,-0.08447265625,0.9843749403953552,0.9897577174990432,-0.08392333984375,0.080108642578125,0.4138946533203125,0.42984800294218073
1786726895.283617,0.06005859375,-0.083984375,0.9829100966453552,0.9883181006208223,-0.20599365234375,-0.164031982421875,0.4138946533203125,0.4905595377834476
1786726895.29147,0.0732421875,-0.09228515625,0.9956054091453552,1.0025522923086667,-0.1430511474609375,-0.2880096435546875,0.4749298095703125,0.5735603800724753
1786726895.299323,0.0732421875,-0.1142578125,0.9970702528953552,1.0062645551523108,0.3452301025390625,-0.4100799560546875,0.4749298095703125,0.7161757592068021
1786726895.307176,0.05908203125,-0.05908203125,0.9682616591453552,0.9718600791287643,0.2841949462890625,-0.5931854248046875,0.4138946533203125,0.7771386618513471
1786726895.315029,0.080078125,-0.0849609375,0.9663085341453552,0.9733360417484497,0.77056884765625,-0.713348388671875,0.2918243408203125,1.0898640825783055
1786726895.32459,0.0556640625,-0.06884765625,0.9785155653953552,0.9825126967862114,0.1010894775390625,-1.0814666748046875,-0.1354217529296875,1.0945904724365079
1786726895.334151,0.0830078125,-0.072265625,0.9809569716453552,0.9871115426902383,-0.1430511474609375,-1.0204315185546875,0.2307891845703125,1.0559392797714962
1786726895.343712,0.07080078125,-0.09423828125,0.9687499403953552,0.9758944877877775,-0.38909912109375,-0.957489013671875,0.1697540283203125,1.0473775668159224
1786726895.353273,0.07177734375,-0.08203125,0.9780272841453552,0.9840825583176991,0.1621246337890625,-0.8983612060546875,-0.0743865966796875,0.9158988040121336
1786726895.362834,0.0732421875,-0.076171875,0.9584960341453552,0.9643034895940047,0.225067138671875,-0.835418701171875,0.1697540283203125,0.8817006596961471
1786726895.372447,0.07275390625,-0.0869140625,0.9965819716453552,1.003006884993035,0.09918212890625,-0.652313232421875,-0.1354217529296875,0.673564175898333
1786726895.38206,0.07080078125,-0.09033203125,1.0009765625,1.0075349647380372,-0.2651214599609375,-0.8983612060546875,-0.3185272216796875,0.9893441443839613
1786726895.391673,0.0673828125,-0.08837890625,0.9843749403953552,0.990628738614379,0.3452301025390625,-0.9555816650390625,-0.1964569091796875,1.0348504526850217
1786726895.401286,0.0712890625,-0.0830078125,0.9760741591453552,0.9821879614001977,0.4673004150390625,-1.0814666748046875,-0.3185272216796875,1.2204095368194108
1786726895.410899,0.095703125,-0.0810546875,0.9780272841453552,0.9860356580941826,0.09918212890625,-0.347137451171875,-0.0743865966796875,0.36861208670642964
1786726895.418952,0.064453125,-0.09228515625,0.9848632216453552,0.991275098414169,0.09918212890625,0.324249267578125,-0.1964569091796875,0.39188008291282483
1786726895.42701,0.078125,-0.08154296875,0.9799804091453552,0.9864655968082523,-0.38909912109375,0.812530517578125,-0.1964569091796875,0.9220625169673369
1786726895.435068,0.0791015625,-0.0830078125,0.9819335341453552,0.9886054924008687,0.09918212890625,1.422882080078125,-0.0133514404296875,1.426397128945293
1786726895.443126,0.07080078125,-0.09521484375,0.9941405653953552,1.0011963248337181,0.16021728515625,1.117706298828125,-0.3795623779296875,1.1912197730236616
1786726895.451184,0.08203125,-0.0859375,0.9790038466453552,0.9861860431121577,0.225067138671875,0.995635986328125,-0.5016326904296875,1.1373572834818662
1786726895.468755,0.06787109375,-0.08642578125,0.9882811903953552,0.9943719687927424,0.530242919921875,0.812530517578125,-0.6237030029296875,1.1534161573285513
1786726895.478269,0.072265625,-0.091796875,0.9848632216453552,0.9917683964344066,0.5893707275390625,0.8716583251953125,-0.5016326904296875,1.1656678113724972
1786726895.487783,0.05908203125,-0.0703125,0.9711913466453552,0.9755240467931554,0.713348388671875,0.934600830078125,-0.4405975341796875,1.2555758926997211
1786726895.497297,0.05712890625,-0.09130859375,0.9692382216453552,0.9752044408841536,0.2841949462890625,1.1768341064453125,-0.1964569091796875,1.2264993268459694
1786726895.506811,0.0625,-0.0859375,0.9794921278953552,0.9852392260335664,0.40435791015625,0.873565673828125,-0.3795623779296875,1.0347414675832582
1786726895.516421,0.0522460974752903,-0.09814453125,0.9873046278953552,0.9935453849619883,0.2231597900390625,0.8716583251953125,-0.3185272216796875,0.9544884068041667
1786726895.526032,0.0610351599752903,-0.087890625,0.9877929091453552,0.9935717810374567,-0.263214111328125,0.507354736328125,-0.3795623779296875,0.6861181353210792
1786726895.535643,0.0634765625,-0.08642578125,0.9814452528953552,0.9872859130375137,-0.08392333984375,0.141143798828125,-0.2574920654296875,0.30539623880691497
1786726895.545254,0.05859375,-0.1010742112994194,0.9794921278953552,0.9864350218528501,-0.38909912109375,0.141143798828125,-0.1354217529296875,0.43549827686239156
1786726895.554865,0.06005859375,-0.083984375,0.9790038466453552,0.9844333099168122,-0.2651214599609375,-0.1049041748046875,-0.2574920654296875,0.3841828186977105
1786726895.564451,0.0673828125,-0.091796875,0.9916991591453552,0.9982155738765952,-0.2651214599609375,-0.1049041748046875,-0.1354217529296875,0.31564747043152547
1786726895.574037,0.07177734375,-0.095703125,0.9814452528953552,0.9887091886097747,-0.51116943359375,-0.530242919921875,-0.3185272216796875,0.8024408606986635
1786726895.583623,0.05517578125,-0.083984375,0.9941405653953552,0.9992062879332201,-0.0209808349609375,-0.2880096435546875,0.2307891845703125,0.36966660375368776
1786726895.593209,0.06494140625,-0.0791015625,0.9794921278953552,0.9848244879391657,0.225067138671875,-0.347137451171875,0.0476837158203125,0.4164533151152518
1786726895.602795,0.06982421875,-0.08349609375,0.9692382216453552,0.97533058472182,0.40435791015625,-0.347137451171875,0.1087188720703125,0.5439021259898483
1786726895.613533,0.0654296875,-0.06689453125,0.9755858778953552,0.980063124225351,-0.08392333984375,-0.225067138671875,0.3528594970703125,0.42685848773708185
1786726895.624273,0.06103515625,-0.083984375,0.9941405653953552,0.9995469620318993,0.2231597900390625,-0.1049041748046875,0.2307891845703125,0.33774076670778236
1786726895.635013,0.08154296875,-0.06884765625,0.9843749403953552,0.9901430597656284,0.3452301025390625,0.1392364501953125,0.4749298095703125,0.6034309710154233
1786726895.64563,0.06787109375,-0.07861328125,0.9980468153953552,1.003436086194095,0.041961669921875,0.141143798828125,0.2307891845703125,0.27376267350553174
1786726895.656249,0.06494140625,-0.08056640625,0.9809569716453552,0.9863999758117362,-0.20599365234375,-0.041961669921875,0.1087188720703125,0.2366726847204618
1786726895.666868,0.0625,-0.0849609375,0.9882811903953552,0.9938935165248535,-0.1430511474609375,-0.1049041748046875,-0.0133514404296875,0.17789541209061804
1786726895.674927,0.06494140625,-0.08935546875,0.9824218153953552,0.9886123655943037,-0.75531005859375,0.080108642578125,-0.4405975341796875,0.8780870494169839
1786726895.682989,0.0673828125,-0.08935546875,0.9770507216453552,0.9834393503839735,-0.87738037109375,-0.164031982421875,-0.5016326904296875,1.0238838620398232
1786726895.691051,0.0654296875,-0.08203125,0.9794921278953552,0.9850964412644485,-0.446319580078125,-0.041961669921875,-0.4405975341796875,0.6285603681659918
1786726895.699113,0.0551757849752903,-0.0927734375,0.9824218153953552,0.9883339017345865,-0.4482269287109375,0.0209808349609375,-0.0133514404296875,0.448916290658788
1786726895.709705,0.06396484375,-0.08544921875,0.9912108778953552,0.9969413596992694,-0.51116943359375,0.141143798828125,-0.1964569091796875,0.5655184161038661
1786726895.720297,0.06787109375,-0.0751953125,0.9833983778953552,0.9886016336401684,-0.263214111328125,0.019073486328125,0.0476837158203125,0.2681775587878226
1786726895.730889,0.0556640662252903,-0.1025390625,0.9873046278953552,0.994174620411675,-0.1430511474609375,-0.2269744873046875,0.0476837158203125,0.2724973127051879
1786726895.741525,0.07080078125,-0.08203125,0.9711913466453552,0.9772177384805248,-0.3261566162109375,0.0782012939453125,-0.0743865966796875,0.3435505005650209
1786726895.752162,0.07373046875,-0.09326171875,0.9814452528953552,0.9886196005730044,-0.4482269287109375,-0.4673004150390625,-0.0133514404296875,0.6476537025902557
1786726895.762799,0.0654296875,-0.07861328125,0.9858397841453552,0.9911312587134965,-0.446319580078125,-0.164031982421875,-0.0133514404296875,0.47569519629686363
1786726895.770801,0.072265625,-0.07861328125,0.9663085341453552,0.972190594332036,-0.934600830078125,-0.041961669921875,-0.0133514404296875,0.9356376191062971
1786726895.778805,0.05859375,-0.08447265625,0.9863280653953552,0.9916712710266126,-0.9365081787109375,0.3833770751953125,-0.1354217529296875,1.0209625858690117
1786726895.786809,0.064453125,-0.0810546875,0.9838866591453552,0.9893214976599854,-0.69427490234375,0.141143798828125,-0.1964569091796875,0.7352105338856985
1786726895.794813,0.06884765625,-0.08935546875,0.9707030653953552,0.9772353046910399,-1.06048583984375,0.629425048828125,0.2307891845703125,1.2546193671054267
1786726895.805484,0.0712890625,-0.07373046875,0.9780272841453552,0.9833898926605678,-1.06048583984375,0.324249267578125,-0.0133514404296875,1.1090293345965208
1786726895.816155,0.0712890625,-0.08642578125,0.9853515028953552,0.9917001211832824,-1.1806488037109375,0.3833770751953125,-0.0133514404296875,1.2414055906314132
1786726895.826826,0.07763671875,-0.07861328125,0.9907225966453552,0.9968644700213131,-0.8144378662109375,0.8716583251953125,-0.1354217529296875,1.2005983195753156
1786726895.834905,0.07177734375,-0.08837890625,0.9750975966453552,0.9817220284425219,-0.8144378662109375,0.8144378662109375,0.1087188720703125,1.1569087556850328
1786726895.842987,0.06005859375,-0.083984375,0.9921874403953552,0.9975451502592024,-0.87738037109375,0.324249267578125,-0.2574920654296875,0.9701732148770154
1786726895.851069,0.06494140625,-0.0771484375,0.9912108778953552,0.9963273920316051,-0.3261566162109375,0.6885528564453125,-0.0743865966796875,0.7655171717099195
1786726895.859151,0.0693359375,-0.08349609375,0.9941405653953552,1.0000472657155306,-0.5092620849609375,0.2002716064453125,-0.1964569091796875,0.5814223118279718
1786726895.869731,0.05419921875,-0.08447265625,0.9936522841453552,0.9987081889893177,-0.446319580078125,0.629425048828125,0.1087188720703125,0.7792283701185695
1786726895.880311,0.06298828125,-0.09228515625,0.9775390028953552,0.9839037431682844,-0.2651214599609375,0.7495880126953125,-0.2574920654296875,0.8357474146340947
1786726895.890891,0.0634765625,-0.08740234375,0.9951171278953552,1.0009628074561563,0.225067138671875,0.629425048828125,0.3528594970703125,0.7558709768703561
1786726895.898877,0.0537109375,-0.0961913987994194,0.9892577528953552,0.9953735739277417,0.46539306640625,-0.041961669921875,-0.1354217529296875,0.48650851911163273
1786726895.906864,0.07373046875,-0.087890625,0.9921874403953552,0.9987977076782225,0.3452301025390625,-0.2269744873046875,-0.1354217529296875,0.43478764098454625
1786726895.914851,0.0556640662252903,-0.0927734375,0.9814452528953552,0.9873905931317797,0.40435791015625,-0.225067138671875,-0.1354217529296875,0.48218211039235404
1786726895.922838,0.0566406287252903,-0.083984375,0.9589843153953552,0.9643196841508707,0.3452301025390625,-0.4673004150390625,0.1697540283203125,0.6052850004136772
1786726895.933523,0.05810546875,-0.099609375,0.9682616591453552,0.9751045654992412,-0.2040863037109375,-0.4100799560546875,-0.0133514404296875,0.458252169314838
1786726895.944208,0.0703125,-0.080078125,0.9916991591453552,0.9974084298868594,-0.38909912109375,-0.469207763671875,0.1697540283203125,0.6327483557124935
1786726895.954893,0.06787109375,-0.08642578125,0.9707030653953552,0.9769034456892008,-0.38909912109375,-0.652313232421875,0.1087188720703125,0.767287737666154
1786726895.965536,0.0624999962747097,-0.09814453125,0.9985350966453552,1.0052914690681354,-0.20599365234375,-0.469207763671875,0.1087188720703125,0.5238407233502573
1786726895.976181,0.06640625,-0.08837890625,0.9892577528953552,0.9954152514265474,-0.1430511474609375,-0.7152557373046875,0.0476837158203125,0.7309775217416712
1786726895.986826,0.07373046875,-0.0966796875,0.9726561903953552,0.9802261008112352,0.225067138671875,-0.835418701171875,0.0476837158203125,0.8665179513039992
1786726895.997611,0.0576171912252903,-0.080078125,0.9755858778953552,0.9805610903850194,-0.1430511474609375,-0.1621246337890625,0.3528594970703125,0.41383312137121453
1786726896.008397,0.06689453125,-0.12646484375,1.01806640625,1.0280697654102366,0.3452301025390625,-0.8983612060546875,0.0476837158203125,0.9635924537882168
1786726896.019183,0.06494140625,-0.07275390625,0.9453124403953552,0.9503294834353943,0.2841949462890625,-0.4100799560546875,0.3528594970703125,0.6110991429602658
1786726896.02731,0.0537109375,-0.08935546875,1.04736328125,1.0525393615031353,-1.67083740234375,0.324249267578125,0.7801055908203125,1.872271333280748
1786726896.035438,0.0512695349752903,-0.09716796875,1.041015625,1.0467968813775308,-1.18255615234375,0.141143798828125,0.5970001220703125,1.33220485329609
1786726896.043566,0.0751953125,-0.08154296875,0.9638671278953552,0.970228545762171,1.38092041015625,-0.530242919921875,-0.5016326904296875,1.561964816960071
1786726896.051694,0.07080078125,-0.076171875,0.9624022841453552,0.9680046806161751,1.0166168212890625,-0.0438690185546875,0.0476837158203125,1.018679531978169
1786726896.062098,0.0654296875,-0.08154296875,1.01513671875,1.0205061771069432,0.225067138671875,0.934600830078125,0.4138946533203125,1.0466339916799028
1786726896.072502,0.06494140625,-0.08154296875,1.01708984375,1.0224179146795553,1.1386871337890625,0.6885528564453125,0.1697540283203125,1.3414655623260416
1786726896.082906,0.05078125,-0.08642578125,0.9682616591453552,0.973436588374996,1.31988525390625,-0.347137451171875,-0.4405975341796875,1.4341295898943347
1786726896.09089,0.06591796875,-0.07666015625,0.9653319716453552,0.9706120613515522,1.38092041015625,0.751495361328125,0.2307891845703125,1.5890091582487573
1786726896.098873,0.06494140625,-0.07958984375,0.9819335341453552,0.9872919502118228,1.201629638671875,0.141143798828125,-0.0743865966796875,1.2121752044353662
1786726896.106856,0.068359375,-0.0888671875,0.9965819716453552,1.0028688884261463,0.8335113525390625,0.0782012939453125,-0.1354217529296875,0.8480540480139033
1786726896.114839,0.0610351599752903,-0.08251953125,0.9692382216453552,0.9746576291648159,0.5283355712890625,-0.1049041748046875,0.1087188720703125,0.5495117422995013
1786726896.125563,0.07421875,-0.08544921875,0.9726561903953552,0.9792191054870986,0.1621246337890625,0.0782012939453125,0.2307891845703125,0.2926832536558738
1786726896.136287,0.06005859375,-0.08056640625,0.9750975966453552,0.9802618545484749,0.3452301025390625,-0.2269744873046875,-0.1354217529296875,0.43478764098454625
1786726896.147011,0.0556640625,-0.09912109375,0.9877929091453552,0.9943129841443509,0.1010894775390625,-0.2880096435546875,-0.1354217529296875,0.33392766943781116
1786726896.154994,0.05615234375,-0.0791015625,0.9809569716453552,0.9857417121732173,-0.0209808349609375,0.0782012939453125,-0.0133514404296875,0.08206033616752226
1786726896.162977,0.07080078125,-0.0947265625,0.9833983778953552,0.9904838423295418,-0.2040863037109375,-0.1049041748046875,-0.0133514404296875,0.22985727357513172
1786726896.17096,0.06689453125,-0.10009765625,0.9824218153953552,0.9897712071295092,0.1621246337890625,0.2613067626953125,-0.1354217529296875,0.336012904927908
1786726896.178943,0.0615234412252903,-0.0869140625,0.9873046278953552,0.9930305213557343,-0.02288818359375,0.141143798828125,0.1087188720703125,0.1796252600279159
1786726896.189597,0.0625,-0.07958984375,0.9765624403953552,0.981791725988298,-0.2651214599609375,0.3833770751953125,0.0476837158203125,0.46855213911747706
1786726896.200251,0.0537109375,-0.0908203125,0.9746093153953552,0.980304295423176,-0.4482269287109375,0.5664825439453125,0.2307891845703125,0.7583360072758134
1786726896.210905,0.06982421875,-0.09326171875,0.9951171278953552,1.0019138026491863,-0.3871917724609375,0.3833770751953125,-0.1354217529296875,0.5614574797910381
1786726896.22155,0.06494140625,-0.09130859375,0.9755858778953552,0.981999211143869,-0.38909912109375,0.446319580078125,0.0476837158203125,0.594031169511731
1786726896.232197,0.0620117224752903,-0.07958984375,0.9731444716453552,0.9783609557041917,-0.4482269287109375,0.3833770751953125,0.1697540283203125,0.6137603698007273
1786726896.242844,0.0620117224752903,-0.09375,0.9775390028953552,0.9839801920801037,-0.57220458984375,0.446319580078125,0.3528594970703125,0.8069256997221503
1786726896.253523,0.0693359375,-0.07568359375,0.9736327528953552,0.979028199850498,-1.06048583984375,0.019073486328125,-0.3185272216796875,1.1074536583265207
1786726896.264201,0.06103515625,-0.0810546875,0.9824218153953552,0.9876475970855647,-0.8754730224609375,-0.1049041748046875,-0.2574920654296875,0.9185641309715876
1786726896.274879,0.0712890625,-0.07861328125,0.9750975966453552,0.9808554946599262,-1.1196136474609375,-0.1049041748046875,0.1087188720703125,1.129760770524662
1786726896.282896,0.078125,-0.08251953125,0.9804686903953552,0.9870318340906248,-1.24359130859375,-0.041961669921875,-0.0133514404296875,1.2443706785014244
1786726896.290916,0.06494140625,-0.09130859375,0.9916991591453552,0.9980089517574152,-1.1196136474609375,-0.4100799560546875,0.0476837158203125,1.1933038283241326
1786726896.298936,0.080078125,-0.09033203125,0.9995116591453552,1.0067750189296352,-1.18255615234375,-0.041961669921875,0.1087188720703125,1.1882843213359873
1786726896.306956,0.0576171912252903,-0.0869140625,0.9863280653953552,0.9918250085430845,-0.8144378662109375,-0.5321502685546875,0.0476837158203125,0.9740465507333227
1786726896.317592,0.0712890625,-0.10498046875,0.9721679091453552,0.9804149493062365,-0.4482269287109375,-0.4100799560546875,-0.0743865966796875,0.6120509094389459
1786726896.328228,0.0703125,-0.0849609375,0.9775390028953552,0.9837401642399146,-0.5092620849609375,-0.1049041748046875,0.3528594970703125,0.6283809208934716
1786726896.338864,0.07861328125,-0.0869140625,0.9814452528953552,0.9884173646187997,-0.75531005859375,-0.164031982421875,0.2307891845703125,0.8066371077410053
1786726896.346856,0.07177734375,-0.08642578125,0.9765624403953552,0.9830033584537797,-0.75531005859375,0.141143798828125,0.3528594970703125,0.8455321881710016
1786726896.354849,0.06591796875,-0.08935546875,0.9750975966453552,0.9813994606597285,-0.6313323974609375,-0.2880096435546875,0.1087188720703125,0.7023887413736886
1786726896.362842,0.064453125,-0.08837890625,0.9912108778953552,0.9972281789291219,-0.629425048828125,0.141143798828125,0.0476837158203125,0.6468162032558817
1786726896.370835,0.06201171875,-0.09521484375,0.9990233778953552,1.005464583818899,-0.2651214599609375,0.5664825439453125,-0.0133514404296875,0.6255958136753469
1786726896.381483,0.07421875,-0.08642578125,0.9985350966453552,1.0050125261651142,0.3643035888671875,0.6504058837890625,0.0247955322265625,0.7458952586974547
1786726896.392131,0.0634765625,-0.08447265625,0.9858397841453552,0.991486249851458,0.179290771484375,0.52642822265625,-0.1583099365234375,0.5782161277156973
1786726896.402779,0.06591796875,-0.09375,0.9921874403953552,0.9987843400766817,0.423431396484375,0.34332275390625,-0.0362396240234375,0.5463313749253649
1786726896.413487,0.0712890625,-0.09033203125,0.9829100966453552,0.9896232941828226,0.606536865234375,0.09918212890625,0.1468658447265625,0.6318968586169464
1786726896.424194,0.0693359375,-0.08984375,0.9882811903953552,0.9947758958339947,0.3643035888671875,0.0400543212890625,0.0820159912109375,0.37556367812895963
1786726896.434901,0.0634765625,-0.1010742112994194,0.9819335341453552,0.9891606217676701,0.5474090576171875,0.2231597900390625,0.1468658447265625,0.6091194830235382
1786726896.442913,0.06982421875,-0.08447265625,0.9809569716453552,0.9870600951297772,0.911712646484375,0.09918212890625,-0.1010894775390625,0.9226462631599608
1786726896.450923,0.0673828125,-0.099609375,0.9794921278953552,0.9868471510914301,0.9746551513671875,0.2841949462890625,0.0247955322265625,1.0155462815653635
1786726896.458933,0.05810546875,-0.095703125,0.9999999403953552,1.006248087910798,1.094818115234375,-0.14495849609375,-0.1583099365234375,1.1156620039407839
1786726896.466943,0.06103515625,-0.08447265625,0.9755858778953552,0.9811364457104035,1.094818115234375,0.40435791015625,0.0820159912109375,1.169982327971492
1786726896.475281,0.07177734375,-0.0712890625,0.9853515028953552,0.9905310200927934,0.667572021484375,0.03814697265625,0.0820159912109375,0.6736721889805783
1786726896.483619,0.0620117224752903,-0.0830078125,0.9809569716453552,0.9864138740305785,0.6694793701171875,0.1010894775390625,-0.0362396240234375,0.6780376242001522
1786726896.491957,0.0703125,-0.0751953125,0.9711913466453552,0.9766323845117164,0.789642333984375,-0.57220458984375,0.0247955322265625,0.9754834322923911
1786726896.500295,0.07421875,-0.08349609375,0.9775390028953552,0.9839016834545598,0.423431396484375,-0.38909912109375,0.0820159912109375,0.5808776948540453
1786726896.510508,0.05859375,-0.103515625,0.9750975966453552,0.9823258294179946,0.606536865234375,-0.45013427734375,0.1468658447265625,0.7694656671193129
1786726896.520721,0.0634765625,-0.08544921875,0.9887694716453552,0.9944827354105433,0.6694793701171875,-0.9975433349609375,0.0820159912109375,1.2041685741422619
1786726896.530934,0.07421875,-0.08837890625,0.9750975966453552,0.9819035476588608,0.1811981201171875,-0.8144378662109375,0.2079010009765625,0.8598631419355549
1786726896.541702,0.0732421875,-0.09814453125,0.9843749403953552,0.9919630992745782,0.1811981201171875,-0.9365081787109375,0.2079010009765625,0.9762700209130344
1786726896.552471,0.064453125,-0.08837890625,0.9838866591453552,0.9899484806980716,0.606536865234375,-0.38909912109375,0.2689361572265625,0.7691630201641662
1786726896.56324,0.06591796875,-0.09521484375,0.9814452528953552,0.9882539296685294,0.6694793701171875,-0.6923675537109375,0.2689361572265625,0.9999510553561931
1786726896.573775,0.0703125,-0.09521484375,0.9765624403953552,0.9837092630028034,0.4863739013671875,-0.3871917724609375,0.0247955322265625,0.6221670668003728
1786726896.584312,0.072265625,-0.083984375,0.9887694716453552,0.9949576693802687,0.3643035888671875,-0.5092620849609375,0.2689361572265625,0.6814628623073045
1786726896.594849,0.064453125,-0.08984375,0.9809569716453552,0.987169025524988,0.423431396484375,-0.507354736328125,0.3871917724609375,0.7659115122941629
1786726896.604437,0.0673828125,-0.09326171875,0.9858397841453552,0.9925312446509554,0.301361083984375,-0.14495849609375,-0.0362396240234375,0.3363700029422353
1786726896.614026,0.07861328125,-0.08935546875,1.00732421875,1.0143305819429491,0.423431396484375,-0.019073486328125,0.2079010009765625,0.4721025011758292
1786726896.623615,0.0625,-0.08984375,0.9692382216453552,0.9753978058783571,0.118255615234375,-0.14495849609375,0.0820159912109375,0.2042644828121983
1786726896.633204,0.0849609375,-0.080078125,0.9570311903953552,0.9641263228405006,0.484466552734375,0.22125244140625,0.0820159912109375,0.5388757800837477
1786726896.642793,0.07861328125,-0.0791015625,0.9775390028953552,0.9838798744564695,-0.1239776611328125,0.8945465087890625,-0.1583099365234375,0.9168674674393882
1786726896.653485,0.0581054650247097,-0.0927734375,1.0234375,1.0292752169257522,0.423431396484375,-0.20599365234375,-0.4062652587890625,0.6219155833660784
1786726896.664181,0.0693359375,-0.07958984375,0.9750975966453552,0.9807942385845775,0.5474090576171875,-0.3261566162109375,-0.3414154052734375,0.722910294308728
1786726896.674877,0.064453125,-0.07958984375,0.9492186903953552,0.954727642181941,-0.3681182861328125,0.2841949462890625,-0.4062652587890625,0.617518664155624
1786726896.685545,0.06591796875,-0.0927734375,0.9916991591453552,0.9982080502376731,-0.6732940673828125,0.4673004150390625,-0.5245208740234375,0.9730450793025378
1786726896.696213,0.06640625,-0.1083984375,1.0107421875,1.0187049528120442,-0.186920166015625,0.34332275390625,-0.2803802490234375,0.4810641805991433
1786726896.706881,0.06640625,-0.07958984375,0.9614257216453552,0.9669972861950048,0.484466552734375,-0.26702880859375,-0.1010894775390625,0.5623444743272998
1786726896.714877,0.0703125,-0.08251953125,0.9516600966453552,0.9578153581150266,-0.553131103515625,1.07574462890625,-0.3414154052734375,1.256879072645847
1786726896.722873,0.0483398400247097,-0.06298828125,0.9726561903953552,0.9758915556673544,-0.6122589111328125,1.3828277587890625,-0.1010894775390625,1.515682244802069
1786726896.730869,0.0693359375,-0.0966796800494194,1.02001953125,1.0269344072991866,-0.2460479736328125,0.1621246337890625,-0.3414154052734375,0.45098612081534883
1786726896.738865,0.04345703125,-0.095703125,1.025390625,1.0307635691746773,1.0967254638671875,-0.0209808349609375,-0.5245208740234375,1.2158820196946192
1786726896.749541,0.0732421875,-0.068359375,0.9448241591453552,0.9501211048518516,0.5474090576171875,0.5283355712890625,-0.0362396240234375,0.7616485164431409
1786726896.760217,0.07421875,-0.0732421875,0.9443358778953552,0.9500753081528531,-0.9174346923828125,0.7114410400390625,-0.2803802490234375,1.1943399232554581
1786726896.770893,0.05029296875,-0.0751953125,0.9853515028953552,0.9894954785069997,-0.553131103515625,0.164031982421875,-0.4062652587890625,0.7056287759386002
1786726896.778901,0.060546875,-0.103515625,1.0107421875,1.0178316060546024,-0.553131103515625,-0.57220458984375,0.0247955322265625,0.7962329613455259
1786726896.786909,0.06787109375,-0.09423828125,0.9477538466453552,0.954842758181075,0.4863739013671875,-0.6923675537109375,-0.1010894775390625,0.8521452246136965
1786726896.794917,0.06494140625,-0.09521484375,0.9594725966453552,0.9663699687125242,0.2422332763671875,0.2841949462890625,0.0247955322265625,0.37424396600910464
1786726896.802925,0.05517578125,-0.10546875,0.9501952528953552,0.9576215550456132,-0.4901885986328125,0.7724761962890625,-0.0362396240234375,0.9155968798615354
1786726896.813558,0.06005859375,-0.09326171875,0.9951171278953552,1.001280620554564,-0.4291534423828125,0.4062652587890625,-0.0362396240234375,0.5920620304979217
1786726896.824191,0.06640625,-0.0966796875,1.03662109375,1.0432353732603235,-0.553131103515625,0.28228759765625,0.3299713134765625,0.7032221364436687
1786726896.834824,0.0527343787252903,-0.09228515625,0.9736327528953552,0.9794172768918349,0.606536865234375,-0.08392333984375,-0.0362396240234375,0.6133868324379258
1786726896.842846,0.07373046875,-0.07080078125,0.9555663466453552,0.9610181972724847,-0.4291534423828125,0.2841949462890625,0.1468658447265625,0.5352653743261447
1786726896.850867,0.06591796875,-0.099609375,0.9589843153953552,0.9663943932817051,-0.1239776611328125,0.2231597900390625,-0.2193450927734375,0.3365754329626998
1786726896.858888,0.06005859375,-0.0908203125,0.9951171278953552,1.0010561732872567,-0.3070831298828125,-0.2040863037109375,-0.0362396240234375,0.37049234589985447
1786726896.866909,0.05078125,-0.09130859375,1.01904296875,1.0243849700200498,0.4863739013671875,-0.9975433349609375,-0.1010894775390625,1.1143928210129714
1786726896.877534,0.05908203125,-0.076171875,0.9663085341453552,0.9711050530811725,0.732421875,-0.45013427734375,0.0247955322265625,0.8600450505855459
1786726896.888159,0.0654296875,-0.0771484375,0.9482421278953552,0.9536225975356029,-0.1239776611328125,-0.0209808349609375,0.1468658447265625,0.19333968098367016
1786726896.898784,0.0625,-0.08642578125,0.9838866591453552,0.9896507584541535,-0.7343292236328125,-0.0820159912109375,0.0247955322265625,0.7393110643794534
1786726896.909473,0.07080078125,-0.0927734375,1.00048828125,1.007271791647992,-0.553131103515625,-0.812530517578125,-0.1010894775390625,0.9881188906914539
1786726896.920162,0.078125,-0.08837890625,0.9887694716453552,0.9957808065798323,-0.0019073486328125,-0.8754730224609375,-0.0362396240234375,0.8762248349510852
1786726896.930851,0.0732421875,-0.09619140625,0.9941405653953552,1.0014652607208772,-0.1239776611328125,-0.5092620849609375,-0.2803802490234375,0.5944168702864753
1786726896.941511,0.05419921875,-0.0810546875,0.9848632216453552,0.9896782219633314,0.606536865234375,-0.08392333984375,-0.1010894775390625,0.6206038819794737
1786726896.95217,0.076171875,-0.0849609375,0.9902343153953552,0.9967870960382675,0.3643035888671875,0.1010894775390625,-0.2803802490234375,0.4706902074327426
1786726896.962829,0.0751953125,-0.07958984375,0.9702147841453552,0.9763737018295506,0.423431396484375,0.652313232421875,0.0247955322265625,0.7780883748905272
1786726896.970833,0.04833984375,-0.0908203125,0.9858397841453552,0.9911938002530749,-0.0019073486328125,1.2607574462890625,-0.0362396240234375,1.2612796227250662
1786726896.978839,0.07421875,-0.0908203125,0.9545897841453552,0.9617683754464149,-0.2460479736328125,0.7724761962890625,-0.2803802490234375,0.8578299150790186
1786726896.986845,0.07421875,-0.08154296875,0.9687499403953552,0.975004679793964,-0.2460479736328125,0.4673004150390625,-0.0362396240234375,0.5293605515845069
1786726896.994851,0.072265625,-0.0888671875,0.9897460341453552,0.9963518001575846,-0.1239776611328125,0.6504058837890625,-0.4634857177734375,0.8082185872072929
1786726897.005509,0.0732421875,-0.0791015625,0.9882811903953552,0.9941434436282256,-0.308990478515625,0.34332275390625,-0.1583099365234375,0.488270074001204
1786726897.016167,0.06884765625,-0.0791015625,0.9868163466453552,0.9923726915668052,0.118255615234375,0.652313232421875,-0.1583099365234375,0.681585636387087
1786726897.026825,0.07177734375,-0.08251953125,0.9848632216453552,0.9909172646912524,0.3643035888671875,0.7114410400390625,-0.0362396240234375,0.800111722612996
1786726897.034938,0.0615234375,-0.08544921875,0.9965819716453552,1.0021288981739551,0.732421875,0.52642822265625,-0.5245208740234375,1.04340338502127
1786726897.043051,0.0654296875,-0.09423828125,0.9877929091453552,0.9944328680293838,0.9746551513671875,0.5893707275390625,-0.4062652587890625,1.2092815962650978
1786726897.051164,0.06005859375,-0.08544921875,0.9741210341453552,0.979704237427107,0.4863739013671875,0.8335113525390625,-0.3414154052734375,1.0236528834036769
1786726897.059277,0.0634765625,-0.09716796875,0.9936522841453552,1.0004077918154672,0.789642333984375,1.01470947265625,-0.0362396240234375,1.2862673283062025
1786726897.069797,0.0556640625,-0.083984375,0.9887694716453552,0.9938897982955552,0.1811981201171875,0.7114410400390625,-0.1010894775390625,0.7410804238778584
1786726897.080317,0.0595703125,-0.08935546875,0.9707030653953552,0.9766255490692526,0.3643035888671875,0.4673004150390625,0.0820159912109375,0.5981750626459661
1786726897.090837,0.0634765625,-0.0830078125,0.9833983778953552,0.988934750410798,0.484466552734375,0.22125244140625,-0.2803802490234375,0.6018916576835069
1786726897.10149,0.0693359375,-0.087890625,0.9794921278953552,0.985868684359568,0.118255615234375,0.09918212890625,-0.1583099365234375,0.22109618095048894
1786726897.112143,0.0556640625,-0.08642578125,0.9746093153953552,0.9800159290409926,0.1201629638671875,-0.2040863037109375,-0.5245208740234375,0.5755106467599456
1786726897.122796,0.0624999962747097,-0.083984375,0.9750975966453552,0.9807012530643708,0.2422332763671875,-0.2040863037109375,-0.1583099365234375,0.3541048086993879
1786726897.133657,0.0537109375,-0.09033203125,0.9921874403953552,0.9977377699351501,-0.064849853515625,-0.14495849609375,-0.2193450927734375,0.2707964896643745
1786726897.144521,0.0625,-0.08447265625,0.9750975966453552,0.9807431889324945,0.118255615234375,0.03814697265625,0.2079010009765625,0.24220323751831616
1786726897.155385,0.0620117224752903,-0.091796875,0.9858397841453552,0.9920444546429755,0.1811981201171875,-0.3871917724609375,-0.0362396240234375,0.4290262669636968
1786726897.163251,0.06787109375,-0.08935546875,0.9921874403953552,0.9985122943863236,0.1811981201171875,-0.2651214599609375,0.0820159912109375,0.3314344129388713
1786726897.171118,0.0576171912252903,-0.0888671875,0.9980468153953552,1.0036506182231255,-0.1850128173828125,-0.3871917724609375,0.3299713134765625,0.5413208650835623
1786726897.178985,0.06396484375,-0.09375,0.9960936903953552,1.0025383802036707,0.3032684326171875,-1.0585784912109375,0.2079010009765625,1.1206172363851838
1786726897.186852,0.06298828125,-0.08056640625,0.9711913466453552,0.9765608538077326,0.911712646484375,-0.87738037109375,0.2689361572265625,1.293577567061187
1786726897.197573,0.0771484375,-0.08154296875,0.9667968153953552,0.9732919497354612,0.5474090576171875,-0.0820159912109375,0.4520416259765625,0.7146502156937926
1786726897.208294,0.0624999962747097,-0.09228515625,0.9711913466453552,0.9775660752078318,-0.064849853515625,-0.14495849609375,0.5702972412109375,0.5919944361424067
1786726897.219015,0.06494140625,-0.06884765625,0.9594725966453552,0.9641291665177577,-0.980377197265625,0.03814697265625,0.5130767822265625,1.1071776844306438
1786726897.226979,0.07080078125,-0.0927734375,0.9985350966453552,1.005331786309239,-0.6732940673828125,-0.2040863037109375,-0.0362396240234375,0.7044781266190203
1786726897.234941,0.0517578125,-0.095703125,1.01806640625,1.0238638419361925,0.3032684326171875,-0.5092620849609375,-0.3414154052734375,0.6840205350418014
1786726897.242903,0.06884765625,-0.07568359375,0.9790038466453552,0.9843355819436964,0.362396240234375,0.34332275390625,-0.2193450927734375,0.5452649062699435
1786726897.250865,0.08056640625,-0.08203125,0.9599608778953552,0.9668220926738402,-0.1239776611328125,0.4062652587890625,-0.3414154052734375,0.5449645859291519
1786726897.261529,0.0751953125,-0.091796875,0.9829100966453552,0.9900470995710859,0.423431396484375,0.34332275390625,-0.1010894775390625,0.5544219903174838
1786726897.272193,0.0791015625,-0.0771484375,0.9829100966453552,0.9891012064930537,-0.6122589111328125,0.1621246337890625,-0.1583099365234375,0.6528456227507615
1786726897.282857,0.0532226525247097,-0.07763671875,0.9526366591453552,0.9572756735589055,-0.9784698486328125,0.1010894775390625,0.0247955322265625,0.983990419450839
1786726897.293607,0.0478515662252903,-0.0927734375,1.021484375,1.0268042712537382,-0.4291534423828125,0.2841949462890625,-0.0362396240234375,0.5159968555666025
1786726897.304355,0.06298828125,-0.08447265625,0.9721679091453552,0.9778617472837412,0.7305145263671875,-0.0820159912109375,0.0247955322265625,0.7355222052842371
1786726897.315103,0.06787109375,-0.087890625,0.9531249403953552,0.9595719875722516,0.789642333984375,-0.08392333984375,-0.1010894775390625,0.8004981105911128
1786726897.325702,0.0634765625,-0.09326171875,0.9848632216453552,0.991303479021782,-0.3070831298828125,0.6504058837890625,0.1468658447265625,0.7340963415474174
1786726897.336303,0.05419921875,-0.0859375,0.9736327528953552,0.9789195813395236,-0.1850128173828125,0.1621246337890625,-0.3414154052734375,0.420807103594021
1786726897.346904,0.05615234375,-0.07666015625,0.9589843153953552,0.9636808509248229,-0.6122589111328125,0.2231597900390625,-0.4634857177734375,0.7996751069851895
1786726897.357549,0.05078125,-0.09521484375,1.0234375,1.0291107414793363,-1.2836456298828125,-0.2040863037109375,-0.1010894775390625,1.3036933707543181
1786726897.368195,0.0522460974752903,-0.09375,1.00390625,1.0096268993992088,0.0591278076171875,-0.5702972412109375,-0.1583099365234375,0.5948084372035052
1786726897.378841,0.0624999962747097,-0.09423828125,0.9531249403953552,0.9598094890085961,0.423431396484375,-0.69427490234375,-0.0362396240234375,0.8140178732082556
1786726897.38695,0.05810546875,-0.10009765625,0.9809569716453552,0.9877612902442708,-0.064849853515625,-0.019073486328125,-0.1010894775390625,0.12160749915538849
1786726897.39506,0.064453125,-0.10498046875,0.9897460341453552,0.9973827330807838,0.3643035888671875,0.1010894775390625,0.2079010009765625,0.4314614855785972
1786726897.40317,0.0585937462747097,-0.07763671875,0.9560546278953552,0.9609896662924622,-0.3070831298828125,0.4062652587890625,0.8754730224609375,1.0128200838324926
1786726897.41128,0.06982421875,-0.0654296875,0.9575194716453552,0.9622889400332916,-0.553131103515625,0.09918212890625,0.1468658447265625,0.5808275894945383
1786726897.421792,0.0595703125,-0.0810546875,1.0087890625,1.0137918213897266,-0.2460479736328125,-0.5092620849609375,0.1468658447265625,0.5843432662868813
1786726897.432304,0.0478515662252903,-0.09912109375,1.00390625,1.0099220377858245,0.6694793701171875,-0.8754730224609375,0.1468658447265625,1.1118566528184477
1786726897.442816,0.07275390625,-0.09228515625,0.9873046278953552,0.9942736591111657,0.423431396484375,-0.995635986328125,0.0247955322265625,1.0822199329243039
1786726897.450849,0.0624999962747097,-0.0791015625,0.9990233778953552,1.0040971149772944,0.4863739013671875,-0.3261566162109375,0.2079010009765625,0.6214181655184889
1786726897.458881,0.04638671875,-0.0859375,0.9721679091453552,0.977060604647784,0.3643035888671875,0.0400543212890625,0.0820159912109375,0.37556367812895963
1786726897.466913,0.06884765625,-0.080078125,0.9653319716453552,0.9710913043351499,0.5474090576171875,-0.3261566162109375,0.1468658447265625,0.6539146664563755
1786726897.474945,0.0595703125,-0.08740234375,0.9956054091453552,1.0012082313604054,0.244140625,0.03814697265625,0.2689361572265625,0.3652211562355303
1786726897.485589,0.072265625,-0.09130859375,0.9829100966453552,0.9897837329117026,0.6084442138671875,-0.2040863037109375,-0.0362396240234375,0.6427821490211229
1786726897.496233,0.06689453125,-0.07861328125,0.9775390028953552,0.9829737679519704,0.2422332763671875,-0.0820159912109375,0.0247955322265625,0.25694046277745614
1786726897.506877,0.07470703125,-0.09033203125,0.9799804091453552,0.9869663716138647,0.1811981201171875,-0.2651214599609375,-0.1583099365234375,0.3580281878119047
1786726897.517507,0.07080078125,-0.08837890625,0.9711913466453552,0.9777710434935037,0.1811981201171875,-0.0209808349609375,-0.1583099365234375,0.24152637572678395
1786726897.528138,0.07373046875,-0.0961913987994194,0.9936522841453552,1.001016397973762,0.3643035888671875,0.0400543212890625,-0.1583099365234375,0.39922861810934224
1786726897.538769,0.0546875,-0.0888671875,0.9648436903953552,0.9704697040949491,0.301361083984375,0.22125244140625,0.0247955322265625,0.3746811500287439
1786726897.549473,0.05712890625,-0.0859375,0.9853515028953552,0.9907404049970439,0.423431396484375,0.28228759765625,0.0247955322265625,0.5095049104156342
1786726897.560177,0.06591796875,-0.08154296875,0.9912108778953552,0.9967414102036547,0.2422332763671875,0.2231597900390625,0.3299713134765625,0.4662170307778434
1786726897.570881,0.06982421875,-0.0888671875,0.9702147841453552,0.9767750641332047,0.1811981201171875,0.2841949462890625,-0.0362396240234375,0.33898795934310993
1786726897.58153,0.07080078125,-0.09130859375,0.9799804091453552,0.9867682667308018,-0.1239776611328125,0.8945465087890625,0.2079010009765625,0.9267182651991486
1786726897.592179,0.072265625,-0.09619140625,0.9902343153953552,0.9975164693274498,-0.1850128173828125,0.4673004150390625,-0.2803802490234375,0.5755106467599456
1786726897.602828,0.064453125,-0.09375,0.9824218153953552,0.9889873058775684,-0.370025634765625,0.22125244140625,0.2079010009765625,0.47863810903331383
1786726897.610848,0.06982421875,-0.07373046875,0.9926757216453552,0.9978560476793581,-0.0019073486328125,0.4062652587890625,-0.1583099365234375,0.4360242361151566
1786726897.618867,0.0546875,-0.0703125,0.9873046278953552,0.9913147827890422,-0.1239776611328125,0.1010894775390625,-0.2803802490234375,0.3228043168415316
1786726897.626886,0.0546875,-0.078125,0.9799804091453552,0.9846094863396085,-0.1239776611328125,-0.0209808349609375,-0.2193450927734375,0.2528298353031313
1786726897.634905,0.0556640625,-0.08154296875,0.9912108778953552,0.996115830646541,0.2422332763671875,-0.3871917724609375,0.1468658447265625,0.47975410908951205
1786726897.642889,0.060546875,-0.0849609375,0.9907225966453552,0.9962005563524143,-0.0019073486328125,-0.3261566162109375,-0.1583099365234375,0.3625518063381159
1786726897.650873,0.0517578162252903,-0.08837890625,0.9853515028953552,0.990660025875927,0.1811981201171875,0.1010894775390625,0.2079010009765625,0.29372549669747766
1786726897.658857,0.0654296875,-0.08056640625,1.00390625,1.0092570280218267,0.606536865234375,0.164031982421875,0.3871917724609375,0.7380453433272478
1786726897.666841,0.0595703125,-0.06884765625,0.9809569716453552,0.9851726762969485,0.6694793701171875,0.1010894775390625,0.2689361572265625,0.7285247875984846
1786726897.677492,0.06787109375,-0.0947265625,0.9780272841453552,0.9849451637236598,0.5474090576171875,0.2231597900390625,0.2689361572265625,0.6494487084561845
1786726897.688143,0.064453125,-0.08349609375,0.9760741591453552,0.9817568778190895,0.301361083984375,-0.08392333984375,0.2079010009765625,0.3756121085878672
1786726897.698794,0.07275390625,-0.0869140625,0.9824218153953552,0.9889387283849254,0.3643035888671875,-0.2651214599609375,-0.0362396240234375,0.45201748167818895
1786726897.709495,0.05615234375,-0.0888671875,0.9882811903953552,0.9938562139525208,0.118255615234375,-0.93841552734375,0.0247955322265625,0.9461622011646351
1786726897.720198,0.068359375,-0.09326171875,0.9692382216453552,0.9761114089246399,0.423431396484375,-0.812530517578125,0.2079010009765625,0.9395332967657615
1786726897.730901,0.0517578162252903,-0.08251953125,0.9848632216453552,0.9896685859053013,0.423431396484375,-0.507354736328125,0.0820159912109375,0.6659050974557874
1786726897.738889,0.064453125,-0.09521484375,0.9873046278953552,0.9939771124408189,-0.003814697265625,-0.26702880859375,-0.0362396240234375,0.2695037047678307
1786726897.746876,0.06005859375,-0.0947265625,1.00048828125,1.006755659157113,-0.244140625,-0.63323974609375,0.0820159912109375,0.6836108861205914
1786726897.754863,0.07666015625,-0.083984375,0.9780272841453552,0.9846154190003092,-0.1239776611328125,-0.4482269287109375,0.2079010009765625,0.5094120790564933
1786726897.76285,0.076171875,-0.087890625,0.9619140028953552,0.9689197415008488,-0.3070831298828125,-0.6923675537109375,-0.1010894775390625,0.7641282356773716
1786726897.773485,0.064453125,-0.09765625,0.9814452528953552,0.9883955346505547,-0.4291534423828125,-0.6923675537109375,0.3871917724609375,0.9019218232209089
1786726897.78412,0.06689453125,-0.08984375,0.9980468153953552,1.0043128115512765,-0.4901885986328125,-1.1806488037109375,0.4520416259765625,1.3559343979519078
1786726897.794755,0.07666015625,-0.0869140625,0.9995116591453552,1.0062079261186672,-0.1850128173828125,-1.3027191162109375,0.2079010009765625,1.3321147340016883
1786726897.805524,0.0595703125,-0.09033203125,0.9965819716453552,1.0024390875308296,0.3643035888671875,-0.6923675537109375,0.3871917724609375,0.8729303540114888
1786726897.816295,0.05517578125,-0.08642578125,0.9736327528953552,0.9790171193660551,0.1201629638671875,-0.2040863037109375,0.3871917724609375,0.4538808499035649
1786726897.827066,0.09716796875,-0.08203125,0.9731444716453552,0.9814178023764808,-0.1239776611328125,0.1010894775390625,0.4520416259765625,0.4795113914649135
1786726897.835007,0.0634765625,-0.08984375,0.9750975966453552,0.9812830867718177,-0.4291534423828125,0.0400543212890625,0.4520416259765625,0.6245947945496183
1786726897.842947,0.083984375,-0.0849609375,0.9926757216453552,0.9998383991871618,-0.553131103515625,0.03814697265625,0.2079010009765625,0.5921419047882918
1786726897.850887,0.06298828125,-0.08740234375,1.00341796875,1.0091849747584425,-0.3070831298828125,0.1010894775390625,-0.1010894775390625,0.338730296248897
1786726897.858827,0.08984375,-0.0732421875,0.9902343153953552,0.9969956453417214,0.0591278076171875,-0.0820159912109375,-0.5893707275390625,0.5979804134985122
1786726897.869511,0.06591796875,-0.10009765625,0.9941405653953552,1.0013391948563013,0.118255615234375,-0.08392333984375,-0.5245208740234375,0.5441963476460504
1786726897.880195,0.0634765625,-0.07861328125,0.9858397841453552,0.9910042391329457,0.732421875,0.34332275390625,-0.1583099365234375,0.8242416832036232
1786726897.890879,0.0693359375,-0.0771484300494194,0.9790038466453552,0.9844835621961884,1.03759765625,0.34332275390625,-0.1583099365234375,1.1043285043895767
1786726897.89899,0.06005859375,-0.08447265625,0.9741210341453552,0.9796195452835629,0.423431396484375,0.70953369140625,0.0247955322265625,0.8266480661004937
1786726897.907102,0.06298828125,-0.07861328125,0.9790038466453552,0.9841728015496684,-0.0019073486328125,0.1621246337890625,0.0247955322265625,0.1640208928107734
1786726897.915214,0.06298828125,-0.083984375,0.9760741591453552,0.9817034496069992,0.0591278076171875,0.2231597900390625,-0.3414154052734375,0.41214180627778974
1786726897.923326,0.068359375,-0.09814453125,0.9785155653953552,0.9857981866922177,-0.064849853515625,0.40435791015625,-0.2803802490234375,0.49631029311245684
1786726897.933819,0.06689453125,-0.09716796875,0.9912108778953552,0.998206139492359,-0.4291534423828125,0.4673004150390625,-0.3414154052734375,0.7204906897127288
1786726897.944312,0.0712890625,-0.08837890625,0.9980468153953552,1.0044851453470507,0.244140625,0.52642822265625,-0.4062652587890625,0.7083662745242414
1786726897.954805,0.0673828125,-0.09814453125,0.9838866591453552,0.9910629397161922,-0.1239776611328125,0.4062652587890625,0.0820159912109375,0.4326066848457372
1786726897.965493,0.05615234375,-0.09130859375,0.9780272841453552,0.9838839939413386,-0.125885009765625,0.34332275390625,-0.0362396240234375,0.36746545331884345
1786726897.976179,0.0512695349752903,-0.103515625,0.9877929091453552,0.9945244497716319,-0.4901885986328125,0.1621246337890625,-0.2193450927734375,0.560964819605139
1786726897.986865,0.05322265625,-0.08154296875,0.9794921278953552,0.9843204435039639,-0.003814697265625,0.22125244140625,-0.1010894775390625,0.2432822994230675
1786726897.997509,0.06005859375,-0.0849609375,0.9951171278953552,1.0005416002419925,-0.0019073486328125,-0.2040863037109375,0.2689361572265625,0.3376114838168134
1786726898.008153,0.0654296875,-0.0859375,0.9882811903953552,0.9941659867456027,-0.308990478515625,0.03814697265625,0.1468658447265625,0.3442381206133312
1786726898.018797,0.0468750037252903,-0.07421875,0.9858397841453552,0.989740253212715,-0.3070831298828125,-0.0820159912109375,0.2079010009765625,0.37980191900514865
1786726898.029559,0.0576171912252903,-0.07958984375,0.9760741591453552,0.9810071600677303,0.2422332763671875,0.2841949462890625,0.0247955322265625,0.37424396600910464
1786726898.040321,0.0654296875,-0.08056640625,0.9692382216453552,0.9747793186771242,0.3032684326171875,-0.2040863037109375,0.1468658447265625,0.39394484122999424
1786726898.051083,0.06298828125,-0.0849609375,0.9897460341453552,0.9953808801570214,0.2422332763671875,-0.0209808349609375,0.2689361572265625,0.3625518063381159
1786726898.059111,0.0673828125,-0.0927734375,0.9780272841453552,0.9847257093519576,0.118255615234375,-0.45013427734375,0.3299713134765625,0.5705140891263673
1786726898.067137,0.05908203125,-0.07470703125,0.9765624403953552,0.9811962224375643,0.0591278076171875,-0.2040863037109375,-0.0362396240234375,0.21554727403836094
1786726898.075163,0.068359375,-0.10107421875,0.9877929091453552,0.9953008757175679,-0.064849853515625,-0.26702880859375,0.0820159912109375,0.28676908992133054
1786726898.083189,0.0561523474752903,-0.09619140625,0.9848632216453552,0.9911414823893743,-0.1239776611328125,-0.8754730224609375,0.1468658447265625,0.8963219565893153
1786726898.093765,0.05224609375,-0.0810546875,0.9951171278953552,0.9997787829857949,-0.1239776611328125,-0.7534027099609375,0.0820159912109375,0.7679275529962183
1786726898.104341,0.06005859375,-0.09130859375,0.9833983778953552,0.9894527091392726,0.0591278076171875,-0.6923675537109375,-0.1010894775390625,0.7022022568565297
1786726898.114917,0.0634765625,-0.11474609375,0.9970702528953552,1.0056565165236626,0.5474090576171875,-0.8144378662109375,0.0820159912109375,0.9847295756165115
1786726898.122913,0.06884765625,-0.09716796875,0.9682616591453552,0.9755574070719956,0.1201629638671875,-0.8754730224609375,0.2079010009765625,0.9078077864555321
1786726898.130911,0.0751953125,-0.09375,0.9902343153953552,0.9975005748913033,-0.186920166015625,-0.45013427734375,0.2079010009765625,0.5298894623505411
1786726898.138909,0.06787109375,-0.08056640625,0.9697265028953552,0.9754316591132957,0.06103515625,-0.14495849609375,0.2079010009765625,0.2606934638522422
1786726898.146907,0.0712890625,-0.0869140625,0.9707030653953552,0.9771901687288519,-0.0019073486328125,-0.3871917724609375,-0.0362396240234375,0.38888869485960836
1786726898.157574,0.06298828125,-0.0791015625,0.9809569716453552,0.9861547348080811,-0.0019073486328125,-0.3261566162109375,-0.2193450927734375,0.39305730625541585
1786726898.168241,0.07275390625,-0.08935546875,0.9707030653953552,0.9775182718691786,-0.064849853515625,-0.019073486328125,0.3871917724609375,0.3930480505525369
1786726898.178908,0.06640625,-0.08837890625,0.9858397841453552,0.992018498372268,-0.553131103515625,0.40435791015625,0.0820159912109375,0.6900622870412899
1786726898.186913,0.06640625,-0.07958984375,0.9804686903953552,0.9859326478582575,-0.3070831298828125,0.2231597900390625,0.1468658447265625,0.4070256956214798
1786726898.194918,0.06689453125,-0.08837890625,0.9838866591453552,0.9901104319343939,-0.4291534423828125,0.5283355712890625,0.2079010009765625,0.7117120058039028
1786726898.202923,0.0620117224752903,-0.083984375,0.9931640028953552,0.9986358523584151,-0.3070831298828125,0.5893707275390625,0.2689361572265625,0.7169271649214712
1786726898.210928,0.0522460974752903,-0.08935546875,0.9770507216453552,0.9825182782852638,-0.064849853515625,0.77056884765625,-0.2803802490234375,0.8225539110123566
1786726898.218909,0.07373046875,-0.09521484375,0.9902343153953552,0.9975299734238262,-0.42724609375,0.34332275390625,-0.1010894775390625,0.5573408476359201
1786726898.22689,0.06494140625,-0.07568359375,0.9985350966453552,1.0035027313571157,-0.553131103515625,-0.14495849609375,0.0820159912109375,0.5776621902812121
1786726898.234871,0.06396484375,-0.09130859375,0.9907225966453552,0.9969754380285804,-0.0019073486328125,-0.2040863037109375,0.1468658447265625,0.251444693100584
1786726898.242852,0.0634765625,-0.09423828125,0.9829100966453552,0.9894556006851202,0.3643035888671875,-0.2651214599609375,0.0247955322265625,0.4512441820253534
1786726898.253501,0.0595703125,-0.08837890625,0.9926757216453552,0.9983809601276562,0.0591278076171875,0.1010894775390625,-0.2803802490234375,0.3038556633422859
1786726898.26415,0.0703125,-0.0859375,1.00244140625,1.008572195991431,0.1811981201171875,0.2841949462890625,0.0820159912109375,0.34688059767671986
1786726898.274799,0.06298828125,-0.08349609375,0.9750975966453552,0.9806907995030267,0.5474090576171875,0.2231597900390625,0.2689361572265625,0.6494487084561845
1786726898.285474,0.06396484375,-0.0966796875,0.9780272841453552,0.9848735105300573,0.118255615234375,0.52642822265625,0.3299713134765625,0.632449311692982
1786726898.296151,0.0527343787252903,-0.0947265625,0.9843749403953552,0.9903272487521324,-0.2460479736328125,-0.0820159912109375,0.1468658447265625,0.29805335846182396
1786726898.306828,0.0561523474752903,-0.08740234375,0.9765624403953552,0.9820725308300353,-0.1850128173828125,-0.3871917724609375,0.5130767822265625,0.6688759195226958
1786726898.31748,0.068359375,-0.08740234375,0.9868163466453552,0.9930350828897586,-0.1239776611328125,-0.5702972412109375,-0.1010894775390625,0.5923077631281641
1786726898.328133,0.0527343787252903,-0.080078125,0.9790038466453552,0.9836879345348606,-0.064849853515625,-0.507354736328125,0.1468658447265625,0.5321502685546875
1786726898.338786,0.0693359375,-0.09765625,0.9785155653953552,0.9858178975419639,-0.0019073486328125,-0.6923675537109375,0.0820159912109375,0.6972109366789849
1786726898.346803,0.0654296875,-0.1103515625,0.9785155653953552,0.9868896711758264,-0.7343292236328125,-0.5092620849609375,0.0247955322265625,0.8939810391044817
1786726898.354818,0.05859375,-0.09033203125,0.9692382216453552,0.9752004069457028,-0.7343292236328125,-0.5702972412109375,-0.0362396240234375,0.9304792648755454
1786726898.362833,0.06689453125,-0.08984375,0.9785155653953552,0.984905827704462,-0.980377197265625,-0.93841552734375,-0.0362396240234375,1.357599521665948
1786726898.370848,0.0615234375,-0.0859375,1.00244140625,1.0079975993188397,-0.2460479736328125,-0.9975433349609375,0.0820159912109375,1.0307079767170306
1786726898.381517,0.06591796875,-0.08642578125,0.9995116591453552,1.005404471362794,0.2422332763671875,-1.0585784912109375,0.1468658447265625,1.0958261534482803
1786726898.392186,0.0771484375,-0.08349609375,0.9770507216453552,0.9836420038550151,0.0591278076171875,-0.8754730224609375,0.5130767822265625,1.0164629334857556
1786726898.402855,0.0712890625,-0.06689453125,0.9931640028953552,0.9979637996392511,-0.186920166015625,-1.12152099609375,-0.0362396240234375,1.1375683731063315
1786726898.413498,0.09130859375,-0.09033203125,0.9887694716453552,0.9970768291461739,0.1201629638671875,-1.1806488037109375,0.0247955322265625,1.1870069730240902
1786726898.424142,0.0732421875,-0.08447265625,0.9799804091453552,0.9863374929467164,0.179290771484375,-0.63323974609375,0.3299713134765625,0.7362192774505346
1786726898.434786,0.0673828125,-0.07666015625,0.9755858778953552,0.9809103058514247,0.362396240234375,-0.14495849609375,0.0247955322265625,0.39109950005615074
1786726898.44286,0.078125,-0.0771484375,0.9824218153953552,0.9885383252046411,-0.1239776611328125,0.4673004150390625,-0.1583099365234375,0.5087260307451323
1786726898.450933,0.07568359375,-0.07861328125,0.9741210341453552,0.9802141824704552,0.1201629638671875,0.4673004150390625,-0.4634857177734375,0.6690499430991573
1786726898.459006,0.07763671875,-0.078125,0.9916991591453552,0.9977966716585455,-0.3070831298828125,0.7114410400390625,-0.4634857177734375,0.9029215983076525
1786726898.467079,0.07177734375,-0.08837890625,0.9824218153953552,0.9889971898395149,0.0591278076171875,0.5283355712890625,-0.5245208740234375,0.7468311193364039
1786726898.477739,0.06884765625,-0.087890625,0.9877929091453552,0.9940822868816509,-0.1239776611328125,0.5893707275390625,-0.4634857177734375,0.7599653449466264
1786726898.488399,0.0751953125,-0.0751953125,0.9921874403953552,0.9978700250645031,0.118255615234375,0.835418701171875,-0.8945465087890625,1.2296838021169765
1786726898.499059,0.06396484375,-0.076171875,0.9892577528953552,0.9942457228676145,0.3643035888671875,0.7724761962890625,-0.6465911865234375,1.0712220783686817
1786726898.507102,0.06884765625,-0.0869140625,0.9775390028953552,0.9838071743045064,0.3643035888671875,1.0166168212890625,-0.5245208740234375,1.200561957366508
1786726898.515146,0.0615234375,-0.0908203125,0.9726561903953552,0.9788225208069232,0.1811981201171875,0.9555816650390625,-0.8296966552734375,1.2784230978298066
1786726898.52319,0.05126953125,-0.0849609375,0.9790038466453552,0.9840200493292176,0.301361083984375,0.89263916015625,-0.3414154052734375,1.0020916385953524
1786726898.531234,0.0507812537252903,-0.0927734375,0.9824218153953552,0.9880983097851064,0.2422332763671875,1.0776519775390625,-0.4062652587890625,1.176886657827498
1786726898.541808,0.0634765625,-0.091796875,0.9936522841453552,0.9999003960564591,0.179290771484375,1.01470947265625,-0.4062652587890625,1.1076244648511206
1786726898.552382,0.07080078125,-0.10205078125,0.9916991591453552,0.9994470145180036,-0.064849853515625,0.77056884765625,-0.2803802490234375,0.8225539110123566
1786726898.562956,0.05859375,-0.10546875,0.9750975966453552,0.982533565711204,-0.064849853515625,0.164031982421875,-0.0362396240234375,0.18007027824604602
1786726898.573594,0.05322265625,-0.1005859375,0.9926757216453552,0.9991772967322597,-0.064849853515625,-0.08392333984375,-0.2803802490234375,0.2997694355900421
1786726898.584233,0.06298828125,-0.09326171875,0.9853515028953552,0.9917574582614281,-0.1850128173828125,-0.3871917724609375,0.0247955322265625,0.4298395394513711
1786726898.594872,0.05029296875,-0.09326171875,0.9858397841453552,0.9915176301476707,-0.003814697265625,-0.14495849609375,-0.2193450927734375,0.2629444565469636
1786726898.602878,0.0517578162252903,-0.09716796875,0.9907225966453552,0.996820821008032,-0.064849853515625,-0.26702880859375,-0.3414154052734375,0.43826289721812084
1786726898.610884,0.0517578162252903,-0.0693359375,0.9873046278953552,0.9910886802062673,-0.064849853515625,-0.324249267578125,0.2079010009765625,0.3905968730456059
1786726898.61889,0.0615234412252903,-0.08251953125,0.9819335341453552,0.9873135633308746,0.141143798828125,-0.19073486328125,0.2841949462890625,0.37022712963098
1786726898.634894,0.06591796875,-0.09814453125,0.9775390028953552,0.9846623938183349,0.0782012939453125,-0.2498626708984375,0.3490447998046875,0.43632449960312386
1786726898.642892,0.0634765625,-0.0888671875,0.9770507216453552,0.9831351705989803,-0.164031982421875,-0.43487548828125,0.3490447998046875,0.581253347375996
1786726898.65089,0.06787109375,-0.0791015625,0.9750975966453552,0.9806522653521536,-0.2269744873046875,-0.3719329833984375,0.3490447998046875,0.5582865163136063
1786726898.658888,0.07470703125,-0.07861328125,0.9770507216453552,0.9830510165677006,-0.2269744873046875,-0.3108978271484375,0.2269744873046875,0.4468694380913414
