timestamp,accel_x,accel_y,accel_z,accel_rms,gyro_x,gyro_y,gyro_z,gyro_rms
1781789880.206437,0.06884765625,-0.09912109375,0.9882811903953552,0.9956227710767642,-0.4730224609375,-0.789642333984375,0.2498626708984375,0.9537906575764731
1781789880.21439,0.0673828125,-0.09521484375,0.9995116591453552,1.0062951190670895,-0.598907470703125,-0.423431396484375,0.3108978271484375,0.7966440641329993
1781789880.222343,0.0537109375,-0.09423828125,0.9907225966453552,0.9966428557732194,-0.415802001953125,-0.423431396484375,0.0629425048828125,0.5967807061876728
1781789880.230296,0.0732421875,-0.09716796875,0.9814452528953552,0.9889594615612988,-0.2899169921875,-0.606536865234375,0.2498626708984375,0.7171960579617613
1781789880.241039,0.0610351599752903,-0.0986328125,0.9819335341453552,0.9887604300001376,-0.110626220703125,-0.66375732421875,0.1888275146484375,0.698904697687315
1781789880.251782,0.08056640625,-0.09130859375,0.9848632216453552,0.9923627212155396,-0.110626220703125,-0.362396240234375,0.6771087646484375,0.7759158941578659
1781789880.262525,0.07470703125,-0.08447265625,0.9873046278953552,0.9937239045306825,0.072479248046875,-0.423431396484375,0.7991790771484375,0.9073227575003157
1781789880.270453,0.0791015625,-0.09716796875,0.9926757216453552,1.0005517276408398,-0.0476837158203125,-0.2384185791015625,0.7991790771484375,0.8353468459071768
1781789880.278382,0.0703125,-0.0927734375,0.9941405653953552,1.0009326761208333,0.4405975341796875,-0.0553131103515625,1.1043548583984375,1.1902879401935558
1781789880.286311,0.08203125,-0.091796875,0.9921874403953552,0.9997958337153715,0.5016326904296875,-0.1773834228515625,0.7991790771484375,0.9600976159548003
1781789880.29424,0.07275390625,-0.1005859375,0.9970702528953552,1.0047685061277525,0.9899139404296875,0.0667572021484375,0.7991790771484375,1.2739989524515107
1781789880.30227,0.09130859375,-0.0791015625,0.9809569716453552,0.9883677942457303,0.6237030029296875,0.1277923583984375,0.3681182861328125,0.7354232762932539
1781789880.3103,0.091796875,-0.0869140625,0.9799804091453552,0.9881003607067034,0.8068084716796875,0.4940032958984375,0.1277923583984375,0.9546256089156979
1781789880.31833,0.08837890625,-0.08154296875,0.9707030653953552,0.9781229615904378,0.255584716796875,0.858306884765625,0.0629425048828125,0.8977616692737185
1781789880.32636,0.0693359375,-0.07275390625,0.9824218153953552,0.9875491007885852,-0.0476837158203125,0.9822845458984375,0.1277923583984375,0.9917094094190931
1781789880.33702,0.0810546875,-0.0869140625,0.9853515028953552,0.9924925696871044,-0.2918243408203125,0.9212493896484375,-0.5435943603515625,1.1087635962768858
1781789880.34768,0.07763671875,-0.09375,0.9775390028953552,0.9850883334909168,-1.209259033203125,1.041412353515625,-0.6084442138671875,1.7079377801391857
1781789880.35834,0.06298828125,-0.07958984375,0.9765624403953552,0.98182293046858,-1.331329345703125,0.858306884765625,-0.4825592041015625,1.6558961080422636
1781789880.369,0.06591796875,-0.09521484375,0.9667968153953552,0.9737079271183241,-1.575469970703125,0.858306884765625,-0.8487701416015625,1.984743583009582
1781789880.37966,0.08203125,-0.09912109375,0.9804686903953552,0.9888745977364075,-2.0008087158203125,0.4329681396484375,-0.7915496826171875,2.194822960355693
1781789880.39032,0.07080078125,-0.09814453125,0.9833983778953552,0.9908165669220053,-2.063751220703125,0.19073486328125,-0.7915496826171875,2.218558042755683
1781789880.398332,0.0581054650247097,-0.091796875,0.9765624403953552,0.9825869484765382,-1.575469970703125,0.125885009765625,-0.4253387451171875,1.6367240794858677
1781789880.406343,0.0712890625,-0.099609375,0.9980468153953552,1.0055354810949386,-1.087188720703125,0.247955322265625,-0.4253387451171875,1.1934714928986832
1781789880.414354,0.07275390625,-0.10107421875,0.9799804091453552,0.987861696230426,-0.6580352783203125,0.1277923583984375,-0.3604888916015625,0.7611133656343507
1781789880.422365,0.0625,-0.09130859375,0.9814452528953552,0.9876630466527693,0.0133514404296875,0.2498626708984375,-0.3032684326171875,0.39316835769442837
1781789880.433002,0.0537109337747097,-0.10302734375,0.9907225966453552,0.9975122863758857,0.072479248046875,-0.240325927734375,-0.1773834228515625,0.30736732363959035
1781789880.443639,0.0673828125,-0.09130859375,0.9838866591453552,0.990409339998983,0.1983642578125,-0.118255615234375,0.0057220458984375,0.23100976412530344
1781789880.454276,0.0498046875,-0.08544921875,0.9975585341453552,1.002449552310832,0.560760498046875,-0.057220458984375,0.0629425048828125,0.5671757011871055
1781789880.464954,0.06396484375,-0.087890625,0.9926757216453552,0.9986097093173986,0.6237030029296875,-0.4825592041015625,0.5512237548828125,0.9621415952310503
1781789880.475632,0.0703125,-0.09033203125,0.9916991591453552,0.998284000560765,0.5016326904296875,-0.4215240478515625,0.4329681396484375,0.7853529709471544
1781789880.48631,0.0859375,-0.099609375,0.9824218153953552,0.9911911545503451,0.255584716796875,-0.606536865234375,0.6771087646484375,0.944291689846
1781789880.494523,0.08349609375,-0.087890625,0.9902343153953552,0.997627364811585,0.3814697265625,-0.606536865234375,0.5512237548828125,0.904020878696459
1781789880.502738,0.07861328125,-0.09716796875,0.9814452528953552,0.9893717433658191,0.0133514404296875,-0.4825592041015625,0.3108978271484375,0.5741943097508897
1781789880.510953,0.07763671875,-0.09814453125,0.9755858778953552,0.9835789822182048,-0.4749298095703125,-0.6656646728515625,0.2498626708984375,0.8550433527076694
1781789880.519168,0.08447265625,-0.0820312425494194,0.9750975966453552,0.9821812854008573,-0.8411407470703125,-0.4215240478515625,0.3681182861328125,1.0103026041164742
1781789880.529583,0.07177734375,-0.08447265625,0.9711913466453552,0.9774969301888139,-0.7801055908203125,-0.4215240478515625,-0.0553131103515625,0.8884293983896747
1781789880.539998,0.07861328125,-0.0869140625,0.9819335341453552,0.9889022033185754,-0.7801055908203125,-0.7266998291015625,-0.0553131103515625,1.0675752500981432
1781789880.550413,0.0810546875,-0.0966796875,0.9804686903953552,0.9885523138339232,-0.7190704345703125,-0.4825592041015625,-0.3604888916015625,0.9380180788792903
1781789880.561041,0.083984375,-0.08251953125,0.9853515028953552,0.9923610394105542,-0.2918243408203125,-0.3604888916015625,-0.0553131103515625,0.46709017013859017
1781789880.571672,0.0751953125,-0.0673828125,0.9843749403953552,0.9895396918369379,-0.415802001953125,-0.48065185546875,-0.2384185791015625,0.6787937314490955
1781789880.582303,0.06640625,-0.08056640625,0.9931640028953552,0.9986368071036775,0.072479248046875,-0.118255615234375,-0.3604888916015625,0.38625104906009516
1781789880.590295,0.08251953125,-0.10107421875,0.9687499403953552,0.9774977840126529,0.072479248046875,0.19073486328125,-0.3604888916015625,0.41422852441192487
1781789880.598289,0.0634765625,-0.08837890625,0.9951171278953552,1.0010485519131744,0.0133514404296875,0.3719329833984375,-0.2384185791015625,0.4419907509914861
1781789880.606283,0.064453125,-0.0869140550494194,0.9877929091453552,0.9937017105979254,-0.4138946533203125,0.3108978271484375,-0.3604888916015625,0.6308078026949924
1781789880.614277,0.07177734375,-0.0927734375,0.9902343153953552,0.997157408420496,-0.1697540283203125,0.4940032958984375,-0.3604888916015625,0.6346715114589717
1781789880.625039,0.0703125,-0.09130859375,0.9907225966453552,0.9974028125349195,-0.4749298095703125,0.1277923583984375,-0.2384185791015625,0.5465643875558817
1781789880.635801,0.07275390625,-0.1005859375,0.9936522841453552,1.0013768139340302,-0.415802001953125,0.19073486328125,-0.2384185791015625,0.5158628807735169
1781789880.646563,0.07421875,-0.08984375,0.9941405653953552,1.0009474441898643,-0.3528594970703125,0.4329681396484375,-0.4825592041015625,0.7381291351020336
1781789880.654496,0.080078125,-0.091796875,0.9897460341453552,0.9972143122066289,-0.415802001953125,0.247955322265625,-0.2384185791015625,0.5396448512947052
1781789880.662429,0.06884765625,-0.0947265625,0.9916991591453552,0.9985891766205907,-0.232696533203125,0.247955322265625,0.0057220458984375,0.3400915468133056
1781789880.670362,0.0751953125,-0.08544921875,0.9790038466453552,0.9855985165133723,-0.232696533203125,0.19073486328125,-0.1201629638671875,0.32398549739304255
1781789880.678295,0.064453125,-0.083984375,0.9819335341453552,0.9876239395871254,-0.5359649658203125,0.6160736083984375,-0.0553131103515625,0.8184526105576329
1781789880.68895,0.07177734375,-0.091796875,0.9916991591453552,0.9985218453219619,-0.4749298095703125,0.4940032958984375,0.0629425048828125,0.6881564787880263
1781789880.699605,0.07470703125,-0.087890625,0.9843749403953552,0.9911104508375634,-0.415802001953125,0.49591064453125,-0.0553131103515625,0.6495215257128824
1781789880.71026,0.0625,-0.10498046875,0.9853515028953552,0.9928971412372507,-0.598907470703125,0.614166259765625,-0.3032684326171875,0.9098692737534317
1781789880.718284,0.06396484375,-0.0986328125,0.9819335341453552,0.9889455993212213,-0.7190704345703125,0.3108978271484375,-0.3604888916015625,0.8623641862733405
1781789880.726308,0.0810546875,-0.08642578125,0.9775390028953552,0.9846937494531185,-0.1697540283203125,0.4940032958984375,-0.7266998291015625,0.8949571655144914
1781789880.734332,0.068359375,-0.099609375,0.9829100966453552,0.9903066645366286,-0.2307891845703125,0.6160736083984375,-0.6656646728515625,0.935905868857696
1781789880.742356,0.06494140625,-0.0859375,0.9877929091453552,0.9936485653941345,-0.4138946533203125,0.3108978271484375,-0.5435943603515625,0.7506404409427897
1781789880.753007,0.06494140625,-0.1064453050494194,0.9838866591453552,0.9917564959489803,-0.232696533203125,0.247955322265625,-0.5435943603515625,0.641189790164057
1781789880.763658,0.08203125,-0.09130859375,0.9833983778953552,0.9910291392872265,0.1354217529296875,0.3108978271484375,-0.4253387451171875,0.543975696322945
1781789880.774309,0.05712890625,-0.0908203125,0.9946288466453552,1.0003992121503238,-0.1697540283203125,0.0057220458984375,-0.6656646728515625,0.6869924516490811
1781789880.78497,0.068359375,-0.091796875,0.9907225966453552,0.9973118538921872,-0.2899169921875,-0.301361083984375,-0.3032684326171875,0.5165676214411528
1781789880.795632,0.06982421875,-0.0859375,1.00146484375,1.0075676199131798,-0.4138946533203125,-0.3604888916015625,-0.5435943603515625,0.7724997434441575
1781789880.806294,0.0732421875,-0.09375,0.9897460341453552,0.9968704492742494,-0.598907470703125,-0.911712646484375,-0.0553131103515625,1.092231499454361
1781789880.814302,0.07763671875,-0.09033203125,0.9804686903953552,0.9876771683164497,-0.6580352783203125,-0.6656646728515625,-0.0553131103515625,0.93764568168015
1781789880.822311,0.07177734375,-0.083984375,0.9990233778953552,1.0051134622028461,-0.659942626953125,-0.789642333984375,-0.0553131103515625,1.0305914935932894
1781789880.83032,0.07666015625,-0.0947265625,0.9838866591453552,0.9914044882103112,-0.9632110595703125,-0.6046295166015625,0.0629425048828125,1.1389969958456108
1781789880.838329,0.0771484375,-0.09912109375,0.9853515028953552,0.993324950302278,-0.7801055908203125,-0.6656646728515625,0.0057220458984375,1.0255276355715386
1781789880.848974,0.083984375,-0.09521484375,0.9970702528953552,1.005121052870392,-0.713348388671875,-0.751495361328125,0.0247955322265625,1.0364487542261065
1781789880.859619,0.0791015625,-0.08447265625,0.9770507216453552,0.9838804802980805,-0.5931854248046875,-0.3261566162109375,0.2079010009765625,0.7081454036466966
1781789880.870264,0.076171875,-0.09619140625,0.9829100966453552,0.9905388428854013,-0.1678466796875,-0.385284423828125,0.1468658447265625,0.44518105471137837
1781789880.878351,0.07763671875,-0.10498046875,0.9785155653953552,0.9871884676383877,-0.2880096435546875,-0.5092620849609375,0.0247955322265625,0.5855870937594662
1781789880.88644,0.0810546875,-0.083984375,0.9887694716453552,0.9956346245825816,-0.4100799560546875,-0.2651214599609375,0.0247955322265625,0.48894762225419597
1781789880.894529,0.0908203125,-0.08740234375,0.9829100966453552,0.9909590087097309,0.0171661376953125,-0.1430511474609375,-0.0362396240234375,0.1485651958657391
1781789880.902618,0.0791015625,-0.08154296875,0.9873046278953552,0.9938192698907033,-0.2269744873046875,-0.0209808349609375,-0.3414154052734375,0.4105144239620691
1781789880.913194,0.09423828125,-0.0917968675494194,0.9819335341453552,0.9907073150148974,-0.041961669921875,0.041961669921875,-0.1010894775390625,0.11722050142524301
1781789880.92377,0.08349609375,-0.0966796875,0.9780272841453552,0.9863345924073361,0.0152587890625,-0.385284423828125,-0.0362396240234375,0.3872857191242458
1781789880.934346,0.08447265625,-0.0927734375,0.9833983778953552,0.9913702184384565,0.0152587890625,0.102996826171875,-0.0362396240234375,0.11024739087385883
1781789880.945001,0.08056640625,-0.09375,0.9897460341453552,0.9974353214231481,0.2002716064453125,0.0400543212890625,-0.1010894775390625,0.22788625994393388
1781789880.955658,0.0625,-0.08154296875,0.9716796278953552,0.9770961083841341,-0.2269744873046875,0.1621246337890625,-0.2803802490234375,0.39549323484847143
1781789880.966315,0.06298828125,-0.09375,0.9868163466453552,0.9932588223022814,-0.2880096435546875,0.6504058837890625,0.0820159912109375,0.7160335126669995
1781789880.974367,0.07763671875,-0.08837890625,0.9829100966453552,0.9899245169484361,-0.530242919921875,0.225067138671875,-0.0362396240234375,0.5771707558310462
1781789880.98242,0.080078125,-0.0869140625,0.9863280653953552,0.9933829135586708,-0.5931854248046875,0.2880096435546875,-0.5245208740234375,0.8425797589946761
1781789880.990473,0.07568359375,-0.08203125,0.9809569716453552,0.9872860338114299,-0.6542205810546875,-0.0209808349609375,-0.2803802490234375,0.7120799450578817
1781789880.998526,0.07470703125,-0.0917968675494194,0.9833983778953552,0.9904949142006182,-0.408172607421875,0.408172607421875,-0.2193450927734375,0.6175127728419325
1781789881.009122,0.0869140625,-0.09375,0.9897460341453552,0.9979681001248049,-0.5931854248046875,0.1049041748046875,-0.2803802490234375,0.6644448194806057
1781789881.019718,0.0810546875,-0.08154296875,0.9775390028953552,0.984277207040746,-0.5931854248046875,-0.0209808349609375,-0.1583099365234375,0.6143054449037795
1781789881.030314,0.06689453125,-0.09033203125,0.9921874403953552,0.9985342613346799,-0.3509521484375,-0.080108642578125,-0.4062652587890625,0.5428040766312932
1781789881.038324,0.0605468787252903,-0.0830078125,0.9887694716453552,0.9940931996132178,-0.2880096435546875,0.0400543212890625,-0.2193450927734375,0.36423367932992345
1781789881.046333,0.06787109375,-0.1015625,0.9848632216453552,0.9924096896558091,-0.2880096435546875,0.0400543212890625,-0.2803802490234375,0.4039393363821731
1781789881.054343,0.0537109337747097,-0.1025390625,0.9877929091453552,0.9945521379511354,-0.3509521484375,-0.324249267578125,-0.6465911865234375,0.8039808209824624
1781789881.062351,0.0791015625,-0.0908203125,0.9946288466453552,1.0018941705248157,-0.041961669921875,-0.080108642578125,-0.1010894775390625,0.13563649519013235
1781789881.070367,0.06884765625,-0.09814453125,0.9868163466453552,0.9940718539380774,-0.1678466796875,0.041961669921875,-0.1583099365234375,0.2345108219822817
1781789881.078383,0.06396484375,-0.1005859375,0.9790038466453552,0.9862340309506248,-0.041961669921875,-0.263214111328125,0.0820159912109375,0.27887106870236567
1781789881.086399,0.0771484375,-0.0986328125,0.9887694716453552,0.9966671365948546,0.2613067626953125,-0.1430511474609375,-0.1583099365234375,0.33735276940059356
1781789881.094415,0.07421875,-0.080078125,0.9809569716453552,0.9870144422320802,0.1373291015625,-0.446319580078125,0.0820159912109375,0.47411715061932724
1781789881.106337,0.07958984375,-0.0966796800494194,0.9716796278953552,0.9797156745859809,0.0152587890625,-0.263214111328125,0.0247955322265625,0.2648194053771493
1781789881.118259,0.07275390625,-0.08642578125,0.9951171278953552,1.0015091835674834,0.2613067626953125,-0.1430511474609375,-0.0362396240234375,0.3000969266246413
1781789881.130181,0.0810546875,-0.087890625,0.9853515028953552,0.9925785654479692,0.5035400390625,-0.080108642578125,-0.2803802490234375,0.5818788959888636
1781789881.139557,0.0703125,-0.0961913987994194,0.9824218153953552,0.9896207638403431,0.2002716064453125,-0.3261566162109375,-0.1010894775390625,0.3958610073188259
1781789881.148936,0.0673828125,-0.08984375,0.9814452528953552,0.9878497493370642,0.1983642578125,-0.385284423828125,-0.2803802490234375,0.5161448925103483
1781789881.158315,0.08056640625,-0.09228515625,0.9838866591453552,0.9914839655407118,0.1373291015625,-0.141143798828125,-0.4062652587890625,0.4514779225859683
1781789881.166428,0.08203125,-0.107421875,0.9858397841453552,0.9950621413805465,0.4444122314453125,-0.3261566162109375,-0.2193450927734375,0.5932896758583944
1781789881.174541,0.08056640625,-0.0986328125,0.9755858778953552,0.9838633963445084,0.3204345703125,-0.080108642578125,-0.1583099365234375,0.3662755035067471
1781789881.182654,0.06494140625,-0.08642578125,0.9926757216453552,0.9985448864495412,0.3204345703125,-0.324249267578125,-0.4634857177734375,0.6501037701446328
1781789881.190767,0.07275390625,-0.09814453125,0.9946288466453552,1.0021037982504535,0.5664825439453125,-0.0209808349609375,-0.3414154052734375,0.6617455303879556
1781789881.201321,0.06787109375,-0.08154296875,0.9882811903953552,0.9939594822771425,0.3833770751953125,-0.1430511474609375,-0.6465911865234375,0.7651939460457002
1781789881.211875,0.076171875,-0.0947265625,0.9799804091453552,0.9874901915932025,0.6885528564453125,-0.1430511474609375,-0.7076263427734375,0.9976490905603034
1781789881.222429,0.0791015625,-0.09326171875,0.9770507216453552,0.9846740161301378,0.1983642578125,0.225067138671875,-0.8945465087890625,0.943513143561948
1781789881.230419,0.07080078125,-0.0849609375,0.9824218153953552,0.9886271971229573,0.446319580078125,0.286102294921875,-0.6465911865234375,0.8361434405713317
1781789881.238411,0.0703125,-0.0830078125,0.9819335341453552,0.9879410964584238,0.5664825439453125,-0.0209808349609375,-0.7686614990234375,0.9550828069394659
1781789881.246403,0.0703125,-0.0927734375,0.9916991591453552,0.9985078770903217,0.6866455078125,0.225067138671875,-0.8296966552734375,1.1002426141905977
1781789881.254395,0.06201171875,-0.09521484375,0.9907225966453552,0.997217420243139,0.9326934814453125,-0.1430511474609375,-0.4062652587890625,1.0273423098555867
1781789881.265029,0.064453125,-0.09716796875,1.00146484375,1.0082299602474023,1.0547637939453125,-0.2002716064453125,-0.4062652587890625,1.1479054132919837
1781789881.275663,0.07958984375,-0.09423828125,0.9799804091453552,0.9877130145896638,1.1138916015625,-0.141143798828125,-0.2193450927734375,1.1440228763896696
1781789881.286297,0.072265625,-0.091796875,1.0078125,1.0145614924550685,1.1138916015625,-0.446319580078125,-0.2193450927734375,1.2198639011448666
1781789881.296967,0.0771484375,-0.09033203125,0.9892577528953552,0.9963647218473816,1.2969970703125,-0.385284423828125,-0.2193450927734375,1.3706778459461457
1781789881.307637,0.07470703125,-0.08837890625,0.9907225966453552,0.9974583876492542,1.422882080078125,-0.263214111328125,-0.2803802490234375,1.4739362829688911
1781789881.318307,0.08544921875,-0.076171875,0.9926757216453552,0.9992541277723739,1.0547637939453125,-0.1430511474609375,0.0820159912109375,1.0675752500981432
1781789881.328984,0.078125,-0.078125,0.9848632216453552,0.9910411679641105,0.7495880126953125,-0.0209808349609375,-0.1583099365234375,0.7664100861902986
1781789881.339659,0.08642578125,-0.08251953125,0.9819335341453552,0.9891776150831457,0.3204345703125,0.225067138671875,-0.1583099365234375,0.42236899361027475
1781789881.350334,0.07470703125,-0.068359375,0.9750975966453552,0.9803415056255279,-0.1659393310546875,0.4673004150390625,-0.0362396240234375,0.4972110717149381
1781789881.358408,0.07666015625,-0.08251953125,0.9848632216453552,0.9912829151880215,-0.4711151123046875,0.3452301025390625,-0.4634857177734375,0.7456220780804096
1781789881.366481,0.072265625,-0.09765625,0.9809569716453552,0.9884511338150862,-0.7152557373046875,0.6504058837890625,-0.6465911865234375,1.163055779360771
1781789881.374554,0.0791015625,-0.095703125,0.9946288466453552,1.002348586023733,-0.8983612060546875,0.2880096435546875,-0.5893707275390625,1.112366965441016
1781789881.382627,0.0869140625,-0.10009765625,0.9863280653953552,0.9951967883959137,-1.0814666748046875,-0.0209808349609375,-0.4634857177734375,1.1767877356298053
1781789881.393196,0.06982421875,-0.0961913987994194,0.9711913466453552,0.9784379584449161,-0.7152557373046875,-0.0209808349609375,-0.7686614990234375,1.050176873323674
1781789881.403765,0.07958984375,-0.0961913987994194,1.0009765625,1.0087325746229545,-0.1049041748046875,-0.1430511474609375,-0.7686614990234375,0.7888656519093105
1781789881.414334,0.068359375,-0.087890625,0.9775390028953552,0.9838598824502026,0.1983642578125,-0.080108642578125,-0.3414154052734375,0.40290228635643077
1781789881.425086,0.07373046875,-0.10009765625,0.9892577528953552,0.9970389282632878,0.3204345703125,0.041961669921875,-0.4062652587890625,0.5191247981872306
1781789881.435838,0.068359375,-0.0947265625,0.9790038466453552,0.9859486079608101,0.5664825439453125,0.0400543212890625,-0.2193450927734375,0.6087849299814083
1781789881.44659,0.06494140625,-0.09423828125,0.9838866591453552,0.990520670123996,0.4444122314453125,-0.3261566162109375,-0.4634857177734375,0.720207873003572
1781789881.457158,0.07958984375,-0.08984375,0.9892577528953552,0.9965125911426206,0.6866455078125,0.225067138671875,0.3871917724609375,0.8197894479501876
1781789881.467726,0.076171875,-0.091796875,0.9829100966453552,0.9901217495278865,0.6256103515625,-0.385284423828125,-0.0362396240234375,0.7356260664060819
1781789881.478294,0.0732421875,-0.09033203125,0.9760741591453552,0.9829776488053268,0.7495880126953125,-0.3833770751953125,0.2079010009765625,0.8672271886702336
1781789881.486283,0.0830078125,-0.07958984375,0.9902343153953552,0.9968895824266057,0.8087158203125,-0.385284423828125,0.6351470947265625,1.0981243996960832
1781789881.494272,0.08544921875,-0.0927734375,0.9892577528953552,0.9972659531710282,0.1983642578125,-0.446319580078125,0.3299713134765625,0.5894324507999756
1781789881.502261,0.0791015625,-0.0859375,0.9760741591453552,0.983037677430272,0.3204345703125,-0.263214111328125,0.2689361572265625,0.494253618011443
1781789881.51025,0.07177734375,-0.0830078125,0.9794921278953552,0.98562016650473,-0.041961669921875,-0.202178955078125,0.3871917724609375,0.4388104149636347
1781789881.520951,0.0703125,-0.09423828125,0.9726561903953552,0.9797370902561613,-0.1068115234375,-0.080108642578125,0.1468658447265625,0.1984834313034621
1781789881.531652,0.08447265625,-0.0751953125,0.9902343153953552,0.9966714423833017,-0.1049041748046875,-0.0209808349609375,0.3299713134765625,0.34688059767671986
1781789881.542353,0.08349609375,-0.08935546875,0.9960936903953552,1.0035729358210488,-0.3509521484375,-0.263214111328125,0.6351470947265625,0.7719202749214096
1781789881.550347,0.07275390625,-0.07958984375,0.9941405653953552,0.9999715685295156,0.1373291015625,-0.385284423828125,0.5130767822265625,0.6561639687155164
1781789881.55834,0.07421875,-0.08447265625,0.9848632216453552,0.9912616293669201,-0.041961669921875,0.041961669921875,0.2689361572265625,0.2754055557701317
1781789881.566333,0.083984375,-0.09521484375,0.9785155653953552,0.9867177678725915,-0.225067138671875,0.102996826171875,0.0820159912109375,0.26074927790070107
1781789881.574326,0.0732421875,-0.0966796875,0.9877929091453552,0.9952116414927665,-0.1049041748046875,0.4673004150390625,0.0247955322265625,0.47957208238754995
1781789881.584978,0.0751953125,-0.0830078125,0.9750975966453552,0.9815090192869119,0.0782012939453125,0.6504058837890625,-0.2193450927734375,0.6908368300589803
1781789881.59563,0.08544921875,-0.0791015625,0.9780272841453552,0.9849345129030996,0.3204345703125,0.896453857421875,-0.1583099365234375,0.9650750583969988
1781789881.606282,0.078125,-0.09619140625,0.9785155653953552,0.9863310874054129,0.0782012939453125,0.9555816650390625,-0.0362396240234375,0.9594608232142198
1781789881.616953,0.0712890625,-0.0966796875,0.9838866591453552,0.9911922368801296,0.2613067626953125,1.1386871337890625,-0.3414154052734375,1.2171499874070904
1781789881.627625,0.06884765625,-0.07470703125,0.9794921278953552,0.9847466521386491,0.1373291015625,0.774383544921875,-0.4062652587890625,0.8852008909172409
1781789881.638297,0.07177734375,-0.08837890625,0.9853515028953552,0.9919074565723797,0.1983642578125,0.713348388671875,-0.3414154052734375,0.8153396723797328
1781789881.646446,0.05908203125,-0.08984375,0.9848632216453552,0.9907159790678439,0.6256103515625,-0.019073486328125,0.0247955322265625,0.6263919925104906
1781789881.654598,0.0624999962747097,-0.09326171875,0.9819335341453552,0.9883306446719794,0.5035400390625,0.102996826171875,0.0820159912109375,0.5204685772982419
1781789881.66275,0.0634765625,-0.0810546875,0.9838866591453552,0.9892583557376442,0.0171661376953125,0.1621246337890625,0.1468658447265625,0.21942800530437956
1781789881.670902,0.0654296875,-0.08935546875,0.9819335341453552,0.9881593541939819,0.1373291015625,0.102996826171875,0.2079010009765625,0.2696116736057612
1781789881.68144,0.068359375,-0.07958984375,0.9848632216453552,0.9904358195906527,-0.1049041748046875,0.1621246337890625,0.2079010009765625,0.28374655765268186
1781789881.691978,0.0712890625,-0.09130859375,0.9809569716453552,0.9877732381191331,0.1373291015625,0.041961669921875,0.3871917724609375,0.41296190204429056
1781789881.702516,0.07177734375,-0.09765625,0.9843749403953552,0.9918078208595793,0.1373291015625,-0.080108642578125,0.4520416259765625,0.47918504605966955
1781789881.713212,0.07763671875,-0.0966796875,0.9936522841453552,1.0013587188718367,0.2002716064453125,-0.0209808349609375,0.4520416259765625,0.4948641666148183
1781789881.723907,0.072265625,-0.0869140625,0.9868163466453552,0.9932687837757614,-0.225067138671875,-0.080108642578125,0.4520416259765625,0.5112868501547729
1781789881.734602,0.076171875,-0.095703125,0.9926757216453552,1.0001831487382238,0.0782012939453125,-0.1430511474609375,0.3299713134765625,0.36804910118360556
1781789881.745284,0.0732421875,-0.087890625,0.9780272841453552,0.9846961706665743,0.2002716064453125,0.1621246337890625,0.0247955322265625,0.258858902971913
1781789881.755964,0.07275390625,-0.08251953125,0.9887694716453552,0.9948706810285387,0.6256103515625,-0.324249267578125,0.0247955322265625,0.7050820646743923
1781789881.766644,0.07958984375,-0.08837890625,0.9887694716453552,0.9958968030654234,0.3833770751953125,-0.0209808349609375,0.1468658447265625,0.41108120069910414
1781789881.774638,0.07763671875,-0.09228515625,0.9882811903953552,0.9956122344826895,0.5035400390625,-0.141143798828125,0.2079010009765625,0.5627583576400753
1781789881.78263,0.08154296875,-0.08544921875,0.9755858778953552,0.9827098401290179,0.3833770751953125,0.0400543212890625,0.1468658447265625,0.4124947354651772
1781789881.790622,0.07568359375,-0.08740234375,0.9819335341453552,0.9887166639311262,0.3223419189453125,-0.0209808349609375,0.1468658447265625,0.3548437465874963
1781789881.798614,0.080078125,-0.08740234375,0.9995116591453552,1.0065163846475673,0.1983642578125,-0.263214111328125,-0.0362396240234375,0.33157707630220556
1781789881.809211,0.06201171875,-0.09130859375,0.9804686903953552,0.9866618293014656,0.2002716064453125,0.1621246337890625,0.2079010009765625,0.33108297968406714
1781789881.819808,0.080078125,-0.09033203125,0.9858397841453552,0.9932031322831333,-0.1049041748046875,0.3452301025390625,0.0820159912109375,0.37002071888597887
1781789881.830405,0.072265625,-0.08349609375,0.9848632216453552,0.9910345521614358,-0.041961669921875,-0.080108642578125,0.2079010009765625,0.2267178920275125
1781789881.841061,0.076171875,-0.0771484375,0.9838866591453552,0.9898419035350622,0.0782012939453125,0.1049041748046875,0.5130767822265625,0.5294979817960943
1781789881.851718,0.07373046875,-0.083984375,0.9921874403953552,0.9984615536636962,0.0152587890625,-0.568389892578125,0.3871917724609375,0.6879079657120338
1781789881.862375,0.06787109375,-0.08154296875,0.9956054091453552,1.001242164433198,0.0152587890625,-0.385284423828125,0.5130767822265625,0.6418136040535348
1781789881.870781,0.08251953125,-0.10107421875,0.9765624403953552,0.9852409201431771,0.1983642578125,-0.263214111328125,0.2689361572265625,0.4253900608189487
1781789881.879189,0.0791015625,-0.08740234375,0.9833983778953552,0.9904385879650239,0.1373291015625,-0.080108642578125,0.6351470947265625,0.6547430860202085
1781789881.887597,0.07763671875,-0.08447265625,0.9873046278953552,0.9939484483693222,0.1373291015625,-0.202178955078125,0.6351470947265625,0.6805493692246278
1781789881.896005,0.07666015625,-0.09619140625,0.9916991591453552,0.9992981479229467,0.3204345703125,-0.080108642578125,0.3871917724609375,0.5089333719933373
1781789881.903705,0.0791015625,-0.0888671875,0.9824218153953552,0.9895994429913585,0.2002716064453125,0.0400543212890625,0.5702972412109375,0.6057656381265941
1781789881.911405,0.0830078125,-0.0732421875,0.9873046278953552,0.9934913906166506,0.0152587890625,0.041961669921875,0.2079010009765625,0.2126415730597921
1781789881.919105,0.07568359375,-0.09814453125,0.9863280653953552,0.9940842056705969,0.1373291015625,0.225067138671875,0.4520416259765625,0.5233126509663634
1781789881.926805,0.076171875,-0.0810546875,0.9755858778953552,0.9819062185644764,-0.041961669921875,-0.080108642578125,0.3299713134765625,0.34213921738934
1781789881.93736,0.076171875,-0.09375,0.9921874403953552,0.9995134485935155,-0.0438690185546875,0.1621246337890625,0.4520416259765625,0.48223492126319883
1781789881.947915,0.08935546875,-0.083984375,0.9809569716453552,0.9885921076254347,0.0152587890625,-0.080108642578125,0.4520416259765625,0.45933849923003195
1781789881.95847,0.07421875,-0.0810546875,0.9912108778953552,0.9972849591141771,-0.1678466796875,0.102996826171875,0.2689361572265625,0.33332793274399913
1781789881.969102,0.07861328125,-0.0810546875,0.9995116591453552,1.0058695079989826,0.1373291015625,0.225067138671875,0.6961822509765625,0.7444355080332358
1781789881.979733,0.06884765625,-0.0859375,0.9819335341453552,0.9880884166695588,0.0152587890625,0.591278076171875,0.0247955322265625,0.5919944361424067
1781789881.990364,0.07275390625,-0.08935546875,0.9965819716453552,1.003221389763351,0.1983642578125,0.225067138671875,-0.1583099365234375,0.3392132540003468
1781789881.998364,0.060546875,-0.0859375,0.9868163466453552,0.9923999596861144,0.2002716064453125,0.3452301025390625,-0.1583099365234375,0.42936531770669667
1781789882.006366,0.0673828125,-0.0908203125,0.9809569716453552,0.9874539750300436,-0.1049041748046875,0.4673004150390625,0.0247955322265625,0.47957208238754995
1781789882.014368,0.083984375,-0.08447265625,0.9902343153953552,0.99737305171364,-0.225067138671875,0.102996826171875,-0.1010894775390625,0.26736238624859904
1781789882.02237,0.064453125,-0.083984375,0.9907225966453552,0.9963628074502388,0.1983642578125,0.102996826171875,-0.1010894775390625,0.2453075772333664
1781789882.033027,0.06787109375,-0.087890625,0.9809569716453552,0.9872222786937793,0.3814697265625,0.408172607421875,0.1468658447265625,0.5776621902812121
1781789882.043684,0.06591796875,-0.0712890625,0.9790038466453552,0.9838068107015,0.3814697265625,0.102996826171875,0.0247955322265625,0.39590695485624705
1781789882.054341,0.06640625,-0.07421875,0.9819335341453552,0.9869709612596576,0.2002716064453125,0.1621246337890625,-0.1010894775390625,0.2767890816100671
1781789882.062327,0.06396484375,-0.0869140625,0.9877929091453552,0.9936701599897523,0.1373291015625,0.225067138671875,0.2689361572265625,0.37661805016448535
1781789882.070314,0.06396484375,-0.09423828125,0.9731444716453552,0.9797869756140023,-0.041961669921875,0.225067138671875,0.1468658447265625,0.27200289520485654
1781789882.078301,0.06298828125,-0.09375,0.9941405653953552,1.00053588133531,0.2002716064453125,-0.2002716064453125,0.3299713134765625,0.43485457386788534
1781789882.086288,0.07421875,-0.083984375,0.9838866591453552,0.9902498453117332,-0.2899169921875,-0.080108642578125,-0.0362396240234375,0.3029563785829848
1781789882.09697,0.06640625,-0.09033203125,0.9946288466453552,1.0009276739544586,-0.1068115234375,-0.080108642578125,0.1468658447265625,0.1984834313034621
1781789882.107652,0.09423828125,-0.08935546875,0.9931640028953552,1.001618684977278,0.1373291015625,-0.141143798828125,0.0820159912109375,0.2133248154760956
1781789882.118334,0.0791015625,-0.1025390625,0.9814452528953552,0.9899525751060745,-0.041961669921875,0.041961669921875,0.1468658447265625,0.15840183026881838
1781789882.128995,0.080078125,-0.0859375,0.9765624403953552,0.9836015250093391,0.1373291015625,-0.263214111328125,0.0820159912109375,0.30800580084233903
1781789882.139656,0.0624999962747097,-0.08740234375,0.9770507216453552,0.9829412657402482,0.1373291015625,-0.385284423828125,-0.0362396240234375,0.4106296138004343
1781789882.150317,0.068359375,-0.09423828125,0.9838866591453552,0.9907506325244275,0.0782012939453125,-0.2002716064453125,0.0820159912109375,0.23011036816540859
1781789882.158332,0.0703125,-0.0859375,0.9863280653953552,0.9925583882820417,-0.1049041748046875,0.1049041748046875,0.1468658447265625,0.20875667206140175
1781789882.166345,0.06640625,-0.0966796875,0.9882811903953552,0.9952167921128645,0.1373291015625,-0.202178955078125,-0.1010894775390625,0.26448949786629816
1781789882.174358,0.0830078125,-0.0966796875,0.9887694716453552,0.9969465015581166,0.0782012939453125,-0.1430511474609375,0.0247955322265625,0.1649057051257189
1781789882.182371,0.08251953125,-0.08642578125,0.9780272841453552,0.985300084865079,0.0782012939453125,-0.1430511474609375,0.0247955322265625,0.1649057051257189
1781789882.193024,0.07470703125,-0.0869140550494194,0.9814452528953552,0.9881143546746751,-0.0438690185546875,0.1621246337890625,0.1468658447265625,0.22311087830367193
1781789882.203677,0.07177734375,-0.0810546875,0.9853515028953552,0.9912817125820811,-0.1678466796875,-0.080108642578125,-0.0362396240234375,0.18948143140473717
1781789882.21433,0.068359375,-0.09423828125,0.9848632216453552,0.9917204359863786,-0.1678466796875,0.225067138671875,-0.1010894775390625,0.29840711663964026
1781789882.225116,0.083984375,-0.087890625,0.9980468153953552,1.0054230865301639,-0.2899169921875,0.408172607421875,-0.0362396240234375,0.5019661842773666
1781789882.235903,0.06884765625,-0.0791015625,0.9897460341453552,0.9952860237477055,0.1373291015625,0.286102294921875,0.0247955322265625,0.31832157280637685
1781789882.24669,0.07470703125,-0.0888671875,0.9794921278953552,0.9863484912247392,0.0152587890625,0.041961669921875,0.0247955322265625,0.051072799068435225
1781789882.254669,0.07763671875,-0.0830078125,0.9892577528953552,0.9957653632748377,0.2002716064453125,0.1621246337890625,0.0820159912109375,0.270406612426058
1781789882.262648,0.08056640625,-0.10009765625,0.9804686903953552,0.9888525367557925,0.1373291015625,-0.141143798828125,0.1468658447265625,0.24566324599102005
1781789882.270627,0.0703125,-0.0888671875,0.9833983778953552,0.9899058512392106,0.3204345703125,0.041961669921875,0.0820159912109375,0.33341523421748664
1781789882.278606,0.078125,-0.0908203125,0.9902343153953552,0.9974546827671448,0.0152587890625,0.041961669921875,0.0247955322265625,0.051072799068435225
1781789882.289183,0.07763671875,-0.09130859375,0.9814452528953552,0.9887363166293109,0.0171661376953125,-0.1430511474609375,0.2079010009765625,0.25294492143611413
1781789882.29976,0.07177734375,-0.083984375,0.9873046278953552,0.9934665523224887,0.0782012939453125,-0.2002716064453125,0.2079010009765625,0.2990768879903025
1781789882.310337,0.08154296875,-0.09619140625,0.9916991591453552,0.9996845825751843,0.0782012939453125,-0.0209808349609375,0.2079010009765625,0.22311087830367193
1781789882.321061,0.06982421875,-0.08837890625,0.9843749403953552,0.990797797672337,0.5054473876953125,-0.0209808349609375,0.5130767822265625,0.7205310830378083
1781789882.331788,0.07373046875,-0.09326171875,0.9912108778953552,0.9983150478002321,0.7495880126953125,0.1621246337890625,0.6961822509765625,1.0357781192091957
1781789882.342515,0.07080078125,-0.0986328125,0.9951171278953552,1.0024965239630366,0.9918212890625,0.041961669921875,0.6351470947265625,1.178508414530768
1781789882.353107,0.07763671875,-0.10107421875,0.9912108778953552,0.999371033326597,0.7495880126953125,-0.0209808349609375,0.8754730224609375,1.152725204577854
1781789882.363701,0.07568359375,-0.091796875,0.9824218153953552,0.9895995634535143,0.7495880126953125,0.2880096435546875,0.5130767822265625,0.952932068941417
1781789882.374295,0.07763671875,-0.09326171875,0.9853515028953552,0.9927954434527819,0.751495361328125,0.591278076171875,0.1468658447265625,0.9674319706348604
1781789882.382284,0.08251953125,-0.09423828125,0.9912108778953552,0.999094255387726,0.4444122314453125,0.9555816650390625,-0.1010894775390625,1.058705640150344
1781789882.390273,0.076171875,-0.0849609375,0.9760741591453552,0.9827213641685046,0.0782012939453125,1.0166168212890625,-0.1583099365234375,1.0318368280424253
1781789882.398262,0.06787109375,-0.08837890625,0.9760741591453552,0.9824144138743486,-0.2880096435546875,0.9555816650390625,-0.6465911865234375,1.1891871323846015
1781789882.406251,0.07421875,-0.0849609375,0.9824218153953552,0.9888778524757984,-0.2880096435546875,0.8335113525390625,-0.3414154052734375,0.9456506799817896
1781789882.416927,0.06787109375,-0.080078125,0.9633788466453552,0.9690809014907227,-0.530242919921875,0.530242919921875,-0.2803802490234375,0.8005799100008673
1781789882.427603,0.07275390625,-0.0869140625,0.9882811903953552,0.9947597179340084,-0.7781982421875,0.591278076171875,-0.4634857177734375,1.0816752183928349
1781789882.438279,0.06298828125,-0.087890625,0.9760741591453552,0.9820453399355001,-1.1444091796875,0.408172607421875,-0.5245208740234375,1.3234044715388034
1781789882.449001,0.07177734375,-0.09814453125,0.9926757216453552,1.0000947077323301,-0.9613037109375,0.102996826171875,-0.2803802490234375,1.0066410755110944
1781789882.459723,0.06591796875,-0.09033203125,0.9829100966453552,0.9892508845390326,-0.8983612060546875,0.1621246337890625,-0.2193450927734375,0.9388554325076136
1781789882.470445,0.07275390625,-0.09130859375,0.9838866591453552,0.9907892551957983,-0.7781982421875,0.408172607421875,-0.1010894775390625,0.8845430820838562
1781789882.478403,0.0751953125,-0.0888671875,0.9936522841453552,1.0004481864761485,-0.2880096435546875,0.5283355712890625,0.0247955322265625,0.6022481623784639
1781789882.486359,0.0673828125,-0.08740234375,0.9960936903953552,1.0021887313070532,0.1983642578125,0.286102294921875,0.0247955322265625,0.3490239538419477
1781789882.494315,0.076171875,-0.1015625,0.9887694716453552,0.9968862342339273,0.263214111328125,-0.080108642578125,-0.2193450927734375,0.3518683457512941
1781789882.502271,0.07275390625,-0.08642578125,0.9892577528953552,0.9956874249496548,0.5035400390625,-0.080108642578125,0.2689361572265625,0.5764517518566182
1781789882.5103,0.0654296875,-0.0849609375,0.9790038466453552,0.9848593486653964,0.5664825439453125,-0.3261566162109375,0.2689361572265625,0.706829022859639
1781789882.518329,0.06884765625,-0.0869140625,0.9814452528953552,0.9876886343692529,0.3833770751953125,-0.3833770751953125,0.2689361572265625,0.6052128718347082
1781789882.526358,0.06982421875,-0.09375,0.9877929091453552,0.994685535926753,0.6885528564453125,-0.3261566162109375,0.5130767822265625,0.918548288810736
1781789882.534387,0.0751953125,-0.0888671875,0.9731444716453552,0.9800825856681927,0.263214111328125,-0.568389892578125,0.4520416259765625,0.7724573580481718
1781789882.545049,0.08154296875,-0.09375,0.9912108778953552,0.9989681289764175,0.4444122314453125,-0.2002716064453125,0.3871917724609375,0.6225178041372235
1781789882.555711,0.072265625,-0.08251953125,0.9916991591453552,0.997746969849553,0.6256103515625,-0.507354736328125,0.2689361572265625,0.8491900830323718
1781789882.566373,0.07177734375,-0.09423828125,0.9941405653953552,1.0011734637381058,0.0152587890625,-0.202178955078125,0.1468658447265625,0.25035721852461756
1781789882.577021,0.080078125,-0.09375,0.9814452528953552,0.9891594174016357,0.3204345703125,-0.263214111328125,0.2689361572265625,0.494253618011443
1781789882.587669,0.078125,-0.0869140625,0.9946288466453552,1.0014709743493935,0.0782012939453125,-0.2002716064453125,0.2689361572265625,0.3443120900966123
1781789882.598317,0.06787109375,-0.08447265625,0.9829100966453552,0.9888651946085136,-0.225067138671875,0.102996826171875,0.0820159912109375,0.26074927790070107
1781789882.606388,0.07666015625,-0.09814453125,0.9902343153953552,0.9980346326441104,-0.2880096435546875,-0.1430511474609375,0.1468658447265625,0.35352901142287574
1781789882.614459,0.07763671875,-0.0830078125,0.9843749403953552,0.9909146180739594,-0.2880096435546875,-0.1430511474609375,0.0247955322265625,0.3225337253509895
1781789882.62253,0.0791015625,-0.0947265625,0.9746093153953552,0.9823917225264119,-0.2880096435546875,-0.2002716064453125,0.1468658447265625,0.38029968114098
1781789882.630601,0.07568359375,-0.07275390625,0.9848632216453552,0.9904426801118866,-0.041961669921875,0.102996826171875,-0.1010894775390625,0.1502937470862725
1781789882.641347,0.0732421875,-0.08642578125,0.9960936903953552,1.0025150740711561,0.0782012939453125,0.4673004150390625,0.1468658447265625,0.4960390071533165
1781789882.652093,0.09033203125,-0.0859375,0.9926757216453552,1.0004749962493453,-0.1068115234375,0.408172607421875,-0.1583099365234375,0.45063911835377374
1781789882.662839,0.0751953125,-0.08642578125,0.9907225966453552,0.9973239264102515,0.4444122314453125,0.4673004150390625,-0.2193450927734375,0.6811638415812087
1781789882.671271,0.072265625,-0.08837890625,0.9931640028953552,0.9997039002993396,0.1983642578125,0.408172607421875,-0.1010894775390625,0.4649433714939882
1781789882.679701,0.0751953125,-0.09521484375,0.9882811903953552,0.9957007144627195,0.3223419189453125,0.4673004150390625,-0.1583099365234375,0.5893522093002462
1781789882.688131,0.0673828125,-0.0751953125,0.9902343153953552,0.9953686642791658,0.3833770751953125,0.7114410400390625,-0.0362396240234375,0.8089744406262384
1781789882.696561,0.0732421875,-0.08349609375,0.9819335341453552,0.9881950623133479,0.3223419189453125,0.1621246337890625,-0.1583099365234375,0.3940187122366638
1781789882.704792,0.07275390625,-0.07568359375,0.9838866591453552,0.9894716242933687,0.446319580078125,0.102996826171875,0.2079010009765625,0.5030232002300191
1781789882.713023,0.07373046875,-0.095703125,0.9858397841453552,0.9932146546243772,-0.2269744873046875,-0.2002716064453125,0.3871917724609375,0.49147085660988515
1781789882.721254,0.0732421875,-0.0849609375,0.9912108778953552,0.9975378606292319,-0.041961669921875,0.225067138671875,0.1468658447265625,0.27200289520485654
1781789882.729485,0.0771484375,-0.1005859375,0.9755858778953552,0.983787180939199,-0.2899169921875,0.102996826171875,0.1468658447265625,0.3409248962862248
1781789882.74068,0.0751953125,-0.091796875,0.9858397841453552,0.9929557297712214,-0.1049041748046875,0.0400543212890625,0.2079010009765625,0.236288088469217
1781789882.751875,0.07373046875,-0.07666015625,0.9819335341453552,0.9876772889246551,-0.3490447998046875,-0.0209808349609375,0.1468658447265625,0.3792651368813106
1781789882.76307,0.0791015625,-0.0859375,0.9833983778953552,0.9903103961604196,-0.225067138671875,-0.080108642578125,0.0247955322265625,0.24018207665030564
1781789882.774265,0.06982421875,-0.0961913987994194,0.9804686903953552,0.9876472343770419,-0.1659393310546875,-0.0209808349609375,0.3299713134765625,0.36994205592765894
1781789882.784924,0.0771484375,-0.08203125,0.9946288466453552,1.0009832915510246,-0.041961669921875,0.102996826171875,-0.1583099365234375,0.1934713517453337
1781789882.795585,0.06787109375,-0.1015625,0.9838866591453552,0.9914405604055544,-0.0438690185546875,-0.0209808349609375,-0.0362396240234375,0.06064648855432375
1781789882.806247,0.06982421875,-0.08447265625,0.9965819716453552,1.0025899846829323,0.1983642578125,-0.263214111328125,-0.5245208740234375,0.6194773558945229
1781789882.814252,0.08203125,-0.0830078125,0.9853515028953552,0.9922383822301639,0.3833770751953125,0.0400543212890625,-0.2803802490234375,0.47665020138638836
1781789882.822259,0.080078125,-0.09375,0.9916991591453552,0.999334173764272,0.3204345703125,-0.080108642578125,-0.4062652587890625,0.5235906501896402
1781789882.830266,0.0693359375,-0.09326171875,0.9873046278953552,0.994120540315305,0.6866455078125,-0.385284423828125,-0.1010894775390625,0.7938168700101913
1781789882.838273,0.07373046875,-0.09228515625,0.9824218153953552,0.9894975267532946,0.3204345703125,-0.141143798828125,-0.1010894775390625,0.3644433677104186
1781789882.848962,0.07080078125,-0.0888671875,0.9897460341453552,0.9962466259647905,0.0782012939453125,0.0400543212890625,0.0820159912109375,0.12019323542929192
1781789882.859651,0.06787109375,-0.08984375,0.9907225966453552,0.9971006209428409,0.3833770751953125,0.0400543212890625,0.2079010009765625,0.43795565602729275
1781789882.87034,0.0620117224752903,-0.09423828125,0.9814452528953552,0.9879074307890058,0.3204345703125,0.041961669921875,0.4520416259765625,0.555680418234729
1781789882.878353,0.07421875,-0.0966796800494194,0.9804686903953552,0.9880153016181498,0.1373291015625,-0.080108642578125,0.2689361572265625,0.3124153219921577
1781789882.886368,0.0712890625,-0.09228515625,0.9838866591453552,0.9907732528386222,-0.1678466796875,0.041961669921875,0.6351470947265625,0.6582895423476994
1781789882.894383,0.072265625,-0.083984375,0.9819335341453552,0.9881645416022419,-0.4711151123046875,-0.0209808349609375,0.5702972412109375,0.7400193158359603
1781789882.902398,0.07177734375,-0.08056640625,0.9677733778953552,0.9737701185879714,-0.4100799560546875,-0.2002716064453125,0.3299713134765625,0.563165476945674
1781789882.913097,0.0620117224752903,-0.0966796875,0.9907225966453552,0.997358350445398,-0.1659393310546875,0.1621246337890625,0.3871917724609375,0.4513731573028653
1781789882.923796,0.08154296875,-0.087890625,0.9887694716453552,0.9960115891761948,-0.2880096435546875,0.0400543212890625,0.4520416259765625,0.5374900325121946
1781789882.934495,0.072265625,-0.0830078125,0.9951171278953552,1.0011846561565836,-0.0438690185546875,-0.0209808349609375,0.3871917724609375,0.3902334620276073
1781789882.945233,0.072265625,-0.0888671875,0.9916991591453552,0.9982920012803896,0.1983642578125,0.102996826171875,0.2079010009765625,0.3052532574536102
1781789882.95597,0.07568359375,-0.1044921875,0.9794921278953552,0.9879531629689846,0.0152587890625,0.041961669921875,0.1468658447265625,0.15350305773349607
1781789882.966707,0.06689453125,-0.09375,0.9838866591453552,0.9906043099317535,0.3204345703125,-0.202178955078125,-0.1010894775390625,0.39213993190818963
1781789882.974629,0.07177734375,-0.09228515625,0.9912108778953552,0.9980819313052277,0.2613067626953125,0.2231597900390625,0.0820159912109375,0.3532819538766386
1781789882.982551,0.0595703125,-0.0961913987994194,0.9912108778953552,0.997647438623694,0.2613067626953125,0.0400543212890625,0.1468658447265625,0.3024155241244711
1781789882.990473,0.06640625,-0.0810546875,0.9770507216453552,0.9826534308048258,0.3204345703125,0.286102294921875,0.0820159912109375,0.4373322076239442
1781789882.998395,0.07861328125,-0.091796875,0.9868163466453552,0.9941897285001204,0.2613067626953125,0.0400543212890625,0.3871917724609375,0.46883157055138064
1781789883.009027,0.06396484375,-0.09130859375,0.9863280653953552,0.9926085900873055,0.446319580078125,0.286102294921875,-0.1583099365234375,0.5532790676708564
1781789883.019659,0.0810546875,-0.10205078125,0.9892577528953552,0.9978051543177283,0.446319580078125,0.225067138671875,0.0247955322265625,0.5004709810662925
1781789883.030291,0.0712890625,-0.076171875,0.9887694716453552,0.9942581923378753,0.0782012939453125,0.3452301025390625,0.2079010009765625,0.4105144239620691
1781789883.041146,0.0791015625,-0.0917968675494194,0.9824218153953552,0.9898668321782139,0.2002716064453125,0.1621246337890625,-0.1010894775390625,0.2767890816100671
1781789883.052001,0.07861328125,-0.09130859375,0.9941405653953552,1.0014153838672994,0.3223419189453125,0.1621246337890625,-0.1583099365234375,0.3940187122366638
1781789883.062856,0.07763671875,-0.080078125,0.9877929091453552,0.9940698152341345,0.0152587890625,0.286102294921875,-0.1583099365234375,0.32733681400855635
1781789883.071075,0.06884765625,-0.0751953125,0.9868163466453552,0.9920689677636211,0.2002716064453125,0.1621246337890625,-0.1583099365234375,0.3024155241244711
1781789883.079295,0.0546875,-0.09423828125,0.9848632216453552,0.9908719098142162,-0.263214111328125,0.186920166015625,0.0057220458984375,0.32288319664365817
1781789883.087515,0.06982421875,-0.09814453125,0.9829100966453552,0.9902626058908373,-0.324249267578125,0.308990478515625,0.0057220458984375,0.4479346438349341
1781789883.095735,0.08642578125,-0.09228515625,0.9780272841453552,0.9861659770350523,0.041961669921875,0.370025634765625,0.0057220458984375,0.37244126239663605
1781789883.106427,0.0620117224752903,-0.087890625,0.9838866591453552,0.98974904583508,-0.080108642578125,0.370025634765625,-0.3032684326171875,0.48508566998160135
1781789883.117119,0.0693359375,-0.09716796875,0.9799804091453552,0.9872237277784113,-0.1430511474609375,-0.0591278076171875,0.0057220458984375,0.1548950297226152
1781789883.127811,0.07080078125,-0.0810546875,0.9760741591453552,0.9819894995073243,0.0400543212890625,-0.0591278076171875,-0.0553131103515625,0.09033264340373702
1781789883.135593,0.080078125,-0.09521484375,0.9858397841453552,0.9936591229277841,-0.1430511474609375,-0.2422332763671875,-0.3604888916015625,0.4572666967291585
1781789883.143374,0.06787109375,-0.087890625,0.9829100966453552,0.9891630327792752,-0.1430511474609375,-0.4863739013671875,-0.3032684326171875,0.5907579410749508
1781789883.151155,0.07568359375,-0.09033203125,0.9770507216453552,0.9841321023624702,-0.263214111328125,0.003814697265625,-0.2384185791015625,0.35516142692906694
1781789883.158936,0.06640625,-0.0859375,0.9853515028953552,0.9913186310180232,0.102996826171875,-0.423431396484375,-0.1201629638671875,0.4520416259765625
1781789883.169425,0.0693359375,-0.08740234375,0.9897460341453552,0.9960139828478592,-0.019073486328125,-0.179290771484375,-0.0553131103515625,0.1885961791684436
1781789883.179914,0.07373046875,-0.08544921875,0.9873046278953552,0.9937344611467723,-0.202178955078125,-0.545501708984375,-0.1773834228515625,0.6082050008705062
1781789883.190403,0.07421875,-0.08544921875,0.9819335341453552,0.9884348523376416,0.164031982421875,-0.301361083984375,-0.1201629638671875,0.36354385166419034
1781789883.201045,0.0810546875,-0.0732421875,0.9965819716453552,1.002551697721395,0.164031982421875,-0.545501708984375,-0.1773834228515625,0.5966099936010629
1781789883.211687,0.060546875,-0.09033203125,0.9658202528953552,0.971923124966612,-0.019073486328125,-0.301361083984375,0.1888275146484375,0.3561434136822589
1781789883.222329,0.072265625,-0.09326171875,0.9926757216453552,0.9996625215966494,-0.080108642578125,-0.362396240234375,0.0629425048828125,0.37644413725364817
1781789883.23033,0.07763671875,-0.08837890625,0.9765624403953552,0.9836221282378435,0.102996826171875,-0.179290771484375,0.1888275146484375,0.2800167088393971
1781789883.238333,0.07861328125,-0.08203125,0.9843749403953552,0.990910287182353,-0.080108642578125,-0.118255615234375,0.3108978271484375,0.34213921738934
1781789883.246336,0.06591796875,-0.08203125,0.9770507216453552,0.982701591149825,0.164031982421875,-0.179290771484375,0.2498626708984375,0.3485441525907637
1781789883.254339,0.072265625,-0.09423828125,0.9790038466453552,0.9861803617777009,-0.202178955078125,0.064849853515625,0.0629425048828125,0.22145787928724364
1781789883.264993,0.06787109375,-0.09375,0.9887694716453552,0.9955202739897647,0.164031982421875,0.003814697265625,0.3681182861328125,0.4030286785798721
1781789883.275647,0.06494140625,-0.10400390625,0.9775390028953552,0.9851988129015542,0.102996826171875,0.064849853515625,0.1277923583984375,0.1764787142051759
1781789883.286301,0.0673828125,-0.083984375,0.9848632216453552,0.9907317417011624,-0.0820159912109375,-0.0591278076171875,0.0057220458984375,0.10126925622908237
1781789883.296972,0.083984375,-0.09033203125,0.9819335341453552,0.9896497949239818,-0.385284423828125,0.186920166015625,0.0629425048828125,0.43283368009987616
1781789883.307643,0.07958984375,-0.08984375,0.9692382216453552,0.9766417833271638,-0.019073486328125,0.003814697265625,-0.1201629638671875,0.12172710331427651
1781789883.318314,0.07763671875,-0.07080078125,0.9794921278953552,0.9851116887606439,0.102996826171875,-0.057220458984375,-0.1201629638671875,0.16829041866133967
1781789883.32631,0.07568359375,-0.0869140625,0.9804686903953552,0.9872187769024412,-0.019073486328125,0.064849853515625,-0.0553131103515625,0.08734323991283655
1781789883.334307,0.07666015625,-0.0830078125,0.9746093153953552,0.9811372962780044,-0.263214111328125,0.003814697265625,-0.2384185791015625,0.35516142692906694
1781789883.342304,0.06494140625,-0.10009765625,0.9848632216453552,0.992064762191531,-0.385284423828125,-0.057220458984375,-0.3032684326171875,0.49364968387819147
1781789883.350301,0.07080078125,-0.08837890625,0.9711913466453552,0.9777710434935037,-0.1430511474609375,0.3719329833984375,-0.6084442138671875,0.7273253304526202
1781789883.361061,0.0751953125,-0.08837890625,0.9863280653953552,0.9931305144231866,-0.324249267578125,0.370025634765625,-0.2384185791015625,0.546717456067997
1781789883.371821,0.0771484375,-0.08203125,0.9736327528953552,0.9801233314720356,-0.324249267578125,0.125885009765625,-0.1201629638671875,0.36799967539929845
1781789883.382581,0.06689453125,-0.08349609375,0.9946288466453552,1.0003664421409464,0.0400543212890625,-0.1811981201171875,0.0057220458984375,0.18566057523662363
1781789883.390522,0.0888671875,-0.08642578125,0.9750975966453552,0.982945632098938,-0.1430511474609375,0.0019073486328125,-0.2384185791015625,0.2780479951905893
1781789883.398463,0.072265625,-0.0888671875,0.9877929091453552,0.9944116496344182,-0.202178955078125,0.064849853515625,-0.1773834228515625,0.27667076477289165
1781789883.406404,0.0712890625,-0.0927734375,1.00244140625,1.009246161301678,0.164031982421875,-0.118255615234375,-0.1201629638671875,0.23522333999213993
1781789883.414345,0.06689453125,-0.0888671875,0.9799804091453552,0.9862727095656735,0.164031982421875,-0.362396240234375,-0.1201629638671875,0.4155438172787656
1781789883.424053,0.07177734375,-0.08154296875,0.9838866591453552,0.9898657489137492,-0.019073486328125,-0.362396240234375,-0.0553131103515625,0.3670890532193573
1781789883.433759,0.076171875,-0.095703125,0.9790038466453552,0.9866153122783892,-0.202178955078125,-0.423431396484375,0.1277923583984375,0.48631405929730753
1781789883.443465,0.06494140625,-0.0849609375,0.9736327528953552,0.9794878685605015,0.164031982421875,-0.301361083984375,0.1888275146484375,0.39163864018479294
1781789883.453171,0.0712890625,-0.08544921875,0.9687499403953552,0.9751205804581906,0.0400543212890625,-0.3643035888671875,0.1888275146484375,0.41228301420716584
1781789883.462877,0.0654296875,-0.095703125,0.9750975966453552,0.981965098730429,0.225067138671875,-0.179290771484375,0.4940032958984375,0.5716989190193791
1781789883.472368,0.06591796875,-0.09765625,0.9970702528953552,1.0040074755583228,0.3452301025390625,-0.1163482666015625,0.3108978271484375,0.478934444121468
1781789883.481859,0.07177734375,-0.0703125,0.9892577528953552,0.9943473922104001,0.652313232421875,-0.301361083984375,0.3108978271484375,0.7829358307412763
1781789883.49135,0.0732421875,-0.0869140625,1.0009765625,1.0074088301004491,0.713348388671875,-0.179290771484375,0.1888275146484375,0.7593858931060865
1781789883.500841,0.072265625,-0.095703125,0.9848632216453552,0.992137578182116,0.530242919921875,0.003814697265625,-0.0553131103515625,0.5331337976711554
1781789883.510332,0.07861328125,-0.09130859375,1.0009765625,1.0082020561156433,0.469207763671875,0.247955322265625,-0.1201629638671875,0.5441294930576351
1781789883.518797,0.07421875,-0.0859375,0.9863280653953552,0.9928427515696313,0.102996826171875,0.553131103515625,0.0057220458984375,0.5626678466796875
1781789883.527265,0.0595703125,-0.0917968675494194,0.9770507216453552,0.9831599054533005,-0.080108642578125,0.553131103515625,-0.4253387451171875,0.7023421248864307
1781789883.535733,0.07958984375,-0.08056640625,0.9687499403953552,0.9753470849191039,-0.5702972412109375,0.7343292236328125,-0.3032684326171875,0.9779826656112371
1781789883.544201,0.06591796875,-0.09521484375,0.9790038466453552,0.9858293852492251,-0.507354736328125,0.553131103515625,-0.3032684326171875,0.8095273858079662
1781789883.552669,0.0703125,-0.0869140625,0.9824218153953552,0.9887621176406433,-0.812530517578125,0.492095947265625,-0.4825592041015625,1.0654706231399165
1781789883.561137,0.0634765625,-0.09326171875,0.9829100966453552,0.9893630679676708,-0.751495361328125,0.064849853515625,-0.1201629638671875,0.7637996592589147
1781789883.570205,0.07275390625,-0.09912109375,0.9902343153953552,0.9978387251892652,-0.995635986328125,0.125885009765625,-0.2384185791015625,1.031494775467175
1781789883.579273,0.08056640625,-0.09130859375,0.9750975966453552,0.9826716278046245,-0.995635986328125,0.125885009765625,-0.0553131103515625,1.0050858635619317
1781789883.588341,0.07568359375,-0.091796875,0.9838866591453552,0.991053798068949,-1.0585784912109375,-0.0591278076171875,-0.4825592041015625,1.1648810691015514
1781789883.597409,0.08154296875,-0.087890625,0.9853515028953552,0.9926185581448643,-0.812530517578125,-0.179290771484375,0.0629425048828125,0.834453582685197
1781789883.606477,0.06298828125,-0.0927734375,0.9833983778953552,0.9897710866294345,-0.690460205078125,-0.057220458984375,-0.2384185791015625,0.7327024597909556
1781789883.617113,0.0673828125,-0.0859375,0.9926757216453552,0.9986645010566797,-0.568389892578125,0.064849853515625,-0.1201629638671875,0.5845611271469542
1781789883.627749,0.072265625,-0.0927734375,0.9785155653953552,0.9855566665510405,-0.019073486328125,-0.118255615234375,0.1888275146484375,0.22361578366357682
1781789883.638385,0.076171875,-0.08642578125,0.9892577528953552,0.9959430063358325,-0.202178955078125,-0.118255615234375,0.0057220458984375,0.23429353857972024
1781789883.646375,0.07470703125,-0.08349609375,0.9790038466453552,0.9853939668660954,0.5283355712890625,-0.3643035888671875,0.0629425048828125,0.644839002908304
1781789883.654367,0.06201171875,-0.09033203125,0.9970702528953552,1.003072489075883,0.3452301025390625,-0.2994537353515625,0.0629425048828125,0.4613221458331023
1781789883.662359,0.0849609375,-0.0810546875,1.005859375,1.012690133032801,0.5283355712890625,-0.6694793701171875,0.3108978271484375,0.9077436652643002
1781789883.670351,0.08203125,-0.0849609375,0.9858397841453552,0.9928884967010153,0.3452301025390625,-0.3643035888671875,0.2498626708984375,0.560653442751532
1781789883.681111,0.07470703125,-0.09033203125,0.9838866591453552,0.9908450809446187,0.286102294921875,-0.362396240234375,0.2498626708984375,0.5249922974711869
1781789883.691871,0.07421875,-0.09228515625,0.9785155653953552,0.985655966672267,-0.019073486328125,-0.423431396484375,0.0057220458984375,0.42389938336671473
1781789883.702631,0.078125,-0.08935546875,0.9882811903953552,0.9953831557293867,0.286102294921875,-0.240325927734375,0.1277923583984375,0.39489487406901885
1781789883.713196,0.07080078125,-0.0888671875,0.9814452528953552,0.9880004615740816,-0.1430511474609375,0.1239776611328125,0.3681182861328125,0.41393859911249226
1781789883.723763,0.0634765625,-0.09619140625,0.9770507216453552,0.9838242593526947,-0.507354736328125,0.064849853515625,0.0629425048828125,0.5153407522178914
1781789883.73433,0.0673828125,-0.0810546875,0.9941405653953552,0.9997128435459501,-0.5702972412109375,-0.0591278076171875,0.0629425048828125,0.5767987516346964
1781789883.744991,0.0771484375,-0.08984375,0.9731444716453552,0.98032338721295,-0.202178955078125,-0.179290771484375,0.0057220458984375,0.2702855016925782
1781789883.755655,0.0830078125,-0.087890625,0.9853515028953552,0.9927399675428914,-0.202178955078125,0.247955322265625,0.2498626708984375,0.4059427620057208
1781789883.766319,0.07373046875,-0.09814453125,0.9931640028953552,1.0007213736517784,0.225067138671875,0.186920166015625,0.2498626708984375,0.38474110734590694
1781789883.774307,0.08251953125,-0.09326171875,0.9882811903953552,0.9960958450426265,-0.080108642578125,0.125885009765625,0.1277923583984375,0.1964569091796875
1781789883.782296,0.068359375,-0.09521484375,0.9873046278953552,0.9942380494048261,-0.019073486328125,0.247955322265625,0.0057220458984375,0.24875365631448101
1781789883.790285,0.07275390625,-0.1015625,0.9946288466453552,1.0024443200796507,0.225067138671875,0.370025634765625,0.1277923583984375,0.45155849472541587
1781789883.798274,0.07763671875,-0.07666015625,0.9956054091453552,1.0015659590731063,0.3452301025390625,0.6122589111328125,-0.1201629638671875,0.7130805956173648
1781789883.808962,0.0712890625,-0.08642578125,0.9858397841453552,0.9921852781111814,0.286102294921875,0.247955322265625,-0.1773834228515625,0.4180923865630056
1781789883.81965,0.0605468787252903,-0.091796875,0.9897460341453552,0.9958362329668464,0.408172607421875,0.308990478515625,-0.0553131103515625,0.5149170160711832
1781789883.830338,0.06884765625,-0.08251953125,0.9921874403953552,0.9979906761524,0.2231597900390625,0.1239776611328125,-0.1773834228515625,0.31086272059025855
1781789883.840984,0.07177734375,-0.08642578125,0.9882811903953552,0.9946462255645164,0.164031982421875,-0.057220458984375,-0.0553131103515625,0.1823189851891376
1781789883.851629,0.06103515625,-0.08935546875,0.9897460341453552,0.9956439635735521,-0.080108642578125,-0.118255615234375,0.1277923583984375,0.19165769490214846
1781789883.862274,0.068359375,-0.09375,0.9819335341453552,0.9887646495145234,0.225067138671875,0.064849853515625,0.2498626708984375,0.34247930553457373
1781789883.870298,0.06396484375,-0.07958984375,0.9790038466453552,0.9843142669953096,0.102996826171875,0.003814697265625,0.1277923583984375,0.16417607920078522
1781789883.878322,0.072265625,-0.083984375,0.9741210341453552,0.9804016957172186,-0.324249267578125,-0.057220458984375,0.1277923583984375,0.3531892627421844
1781789883.886346,0.07177734375,-0.07958984375,0.9775390028953552,0.983396681144288,-0.019073486328125,-0.484466552734375,0.0057220458984375,0.48487563396019595
1781789883.89437,0.07861328125,-0.0927734375,0.9780272841453552,0.9855578761428461,-0.3871917724609375,-0.2422332763671875,0.3108978271484375,0.5524960522634025
1781789883.905208,0.080078125,-0.08837890625,0.9848632216453552,0.9920579128877155,-0.446319580078125,-0.301361083984375,0.0057220458984375,0.5385651421236016
1781789883.916046,0.06787109375,-0.0849609375,0.9897460341453552,0.9957017918906036,-0.6313323974609375,-0.1163482666015625,-0.2384185791015625,0.6848072240315309
1781789883.926884,0.0624999962747097,-0.0927734375,0.9897460341453552,0.9960473745492048,-0.385284423828125,-0.118255615234375,0.0057220458984375,0.40306478336403273
1781789883.934771,0.07861328125,-0.08935546875,0.9960936903953552,1.0031784925076204,-0.202178955078125,0.064849853515625,-0.3604888916015625,0.41837073791746426
1781789883.94266,0.0703125,-0.08935546875,0.9829100966453552,0.9894647570980807,0.0400543212890625,-0.0591278076171875,-0.4253387451171875,0.4312928174516779
1781789883.950549,0.07763671875,-0.0986328125,0.9902343153953552,0.9981582495708957,0.102996826171875,-0.118255615234375,0.0629425048828125,0.16898075528551426
1781789883.958438,0.0673828125,-0.09228515625,0.9970702528953552,1.0035965736755506,0.225067138671875,0.064849853515625,-0.1773834228515625,0.29381218339864545
1781789883.969101,0.06884765625,-0.08984375,0.9912108778953552,0.9976526969057226,0.225067138671875,0.064849853515625,-0.3032684326171875,0.3831872422628768
1781789883.979764,0.07177734375,-0.0888671875,0.9799804091453552,0.9866159163517806,-0.080108642578125,0.003814697265625,-0.1773834228515625,0.19467106932842992
1781789883.990427,0.0673828125,-0.08935546875,0.9780272841453552,0.9844095752016443,-0.0820159912109375,-0.2422332763671875,0.1277923583984375,0.28589240958607054
1781789884.001061,0.076171875,-0.0908203125,0.9892577528953552,0.9963339728058965,0.286102294921875,-0.118255615234375,0.0057220458984375,0.3096314833851492
1781789884.011694,0.064453125,-0.09423828125,0.9931640028953552,0.9997048542556672,-0.019073486328125,-0.240325927734375,0.1888275146484375,0.3062289661518046
1781789884.022327,0.0712890625,-0.08935546875,0.9887694716453552,0.9953550111821893,-0.385284423828125,-0.179290771484375,0.2498626708984375,0.49297121852348896
1781789884.03056,0.068359375,-0.09716796875,0.9931640028953552,1.000244647548047,-0.202178955078125,-0.118255615234375,0.1277923583984375,0.26681755428752757
1781789884.038793,0.07666015625,-0.10400390625,0.9833983778953552,0.9918497677162349,-0.3223419189453125,-0.2422332763671875,0.3108978271484375,0.5091549192677494
1781789884.047026,0.08642578125,-0.09033203125,0.9868163466453552,0.9947038722860737,0.0400543212890625,-0.1811981201171875,0.0057220458984375,0.18566057523662363
1781789884.055259,0.0703125,-0.1015625,0.9853515028953552,0.993064133538532,-0.080108642578125,-0.301361083984375,-0.1201629638671875,0.33417814925768907
1781789884.065645,0.072265625,-0.08740234375,0.9902343153953552,0.9967073239603197,0.102996826171875,-0.179290771484375,0.0629425048828125,0.2161371922225897
1781789884.076031,0.07763671875,-0.08544921875,0.9926757216453552,0.9993668582794702,-0.019073486328125,-0.118255615234375,0.1888275146484375,0.22361578366357682
1781789884.086417,0.08251953125,-0.10205078125,0.9926757216453552,1.00131359889676,-0.0820159912109375,-0.2422332763671875,0.0629425048828125,0.2633730090856269
1781789884.094385,0.08203125,-0.0830078125,0.9995116591453552,1.0063016345411044,-0.019073486328125,-0.118255615234375,0.0057220458984375,0.11992051627821464
1781789884.102355,0.06787109375,-0.1005859375,0.9941405653953552,1.0015185869239631,0.164031982421875,-0.057220458984375,-0.2384185791015625,0.2949984593933346
1781789884.110325,0.07421875,-0.07861328125,0.9838866591453552,0.9898087840005576,-0.0820159912109375,-0.2422332763671875,0.1277923583984375,0.28589240958607054
1781789884.118295,0.06982421875,-0.0712890625,0.9775390028953552,0.9826189770902158,0.102996826171875,0.064849853515625,-0.0553131103515625,0.13369139792537732
1781789884.128983,0.07421875,-0.08935546875,0.9838866591453552,0.9907198295639909,0.102996826171875,0.064849853515625,0.0057220458984375,0.12184659007022429
1781789884.139671,0.064453125,-0.0771484300494194,0.9838866591453552,0.9890091221144344,-0.1430511474609375,0.0019073486328125,0.1277923583984375,0.19182845366038032
1781789884.150359,0.06689453125,-0.08154296875,0.9907225966453552,0.9963209310093991,0.0400543212890625,-0.0591278076171875,0.0629425048828125,0.0951956154897139
1781789884.161013,0.0712890625,-0.1025390625,0.9882811903953552,0.9961406030575042,0.102996826171875,-0.057220458984375,0.0629425048828125,0.13358250652231696
1781789884.171669,0.06982421875,-0.09716796875,0.9721679091453552,0.9795036902672192,0.164031982421875,0.064849853515625,0.1277923583984375,0.21781386921700607
1781789884.182325,0.076171875,-0.1025390625,0.9829100966453552,0.9911753991936927,0.102996826171875,-0.057220458984375,0.1277923583984375,0.17382006211279719
1781789884.192984,0.07080078125,-0.08544921875,0.9907225966453552,0.9969180423256021,-0.324249267578125,0.125885009765625,0.0629425048828125,0.3534775553405971
1781789884.203641,0.06201171875,-0.09130859375,0.9833983778953552,0.989573181832525,-0.202178955078125,0.247955322265625,0.0629425048828125,0.32606737131650465
1781789884.214298,0.07080078125,-0.09716796875,0.9897460341453552,0.9970213522703865,-0.080108642578125,0.186920166015625,0.1277923583984375,0.24018207665030564
1781789884.222305,0.06201171875,-0.0810546875,0.9868163466453552,0.9920795419897226,-0.446319580078125,-0.118255615234375,-0.1773834228515625,0.4946215086286792
1781789884.230312,0.06494140625,-0.0859375,0.9824218153953552,0.9883092954721628,-0.019073486328125,0.064849853515625,-0.2384185791015625,0.24781589989852387
1781789884.238319,0.0771484375,-0.1015625,0.9936522841453552,1.0018042147057593,-0.4482269287109375,-0.0591278076171875,-0.1201629638671875,0.4678061726191757
1781789884.246326,0.068359375,-0.0869140625,0.9882811903953552,0.9944479723444082,-0.202178955078125,0.125885009765625,0.0629425048828125,0.24634350911095032
1781789884.256995,0.07177734375,-0.09619140625,0.9892577528953552,0.9965117537569368,-0.324249267578125,0.370025634765625,-0.1201629638671875,0.5064540411468756
1781789884.267661,0.07958984375,-0.09521484375,0.9838866591453552,0.9916820900584495,-0.324249267578125,-0.301361083984375,-0.0553131103515625,0.4461116795623627
1781789884.278327,0.0751953125,-0.08984375,0.9931640028953552,1.0000504842672495,-0.0820159912109375,-0.2422332763671875,0.0057220458984375,0.25580524780222674
1781789884.289036,0.07666015625,-0.0888671875,0.9790038466453552,0.986013533536349,0.3452301025390625,0.1239776611328125,-0.0553131103515625,0.37096337330774076
1781789884.299746,0.06298828125,-0.08447265625,0.9853515028953552,0.9909695946329005,-0.019073486328125,-0.301361083984375,0.1277923583984375,0.3278920366309334
1781789884.310456,0.07373046875,-0.09033203125,0.9814452528953552,0.9883475311461417,-0.1430511474609375,-0.3643035888671875,-0.2384185791015625,0.45828392347126
1781789884.321086,0.0791015625,-0.08642578125,0.9785155653953552,0.9855045330061176,0.041961669921875,-0.301361083984375,-0.1201629638671875,0.3271367031811272
1781789884.331717,0.06640625,-0.0927734375,0.9829100966453552,0.9895094536344817,0.2231597900390625,-0.2422332763671875,-0.0553131103515625,0.3339712446403505
1781789884.342348,0.0712890625,-0.07861328125,0.9809569716453552,0.9866806771395935,0.102996826171875,-0.057220458984375,0.2498626708984375,0.27624967228281533
1781789884.350343,0.0859375,-0.08154296875,0.9897460341453552,0.9968107753055603,-0.2651214599609375,-0.2422332763671875,0.2498626708984375,0.43749023191369896
1781789884.358336,0.06982421875,-0.0869140550494194,0.9916991591453552,0.9979462394030982,-0.080108642578125,-0.484466552734375,0.1888275146484375,0.5260998627849514
1781789884.36633,0.06787109375,-0.08740234375,0.9785155653953552,0.9847529470790154,-0.263214111328125,-0.118255615234375,0.0629425048828125,0.2953435590251428
1781789884.374324,0.08251953125,-0.07568359375,0.9965819716453552,1.0028524844707611,-0.263214111328125,0.186920166015625,-0.1201629638671875,0.34447054264611715
1781789884.38514,0.07763671875,-0.08740234375,0.9907225966453552,0.9975960571769392,-0.1430511474609375,-0.1163482666015625,-0.1201629638671875,0.2200901810995351
1781789884.395956,0.06640625,-0.0791015625,0.9804686903953552,0.9858933512680704,-0.385284423828125,-0.179290771484375,-0.0553131103515625,0.4285426561741512
1781789884.406772,0.0751953125,-0.09375,0.9814452528953552,0.9887761030449717,0.2231597900390625,-0.0591278076171875,0.0629425048828125,0.23928674941336905
1781789884.41509,0.07763671875,-0.09326171875,0.9892577528953552,0.9966725189078097,-0.0820159912109375,-0.0591278076171875,0.0629425048828125,0.11909861195182163
1781789884.423408,0.0585937462747097,-0.1025390625,0.9804686903953552,0.9875557398377405,-0.019073486328125,0.186920166015625,-0.0553131103515625,0.1958634384482773
1781789884.431726,0.06884765625,-0.09130859375,0.9819335341453552,0.9885700402818751,-0.019073486328125,0.064849853515625,0.0057220458984375,0.06783836076270576
1781789884.440044,0.07177734375,-0.0859375,0.9902343153953552,0.996544650464074,-0.0820159912109375,-0.0591278076171875,0.3108978271484375,0.32692534220146874
1781789884.450125,0.0830078125,-0.06884765625,0.9794921278953552,0.9854111453175899,-0.4482269287109375,0.0667572021484375,0.0057220458984375,0.4532070668795788
1781789884.460206,0.07080078125,-0.08642578125,0.9697265028953552,0.9761412073608708,-0.3871917724609375,0.2460479736328125,-0.1201629638671875,0.4742322341170016
1781789884.470287,0.0771484375,-0.083984375,0.9912108778953552,0.9977495984017798,-0.324249267578125,0.125885009765625,-0.0553131103515625,0.35219903944418435
1781789884.480975,0.06591796875,-0.09619140625,0.9887694716453552,0.9956219329134496,-0.0820159912109375,0.4291534423828125,-0.2384185791015625,0.49773760033188025
1781789884.491662,0.0703125,-0.07958984375,0.9809569716453552,0.9866888927640899,-0.080108642578125,0.186920166015625,-0.3032684326171875,0.36514145930187686
1781789884.502349,0.076171875,-0.0830078125,0.9892577528953552,0.995652224996569,-0.202178955078125,0.064849853515625,-0.0553131103515625,0.2194114253047107
1781789884.512998,0.0703125,-0.0966796875,0.9931640028953552,1.000332717788673,-0.1430511474609375,0.2460479736328125,-0.0553131103515625,0.28993581409592745
1781789884.523649,0.0634765625,-0.0947265625,0.9956054091453552,1.0021140286161914,-0.080108642578125,-0.179290771484375,-0.1201629638671875,0.2302210095549908
1781789884.5343,0.076171875,-0.09814453125,0.9882811903953552,0.9960593430336158,0.102996826171875,-0.118255615234375,-0.1201629638671875,0.19756486180818436
1781789884.542308,0.07421875,-0.0849609375,0.9765624403953552,0.9830569585448105,0.041961669921875,-0.484466552734375,-0.1201629638671875,0.500906937810117
1781789884.550319,0.06787109375,-0.08251953125,0.9975585341453552,1.003264166334456,-0.1430511474609375,-0.1811981201171875,-0.0553131103515625,0.23739403889031782
1781789884.55833,0.0634765625,-0.0869140625,0.9882811903953552,0.994124257593753,0.286102294921875,-0.423431396484375,0.0057220458984375,0.5110591086141948
1781789884.566341,0.06298828125,-0.08984375,0.9785155653953552,0.9846482289172531,-0.019073486328125,-0.362396240234375,0.1277923583984375,0.38474110734590694
1781789884.576988,0.0703125,-0.09912109375,0.9790038466453552,0.9865178004622362,0.3452301025390625,-0.4863739013671875,0.3108978271484375,0.6726075040882982
1781789884.587635,0.0751953125,-0.08447265625,0.9916991591453552,0.9981268390968695,0.0400543212890625,-0.2422332763671875,0.3681182861328125,0.4424843290093661
1781789884.598282,0.07275390625,-0.083984375,0.9863280653953552,0.9925671557659554,0.041961669921875,-0.301361083984375,0.0629425048828125,0.31071054633499773
1781789884.606289,0.07568359375,-0.09228515625,0.9804686903953552,0.9877061350789439,0.408172607421875,-0.484466552734375,0.0629425048828125,0.6366117161102393
1781789884.614298,0.06591796875,-0.0986328125,0.9892577528953552,0.9963455785867441,0.652313232421875,-0.057220458984375,0.3681182861328125,0.7511975816683762
1781789884.622307,0.07763671875,-0.091796875,0.9902343153953552,0.9975059527363935,0.469207763671875,-0.057220458984375,0.1888275146484375,0.5090048493920766
1781789884.630316,0.07861328125,-0.0791015625,0.9814452528953552,0.9877610488421078,0.408172607421875,0.186920166015625,-0.1201629638671875,0.46473988832273466
1781789884.640984,0.0771484375,-0.0927734375,0.9980468153953552,1.0053139996215452,0.225067138671875,0.675201416015625,-0.0553131103515625,0.7138709332058661
1781789884.651652,0.08935546875,-0.07861328125,0.9877929091453552,0.9949368216838032,0.102996826171875,0.858306884765625,-0.4825592041015625,0.9900315349021387
1781789884.66232,0.0712890625,-0.0869140625,0.9804686903953552,0.9868916037427645,-0.202178955078125,0.797271728515625,-0.3604888916015625,0.8980371818220546
1781789884.670332,0.064453125,-0.078125,0.9785155653953552,0.9837430724880645,-0.202178955078125,0.736236572265625,-0.5435943603515625,0.9372382028192959
1781789884.678342,0.07373046875,-0.08203125,0.9882811903953552,0.9944169242766927,-0.6313323974609375,0.6122589111328125,-0.4253387451171875,0.9769107525476297
1781789884.686352,0.07470703125,-0.0947265625,0.9765624403953552,0.9839860070916591,-0.8106231689453125,0.2460479736328125,-0.7915496826171875,1.159396579006133
1781789884.694362,0.078125,-0.09326171875,0.9794921278953552,0.9870187903065346,-0.8106231689453125,0.2460479736328125,-0.4253387451171875,0.9479254060618998
1781789884.705037,0.06884765625,-0.09423828125,0.9882811903953552,0.9951485138979672,-1.1196136474609375,0.3070831298828125,-0.1773834228515625,1.1744358845598788
1781789884.715712,0.0810546875,-0.08935546875,0.9873046278953552,0.9946480233855797,-0.812530517578125,-0.118255615234375,0.1888275146484375,0.8425236274541754
1781789884.726387,0.08740234375,-0.091796875,0.9892577528953552,0.9973448438811555,-0.812530517578125,0.125885009765625,-0.3032684326171875,0.876370138640947
1781789884.734594,0.0610351599752903,-0.11083984375,0.9833983778953552,0.9915054873085422,-0.9365081787109375,-0.0591278076171875,-0.3032684326171875,0.9861619586296047
1781789884.742801,0.07177734375,-0.08935546875,0.9882811903953552,0.9949050699240598,-0.7534027099609375,-0.0591278076171875,0.0629425048828125,0.7583360072758134
1781789884.751008,0.06103515625,-0.0947265625,0.9897460341453552,0.9961403636275297,-0.324249267578125,0.186920166015625,0.1277923583984375,0.3954840361548036
1781789884.759215,0.06884765625,-0.10205078125,0.9853515028953552,0.9930115538013587,-0.385284423828125,0.186920166015625,0.1277923583984375,0.44689386052273505
1781789884.769747,0.07177734375,-0.09814453125,0.9941405653953552,1.001548700690428,0.0400543212890625,-0.2422332763671875,0.1888275146484375,0.3097372097792184
1781789884.780279,0.0791015625,-0.0908203125,0.9921874403953552,0.9994705114363432,0.041961669921875,-0.118255615234375,0.4329681396484375,0.45078440770253114
1781789884.790811,0.0634765625,-0.1025390625,0.9833983778953552,0.9907653117526931,-0.019073486328125,-0.301361083984375,0.1888275146484375,0.3561434136822589
1781789884.80133,0.0693359375,-0.0927734375,0.9780272841453552,0.9848612853936892,0.164031982421875,-0.423431396484375,0.2498626708984375,0.5182972053701035
1781789884.811851,0.07763671875,-0.0869140625,0.9814452528953552,0.9883401736190572,0.286102294921875,-0.179290771484375,0.3681182861328125,0.4995105369102689
1781789884.822372,0.06005859375,-0.087890625,0.9829100966453552,0.9886577035220531,-0.019073486328125,-0.484466552734375,0.6160736083984375,0.7839759751192057
1781789884.832996,0.0830078125,-0.0859375,0.9809569716453552,0.988206522474888,-0.019073486328125,-0.362396240234375,-0.1201629638671875,0.38227473196912587
1781789884.843621,0.0732421875,-0.0888671875,0.9843749403953552,0.9910881990631835,0.286102294921875,-0.057220458984375,-0.3032684326171875,0.42083303851769016
1781789884.854246,0.07470703125,-0.09130859375,0.9790038466453552,0.9860866754789831,-0.2651214599609375,-0.0591278076171875,0.1888275146484375,0.3308191597440209
1781789884.862491,0.05859375,-0.0908203125,0.9833983778953552,0.9893199312400797,-0.690460205078125,0.308990478515625,-0.2384185791015625,0.7931291379533659
1781789884.870738,0.06982421875,-0.08251953125,0.9858397841453552,0.991748443187852,-0.263214111328125,-0.118255615234375,-0.1773834228515625,0.3387195560330867
1781789884.878985,0.07080078125,-0.08251953125,0.9794921278953552,0.9855085247080824,-0.446319580078125,0.003814697265625,0.1277923583984375,0.4642699713974369
1781789884.887232,0.078125,-0.0908203125,0.9907225966453552,0.9979394311737125,-0.507354736328125,-0.179290771484375,-0.0553131103515625,0.5409376575824684
1781789884.895021,0.07666015625,-0.09130859375,0.9799804091453552,0.9872059770673873,-0.3223419189453125,-0.2422332763671875,-0.1201629638671875,0.42073793598185993
1781789884.90281,0.07666015625,-0.08251953125,0.9863280653953552,0.992738286347685,-0.080108642578125,0.064849853515625,-0.3604888916015625,0.374933512885726
1781789884.910599,0.080078125,-0.08349609375,0.9902343153953552,0.9969694594928835,-0.019073486328125,0.614166259765625,-0.1773834228515625,0.6395536499917287
1781789884.918388,0.07470703125,-0.07958984375,0.9814452528953552,0.9874970724904281,0.041961669921875,0.370025634765625,-0.1773834228515625,0.4124859159157708
1781789884.929038,0.07080078125,-0.09521484375,0.9941405653953552,1.0011963248337181,0.469207763671875,0.186920166015625,0.0629425048828125,0.5089762596371208
1781789884.939688,0.0576171912252903,-0.09326171875,0.9985350966453552,1.0045346326242042,0.225067138671875,0.370025634765625,-0.1201629638671875,0.4494589249074889
1781789884.950338,0.06982421875,-0.09716796875,0.9877929091453552,0.9950135009299587,0.164031982421875,-0.118255615234375,-0.1773834228515625,0.26899026096542433
1781789884.961008,0.0712890625,-0.099609375,0.9843749403953552,0.9919668246964607,0.225067138671875,-0.179290771484375,-0.1773834228515625,0.3380314724281507
1781789884.971678,0.07080078125,-0.09130859375,0.9790038466453552,0.985798428516,0.0400543212890625,-0.1811981201171875,-0.1773834228515625,0.2567138213857337
1781789884.982348,0.06298828125,-0.0888671875,0.9868163466453552,0.9928098521849363,-0.080108642578125,-0.484466552734375,0.3681182861328125,0.6137070212401011
1781789884.990449,0.083984375,-0.1005859375,0.9785155653953552,0.9872505344581416,-0.1430511474609375,-0.4863739013671875,0.4329681396484375,0.6666967921564183
1781789884.998552,0.06494140625,-0.09423828125,0.9892577528953552,0.9958559843482637,-0.324249267578125,-0.545501708984375,0.2498626708984375,0.6820125045322301
1781789885.006655,0.08056640625,-0.08837890625,0.9794921278953552,0.9867657297935297,-0.263214111328125,-0.179290771484375,0.3108978271484375,0.4450666332891477
1781789885.014758,0.07666015625,-0.09912109375,0.9809569716453552,0.9889278795757034,-0.507354736328125,-0.423431396484375,0.1277923583984375,0.6730779025256467
1781789885.025291,0.0712890625,-0.10009765625,0.9794921278953552,0.9871709577514135,-0.385284423828125,-0.057220458984375,0.1888275146484375,0.4328672989026298
1781789885.035824,0.0693359375,-0.0947265625,0.9843749403953552,0.991349896429323,-0.5702972412109375,-0.0591278076171875,0.1888275146484375,0.6036479696435061
1781789885.046357,0.06982421875,-0.0927734375,0.9804686903953552,0.9873202039233255,-0.202178955078125,-0.301361083984375,-0.1201629638671875,0.38227473196912587
1781789885.057,0.07177734375,-0.0888671875,0.9936522841453552,1.0001970935156967,-0.2651214599609375,-0.5474090576171875,-0.1773834228515625,0.6335699989706682
1781789885.067644,0.0810546875,-0.0732421875,0.9843749403953552,0.9904182468401251,-0.080108642578125,-0.362396240234375,-0.4825592041015625,0.6087789541490852
1781789885.078288,0.08447265625,-0.099609375,0.9877929091453552,0.9963897272652229,-0.2651214599609375,-0.3643035888671875,-0.5435943603515625,0.7060462605235978
1781789885.088959,0.07373046875,-0.07470703125,0.9838866591453552,0.9894696966479022,-0.263214111328125,-0.423431396484375,-0.4825592041015625,0.6938581997743458
1781789885.099629,0.07421875,-0.1010742112994194,0.9809569716453552,0.988939330424768,-0.4482269287109375,-0.3643035888671875,-0.5435943603515625,0.7931704186927151
1781789885.110299,0.0732421875,-0.0966796875,0.9833983778953552,0.9908500137014172,-0.2651214599609375,-0.2422332763671875,-0.2384185791015625,0.4310565711971101
1781789885.120977,0.07373046875,-0.0810546875,0.9785155653953552,0.9846312792659032,-0.324249267578125,-0.850677490234375,-0.4825592041015625,1.0303655493947472
1781789885.131658,0.07666015625,-0.095703125,0.9902343153953552,0.9977975080533865,-0.080108642578125,-0.362396240234375,-0.3032684326171875,0.47929132244784717
1781789885.142339,0.064453125,-0.083984375,0.9702147841453552,0.975973518052936,-0.4482269287109375,-0.6694793701171875,-0.5435943603515625,0.9719078326879408
1781789885.150339,0.06884765625,-0.0986328125,0.9838866591453552,0.9912120809983032,-0.6313323974609375,-0.5474090576171875,-0.1773834228515625,0.854226053891854
1781789885.158339,0.06884765625,-0.0859375,0.9833983778953552,0.98954414925489,-0.385284423828125,-0.362396240234375,0.0057220458984375,0.5289686795925114
1781789885.166339,0.0712890625,-0.1015625,0.9770507216453552,0.9848985655924616,-0.202178955078125,-0.545501708984375,0.0057220458984375,0.581791359673397
1781789885.174339,0.080078125,-0.09375,0.9843749403953552,0.9920663243361679,-0.507354736328125,-0.484466552734375,0.0629425048828125,0.7043283524847151
1781789885.185,0.064453125,-0.09375,0.9892577528953552,0.9957781728305924,-0.690460205078125,-0.484466552734375,0.1277923583984375,0.8530967251020778
1781789885.195661,0.08642578125,-0.0830078125,0.9824218153953552,0.9897031554791635,-0.568389892578125,-0.301361083984375,-0.2384185791015625,0.686096925941239
1781789885.206322,0.07470703125,-0.0908203125,0.9882811903953552,0.9952533250233563,-0.263214111328125,-0.606536865234375,-0.1201629638671875,0.6720176896302239
1781789885.214319,0.08740234375,-0.0771484375,0.9970702528953552,1.0038626102761734,-0.6313323974609375,-0.4215240478515625,0.1277923583984375,0.7698012768669432
1781789885.222319,0.08837890625,-0.09423828125,0.9824218153953552,0.9908805720608341,-0.385284423828125,-0.423431396484375,0.3681182861328125,0.6806242042115733
1781789885.230319,0.08154296875,-0.08740234375,0.9907225966453552,0.9979076555219285,-0.202178955078125,-0.179290771484375,0.0629425048828125,0.2774585906705138
1781789885.238319,0.08251953125,-0.10205078125,0.9780272841453552,0.986793394548319,-0.385284423828125,-0.118255615234375,-0.3604888916015625,0.5407224045174694
1781789885.249013,0.06689453125,-0.08154296875,0.9833983778953552,0.9890381710080438,-0.385284423828125,0.003814697265625,-0.1773834228515625,0.4241739240716417
1781789885.259707,0.0810546875,-0.09521484375,0.9775390028953552,0.9855040492142612,-0.324249267578125,-0.118255615234375,-0.4253387451171875,0.547754530932675
1781789885.270401,0.08349609375,-0.09326171875,0.9902343153953552,0.9981148958122109,-0.690460205078125,-0.057220458984375,-0.1201629638671875,0.7031704015445018
1781789885.281061,0.08935546875,-0.09130859375,0.9614257216453552,0.9698768361649982,-0.385284423828125,-0.057220458984375,-0.4253387451171875,0.576741984139196
1781789885.29172,0.06982421875,-0.09423828125,0.9877929091453552,0.9947316756466771,-0.3223419189453125,-0.2422332763671875,-0.2384185791015625,0.4684278938638653
1781789885.302379,0.078125,-0.09765625,0.9868163466453552,0.9947093850947363,-0.507354736328125,0.064849853515625,-0.1201629638671875,0.5254079080685085
1781789885.310685,0.0703125,-0.09521484375,0.9912108778953552,0.998252832996064,-0.385284423828125,-0.179290771484375,-0.2384185791015625,0.4872706505063081
1781789885.318993,0.0830078125,-0.091796875,0.9931640028953552,1.0008454924926853,-0.072479248046875,0.202178955078125,-0.3833770751953125,0.4394400448971796
1781789885.327301,0.08349609375,-0.0869140625,0.9843749403953552,0.9917256047970738,-0.1926422119140625,0.2651214599609375,-0.0782012939453125,0.3369211372379043
1781789885.335609,0.07421875,-0.0947265625,0.9921874403953552,0.9994585841208806,-0.0743865966796875,0.0820159912109375,-0.3223419189453125,0.3408288445675417
1781789885.346431,0.072265625,-0.076171875,0.9833983778953552,0.9889877879654896,-0.011444091796875,0.324249267578125,-0.2613067626953125,0.4165930616228626
1781789885.357253,0.0634765625,-0.09326171875,0.9873046278953552,0.9937290628911919,-0.0095367431640625,-0.0400543212890625,-0.2613067626953125,0.2645307588058695
1781789885.368075,0.0693359375,-0.0966796800494194,0.9912108778953552,0.9983253163280709,-0.072479248046875,0.568389892578125,-0.0782012939453125,0.5783042052044357
1781789885.378251,0.07080078125,-0.1015625,0.9848632216453552,0.9926143548133527,-0.072479248046875,0.385284423828125,-0.0782012939453125,0.3997658952646309
1781789885.388427,0.07421875,-0.0859375,0.9848632216453552,0.9913875337664281,-0.194549560546875,0.385284423828125,-0.1392364501953125,0.4535200192015168
1781789885.398603,0.06884765625,-0.0791015625,0.9755858778953552,0.9812058204627154,-0.072479248046875,0.202178955078125,0.1049041748046875,0.23902815140768535
1781789885.409172,0.0771484375,-0.0966796875,0.9711913466453552,0.9790359927921994,-0.4978179931640625,0.2651214599609375,-0.0782012939453125,0.5694098569786396
1781789885.419741,0.06591796875,-0.10595703125,0.9853515028953552,0.9932218560490776,-0.194549560546875,0.324249267578125,-0.0782012939453125,0.3861380082414238
1781789885.43031,0.08056640625,-0.1005859375,0.9785155653953552,0.9869656470008394,-0.2574920654296875,0.2651214599609375,0.1049041748046875,0.3841828186977105
1781789885.438339,0.0654296875,-0.0869140625,0.9897460341453552,0.9957069400044675,-0.377655029296875,-0.164031982421875,-0.1392364501953125,0.43464537438406675
1781789885.446367,0.0849609375,-0.08203125,0.9921874403953552,0.9991913749406207,-0.1354217529296875,-0.4062652587890625,-0.3833770751953125,0.5747769075483161
1781789885.454395,0.0615234375,-0.10009765625,0.9873046278953552,0.994271141295042,-0.377655029296875,-0.164031982421875,-0.5664825439453125,0.7003087069323262
1781789885.462423,0.06787109375,-0.09130859375,0.9858397841453552,0.9923829022424683,-0.1926422119140625,0.0820159912109375,-0.2613067626953125,0.3348415578385686
1781789885.473068,0.07470703125,-0.0888671875,0.9838866591453552,0.9907126099816016,-0.194549560546875,-0.03814697265625,0.1659393310546875,0.2585354610545641
1781789885.483713,0.072265625,-0.09814453125,0.9921874403953552,0.9996452302938325,-0.4405975341796875,-0.1010894775390625,-0.1392364501953125,0.4730032332419444
1781789885.494358,0.0771484375,-0.10009765625,0.9814452528953552,0.9895484862432272,-0.4405975341796875,-0.4062652587890625,-0.2613067626953125,0.6538033892956423
1781789885.502496,0.07177734375,-0.0849609375,0.9780272841453552,0.9843311010576796,-0.072479248046875,-0.34332275390625,-0.2613067626953125,0.4374985474004643
1781789885.510634,0.07177734375,-0.0869140625,0.9790038466453552,0.9854717515395669,-0.011444091796875,-0.286102294921875,0.0438690185546875,0.28967219608649075
1781789885.518772,0.06787109375,-0.0927734375,0.9926757216453552,0.999309003470155,0.0476837158203125,-0.2841949462890625,0.2269744873046875,0.3668213763371775
1781789885.52691,0.05908203125,-0.0849609375,0.9848632216453552,0.990285116856339,-0.1354217529296875,-0.4062652587890625,0.1049041748046875,0.4409029343936664
1781789885.53497,0.076171875,-0.1005859375,0.9907225966453552,0.9987246611892012,0.049591064453125,-0.469207763671875,0.1659393310546875,0.5001510379419734
1781789885.54303,0.07568359375,-0.08837890625,0.9721679091453552,0.9791063685856164,0.049591064453125,-0.469207763671875,-0.0782012939453125,0.47825792365446207
1781789885.55109,0.06787109375,-0.09375,0.9770507216453552,0.983881934245431,-0.194549560546875,-0.286102294921875,0.0438690185546875,0.3487528429382293
1781789885.55915,0.07177734375,-0.09375,0.9746093153953552,0.9817353855450096,-0.3185272216796875,-0.2841949462890625,-0.2002716064453125,0.4715242038277675
1781789885.569578,0.06591796875,-0.087890625,0.9921874403953552,0.9982513999215343,-0.3185272216796875,-0.1621246337890625,0.0438690185546875,0.360095096635833
1781789885.580006,0.07861328125,-0.08837890625,0.9824218153953552,0.9895168024968264,-0.377655029296875,-0.34332275390625,-0.1392364501953125,0.5290374500599998
1781789885.590434,0.08056640625,-0.09814453125,1.00244140625,1.0104514178300705,-0.4405975341796875,-0.2841949462890625,-0.0171661376953125,0.5245832926283857
1781789885.601085,0.0908203125,-0.095703125,0.9907225966453552,0.9994691995259677,-0.377655029296875,0.080108642578125,-0.3833770751953125,0.5440760034721671
1781789885.611736,0.07080078125,-0.09521484375,0.9907225966453552,0.997802525853519,-0.255584716796875,-0.164031982421875,-0.1392364501953125,0.33409104714191434
1781789885.622387,0.0712890625,-0.08837890625,0.9853515028953552,0.9918722426604196,-0.3185272216796875,-0.0400543212890625,-0.4444122314453125,0.5482391549890524
1781789885.630379,0.0751953125,-0.09326171875,0.9877929091453552,0.99503111235982,-0.3185272216796875,0.4482269287109375,-0.5054473876953125,0.7468895716909135
1781789885.638372,0.078125,-0.09423828125,0.9902343153953552,0.9977717016755195,-0.4978179931640625,0.7534027099609375,-0.3833770751953125,0.981028225628443
1781789885.646365,0.08154296875,-0.08251953125,0.9858397841453552,0.9926423367930888,-0.560760498046875,0.507354736328125,-0.3833770751953125,0.8478438219564219
1781789885.654358,0.0620117224752903,-0.0888671875,0.9824218153953552,0.988380217377512,-0.6237030029296875,0.2040863037109375,-0.5664825439453125,0.8669250993140386
1781789885.665022,0.06494140625,-0.0927734375,0.9882811903953552,0.9947482134895013,-0.4405975341796875,-0.1010894775390625,-0.2002716064453125,0.49442288169392773
1781789885.675686,0.0810546875,-0.09716796875,0.9785155653953552,0.9866631584475603,0.232696533203125,-0.164031982421875,-0.2002716064453125,0.34808459341112685
1781789885.68635,0.076171875,-0.087890625,0.9750975966453552,0.982009286864159,0.110626220703125,-0.164031982421875,-0.0782012939453125,0.212744199307591
1781789885.697036,0.076171875,-0.08203125,0.9956054091453552,1.001878940410002,0.598907470703125,-0.591278076171875,0.2269744873046875,0.8716750195530177
1781789885.707721,0.0693359375,-0.1083984375,0.9907225966453552,0.9990440215451772,0.5359649658203125,-0.4062652587890625,0.1049041748046875,0.6806723080728091
1781789885.718406,0.0712890625,-0.08642578125,0.9960936903953552,1.0023742744814632,0.7190704345703125,-0.0400543212890625,-0.1392364501953125,0.7335212523097454
1781789885.72903,0.07763671875,-0.09228515625,0.9746093153953552,0.9820424266892732,0.293731689453125,0.507354736328125,-0.0782012939453125,0.591441101241949
1781789885.739654,0.07861328125,-0.09033203125,0.9755858778953552,0.9829077927290503,-0.1354217529296875,0.8754730224609375,-0.0171661376953125,0.8860512064812128
1781789885.750278,0.0810546875,-0.08056640625,0.9897460341453552,0.9963222472113233,-0.3185272216796875,0.6923675537109375,0.0438690185546875,0.7633851656743142
1781789885.758284,0.0673828125,-0.09130859375,0.9892577528953552,0.9957452507426688,-0.865936279296875,0.690460205078125,-0.2002716064453125,1.1254730787305522
1781789885.76629,0.08154296875,-0.08935546875,0.9892577528953552,0.9966265886537763,-1.354217529296875,0.812530517578125,0.0438690185546875,1.5798846316866493
1781789885.774296,0.06982421875,-0.09423828125,0.9785155653953552,0.9855196532276734,-1.6002655029296875,0.6923675537109375,-0.2002716064453125,1.7550872416055732
1781789885.782302,0.064453125,-0.09326171875,0.9819335341453552,0.9884560784302241,-1.842498779296875,0.568389892578125,-0.3223419189453125,1.9549355831854904
1781789885.792976,0.0791015625,-0.0947265625,0.9804686903953552,0.9882049542876168,-1.7223358154296875,0.2651214599609375,-0.4444122314453125,1.7983971422079905
1781789885.80365,0.07421875,-0.10009765625,0.9799804091453552,0.9878712294358023,-1.4781951904296875,0.5092620849609375,-0.4444122314453125,1.625395682179088
1781789885.814324,0.06591796875,-0.095703125,0.9794921278953552,0.9863615439319715,-1.2340545654296875,0.2651214599609375,-0.4444122314453125,1.3381637756447735
1781789885.8224,0.0703125,-0.10205078125,0.9785155653953552,0.9863320542955993,-0.6237030029296875,0.1430511474609375,-0.3833770751953125,0.7459537843852747
1781789885.830478,0.0830078125,-0.1083984375,0.9833983778953552,0.9928307448078411,-0.743865966796875,0.14495849609375,-0.4444122314453125,0.8785509510589657
1781789885.838556,0.0732421875,-0.1201171875,0.9858397841453552,0.9958276139806809,-0.438690185546875,0.202178955078125,-0.4444122314453125,0.656374618819037
1781789885.846634,0.0771484375,-0.0927734375,0.9809569716453552,0.9883498228531657,-0.560760498046875,0.14495849609375,-0.4444122314453125,0.730046254163216
1781789885.857224,0.0620117224752903,-0.08935546875,0.9990233778953552,1.0049266456320731,-0.255584716796875,0.019073486328125,-0.3223419189453125,0.4118150774925493
1781789885.867814,0.0590820275247097,-0.09228515625,0.9799804091453552,0.9860876423265912,-0.2574920654296875,-0.0400543212890625,-0.0171661376953125,0.2611535730112616
1781789885.878404,0.0634765625,-0.0849609375,0.9887694716453552,0.994440899674551,0.110626220703125,-0.03814697265625,0.1049041748046875,0.15715673107234587
1781789885.886368,0.0673828125,-0.09375,0.9833983778953552,0.9901524506699088,-0.1926422119140625,-0.2231597900390625,0.2269744873046875,0.37206011824521956
1781789885.894332,0.07275390625,-0.0849609375,0.9907225966453552,0.9970169282811742,-0.1354217529296875,-0.1010894775390625,0.4711151123046875,0.5005073252985697
1781789885.902296,0.0771484375,-0.095703125,0.9755858778953552,0.9832999413669808,0.1697540283203125,-0.2231597900390625,0.5321502685546875,0.6014986536510933
1781789885.91026,0.06884765625,-0.0859375,0.9853515028953552,0.9914851677839177,-0.0743865966796875,-0.4062652587890625,0.2880096435546875,0.5035219767249773
1781789885.920948,0.07470703125,-0.0927734375,0.9853515028953552,0.9925248790241432,-0.1354217529296875,-0.2231597900390625,0.1049041748046875,0.281325841238021
1781789885.931636,0.076171875,-0.1005859375,0.9868163466453552,0.9948498315676871,-0.011444091796875,-0.34332275390625,-0.0782012939453125,0.35230231756482666
1781789885.942324,0.07275390625,-0.09521484375,0.9770507216453552,0.984371428888852,-0.2574920654296875,-0.2231597900390625,-0.3223419189453125,0.4690487910216498
1781789885.952975,0.07958984375,-0.0961913987994194,0.9926757216453552,1.0004960853373015,-0.255584716796875,-0.652313232421875,-0.3223419189453125,0.77119414764517
1781789885.963626,0.07763671875,-0.09375,0.9931640028953552,1.0005954523409508,0.1697540283203125,-0.2841949462890625,-0.2613067626953125,0.4217397560789366
1781789885.974277,0.0751953125,-0.09326171875,1.00537109375,1.012483639055095,-0.0095367431640625,-0.4062652587890625,-0.1392364501953125,0.42956861970133825
1781789885.982294,0.07958984375,-0.0966796800494194,0.9833983778953552,0.9913394340032193,0.2307891845703125,-0.5893707275390625,-0.3833770751953125,0.7399996513376651
1781789885.990312,0.07763671875,-0.0966796875,0.9897460341453552,0.9974826485607772,0.293731689453125,-0.102996826171875,-0.6885528564453125,0.7556399193461563
1781789885.99833,0.0654296875,-0.1142578125,0.9916991591453552,1.000401476394971,0.4138946533203125,0.2651214599609375,-0.4444122314453125,0.6626465151475277
1781789886.006348,0.08251953125,-0.109375,1.0029296875,1.012245188544538,0.5359649658203125,0.4482269287109375,-0.6885528564453125,0.9809540561756231
1781789886.016995,0.06396484375,-0.09228515625,0.9765624403953552,0.9829965672834166,0.598907470703125,0.507354736328125,-0.8106231689453125,1.128365591893663
1781789886.027642,0.07177734375,-0.1025390625,0.9931640028953552,1.0010199713598673,0.6580352783203125,0.3261566162109375,-0.7495880126953125,1.0494144817891393
1781789886.038289,0.06640625,-0.0986328125,0.9765624403953552,0.9837745787179369,0.598907470703125,0.080108642578125,-0.5664825439453125,0.8282572219271482
1781789886.048947,0.0712890625,-0.09521484375,0.9882811903953552,0.9954133353495552,0.2307891845703125,0.0820159912109375,-0.5054473876953125,0.561664786377923
1781789886.059605,0.080078125,-0.0830078125,0.9804686903953552,0.9872292823276332,0.1697540283203125,-0.3452301025390625,-0.6275177001953125,0.7360561920726699
1781789886.070263,0.05419921875,-0.09814453125,0.9804686903953552,0.98685802280418,0.110626220703125,-0.102996826171875,-0.0782012939453125,0.17018210623698699
1781789886.078307,0.080078125,-0.080078125,0.9814452528953552,0.9879573860434766,0.1697540283203125,-0.3452301025390625,-0.2613067626953125,0.4650607251321159
1781789886.086353,0.0693359375,-0.103515625,0.9853515028953552,0.9931971310400971,0.2307891845703125,-0.2231597900390625,-0.1392364501953125,0.3499296053035524
1781789886.094399,0.07470703125,-0.0961913987994194,0.9829100966453552,0.9904272733565846,-0.011444091796875,0.202178955078125,-0.2613067626953125,0.3305881445905799
1781789886.102445,0.080078125,-0.126953125,0.9873046278953552,0.9986491026954197,-0.194549560546875,0.324249267578125,-0.3833770751953125,0.538484076662667
1781789886.113253,0.07080078125,-0.09326171875,0.9790038466453552,0.9859812526393271,0.110626220703125,0.385284423828125,-0.3833770751953125,0.5546712807933534
1781789886.124061,0.0810546875,-0.08984375,0.9858397841453552,0.9932380589685162,-0.011444091796875,0.385284423828125,-0.3223419189453125,0.5024732502243
1781789886.134869,0.06884765625,-0.08740234375,0.9887694716453552,0.9950096670494947,0.1697540283203125,0.0209808349609375,-0.5054473876953125,0.5336044296055338
1781789886.145409,0.06396484375,-0.099609375,0.9936522841453552,1.0006789648089613,0.293731689453125,0.019073486328125,-0.0782012939453125,0.30456123463831936
1781789886.155951,0.08154296875,-0.0986328125,0.9941405653953552,1.0023438288425883,0.1697540283203125,0.0820159912109375,-0.1392364501953125,0.23437116291958313
1781789886.166493,0.0615234375,-0.09521484375,0.9921874403953552,0.998642537002325,-0.072479248046875,0.14495849609375,-0.2613067626953125,0.3074856601819124
1781789886.17712,0.0712890625,-0.103515625,0.9912108778953552,0.999147946757311,0.293731689453125,0.080108642578125,0.1659393310546875,0.34674423080359107
1781789886.187747,0.0712890625,-0.107421875,0.9838866591453552,0.9922976104500367,-0.133514404296875,0.324249267578125,0.0438690185546875,0.35339521002505314
1781789886.198375,0.07421875,-0.0908203125,0.9833983778953552,0.9903681748023692,-0.1354217529296875,-0.5283355712890625,0.2880096435546875,0.6167877121314816
1781789886.206457,0.076171875,-0.0849609375,0.9790038466453552,0.985631293734273,-0.4405975341796875,-0.2231597900390625,0.7762908935546875,0.9200837083827941
1781789886.214541,0.080078125,-0.09326171875,0.9765624403953552,0.9842684868869122,-0.6237030029296875,-0.4062652587890625,0.2269744873046875,0.778186554914488
1781789886.222625,0.07666015625,-0.1005859375,0.9848632216453552,0.992950087229311,-0.499725341796875,-0.164031982421875,0.5321502685546875,0.748208404666828
1781789886.230709,0.08447265625,-0.0888671875,0.9755858778953552,0.9832602970815723,-0.0743865966796875,-0.4062652587890625,0.5931854248046875,0.7228096391618253
1781789886.238889,0.08642578125,-0.09765625,0.9794921278953552,0.9881351058624049,-0.1354217529296875,-0.2231597900390625,0.2880096435546875,0.3887015536852483
1781789886.247069,0.0732421875,-0.0869140625,0.9843749403953552,0.9909149789807389,0.110626220703125,-0.164031982421875,0.3490447998046875,0.4012192969374743
1781789886.25525,0.08544921875,-0.1015625,0.9790038466453552,0.9879600407595631,-0.3185272216796875,-0.1010894775390625,0.1659393310546875,0.37311464057441995
1781789886.263429,0.06689453125,-0.0849609375,0.9887694716453552,0.9946649221068726,0.0476837158203125,-0.5283355712890625,0.1659393310546875,0.5558309763180256
1781789886.27371,0.08056640625,-0.09521484375,0.9829100966453552,0.9907921428704198,-0.4405975341796875,-0.3452301025390625,0.2880096435546875,0.6294915135288566
1781789886.283991,0.07470703125,-0.09716796875,0.9765624403953552,0.9842240368229792,0.0476837158203125,-0.2231597900390625,-0.1392364501953125,0.26732156236955995
1781789886.294272,0.087890625,-0.0966796875,0.9887694716453552,0.9973649241856379,-0.1354217529296875,0.1430511474609375,-0.0171661376953125,0.19773051924226223
1781789886.302313,0.0751953125,-0.10986328125,0.9897460341453552,0.9986598458411392,0.293731689453125,0.202178955078125,0.1049041748046875,0.3716981586676506
1781789886.310354,0.07421875,-0.09912109375,0.9926757216453552,1.0003691830628758,-0.1354217529296875,0.0820159912109375,0.4100799560546875,0.43958075974577904
1781789886.318395,0.06005859375,-0.0961913987994194,0.9775390028953552,0.9840946712932968,0.1697540283203125,0.3261566162109375,-0.0171661376953125,0.36808863703259936
1781789886.326436,0.0771484375,-0.0888671875,0.9824218153953552,0.9894452394082034,0.110626220703125,0.507354736328125,0.1049041748046875,0.5297658681654474
1781789886.337097,0.07080078125,-0.0908203125,0.9736327528953552,0.9804192048806448,0.1697540283203125,0.3871917724609375,-0.0171661376953125,0.42311768466443267
1781789886.347758,0.08154296875,-0.08935546875,0.9687499403953552,0.9762735797736718,0.049591064453125,0.324249267578125,0.3490447998046875,0.4789876130645122
1781789886.358419,0.07080078125,-0.08740234375,0.9887694716453552,0.9951467170103303,-0.3185272216796875,0.4482269287109375,0.0438690185546875,0.5516261971313293
1781789886.369092,0.06884765625,-0.1005859375,0.9912108778953552,0.9986773928811811,-0.072479248046875,0.568389892578125,-0.0171661376953125,0.5732494986179991
1781789886.379768,0.080078125,-0.099609375,0.9921874403953552,1.000385151114156,0.1697540283203125,0.0820159912109375,0.2269744873046875,0.29506011393021553
1781789886.390444,0.07666015625,-0.08935546875,0.9892577528953552,0.9962389678261809,-0.255584716796875,0.202178955078125,0.1049041748046875,0.34235181207067344
1781789886.398537,0.0590820275247097,-0.091796875,0.9873046278953552,0.9933215896676071,0.2307891845703125,0.3871917724609375,-0.1392364501953125,0.47177103073319787
1781789886.406631,0.0693359375,-0.09521484375,0.9838866591453552,0.9909118511469873,0.293731689453125,0.324249267578125,0.0438690185546875,0.4397048825097227
1781789886.414725,0.06787109375,-0.0947265625,0.9775390028953552,0.9844603136701514,0.293731689453125,0.507354736328125,-0.0782012939453125,0.591441101241949
1781789886.422819,0.064453125,-0.09130859375,0.9892577528953552,0.9955512876182904,0.415802001953125,0.324249267578125,-0.2613067626953125,0.5884811947577266
1781789886.433325,0.08642578125,-0.099609375,0.9902343153953552,0.9989771982578338,0.2307891845703125,0.3871917724609375,-0.2613067626953125,0.521020480025859
1781789886.443831,0.0654296875,-0.09375,0.9873046278953552,0.9939016725863447,0.415802001953125,0.14495849609375,-0.2002716064453125,0.4837488881291351
1781789886.454337,0.07958984375,-0.0966796800494194,0.9770507216453552,0.9850429515662334,0.7190704345703125,-0.0400543212890625,-0.0171661376953125,0.7203896964910311
1781789886.462374,0.06982421875,-0.1044921875,0.9848632216453552,0.9928492353435395,0.8411407470703125,0.1430511474609375,0.1049041748046875,0.8596431079601271
1781789886.470412,0.07080078125,-0.09130859375,0.9921874403953552,0.9988923499539375,0.8411407470703125,-0.0400543212890625,-0.2002716064453125,0.8655812043847284
1781789886.47845,0.072265625,-0.08837890625,0.9829100966453552,0.9895177662447342,0.415802001953125,-0.164031982421875,0.0438690185546875,0.4491350430265138
1781789886.486488,0.07470703125,-0.0961913987994194,0.9794921278953552,0.9870353359075592,0.537872314453125,-0.164031982421875,0.0438690185546875,0.5640368859404172
1781789886.497106,0.07275390625,-0.10986328125,0.9833983778953552,0.9921872006274151,0.598907470703125,-0.34332275390625,-0.0782012939453125,0.6947489576735666
1781789886.507724,0.07861328125,-0.09716796875,1.0009765625,1.0087495927207153,0.5359649658203125,-0.2841949462890625,-0.0171661376953125,0.6068936384296563
1781789886.518342,0.080078125,-0.10205078125,0.9790038466453552,0.9875603271717901,0.2956390380859375,-0.2231597900390625,0.2269744873046875,0.4344193257877492
1781789886.526334,0.07958984375,-0.09228515625,0.9853515028953552,0.9928588406970911,0.232696533203125,-0.164031982421875,0.2880096435546875,0.40497373075608434
1781789886.534326,0.06640625,-0.1025390625,0.9882811903953552,0.9958030732362206,0.232696533203125,-0.164031982421875,0.4100799560546875,0.4992191284193924
1781789886.542318,0.0849609375,-0.095703125,0.9912108778953552,0.9994380688635616,0.3528594970703125,-0.2841949462890625,0.1049041748046875,0.4650607251321159
1781789886.55031,0.0751953125,-0.10009765625,0.9838866591453552,0.9918199604025543,0.049591064453125,0.019073486328125,0.5321502685546875,0.5347962040601346
1781789886.560987,0.072265625,-0.10107421875,0.9887694716453552,0.9965457271547545,0.110626220703125,-0.102996826171875,0.2269744873046875,0.2726974968637624
1781789886.571664,0.07861328125,-0.11767578125,0.9960936903953552,1.0060965547735103,-0.011444091796875,-0.34332275390625,0.3490447998046875,0.4897282438838107
1781789886.582341,0.08056640625,-0.095703125,0.9765624403953552,0.9845426521698983,-0.377655029296875,-0.102996826171875,0.2269744873046875,0.45249208307099553
1781789886.590343,0.072265625,-0.09033203125,0.9892577528953552,0.9959985432167857,-0.2574920654296875,-0.0400543212890625,0.1049041748046875,0.2809117268905418
1781789886.598346,0.07666015625,-0.09130859375,0.9873046278953552,0.9944769816906085,-0.4978179931640625,0.0820159912109375,0.0438690185546875,0.5064324909809388
1781789886.606349,0.07666015625,-0.0888671875,0.9931640028953552,1.0000744438378373,-0.1354217529296875,-0.1010894775390625,0.0438690185546875,0.17459273875113324
1781789886.614352,0.07568359375,-0.09765625,0.9716796278953552,0.9795029600740538,-0.3757476806640625,0.2651214599609375,-0.2613067626953125,0.5289205349450384
1781789886.62515,0.076171875,-0.08984375,0.9926757216453552,0.9996395061717023,-0.194549560546875,0.019073486328125,-0.3223419189453125,0.3769849361699188
1781789886.635948,0.06494140625,-0.0986328125,0.9902343153953552,0.9972511305252532,0.110626220703125,0.019073486328125,-0.0171661376953125,0.11356335179599149
1781789886.646746,0.083984375,-0.095703125,0.9819335341453552,0.990154497469003,-0.072479248046875,0.14495849609375,-0.3833770751953125,0.41622612697008154
1781789886.657559,0.0732421875,-0.0908203125,0.9863280653953552,0.9932048126035873,-0.1354217529296875,0.1430511474609375,-0.2002716064453125,0.2809117268905418
1781789886.668373,0.06591796875,-0.1015625,0.9814452528953552,0.9888856882578511,0.1087188720703125,0.2651214599609375,-0.0782012939453125,0.2970263019511591
1781789886.679187,0.0654296875,-0.0849609375,0.9702147841453552,0.9761230108349279,-0.2574920654296875,0.0820159912109375,-0.0171661376953125,0.2707830549663946
1781789886.686969,0.08251953125,-0.0927734375,0.9721679091453552,0.9800647056778128,-0.1354217529296875,-0.1010894775390625,-0.0171661376953125,0.16986114893949228
1781789886.694752,0.0751953125,-0.09228515625,0.9941405653953552,1.001242402643164,0.232696533203125,0.019073486328125,0.4711151123046875,0.5257955148984447
1781789886.702535,0.064453125,-0.08837890625,0.9858397841453552,0.9918896694673115,0.1697540283203125,-0.1010894775390625,0.4711151123046875,0.5108668727192559
1781789886.710318,0.08447265625,-0.07861328125,0.9863280653953552,0.9930552503407685,0.476837158203125,-0.102996826171875,0.2880096435546875,0.5665082315599744
1781789886.721003,0.080078125,-0.09228515625,0.9990233778953552,1.0064674687981963,0.9021759033203125,0.0820159912109375,0.6542205810546875,1.117431229213533
1781789886.731688,0.08740234375,-0.087890625,0.9912108778953552,0.998930896565906,0.6580352783203125,0.3261566162109375,0.5321502685546875,0.9069578127647867
1781789886.742373,0.0693359375,-0.09765625,0.9912108778953552,0.9984203622979387,0.7190704345703125,0.3871917724609375,0.4711151123046875,0.9428304235526338
1781789886.753016,0.0791015625,-0.0961913987994194,0.9833983778953552,0.9912528497008956,0.598907470703125,0.690460205078125,0.2269744873046875,0.94177644435809
1781789886.763661,0.07568359375,-0.08935546875,0.9921874403953552,0.9990737325326564,0.537872314453125,0.995635986328125,0.1659393310546875,1.1437366416783266
1781789886.774306,0.0712890625,-0.0830078125,0.9814452528953552,0.9875258031054135,0.0476837158203125,1.1196136474609375,-0.2002716064453125,1.1383835788886816
1781789886.782302,0.076171875,-0.08642578125,0.9873046278953552,0.9940030173340896,-0.6237030029296875,1.1806488037109375,-0.3833770751953125,1.389213811964483
1781789886.790299,0.0712890625,-0.1044921875,0.9790038466453552,0.9871419753141218,-1.2340545654296875,0.9365081787109375,-0.3223419189453125,1.5823534851478915
1781789886.798296,0.06591796875,-0.0888671875,0.9853515028953552,0.991544320681845,-1.2340545654296875,0.5702972412109375,-0.5054473876953125,1.4503815620445113
1781789886.806293,0.068359375,-0.0869140625,0.9926757216453552,0.9988153717052873,-1.354217529296875,0.812530517578125,-0.3223419189453125,1.611835993939847
1781789886.816958,0.0551757849752903,-0.10205078125,0.9770507216453552,0.9839140419107171,-1.232147216796875,0.63323974609375,-0.5054473876953125,1.474671625013914
1781789886.827623,0.06103515625,-0.09130859375,0.9877929091453552,0.9938799630483092,-1.1119842529296875,0.4482269287109375,-0.4444122314453125,1.2786393509678313
1781789886.838288,0.072265625,-0.103515625,0.9956054091453552,1.0035775684496298,-0.7457733154296875,0.0820159912109375,-0.4444122314453125,0.8720130115310796
1781789886.846275,0.0654296875,-0.09765625,0.9858397841453552,0.9928231802159793,-0.865936279296875,0.14495849609375,-0.4444122314453125,0.9840532693154773
1781789886.854264,0.076171875,-0.09814453125,0.9960936903953552,1.003811308763124,-0.3185272216796875,0.2040863037109375,-0.3223419189453125,0.49700615994444197
1781789886.862253,0.06787109375,-0.109375,0.9877929091453552,0.9961446718974435,0.1697540283203125,0.0209808349609375,-0.2613067626953125,0.3123105022200437
1781789886.878254,0.06640625,-0.103515625,0.9780272841453552,0.9857294979815419,0.1697540283203125,-0.2231597900390625,-0.0171661376953125,0.2809117268905418
1781789886.886268,0.0615234375,-0.1005859375,0.9902343153953552,0.9972294939336072,0.3528594970703125,-0.3452301025390625,-0.0782012939453125,0.49980905428630107
1781789886.894282,0.0624999962747097,-0.10302734375,0.9931640028953552,1.0004477096488573,0.6580352783203125,-0.4673004150390625,-0.0171661376953125,0.807263762157788
1781789886.902296,0.0634765625,-0.0966796875,0.9902343153953552,0.996965513620417,0.782012939453125,-0.469207763671875,0.4711151123046875,1.0264743601298267
1781789886.912969,0.07177734375,-0.08984375,0.9819335341453552,0.9886441988749318,0.598907470703125,-0.591278076171875,0.1659393310546875,0.857808710270772
1781789886.923642,0.08447265625,-0.107421875,0.9794921278953552,0.9889792300606809,0.6580352783203125,-0.4673004150390625,0.6542205810546875,1.038934393542395
1781789886.934315,0.07568359375,-0.09033203125,0.9921874403953552,0.999161548054644,0.7839202880859375,-0.7114410400390625,0.7762908935546875,1.3127478520037796
1781789886.945017,0.06982421875,-0.10009765625,0.9760741591453552,0.983674603953006,0.415802001953125,-0.652313232421875,0.6542205810546875,1.013118170154121
1781789886.955717,0.07421875,-0.10302734375,0.9877929091453552,0.9959206232273671,0.4787445068359375,-0.4062652587890625,0.5321502685546875,0.8230623740928478
1781789886.966417,0.07861328125,-0.0869140625,0.9765624403953552,0.9835691649498154,-0.1354217529296875,-0.2841949462890625,0.5321502685546875,0.6182958248165829
1781789886.974431,0.080078125,-0.1025390625,0.9868163466453552,0.9953558496579906,-0.1354217529296875,-0.2841949462890625,0.0438690185546875,0.31785265368051274
1781789886.982447,0.07568359375,-0.08935546875,0.9956054091453552,1.0024682223781147,-0.133514404296875,-0.164031982421875,0.2880096435546875,0.35732638048778015
1781789886.990463,0.06982421875,-0.0869140550494194,0.9931640028953552,0.9994019267223305,0.110626220703125,-0.22125244140625,-0.0171661376953125,0.2479626581133882
1781789886.998479,0.0791015625,-0.099609375,0.9921874403953552,1.0003074535642122,0.110626220703125,-0.34332275390625,0.3490447998046875,0.5019371936084458
1781789887.009088,0.08251953125,-0.083984375,0.9848632216453552,0.9918762088242304,0.293731689453125,-0.03814697265625,0.1049041748046875,0.3142266424147962
1781789887.019697,0.07568359375,-0.1025390625,0.9887694716453552,0.9969490126175605,0.3528594970703125,0.5092620849609375,0.0438690185546875,0.621113666441519
1781789887.030306,0.0771484375,-0.08642578125,0.9887694716453552,0.9955332064432604,0.2307891845703125,0.4482269287109375,-0.3833770751953125,0.6333632521085999
1781789887.041124,0.076171875,-0.09814453125,0.9999999403953552,1.007687642251314,0.1697540283203125,1.0585784912109375,-0.2613067626953125,1.1034881405867951
1781789887.051943,0.083984375,-0.0908203125,0.9809569716453552,0.9887255861088882,0.293731689453125,0.995635986328125,-0.2002716064453125,1.0572029318010576
1781789887.062762,0.078125,-0.09814453125,0.9912108778953552,0.9991170447436892,0.1697540283203125,0.6923675537109375,-0.1392364501953125,0.7263443044628581
1781789887.070657,0.07177734375,-0.103515625,0.9809569716453552,0.9890116540843048,0.232696533203125,0.690460205078125,0.1049041748046875,0.7361303262688829
1781789887.078552,0.07421875,-0.1005859375,0.9902343153953552,0.9980931585081747,0.293731689453125,0.019073486328125,0.1659393310546875,0.33790230076247396
1781789887.086447,0.06494140625,-0.0859375,0.9833983778953552,0.9892800461948039,-0.072479248046875,0.019073486328125,-0.0782012939453125,0.10831658069229648
1781789887.094342,0.060546875,-0.10009765625,0.9770507216453552,0.984029256438404,0.598907470703125,0.202178955078125,0.2880096435546875,0.6946337474676818
1781789887.102402,0.0771484375,-0.095703125,0.9853515028953552,0.9929897047812692,0.5970001220703125,0.2651214599609375,0.1049041748046875,0.66159158109459
1781789887.110462,0.056640625,-0.1044921875,0.9785155653953552,0.9857076084569488,0.2956390380859375,0.2651214599609375,0.1659393310546875,0.4303808673292466
1781789887.118522,0.0791015625,-0.08447265625,0.9907225966453552,0.997458746188326,0.0476837158203125,0.0820159912109375,0.0438690185546875,0.10452200896316724
1781789887.126582,0.07177734375,-0.09326171875,0.9912108778953552,0.9981727003470344,-0.011444091796875,0.324249267578125,-0.3223419189453125,0.45735420351337347
1781789887.137209,0.07958984375,-0.09033203125,0.9736327528953552,0.9810479889426859,-0.1926422119140625,0.0820159912109375,0.2269744873046875,0.308796150417522
1781789887.147836,0.068359375,-0.09375,0.9833983778953552,0.9902193879628931,-0.072479248046875,0.202178955078125,0.1659393310546875,0.27141376690359703
1781789887.158463,0.07080078125,-0.0888671875,0.9819335341453552,0.9884855047591533,0.1697540283203125,0.1430511474609375,0.4711151123046875,0.5207969949632224
1781789887.16912,0.07470703125,-0.087890625,0.9843749403953552,0.9911104508375634,0.0476837158203125,0.1430511474609375,0.1049041748046875,0.18369064602144453
1781789887.179778,0.0595703125,-0.07568359375,0.9848632216453552,0.9895616170021606,0.110626220703125,0.202178955078125,0.1049041748046875,0.2532180413694716
1781789887.190436,0.07275390625,-0.083984375,0.9785155653953552,0.9848041520219978,0.2956390380859375,-0.2231597900390625,0.1659393310546875,0.40588002454116173
1781789887.198738,0.072265625,-0.09619140625,0.9848632216453552,0.9921847975768734,0.110626220703125,-0.03814697265625,0.0438690185546875,0.12497136879639562
1781789887.207041,0.06787109375,-0.09521484375,0.9843749403953552,0.9912953016712615,0.0476837158203125,0.0820159912109375,0.0438690185546875,0.10452200896316724
1781789887.215344,0.08154296875,-0.10302734375,0.9853515028953552,0.9940731731471679,0.110626220703125,0.019073486328125,0.0438690185546875,0.12052572080978072
1781789887.223647,0.0732421875,-0.0830078125,0.9833983778953552,0.9896095617025111,0.110626220703125,-0.34332275390625,-0.1392364501953125,0.38664643166570123
1781789887.233893,0.06982421875,-0.095703125,0.9799804091453552,0.9871150449504411,0.1697540283203125,-0.2231597900390625,-0.0171661376953125,0.2809117268905418
1781789887.244139,0.0732421875,-0.09033203125,0.9907225966453552,0.997524715184166,0.0476837158203125,-0.2231597900390625,0.2880096435546875,0.3674555529927517
1781789887.254385,0.07275390625,-0.099609375,0.9838866591453552,0.9915886831276025,0.1697540283203125,-0.2231597900390625,0.1659393310546875,0.32581065607516446
1781789887.265021,0.072265625,-0.09423828125,0.9951171278953552,1.0021782638035488,0.1697540283203125,-0.0400543212890625,0.3490447998046875,0.3901961699653077
