timestamp,accel_x,accel_y,accel_z,accel_rms,gyro_x,gyro_y,gyro_z,gyro_rms
1782217213.436905,-0.0673828050494194,-0.0322265625,0.9887694716453552,0.9915866385771489,0.3452301025390625,0.1430511474609375,0.0095367431640625,0.3738160028131484
1782217213.447629,-0.06689453125,-0.03125,0.9887694716453552,0.9915223188960459,-0.019073486328125,0.02288818359375,0.1277923583984375,0.13121948671582692
1782217213.458353,-0.06689453125,-0.03564453125,0.9887694716453552,0.991670549616668,0.0400543212890625,-0.1621246337890625,-0.1735687255859375,0.24086271616149219
1782217213.468961,-0.0581054612994194,-0.02978515625,0.9785155653953552,0.9806916497486082,-0.019073486328125,-0.09918212890625,0.1277923583984375,0.1628857864889379
1782217213.47957,-0.0703124925494194,-0.04150390625,0.9804686903953552,0.9838624261999763,-0.019073486328125,-0.03814697265625,-0.1125335693359375,0.12034447902181516
1782217213.490179,-0.07177734375,-0.0263671875,0.9877929091453552,0.9907482258426253,-0.3871917724609375,-0.2231597900390625,0.1277923583984375,0.46481033488591406
1782217213.500806,-0.0727538987994194,-0.0263671875,0.9838866591453552,0.9869251827830642,-0.324249267578125,0.02288818359375,0.1926422119140625,0.3778524557076668
1782217213.511435,-0.0571289025247097,-0.0395507775247097,0.9829100966453552,0.9853629958517157,0.225067138671875,0.08392333984375,0.0705718994140625,0.25035721852461756
1782217213.522064,-0.0649413987994194,-0.0263671875,0.9902343153953552,0.9927117473069377,-0.0820159912109375,-0.0400543212890625,0.1926422119140625,0.21317127686295492
1782217213.530074,-0.0830078050494194,-0.0390625,0.9838866591453552,0.9881544072914823,-0.202178955078125,0.08392333984375,-0.2346038818359375,0.3208713733250484
1782217213.538085,-0.0634765550494194,-0.0234375,0.9804686903953552,0.9828008151669263,0.1659393310546875,-0.0400543212890625,-0.2346038818359375,0.2901365051442082
1782217213.546096,-0.0649413987994194,-0.037109375,0.9829100966453552,0.9857518699339592,-0.019073486328125,0.02288818359375,0.1277923583984375,0.13121948671582692
1782217213.562192,-0.0551757775247097,-0.0390624962747097,0.9843749403953552,0.9866936040732336,0.1010894775390625,-0.0400543212890625,0.1277923583984375,0.16779248489751492
1782217213.570276,-0.0678710862994194,-0.03515625,0.9770507216453552,0.9800359987965928,-0.019073486328125,-0.09918212890625,-0.1125335693359375,0.15121076946623682
1782217213.57836,-0.0639648362994194,-0.0400390625,0.9741210341453552,0.9770396184255308,-0.080108642578125,-0.09918212890625,-0.2346038818359375,0.2670083719334963
1782217213.586444,-0.0644531175494194,-0.03173828125,0.9853515028953552,0.9879671589261855,-0.080108642578125,-0.16021728515625,-0.0553131103515625,0.18747403354948397
1782217213.59707,-0.0688476487994194,-0.0322265625,0.9907225966453552,0.9936346479362974,0.041961669921875,0.20599365234375,-0.1125335693359375,0.23844909472681247
1782217213.607696,-0.0683593675494194,-0.02685546875,0.9897460341453552,0.9924673452764063,-0.202178955078125,-0.09918212890625,0.1277923583984375,0.2589291629691279
1782217213.618322,-0.0502929650247097,-0.0371093787252903,0.9873046278953552,0.9892810099177783,0.102996826171875,0.02288818359375,-0.1125335693359375,0.1542595843932781
1782217213.626273,-0.0678710862994194,-0.03466796875,0.9931640028953552,0.996083876518358,0.164031982421875,-0.09918212890625,0.0095367431640625,0.19192325398920163
1782217213.634226,-0.06689453125,-0.0302734337747097,0.9843749403953552,0.9871096101153246,-0.019073486328125,0.02288818359375,-0.1735687255859375,0.1761072665464343
1782217213.642179,-0.0693359300494194,-0.03662109375,0.9799804091453552,0.9831124950950232,0.164031982421875,0.02288818359375,-0.1125335693359375,0.20023527269928684
1782217213.650132,-0.0693359375,-0.0234375037252903,0.9814452528953552,0.9841705000865981,0.102996826171875,-0.28228759765625,0.3147125244140625,0.43513056318200427
1782217213.660788,-0.07421875,-0.0234375037252903,0.9790038466453552,0.9820928017141953,0.1010894775390625,-0.0400543212890625,0.0705718994140625,0.1296295649532028
1782217213.671444,-0.0678710862994194,-0.02099609375,0.9794921278953552,0.9820652467719204,0.286102294921875,-0.09918212890625,-0.1125335693359375,0.3230408984655438
1782217213.6821,-0.0678710862994194,-0.05029296875,0.9790038466453552,0.9826415413606092,0.102996826171875,-0.09918212890625,-0.1735687255859375,0.22488117617395614
1782217213.691702,-0.0698242112994194,-0.041015625,0.9990233778953552,1.002300060640112,0.102996826171875,0.20599365234375,0.0705718994140625,0.24087781963955446
1782217213.701306,-0.0810546875,-0.0366210974752903,0.9863280653953552,0.9903302579102395,-0.019073486328125,-0.09918212890625,0.1277923583984375,0.1628857864889379
1782217213.71091,-0.0615234337747097,-0.0268554724752903,0.9799804091453552,0.9822769220611873,-0.0820159912109375,-0.0400543212890625,0.0705718994140625,0.11537488658780375
1782217213.720514,-0.0683593675494194,-0.0390625,0.9868163466453552,0.9899522130105536,-0.324249267578125,-0.09918212890625,-0.0553131103515625,0.3435610897585619
1782217213.730118,-0.06591796875,-0.0351562462747097,0.9829100966453552,0.9857450980571172,-0.0820159912109375,-0.0400543212890625,0.2536773681640625,0.2695981798656759
1782217213.739734,-0.0605468712747097,-0.0375976599752903,0.9970702528953552,0.9996142240212378,0.164031982421875,-0.34332275390625,-0.1125335693359375,0.3967881157929356
1782217213.74935,-0.0556640587747097,-0.0390624962747097,0.9858397841453552,0.9881823951367716,-0.0820159912109375,-0.0209808349609375,0.1430511474609375,0.1662240928381369
1782217213.758966,-0.0634765550494194,-0.0341796875,0.9877929091453552,0.9904202923185609,-0.20599365234375,0.03814697265625,-0.0400543212890625,0.21329070533589098
1782217213.768582,-0.0571289025247097,-0.0292968712747097,0.9902343153953552,0.9923134673865273,0.09918212890625,0.03814697265625,0.2040863037109375,0.2300945579095814
1782217213.778198,-0.0683593675494194,-0.0283203125,0.9838866591453552,0.9866650907354849,0.09918212890625,-0.08392333984375,-0.1621246337890625,0.20776096492397983
1782217213.787861,-0.06689453125,-0.03564453125,0.9912108778953552,0.9941048311809325,-0.0820159912109375,0.2841949462890625,-0.1010894775390625,0.3125899435037479
1782217213.797526,-0.06640625,-0.0249023400247097,0.9814452528953552,0.984004421234273,-0.0209808349609375,-0.3261566162109375,-0.1621246337890625,0.3648324692445349
1782217213.807191,-0.0712890625,-0.0351562462747097,0.9838866591453552,0.9870922196676789,0.1621246337890625,0.0400543212890625,0.0209808349609375,0.16831203453949206
1782217213.816856,-0.0561523400247097,-0.0297851525247097,0.9873046278953552,0.9893486083604488,-0.08392333984375,-0.08392333984375,0.1430511474609375,0.185875992884907
1782217213.826521,-0.052734375,-0.02587890625,0.9819335341453552,0.9836890248317933,0.3452301025390625,0.1010894775390625,-0.0400543212890625,0.3619492434336335
1782217213.837111,-0.0673828050494194,-0.02734375,0.9887694716453552,0.9914399584131283,-0.02288818359375,0.03814697265625,0.2040863037109375,0.20887862464467472
1782217213.8477,-0.0786132737994194,-0.0322265625,0.9941405653953552,0.9977645322983902,0.09918212890625,-0.14495849609375,0.2040863037109375,0.2692606165901927
1782217213.858289,-0.0688476487994194,-0.0341796875,0.9873046278953552,0.9902922185124912,-0.02288818359375,0.03814697265625,0.2651214599609375,0.26882791708242815
1782217213.866266,-0.0625,-0.02099609375,0.9951171278953552,0.9972989442406222,0.1621246337890625,-0.0209808349609375,-0.0400543212890625,0.16831203453949206
1782217213.874243,-0.0610351525247097,-0.0346679650247097,0.9775390028953552,0.9800559472929667,-0.08392333984375,-0.08392333984375,-0.0400543212890625,0.1252621355198232
1782217213.88222,-0.07470703125,-0.0283203162252903,0.9882811903953552,0.9915053666614968,0.0400543212890625,-0.0209808349609375,-0.1621246337890625,0.16831203453949206
1782217213.890197,-0.0566406212747097,-0.0424804724752903,0.9799804091453552,0.982534657316884,0.28228759765625,0.03814697265625,0.2651214599609375,0.3891411926861413
1782217213.899785,-0.0683593675494194,-0.0458984375,0.9858397841453552,0.9892723334352672,0.1010894775390625,0.1010894775390625,0.2040863037109375,0.2491774153101245
1782217213.909373,-0.0629882737994194,-0.02294921875,0.9794921278953552,0.981783590149294,0.0400543212890625,-0.2040863037109375,0.0209808349609375,0.20903531627927985
1782217213.918961,-0.0732421800494194,-0.04052734375,0.9838866591453552,0.9874410567593545,-0.08392333984375,-0.08392333984375,-0.2841949462890625,0.30798217714228565
1782217213.928549,-0.06494140625,-0.0375976599752903,0.9902343153953552,0.9930734966093159,-0.0209808349609375,-0.0209808349609375,-0.1621246337890625,0.1648174376470943
1782217213.938137,-0.0683593675494194,-0.03515625,0.9892577528953552,0.9922398231825745,-0.0209808349609375,0.1621246337890625,-0.0400543212890625,0.16831203453949206
1782217213.947735,-0.064453125,-0.0346679650247097,0.9848632216453552,0.9875786745727594,-0.08392333984375,-0.08392333984375,0.0820159912109375,0.14426668622856662
1782217213.957333,-0.0620117150247097,-0.0380859412252903,0.9877929091453552,0.990470001099057,0.1010894775390625,0.2841949462890625,-0.2841949462890625,0.4144304736160299
1782217213.966931,-0.0644531175494194,-0.041015625,0.9887694716453552,0.9917164685099339,0.0400543212890625,0.0400543212890625,0.0820159912109375,0.09967607597697388
1782217213.976529,-0.0625,-0.03759765625,0.9892577528953552,0.9919429093546971,-0.08392333984375,-0.324249267578125,-0.2231597900390625,0.402468640251335
1782217213.986127,-0.064453125,-0.0346679650247097,0.9858397841453552,0.9885525545589272,-0.08392333984375,0.164031982421875,-0.0400543212890625,0.1885575956616633
1782217213.995735,-0.0683593675494194,-0.02734375,0.9819335341453552,0.9846898746686727,0.1621246337890625,-0.2040863037109375,-0.0400543212890625,0.2637043133844384
1782217214.005345,-0.0874023362994194,-0.03466796875,0.9873046278953552,0.9917718813877683,-0.1430511474609375,-0.0820159912109375,0.1430511474609375,0.21829769672191768
1782217214.014955,-0.06201171875,-0.03076171875,0.9765624403953552,0.9790127356647179,-0.0209808349609375,-0.2040863037109375,0.0209808349609375,0.20623193310859794
1782217214.024565,-0.0732421800494194,-0.0390625,0.9912108778953552,0.994680501619853,0.041961669921875,-0.14495849609375,0.0820159912109375,0.17175671790851937
1782217214.034175,-0.0600585900247097,-0.0341796837747097,0.9863280653953552,0.9887458407524349,-0.1430511474609375,-0.0209808349609375,-0.0400543212890625,0.15002724712356896
1782217214.043759,-0.0722656175494194,-0.0380859375,0.9838866591453552,0.9872719058897914,-0.0820159912109375,-0.0209808349609375,0.0820159912109375,0.11787044186004926
1782217214.053343,-0.0703125,-0.0405273400247097,0.9848632216453552,0.9882013348986108,-0.1430511474609375,0.0400543212890625,0.0209808349609375,0.15002724712356896
1782217214.062927,-0.06640625,-0.0283203162252903,0.9863280653953552,0.988966573215044,0.0400543212890625,-0.0209808349609375,-0.0400543212890625,0.06040606545300718
1782217214.072511,-0.0678710862994194,-0.02734375,0.9882811903953552,0.9909863148948053,0.09918212890625,-0.08392333984375,0.0209808349609375,0.1316070556640625
1782217214.082095,-0.07470703125,-0.0385742150247097,0.9809569716453552,0.9845535489766858,-0.1430511474609375,-0.2040863037109375,0.0820159912109375,0.2623765861630883
1782217214.091711,-0.0678710862994194,-0.04296875,0.9853515028953552,0.9886204438965244,-0.1430511474609375,-0.1430511474609375,0.2040863037109375,0.2873647176362728
1782217214.101331,-0.06591796875,-0.0361328087747097,0.9726561903953552,0.9755566734887734,0.0400543212890625,-0.0820159912109375,-0.0400543212890625,0.09967607597697388
1782217214.110951,-0.0522460900247097,-0.0390624962747097,0.9960936903953552,0.9982275154410039,-0.0820159912109375,-0.0209808349609375,-0.0400543212890625,0.09365450818779691
1782217214.120571,-0.0576171875,-0.0302734375,0.9951171278953552,0.9972433602407074,0.4673004150390625,0.2231597900390625,0.0820159912109375,0.5243058197276387
1782217214.130191,-0.06689453125,-0.0537109337747097,0.9858397841453552,0.9895654716702018,-0.02288818359375,-0.14495849609375,-0.1621246337890625,0.2186806608258274
1782217214.139785,-0.0678710862994194,-0.03515625,0.9907225966453552,0.993666800176619,0.1010894775390625,-0.2040863037109375,-0.1010894775390625,0.2491774153101245
1782217214.149379,-0.0615234337747097,-0.0449218712747097,0.9926757216453552,0.9955943931975407,0.0400543212890625,0.0400543212890625,0.1430511474609375,0.15385814277361395
1782217214.158973,-0.0786132737994194,-0.03173828125,0.9843749403953552,0.9880189211713133,-0.20599365234375,0.03814697265625,0.0209808349609375,0.21054399009331168
1782217214.168567,-0.06591796875,-0.0356445275247097,0.9833983778953552,0.9862495022020552,-0.0209808349609375,-0.0209808349609375,-0.1010894775390625,0.10535403808320218
1782217214.178161,-0.0634765625,-0.0336914025247097,0.9794921278953552,0.9821248460353038,-0.08392333984375,0.164031982421875,0.2040863037109375,0.27495606483613505
1782217214.187761,-0.06689453125,-0.0361328125,0.9794921278953552,0.9824384393229371,-0.0820159912109375,-0.2040863037109375,-0.0400543212890625,0.22356697168999057
1782217214.197361,-0.0507812462747097,-0.0341796837747097,0.9848632216453552,0.986763675408565,-0.1430511474609375,0.2231597900390625,0.1430511474609375,0.3012101483517118
1782217214.206961,-0.0678710862994194,-0.04736328125,0.9912108778953552,0.9946601274929596,-0.0209808349609375,-0.0820159912109375,-0.0400543212890625,0.09365450818779691
1782217214.216561,-0.0639648362994194,-0.02978515625,0.9819335341453552,0.9844653987290949,0.3452301025390625,0.0400543212890625,-0.2231597900390625,0.41302356378702837
1782217214.226161,-0.0732421800494194,-0.0341796875,0.9897460341453552,0.9930407242819641,-0.1430511474609375,0.0400543212890625,0.1430511474609375,0.20623193310859794
1782217214.235768,-0.0742187425494194,-0.0458984375,0.9868163466453552,0.9906672450005826,-0.08392333984375,-0.26702880859375,-0.1621246337890625,0.3234685587051155
1782217214.245375,-0.0649413987994194,-0.04150390625,0.9902343153953552,0.9932290566120897,0.2231597900390625,-0.2040863037109375,0.0209808349609375,0.3031364489604138
1782217214.254982,-0.0727538987994194,-0.04345703125,0.9775390028953552,0.9812054553136285,0.1010894775390625,0.1010894775390625,0.0209808349609375,0.14449346135344443
1782217214.264589,-0.0737304612994194,-0.029296875,0.9843749403953552,0.9875669653681971,0.09918212890625,0.22125244140625,-0.3452301025390625,0.42186912807378274
1782217214.274196,-0.0629882737994194,-0.048828125,0.9965819716453552,0.9997636393847247,0.2841949462890625,-0.0209808349609375,-0.1621246337890625,0.3278587497888974
1782217214.283815,-0.0673828050494194,-0.0400390625,0.9775390028953552,0.9806763335187876,-0.1430511474609375,-0.2040863037109375,-0.3452301025390625,0.4257918198502826
1782217214.293433,-0.0634765550494194,-0.03564453125,0.9858397841453552,0.988524094624271,0.2231597900390625,-0.0209808349609375,0.1430511474609375,0.2659024597776926
1782217214.303051,-0.0595703050494194,-0.02490234375,0.9912108778953552,0.9933115082520714,0.1010894775390625,-0.0209808349609375,-0.0400543212890625,0.1107412595138152
1782217214.312669,-0.06982421875,-0.0346679650247097,0.9902343153953552,0.9932981872074016,-0.1430511474609375,-0.1430511474609375,-0.1621246337890625,0.25925211370598195
1782217214.322287,-0.0639648362994194,-0.0322265625,0.9980468153953552,1.000613560438888,-0.2040863037109375,0.1010894775390625,-0.0400543212890625,0.23124586587751378
1782217214.331853,-0.0639648362994194,-0.0224609375,0.9877929091453552,0.9901165715985337,0.09918212890625,-0.26702880859375,-0.1010894775390625,0.30225909710461024
1782217214.34142,-0.0600585862994194,-0.03173828125,0.9799804091453552,0.9823318963536136,-0.0209808349609375,-0.0209808349609375,0.0209808349609375,0.03633987213756113
1782217214.350987,-0.0624999962747097,-0.0395507775247097,0.9804686903953552,0.9832544769197498,-0.1430511474609375,-0.0209808349609375,-0.1010894775390625,0.17641686057366968
1782217214.360554,-0.06640625,-0.0449218712747097,0.9951171278953552,0.9983415561763342,-0.1430511474609375,-0.0209808349609375,0.0209808349609375,0.1460959330755209
1782217214.370121,-0.0620117150247097,-0.0395507775247097,0.9848632216453552,0.9876058333934561,0.0400543212890625,-0.0820159912109375,-0.0400543212890625,0.09967607597697388
1782217214.378108,-0.0629882737994194,-0.03466796875,0.9843749403953552,0.9869971701944442,-0.0209808349609375,0.2231597900390625,0.0209808349609375,0.22512370546345103
1782217214.386095,-0.056640625,-0.03662109375,0.9985350966453552,1.0008104736364352,-0.0209808349609375,-0.0209808349609375,0.0820159912109375,0.08721819584025327
1782217214.394082,-0.07080078125,-0.0327148474752903,0.9877929091453552,0.990867217758659,-0.0209808349609375,0.1010894775390625,0.0820159912109375,0.13185560556567663
1782217214.402069,-0.06982421875,-0.0244140587747097,0.9877929091453552,0.990558579362042,0.041961669921875,-0.14495849609375,0.0209808349609375,0.15236122462113588
1782217214.41276,-0.0678710862994194,-0.037109375,0.9887694716453552,0.9917906322032835,-0.2040863037109375,0.1010894775390625,0.0209808349609375,0.22871488204131304
1782217214.423451,-0.0629882737994194,-0.046875,0.9794921278953552,0.9826340198009641,-0.0209808349609375,0.1010894775390625,-0.0400543212890625,0.1107412595138152
1782217214.434142,-0.0634765550494194,-0.04296875,0.9873046278953552,0.9902757266443979,0.1621246337890625,0.0400543212890625,-0.1621246337890625,0.23275124578915296
1782217214.442136,-0.06591796875,-0.0522460974752903,0.9902343153953552,0.993800197570936,-0.0209808349609375,0.1621246337890625,-0.0400543212890625,0.16831203453949206
1782217214.450131,-0.0698242112994194,-0.04541015625,0.9912108778953552,0.9947042310316752,0.041961669921875,-0.14495849609375,-0.1621246337890625,0.2214907316653041
1782217214.458126,-0.07373046875,-0.0336914025247097,0.9809569716453552,0.9843007024511377,-0.2040863037109375,-0.0820159912109375,-0.0400543212890625,0.22356697168999057
1782217214.466121,-0.0727538987994194,-0.04833984375,0.9902343153953552,0.9940794081313616,-0.02288818359375,-0.14495849609375,-0.1010894775390625,0.17820189956087326
1782217214.476831,-0.0639648362994194,-0.03759765625,0.9887694716453552,0.9915493694698916,-0.02288818359375,-0.14495849609375,0.0820159912109375,0.16811739158188102
1782217214.487541,-0.0644531175494194,-0.02197265625,0.9858397841453552,0.988188788637212,-0.08392333984375,-0.08392333984375,-0.2231597900390625,0.2527578798600304
1782217214.498251,-0.0610351525247097,-0.0390624962747097,0.9873046278953552,0.9899604015931709,-0.0209808349609375,-0.0209808349609375,0.1430511474609375,0.1460959330755209
1782217214.508876,-0.0581054612994194,-0.0361328125,0.9824218153953552,0.9848017303684452,-0.1430511474609375,0.0400543212890625,-0.2231597900390625,0.26808258304876276
1782217214.519502,-0.0693359375,-0.0234375037252903,0.9956054091453552,0.9982920011346215,0.1010894775390625,-0.0209808349609375,-0.1010894775390625,0.14449346135344443
1782217214.530128,-0.0629882737994194,-0.02978515625,0.9755858778953552,0.9780707966798305,0.1621246337890625,-0.0209808349609375,0.0820159912109375,0.1828967335170541
1782217214.53814,-0.0629882737994194,-0.03369140625,0.9833983778953552,0.9859893524468452,0.09918212890625,-0.14495849609375,0.2040863037109375,0.2692606165901927
1782217214.546153,-0.0615234337747097,-0.0322265662252903,0.9907225966453552,0.9931540404075389,0.1010894775390625,0.2841949462890625,-0.1010894775390625,0.3181272268047555
1782217214.554166,-0.0722656175494194,-0.04150390625,0.9838866591453552,0.9874096676445984,0.2231597900390625,-0.0820159912109375,0.1430511474609375,0.2774717021508354
1782217214.562179,-0.0610351525247097,-0.0317382849752903,0.9794921278953552,0.9819050041556251,0.0400543212890625,-0.0209808349609375,0.1430511474609375,0.15002724712356896
1782217214.572864,-0.0654296875,-0.0273437537252903,0.9799804091453552,0.9825427864387559,-0.2040863037109375,-0.0209808349609375,-0.1621246337890625,0.26148768934557653
1782217214.583549,-0.0678710862994194,-0.03662109375,0.9853515028953552,0.9883648987702086,0.1010894775390625,-0.0209808349609375,-0.1010894775390625,0.14449346135344443
1782217214.594234,-0.0624999962747097,-0.0444335900247097,0.9887694716453552,0.9917387062702845,0.1621246337890625,0.1010894775390625,0.1430511474609375,0.23867783755566652
1782217214.604854,-0.0625,-0.03076171875,0.9858397841453552,0.9882978363551216,-0.08392333984375,-0.26702880859375,-0.0400543212890625,0.28275759979787385
1782217214.615476,-0.0590820237994194,-0.0322265625,0.9912108778953552,0.9934929498113624,-0.0209808349609375,-0.2040863037109375,-0.1010894775390625,0.22871488204131304
1782217214.626098,-0.0625,-0.03564453125,0.9921874403953552,0.9947927922368149,0.0400543212890625,-0.2040863037109375,0.2651214599609375,0.336964325334507
1782217214.634131,-0.08154296875,-0.0278320349752903,0.9707030653953552,0.9745195324319408,0.1010894775390625,-0.2040863037109375,0.1430511474609375,0.26894968418164117
1782217214.642164,-0.056640625,-0.02685546875,1.00244140625,1.004399397434432,0.1010894775390625,0.1621246337890625,0.1430511474609375,0.23867783755566652
1782217214.650197,-0.0742187425494194,-0.0419921875,0.9873046278953552,0.9909804205029673,-0.08392333984375,0.09918212890625,0.2040863037109375,0.24193272004278085
1782217214.65823,-0.0639648362994194,-0.04052734375,0.9741210341453552,0.9770597499839293,-0.0209808349609375,0.1621246337890625,0.0209808349609375,0.1648174376470943
1782217214.668877,-0.064453125,-0.0395507775247097,0.9858397841453552,0.9887358339459713,0.0400543212890625,-0.0209808349609375,-0.1621246337890625,0.16831203453949206
1782217214.679524,-0.0722656175494194,-0.048828125,0.9912108778953552,0.9950404563277291,0.0400543212890625,0.0400543212890625,0.1430511474609375,0.15385814277361395
1782217214.690171,-0.07177734375,-0.041015625,0.9902343153953552,0.993679157452975,-0.1430511474609375,-0.1430511474609375,0.2040863037109375,0.2873647176362728
1782217214.698177,-0.06494140625,-0.0400390587747097,0.9863280653953552,0.9892742617999501,-0.02288818359375,0.03814697265625,0.0209808349609375,0.04918593200007487
1782217214.706184,-0.0605468712747097,-0.0380859412252903,0.9843749403953552,0.9869703571123764,0.041961669921875,-0.14495849609375,0.0820159912109375,0.17175671790851937
1782217214.714191,-0.0644531175494194,-0.03076171875,0.9941405653953552,0.9967025391092821,-0.08392333984375,-0.26702880859375,-0.0400543212890625,0.28275759979787385
1782217214.722198,-0.0615234337747097,-0.0429687537252903,0.9873046278953552,0.9901524503649535,0.2231597900390625,-0.0209808349609375,-0.3452301025390625,0.41161184509810717
1782217214.732847,-0.064453125,-0.0478515662252903,0.9833983778953552,0.9866693201674485,0.09918212890625,-0.14495849609375,0.0209808349609375,0.17689051902178313
1782217214.743496,-0.06494140625,-0.0346679650247097,0.9848632216453552,0.9876106618472433,0.0400543212890625,0.0400543212890625,-0.1010894775390625,0.11587829726474028
1782217214.754145,-0.06591796875,-0.0439453087747097,0.9833983778953552,0.9865843797743031,-0.2040863037109375,0.1010894775390625,-0.0400543212890625,0.23124586587751378
1782217214.764944,-0.0639648362994194,-0.0380859375,0.9790038466453552,0.9818302147848514,-0.08392333984375,0.03814697265625,0.0209808349609375,0.09454371438136085
1782217214.775741,-0.0517578087747097,-0.0297851525247097,0.9951171278953552,0.9969072796959506,-0.08392333984375,0.03814697265625,-0.1621246337890625,0.1865012476489202
1782217214.786538,-0.0673828050494194,-0.04443359375,0.9833983778953552,0.9867052023360797,-0.08392333984375,-0.08392333984375,-0.1010894775390625,0.15590168828521306
1782217214.797122,-0.064453125,-0.0380859412252903,0.9819335341453552,0.9847833313579538,-0.0209808349609375,0.1010894775390625,-0.1621246337890625,0.19220737443193053
1782217214.807707,-0.06591796875,-0.0410156212747097,0.9877929091453552,0.9908391853123898,0.1010894775390625,0.1621246337890625,0.0820159912109375,0.20791849885152314
1782217214.818292,-0.0600585900247097,-0.0351562462747097,0.9887694716453552,0.9912154477941307,-0.08392333984375,0.164031982421875,0.0820159912109375,0.20168351703124487
1782217214.826378,-0.0615234337747097,-0.0385742150247097,0.9921874403953552,0.9948412033317128,-0.3261566162109375,-0.2040863037109375,-0.1621246337890625,0.4175089873784748
1782217214.834466,-0.0747070237994194,-0.03173828125,0.9799804091453552,0.9833361888033862,-0.08392333984375,0.164031982421875,0.2651214599609375,0.3228606615238203
1782217214.842554,-0.064453125,-0.0444335900247097,0.9863280653953552,0.9894299378082785,0.2231597900390625,-0.2040863037109375,0.0820159912109375,0.3133339018794233
1782217214.850642,-0.0615234337747097,-0.0439453087747097,0.9916991591453552,0.9945770685654984,-0.0209808349609375,-0.0820159912109375,0.0209808349609375,0.08721819584025327
1782217214.861157,-0.0678710862994194,-0.03369140625,0.9877929091453552,0.9906949210369506,-0.0209808349609375,-0.0820159912109375,-0.0400543212890625,0.09365450818779691
1782217214.871672,-0.0590820275247097,-0.0390624962747097,0.9907225966453552,0.9932511404953721,0.1621246337890625,0.1621246337890625,0.3261566162109375,0.3986814919966113
1782217214.882187,-0.0590820237994194,-0.037109375,0.9785155653953552,0.9809997466717907,0.0400543212890625,-0.0209808349609375,0.0820159912109375,0.09365450818779691
1782217214.890174,-0.0751953050494194,-0.03564453125,0.9755858778953552,0.9791285266288376,-0.20599365234375,0.03814697265625,0.0820159912109375,0.2249782192637034
1782217214.89816,-0.0825195237994194,-0.04052734375,0.9995116591453552,1.0037307876950943,0.0400543212890625,-0.2651214599609375,-0.0400543212890625,0.27110530396817006
1782217214.906146,-0.0610351525247097,-0.0483398400247097,0.9921874403953552,0.9952376333598,-0.263214111328125,0.03814697265625,-0.0400543212890625,0.2689632104564093
1782217214.914132,-0.064453125,-0.0336914025247097,0.9843749403953552,0.9870579208965939,0.2231597900390625,-0.2040863037109375,0.0820159912109375,0.3133339018794233
1782217214.926142,-0.0712890625,-0.0278320349752903,0.9941405653953552,0.9970818503852085,0.1010894775390625,-0.0209808349609375,-0.0400543212890625,0.1107412595138152
1782217214.938152,-0.0585937425494194,-0.03515625,0.9921874403953552,0.9945376340080332,-0.08392333984375,0.09918212890625,0.2040863037109375,0.24193272004278085
1782217214.950162,-0.0576171837747097,-0.0288085974752903,0.9833983778953552,0.9855059841532358,0.28228759765625,-0.26702880859375,0.3261566162109375,0.5073152971355223
1782217214.962172,-0.07470703125,-0.0527343787252903,0.9907225966453552,0.9949338263027577,0.2231597900390625,0.1621246337890625,0.0820159912109375,0.28776954596660964
1782217214.970158,-0.06689453125,-0.037109375,0.9941405653953552,0.9970794591147911,-0.0820159912109375,-0.2040863037109375,-0.1621246337890625,0.2732439186110886
1782217214.978144,-0.0683593675494194,-0.03173828125,0.9785155653953552,0.9814137931318534,-0.2651214599609375,0.1621246337890625,0.0820159912109375,0.321403808669669
1782217214.98613,-0.0512695275247097,-0.0488281212747097,0.9858397841453552,0.9883788898411303,0.09918212890625,0.03814697265625,-0.2841949462890625,0.3034123493094106
1782217214.994116,-0.0688476487994194,-0.03466796875,0.9785155653953552,0.9815470332711779,-0.08392333984375,-0.14495849609375,0.2040863037109375,0.26402142322676075
1782217215.002127,-0.0693359300494194,-0.03076171875,0.9926757216453552,0.9955696072502408,-0.2040863037109375,-0.0209808349609375,-0.2841949462890625,0.3505113155010751
1782217215.010138,-0.0634765550494194,-0.033203125,0.9975585341453552,1.0001273666873323,-0.2040863037109375,-0.0209808349609375,0.0209808349609375,0.20623193310859794
1782217215.018149,-0.0600585862994194,-0.0556640625,0.9873046278953552,0.9906946804671328,0.09918212890625,-0.26702880859375,0.0209808349609375,0.28562505973571656
1782217215.02616,-0.06982421875,-0.0341796837747097,0.9790038466453552,0.9820856398773934,-0.0209808349609375,-0.0820159912109375,-0.1010894775390625,0.13185560556567663
1782217215.036848,-0.0673828050494194,-0.0390625,0.9907225966453552,0.993779444759396,0.0400543212890625,0.0400543212890625,-0.0400543212890625,0.06937611953534398
1782217215.047536,-0.0732421800494194,-0.03662109375,0.9868163466453552,0.9902080707873087,-0.08392333984375,0.164031982421875,0.0820159912109375,0.20168351703124487
1782217215.058224,-0.0615234337747097,-0.0292968712747097,0.9848632216453552,0.9872178102726804,0.1010894775390625,0.1010894775390625,0.0209808349609375,0.14449346135344443
1782217215.068866,-0.0693359375,-0.0332031287252903,0.9833983778953552,0.9863986464069018,0.1621246337890625,-0.2040863037109375,-0.0400543212890625,0.2637043133844384
1782217215.079508,-0.0722656175494194,-0.0244140625,0.9716796278953552,0.9746690028899087,0.3452301025390625,-0.2651214599609375,0.2651214599609375,0.509669109092134
1782217215.09015,-0.0727538987994194,-0.04248046875,0.9990233778953552,1.002569413854812,0.16021728515625,-0.14495849609375,0.0209808349609375,0.21707772683593993
1782217215.100818,-0.0639648362994194,-0.03955078125,0.9838866591453552,0.9867566683962694,0.1010894775390625,-0.0209808349609375,-0.0400543212890625,0.1107412595138152
1782217215.111484,-0.0654296875,-0.0332031287252903,0.9877929091453552,0.990514171085573,0.2841949462890625,0.1621246337890625,0.2651214599609375,0.4211182172612576
1782217215.12215,-0.0742187425494194,-0.037109375,0.9809569716453552,0.9844603129015074,0.0400543212890625,0.2231597900390625,0.1430511474609375,0.26808258304876276
1782217215.130259,-0.0629882737994194,-0.033203125,1.001953125,1.0044799823009227,-0.08392333984375,0.09918212890625,0.3261566162109375,0.3510816998407555
1782217215.138368,-0.0615234337747097,-0.0444335900247097,0.9814452528953552,0.9843750612732642,0.09918212890625,0.03814697265625,0.1430511474609375,0.17820189956087326
1782217215.146477,-0.0610351525247097,-0.0341796837747097,0.9999999403953552,1.0024437248132025,0.1010894775390625,-0.0209808349609375,0.0209808349609375,0.10535403808320218
1782217215.154586,-0.0639648362994194,-0.03759765625,1.0009765625,1.0037226522862883,0.1621246337890625,-0.3261566162109375,-0.1010894775390625,0.37799684872830225
1782217215.165101,-0.05712890625,-0.046875,0.9873046278953552,0.9900663643503435,-0.1430511474609375,-0.2040863037109375,0.0820159912109375,0.2623765861630883
1782217215.175616,-0.0722656175494194,-0.0302734375,0.9824218153953552,0.9855411832402392,-0.08392333984375,0.03814697265625,-0.2231597900390625,0.24145105173439335
1782217215.186131,-0.0605468712747097,-0.0405273400247097,0.9951171278953552,0.9977807811044145,0.09918212890625,0.22125244140625,-0.1621246337890625,0.2916747064862493
1782217215.196784,-0.07080078125,-0.0283203162252903,0.9912108778953552,0.9941397262934378,-0.08392333984375,0.03814697265625,0.0820159912109375,0.12338938895901388
1782217215.207438,-0.0649413987994194,-0.041015625,0.9809569716453552,0.9839594742629353,0.2841949462890625,0.1621246337890625,0.0820159912109375,0.33730963103918826
1782217215.218092,-0.0673828050494194,-0.0361328125,0.9877929091453552,0.9907476237232831,0.1010894775390625,0.1010894775390625,-0.0400543212890625,0.14846721386275386
1782217215.226133,-0.0639648362994194,-0.02783203125,0.9853515028953552,0.9878176484070568,-0.08392333984375,0.164031982421875,0.0209808349609375,0.18544490735374203
1782217215.234175,-0.0654296875,-0.0405273400247097,0.9907225966453552,0.9937075891828246,0.09918212890625,-0.26702880859375,-0.0400543212890625,0.28765574558367685
1782217215.242217,-0.0576171875,-0.037109375,0.9882811903953552,0.9906546104962926,-0.02288818359375,0.03814697265625,-0.0400543212890625,0.059861583047772275
1782217215.250259,-0.0771484300494194,-0.037109375,0.9863280653953552,0.9900363824418398,0.2841949462890625,-0.0820159912109375,0.0820159912109375,0.30695278647516505
1782217215.260889,-0.0703125,-0.0454101525247097,0.9838866591453552,0.9874405742386606,0.2231597900390625,0.1621246337890625,0.3261566162109375,0.42715667742607616
1782217215.271519,-0.06689453125,-0.0346679650247097,0.9785155653953552,0.9814119715140546,-0.08392333984375,0.03814697265625,-0.1010894775390625,0.13681155273765028
1782217215.282149,-0.0673828050494194,-0.03515625,0.9829100966453552,0.985844136979965,0.1010894775390625,-0.0209808349609375,0.0820159912109375,0.13185560556567663
1782217215.292787,-0.07177734375,-0.0283203162252903,0.9765624403953552,0.9796061593200799,0.1621246337890625,-0.0209808349609375,0.0820159912109375,0.1828967335170541
1782217215.303426,-0.0712890625,-0.0263671875,0.9931640028953552,0.9960683187693072,-0.2651214599609375,-0.0209808349609375,-0.0400543212890625,0.26894968418164117
1782217215.314065,-0.0639648362994194,-0.046875,0.9843749403953552,0.9875640683956513,0.0400543212890625,-0.0209808349609375,-0.0400543212890625,0.06040606545300718
1782217215.322082,-0.06494140625,-0.0375976599752903,0.9868163466453552,0.9896653334778535,-0.0820159912109375,-0.0209808349609375,-0.0400543212890625,0.09365450818779691
1782217215.330099,-0.0600585900247097,-0.0322265662252903,0.9946288466453552,0.996961447792992,-0.0209808349609375,-0.2040863037109375,0.0820159912109375,0.22094804278916727
1782217215.338116,-0.0732421800494194,-0.02734375,0.9921874403953552,0.9952627866451857,-0.0820159912109375,-0.2040863037109375,-0.1621246337890625,0.2732439186110886
1782217215.346133,-0.0507812462747097,-0.0385742150247097,0.9965819716453552,0.9986202137181727,-0.0209808349609375,0.1621246337890625,-0.1621246337890625,0.23023681112744188
1782217215.356819,-0.0727538987994194,-0.03759765625,0.9946288466453552,0.9979946172826178,-0.08392333984375,-0.08392333984375,-0.2841949462890625,0.30798217714228565
1782217215.367505,-0.0751953050494194,-0.03173828125,0.9882811903953552,0.9916457853928689,0.2231597900390625,0.1010894775390625,0.2651214599609375,0.36098305069797676
1782217215.378191,-0.06640625,-0.0478515662252903,0.9853515028953552,0.988745238515671,-0.1430511474609375,0.0400543212890625,-0.0400543212890625,0.15385814277361395
1782217215.388834,-0.06689453125,-0.02587890625,0.9770507216453552,0.9796799011756662,-0.08392333984375,-0.08392333984375,0.0820159912109375,0.14426668622856662
1782217215.399475,-0.0810546875,-0.0273437537252903,0.9858397841453552,0.9895441492107729,-0.08392333984375,0.03814697265625,0.2040863037109375,0.22394092492387196
1782217215.410116,-0.07177734375,-0.03564453125,0.9921874403953552,0.9954187242372551,0.0400543212890625,-0.0820159912109375,-0.0400543212890625,0.09967607597697388
1782217215.420801,-0.0683593675494194,-0.0400390625,0.9965819716453552,0.999725840351333,-0.02288818359375,0.34332275390625,0.0820159912109375,0.35372447626974485
1782217215.431487,-0.0605468712747097,-0.0351562462747097,0.9790038466453552,0.9815041604698813,-0.02288818359375,-0.14495849609375,0.1430511474609375,0.2049401505998125
1782217215.442173,-0.0610351525247097,-0.0385742150247097,0.9897460341453552,0.9923761746509968,0.1010894775390625,0.1621246337890625,-0.0400543212890625,0.1952122639699814
1782217215.452824,-0.0712890625,-0.0283203162252903,0.9897460341453552,0.9927141496169418,0.1010894775390625,-0.2040863037109375,-0.1621246337890625,0.2795616188119379
1782217215.463476,-0.0639648362994194,-0.0380859375,0.9916991591453552,0.9944894474893486,-0.2040863037109375,0.2841949462890625,0.0209808349609375,0.3505113155010751
1782217215.474128,-0.06689453125,-0.0327148474752903,0.9775390028953552,0.9803711754933098,0.1010894775390625,-0.2040863037109375,0.0820159912109375,0.2420680165693647
1782217215.482177,-0.0703125,-0.0478515662252903,0.9892577528953552,0.992907106284385,-0.2040863037109375,-0.0820159912109375,0.1430511474609375,0.2623765861630883
1782217215.490229,-0.0581054612994194,-0.041015625,0.9936522841453552,0.9961944528626129,-0.1430511474609375,-0.1430511474609375,-0.2231597900390625,0.3012101483517118
1782217215.498281,-0.0634765550494194,-0.033203125,0.9877929091453552,0.9903870717595982,-0.2040863037109375,-0.0820159912109375,0.2040863037109375,0.30004843198906844
1782217215.506333,-0.0678710862994194,-0.0263671875,0.9887694716453552,0.9914468119823465,0.0400543212890625,-0.0209808349609375,-0.2231597900390625,0.22769461122271648
1782217215.515885,-0.0732421800494194,-0.037109375,0.9770507216453552,0.9804945870931626,-0.32806396484375,-0.14495849609375,0.2040863037109375,0.4126622710899992
1782217215.525437,-0.0688476487994194,-0.0341796875,0.9965819716453552,0.9995418330371918,0.0400543212890625,-0.0820159912109375,0.2651214599609375,0.28039322388399296
1782217215.534989,-0.0595703087747097,-0.0380859412252903,0.9926757216453552,0.9951905591145132,0.1621246337890625,0.1010894775390625,0.0209808349609375,0.19220737443193053
1782217215.544541,-0.0683593675494194,-0.0419921875,0.9838866591453552,0.9871521184635123,-0.02288818359375,0.03814697265625,0.0209808349609375,0.04918593200007487
1782217215.554093,-0.0600585862994194,-0.0361328125,0.9946288466453552,0.9970953597858705,0.09918212890625,-0.14495849609375,0.1430511474609375,0.22652525482609795
1782217215.563704,-0.0605468675494194,-0.041015625,0.9951171278953552,0.9978007330599072,0.2841949462890625,-0.0209808349609375,0.0209808349609375,0.28573966887283836
1782217215.573316,-0.0693359300494194,-0.0263671875,0.9794921278953552,0.9822970672772311,-0.1430511474609375,0.2841949462890625,0.0820159912109375,0.328568137682957
1782217215.582928,-0.0673828050494194,-0.0341796875,0.9716796278953552,0.9746127398719872,0.09918212890625,-0.14495849609375,-0.1621246337890625,0.23902815140768535
1782217215.59254,-0.0732421800494194,-0.03369140625,0.9990233778953552,1.0022710398764099,0.0400543212890625,0.0400543212890625,-0.1010894775390625,0.11587829726474028
1782217215.602152,-0.0639648362994194,-0.037109375,0.9824218153953552,0.985201111124225,-0.2040863037109375,-0.0820159912109375,-0.1010894775390625,0.2420680165693647
1782217215.611752,-0.0615234375,-0.03125,0.9765624403953552,0.9789973931797511,0.2231597900390625,-0.0820159912109375,0.0209808349609375,0.23867783755566652
1782217215.621351,-0.0571289025247097,-0.0249023400247097,0.9892577528953552,0.9912188152501705,-0.0209808349609375,-0.0820159912109375,0.0209808349609375,0.08721819584025327
1782217215.63095,-0.0654296875,-0.0200195275247097,0.9853515028953552,0.9877243591948087,0.09918212890625,-0.08392333984375,0.0209808349609375,0.1316070556640625
1782217215.640549,-0.0712890625,-0.0351562462747097,0.9985350966453552,1.0016937812110076,-0.0209808349609375,0.1010894775390625,-0.1621246337890625,0.19220737443193053
1782217215.650148,-0.0678710862994194,-0.03466796875,0.9750975966453552,0.9780714060825324,0.2231597900390625,-0.0209808349609375,0.2040863037109375,0.3031364489604138
1782217215.65974,-0.08154296875,-0.0424804724752903,0.9819335341453552,0.9862288333715836,-0.08392333984375,0.22125244140625,0.0209808349609375,0.23756255015135222
1782217215.669334,-0.0610351525247097,-0.0219726599752903,0.9970702528953552,0.9991782507835686,0.0400543212890625,0.0400543212890625,0.0209808349609375,0.06040606545300718
1782217215.678928,-0.0732421800494194,-0.03125,0.9882811903953552,0.991484084959336,0.1010894775390625,-0.0209808349609375,0.2040863037109375,0.22871488204131304
1782217215.688522,-0.0683593675494194,-0.03955078125,0.9809569716453552,0.9841310114252412,-0.0209808349609375,0.1010894775390625,0.0820159912109375,0.13185560556567663
1782217215.698116,-0.0639648362994194,-0.03515625,0.9853515028953552,0.9880511355466423,0.1621246337890625,-0.0209808349609375,-0.1621246337890625,0.23023681112744188
1782217215.707718,-0.06689453125,-0.041015625,0.9873046278953552,0.9904178855760247,-0.1430511474609375,-0.2651214599609375,0.1430511474609375,0.33349160425953867
1782217215.717318,-0.0698242112994194,-0.03662109375,0.9746093153953552,0.9777933537544807,0.1621246337890625,-0.0820159912109375,0.0820159912109375,0.1993430272416439
1782217215.726918,-0.0546874925494194,-0.03564453125,0.9956054091453552,0.9977431458891939,-0.20599365234375,-0.14495849609375,-0.0400543212890625,0.2550503853155429
1782217215.736518,-0.0712890625,-0.0239257849752903,0.9902343153953552,0.9930853805213933,0.225067138671875,0.03814697265625,-0.0400543212890625,0.23176444310270966
1782217215.746118,-0.06640625,-0.0341796837747097,0.9931640028953552,0.995968261275994,0.0400543212890625,-0.0820159912109375,-0.1010894775390625,0.13619858272889862
1782217215.756788,-0.0683593675494194,-0.0400390625,0.9858397841453552,0.9890178004775223,0.1621246337890625,-0.0209808349609375,0.0209808349609375,0.1648174376470943
1782217215.76746,-0.0644531175494194,-0.025390625,0.9902343153953552,0.9926544653534973,0.4062652587890625,-0.0209808349609375,0.0209808349609375,0.4073473350474508
1782217215.778132,-0.0742187425494194,-0.03564453125,0.9902343153953552,0.993651324026772,-0.0209808349609375,-0.0209808349609375,0.0209808349609375,0.03633987213756113
1782217215.786136,-0.0590820237994194,-0.03271484375,0.9809569716453552,0.9832789669048394,0.2841949462890625,-0.0820159912109375,0.0820159912109375,0.30695278647516505
1782217215.794142,-0.0610351525247097,-0.0185546912252903,0.9858397841453552,0.9879016380257404,-0.2040863037109375,-0.0209808349609375,0.0209808349609375,0.20623193310859794
1782217215.802148,-0.0688476487994194,-0.03271484375,0.9838866591453552,0.9868349496197444,-0.1430511474609375,0.0400543212890625,-0.2231597900390625,0.26808258304876276
1782217215.810154,-0.0712890625,-0.0449218712747097,0.9999999403953552,1.0035437139166707,-0.08392333984375,-0.38909912109375,0.1430511474609375,0.4229714928885269
1782217215.820812,-0.0693359375,-0.0380859412252903,0.9765624403953552,0.9797613031442668,0.09918212890625,-0.14495849609375,-0.1010894775390625,0.20265523125065968
1782217215.83147,-0.06982421875,-0.0390624962747097,0.9907225966453552,0.9939479682775023,0.0400543212890625,0.2231597900390625,0.0209808349609375,0.22769461122271648
1782217215.842128,-0.0810546875,-0.0346679650247097,0.9902343153953552,0.9941507579593676,-0.02288818359375,0.03814697265625,0.0820159912109375,0.0933042511645127
1782217215.852774,-0.0605468712747097,-0.0356445275247097,0.9873046278953552,0.9898014367675982,-0.2651214599609375,-0.0209808349609375,0.0820159912109375,0.27830955208506525
1782217215.86342,-0.0781249925494194,-0.0322265625,0.9711913466453552,0.9748613735245806,-0.2040863037109375,-0.0209808349609375,0.1430511474609375,0.25011006694641863
1782217215.874066,-0.06982421875,-0.0424804724752903,0.9921874403953552,0.9955480545629419,-0.02288818359375,0.03814697265625,0.3261566162109375,0.32917654650540745
1782217215.882104,-0.0639648362994194,-0.03271484375,0.9785155653953552,0.9811495670922911,0.1010894775390625,0.1621246337890625,0.1430511474609375,0.23867783755566652
1782217215.89014,-0.0546874962747097,-0.0488281212747097,0.9907225966453552,0.9934315130796533,-0.2651214599609375,-0.0209808349609375,0.0209808349609375,0.2667766470348092
1782217215.898176,-0.0654296875,-0.0244140587747097,0.9868163466453552,0.9892843839254153,-0.1430511474609375,-0.0209808349609375,0.0209808349609375,0.1460959330755209
1782217215.906212,-0.0590820237994194,-0.03515625,0.9843749403953552,0.9867728567044478,-0.08392333984375,0.164031982421875,0.2651214599609375,0.3228606615238203
1782217215.916851,-0.0551757775247097,-0.0385742150247097,0.9887694716453552,0.991058729111481,-0.0209808349609375,-0.2040863037109375,0.0209808349609375,0.20623193310859794
1782217215.92749,-0.06591796875,-0.0332031287252903,0.9819335341453552,0.9847035553101561,0.09918212890625,-0.08392333984375,0.0209808349609375,0.1316070556640625
1782217215.938129,-0.0737304612994194,-0.03125,0.9965819716453552,0.9997941636316791,0.2231597900390625,-0.0209808349609375,0.0820159912109375,0.23867783755566652
1782217215.946122,-0.06689453125,-0.046875,0.9780272841453552,0.9814323779399662,0.09918212890625,0.03814697265625,0.0209808349609375,0.10831658069229648
1782217215.954118,-0.0703125,-0.0468750037252903,0.9912108778953552,0.9948065732033423,0.1010894775390625,0.1010894775390625,-0.3452301025390625,0.3736602583060886
1782217215.962114,-0.0683593675494194,-0.02587890625,0.9863280653953552,0.9890327464280427,-0.0209808349609375,-0.0209808349609375,0.2040863037109375,0.20623193310859794
1782217215.97011,-0.0571289025247097,-0.0327148474752903,0.9897460341453552,0.9919330546238834,-0.1430511474609375,0.0400543212890625,0.0209808349609375,0.15002724712356896
1782217215.979721,-0.0605468712747097,-0.0234375037252903,0.9882811903953552,0.9904115061383776,-0.0705718994140625,-0.0667572021484375,-0.0553131103515625,0.11178755387949069
1782217215.989332,-0.0605468712747097,-0.0478515662252903,0.9833983778953552,0.9864218497471482,-0.0095367431640625,0.0553131103515625,0.1277923583984375,0.13957570172482073
1782217215.998943,-0.0781249925494194,-0.04345703125,0.9794921278953552,0.983563346528774,0.1735687255859375,0.0553131103515625,-0.1773834228515625,0.2542646679757666
1782217216.008554,-0.06591796875,-0.0429687537252903,0.9804686903953552,0.9836210374155351,-0.1316070556640625,-0.0667572021484375,0.0629425048828125,0.16043285218487474
1782217216.018165,-0.0727538987994194,-0.033203125,0.9682616591453552,0.9715586538501924,0.0514984130859375,-0.3719329833984375,0.1277923583984375,0.396632219512065
1782217216.027753,-0.0673828050494194,-0.03173828125,0.9843749403953552,0.9871888290450775,0.171661376953125,-0.00762939453125,0.0629425048828125,0.18299616094136845
1782217216.037341,-0.0576171875,-0.0263671875,0.9941405653953552,0.9961578352031705,0.2346038818359375,0.0553131103515625,-0.1201629638671875,0.2693281630921684
1782217216.046929,-0.07177734375,-0.0371093787252903,0.9902343153953552,0.9935255872153925,0.11444091796875,-0.00762939453125,0.1277923583984375,0.17171435068589444
1782217216.056517,-0.0624999962747097,-0.0336914025247097,0.9990233778953552,1.001543343904729,-0.011444091796875,-0.00762939453125,0.3681182861328125,0.36837514504011803
1782217216.066105,-0.0644531175494194,-0.02978515625,0.9707030653953552,0.9732963582910477,-0.0705718994140625,-0.1277923583984375,0.0629425048828125,0.15897496272327327
1782217216.0757,-0.07470703125,-0.0292968712747097,0.9819335341453552,0.9852070405066454,0.0514984130859375,-0.1277923583984375,0.1277923583984375,0.18791982407516047
1782217216.085296,-0.0532226487994194,-0.03271484375,0.9985350966453552,1.0004875064584076,-0.011444091796875,-0.19073486328125,0.1277923583984375,0.2298731001509466
1782217216.094892,-0.0683593675494194,-0.04150390625,0.9790038466453552,0.9822647856419202,-0.0095367431640625,-0.4329681396484375,0.1277923583984375,0.451534324593204
1782217216.104488,-0.06640625,-0.0341796837747097,0.9902343153953552,0.9930468469354855,-0.133514404296875,-0.00762939453125,0.0629425048828125,0.1478041363987684
1782217216.114084,-0.0590820275247097,-0.0439453087747097,0.9770507216453552,0.9798214065876723,-0.0705718994140625,0.0553131103515625,0.2498626708984375,0.26546428662284044
1782217216.122128,-0.0605468712747097,-0.0429687537252903,0.9833983778953552,0.9861970427176695,-0.0095367431640625,-0.0667572021484375,-0.3032684326171875,0.31067541861394543
1782217216.130175,-0.0629882737994194,-0.0322265625,0.9877929091453552,0.9903236366585627,-0.1316070556640625,0.0553131103515625,-0.1773834228515625,0.22769461122271648
1782217216.138222,-0.0747070237994194,-0.03564453125,0.9941405653953552,0.997580641240394,-0.0705718994140625,0.1773834228515625,0.0629425048828125,0.20101500095855449
1782217216.146269,-0.0683593675494194,-0.0341796875,0.9824218153953552,0.98539021587088,0.0514984130859375,0.1773834228515625,0.0057220458984375,0.18479639353128596
1782217216.156919,-0.0629882737994194,-0.03857421875,0.9960936903953552,0.9988283801704081,-0.194549560546875,-0.12969970703125,0.1277923583984375,0.26646281612639494
1782217216.167569,-0.0673828050494194,-0.05078125,0.9897460341453552,0.9933359904253692,0.0514984130859375,-0.3108978271484375,0.1888275146484375,0.3673763407791736
1782217216.178219,-0.0585937462747097,-0.0288085974752903,0.9853515028953552,0.9875124032887554,0.1125335693359375,0.0553131103515625,-0.0553131103515625,0.1370506642851997
1782217216.188867,-0.0683593675494194,-0.0390625,0.9863280653953552,0.9894654792485439,0.0514984130859375,0.0553131103515625,0.0057220458984375,0.0757916125728818
1782217216.199514,-0.0712890625,-0.0419921912252903,0.9902343153953552,0.9936847960709362,-0.0095367431640625,-0.0667572021484375,0.0629425048828125,0.09224550086474416
1782217216.210161,-0.0727538987994194,-0.02734375,0.9853515028953552,0.9884120571465698,0.1125335693359375,0.0553131103515625,0.1277923583984375,0.17903695503801745
1782217216.218153,-0.0517578087747097,-0.0390624962747097,0.9838866591453552,0.9860211495848248,0.0514984130859375,0.0553131103515625,-0.0553131103515625,0.09365450818779691
1782217216.226147,-0.0654296875,-0.0302734337747097,0.9809569716453552,0.9836026153983557,-0.0705718994140625,0.1163482666015625,-0.1201629638671875,0.18153911427966102
1782217216.234141,-0.0585937425494194,-0.03662109375,0.9931640028953552,0.9955646979581584,0.1125335693359375,0.0553131103515625,0.1277923583984375,0.17903695503801745
1782217216.242135,-0.0590820275247097,-0.0332031287252903,0.9833983778953552,0.9857309487790239,-0.0095367431640625,-0.0667572021484375,-0.1201629638671875,0.1377919133846818
1782217216.252786,-0.0600585900247097,-0.0375976599752903,0.9995116591453552,1.0020200472240435,-0.133514404296875,-0.19073486328125,-0.1773834228515625,0.29269568313899463
1782217216.263437,-0.06640625,-0.0434570275247097,0.9868163466453552,0.9900024269095666,0.11444091796875,-0.19073486328125,-0.0553131103515625,0.2292074430580548
1782217216.274088,-0.0722656175494194,-0.04345703125,0.9921874403953552,0.9957644048283454,-0.1316070556640625,0.1163482666015625,0.1277923583984375,0.21722850436069988
1782217216.282094,-0.07177734375,-0.0297851525247097,0.9887694716453552,0.9918186378792047,0.1125335693359375,0.1163482666015625,0.2498626708984375,0.2977113999785285
1782217216.290099,-0.0673828050494194,-0.02783203125,0.9868163466453552,0.9895057182180984,0.0514984130859375,0.0553131103515625,0.0057220458984375,0.0757916125728818
1782217216.298104,-0.0629882737994194,-0.03515625,0.9931640028953552,0.9957802072733813,-0.1316070556640625,-0.0667572021484375,0.3108978271484375,0.3441429936303668
1782217216.306109,-0.0722656175494194,-0.03466796875,0.9843749403953552,0.9876326294809264,0.0514984130859375,0.1163482666015625,0.1277923583984375,0.18033272735860462
1782217216.316779,-0.0634765550494194,-0.0361328125,0.9902343153953552,0.9929243941844766,-0.0705718994140625,-0.1277923583984375,-0.1201629638671875,0.18907780868544638
1782217216.327449,-0.0576171875,-0.04150390625,0.9882811903953552,0.9908289589120209,0.0514984130859375,-0.0057220458984375,0.0629425048828125,0.08152660474076275
1782217216.338119,-0.06591796875,-0.0307617150247097,0.9882811903953552,0.9909546775734235,0.0514984130859375,0.0553131103515625,0.2498626708984375,0.2610421058673004
1782217216.348869,-0.0590820237994194,-0.0400390625,0.9780272841453552,0.9806279521790379,0.0514984130859375,0.1163482666015625,-0.1201629638671875,0.17500898141782648
1782217216.359618,-0.0693359375,-0.0283203162252903,0.9892577528953552,0.9920889144646623,0.0514984130859375,0.1163482666015625,-0.0553131103515625,0.13873912882933298
1782217216.370367,-0.0644531175494194,-0.03564453125,0.9799804091453552,0.9827442898732962,-0.0095367431640625,0.0553131103515625,-0.1201629638671875,0.13262589314416862
1782217216.380956,-0.0590820275247097,-0.0385742150247097,0.9868163466453552,0.9893357155423476,-0.194549560546875,0.35858154296875,-0.3604888916015625,0.54441022715867
1782217216.391545,-0.0678710862994194,-0.037109375,0.9892577528953552,0.992277426797527,0.1125335693359375,0.0553131103515625,0.0629425048828125,0.1403036112335433
1782217216.402134,-0.0683593675494194,-0.0458984375,0.9868163466453552,0.9902455108220304,0.0514984130859375,-0.0057220458984375,0.0057220458984375,0.052130319094529906
1782217216.410252,-0.0742187425494194,-0.04052734375,0.9848632216453552,0.9884869511969876,0.0514984130859375,-0.0057220458984375,-0.0553131103515625,0.0757916125728818
1782217216.418369,-0.0595703050494194,-0.0361328125,0.9999999403953552,1.0024241029492234,0.0514984130859375,-0.0057220458984375,0.1277923583984375,0.13789748084960937
1782217216.426486,-0.0742187425494194,-0.03515625,0.9897460341453552,0.9931473182595512,0.5397796630859375,0.1163482666015625,-0.1201629638671875,0.5651001165348521
1782217216.434603,-0.0590820237994194,-0.0361328125,0.9843749403953552,0.9868081317833546,-0.0705718994140625,0.1163482666015625,-0.1201629638671875,0.18153911427966102
1782217216.445106,-0.06689453125,-0.0346679650247097,0.9887694716453552,0.9916359282357344,0.1125335693359375,0.3604888916015625,0.0057220458984375,0.37768874355065596
1782217216.455609,-0.0620117150247097,-0.0478515662252903,0.9804686903953552,0.9835924349221592,0.41961669921875,-0.00762939453125,-0.1773834228515625,0.4556328133779311
1782217216.466112,-0.06982421875,-0.0190429724752903,0.9912108778953552,0.9938496167845633,-0.0705718994140625,0.0553131103515625,0.1277923583984375,0.15611156276428528
1782217216.474161,-0.06640625,-0.0478515662252903,0.9882811903953552,0.991664899912534,0.1125335693359375,-0.1277923583984375,-0.1201629638671875,0.20840784288953226
1782217216.482208,-0.06591796875,-0.0332031287252903,0.9829100966453552,0.9856773734080821,-0.194549560546875,0.05340576171875,-0.1773834228515625,0.2686383918882004
1782217216.490255,-0.0751953125,-0.0351562462747097,0.9921874403953552,0.995653661446784,-0.011444091796875,-0.19073486328125,-0.0553131103515625,0.19892283801699734
1782217216.498302,-0.0737304612994194,-0.0390625,0.9921874403953552,0.9956896990066543,0.171661376953125,-0.19073486328125,-0.1201629638671875,0.28334882087933067
1782217216.508893,-0.0683593675494194,-0.03466796875,0.9926757216453552,0.9956304332095993,-0.0705718994140625,0.1163482666015625,0.0057220458984375,0.13619858272889862
1782217216.519484,-0.0600585900247097,-0.0273437537252903,0.9833983778953552,0.9856100064177318,-0.0095367431640625,-0.0667572021484375,0.1277923583984375,0.14449346135344443
1782217216.530075,-0.0566406212747097,-0.0332031287252903,0.9843749403953552,0.9865620259334394,0.0514984130859375,-0.0057220458984375,0.0629425048828125,0.08152660474076275
1782217216.540762,-0.07177734375,-0.0361328125,0.9936522841453552,0.9968963983294591,-0.011444091796875,-0.12969970703125,0.1277923583984375,0.1824386694373813
1782217216.551448,-0.0678710862994194,-0.033203125,0.9853515028953552,0.9882441581529152,0.2346038818359375,0.1163482666015625,-0.1201629638671875,0.2881233041581777
1782217216.562134,-0.0693359375,-0.0195312462747097,0.9765624403953552,0.9792155747336635,-0.2536773681640625,0.2384185791015625,-0.1773834228515625,0.39071793493771123
1782217216.570128,-0.0551757775247097,-0.0346679650247097,0.9848632216453552,0.9870166156524817,0.2346038818359375,0.1773834228515625,0.0629425048828125,0.3007750305393545
1782217216.578121,-0.0615234337747097,-0.0371093787252903,0.9985350966453552,1.0011166655916568,-0.194549560546875,0.17547607421875,0.0629425048828125,0.2694497041251471
1782217216.586114,-0.076171875,-0.0385742150247097,0.9916991591453552,0.9953679454630798,-0.0705718994140625,-0.3719329833984375,0.1277923583984375,0.39955653416207026
1782217216.594107,-0.0644531175494194,-0.03076171875,0.9877929091453552,0.9903713036332067,0.0514984130859375,0.0553131103515625,0.0629425048828125,0.09835337131007185
1782217216.604792,-0.07568359375,-0.0380859412252903,0.9897460341453552,0.9933658728728252,-0.0095367431640625,0.1163482666015625,-0.0553131103515625,0.12917975378568303
1782217216.615477,-0.06689453125,-0.0341796837747097,0.9873046278953552,0.9901583496379164,0.1125335693359375,-0.0667572021484375,-0.1201629638671875,0.17764984140584142
1782217216.626162,-0.0639648362994194,-0.0322265625,0.9926757216453552,0.9952563187227221,-0.0705718994140625,-0.2498626708984375,0.0057220458984375,0.2597007683944606
1782217216.636845,-0.064453125,-0.0429687537252903,0.9838866591453552,0.9869313436927508,0.11444091796875,-0.00762939453125,0.1888275146484375,0.2209315768620446
1782217216.647528,-0.0786132737994194,-0.025390625,0.9848632216453552,0.9883219596897669,-0.133514404296875,-0.19073486328125,-0.0553131103515625,0.23930195235816748
1782217216.658211,-0.0595703050494194,-0.04248046875,0.9858397841453552,0.988551107162731,0.171661376953125,0.17547607421875,0.0629425048828125,0.25341909928336104
1782217216.668866,-0.0566406212747097,-0.0478515662252903,0.9794921278953552,0.9822946406132782,-0.0095367431640625,-0.0667572021484375,0.1888275146484375,0.20050761530966976
1782217216.679522,-0.0590820275247097,-0.0239257849752903,0.9887694716453552,0.9908219805903326,-0.0705718994140625,0.0553131103515625,0.0057220458984375,0.08984806605006315
1782217216.690178,-0.0629882737994194,-0.025390625,0.9838866591453552,0.9862277447518548,0.1125335693359375,-0.0667572021484375,0.1277923583984375,0.1828967335170541
1782217216.69848,-0.064453125,-0.0380859412252903,0.9794921278953552,0.98234900765983,-0.011444091796875,-0.12969970703125,0.0629425048828125,0.14461929387868777
1782217216.706781,-0.06689453125,-0.0390624962747097,0.9863280653953552,0.9893653569399492,-0.194549560546875,-0.12969970703125,0.0629425048828125,0.2421431486412472
1782217216.715082,-0.0566406212747097,-0.0249023400247097,0.9926757216453552,0.9946021188702636,0.23651123046875,-0.19073486328125,0.0057220458984375,0.3038915793799215
1782217216.723383,-0.06689453125,-0.0346679650247097,0.9858397841453552,0.9887147344476426,-0.06866455078125,-0.19073486328125,-0.2384185791015625,0.3129505191970705
1782217216.733619,-0.07666015625,-0.0419921912252903,0.9873046278953552,0.9911662584772353,-0.194549560546875,-0.00762939453125,-0.0553131103515625,0.2024037532919283
1782217216.743855,-0.07568359375,-0.0327148474752903,0.9848632216453552,0.9883085717314783,0.11444091796875,-0.49591064453125,0.0629425048828125,0.5128214601455879
1782217216.754091,-0.0747070237994194,-0.03173828125,0.9824218153953552,0.985769283994169,-0.194549560546875,0.17547607421875,0.3108978271484375,0.40656960419813254
1782217216.762111,-0.0566406212747097,-0.0424804724752903,0.9931640028953552,0.9956844315179555,0.1125335693359375,0.2994537353515625,-0.1201629638671875,0.3417242773477426
1782217216.770132,-0.0556640550494194,-0.0263671875,0.9838866591453552,0.9858126970400682,-0.0705718994140625,0.1163482666015625,0.0057220458984375,0.13619858272889862
1782217216.778153,-0.064453125,-0.0439453087747097,0.9794921278953552,0.9825936210328974,0.11444091796875,-0.00762939453125,0.0057220458984375,0.11483759478370949
1782217216.786174,-0.0732421800494194,-0.02490234375,0.9965819716453552,0.9995799967342175,-0.316619873046875,-0.00762939453125,-0.1201629638671875,0.3387410361241751
1782217216.796822,-0.06884765625,-0.0434570275247097,0.9956054091453552,0.9989287480756031,-0.0705718994140625,-0.0667572021484375,-0.2384185791015625,0.25744967641541894
1782217216.80747,-0.0688476487994194,-0.04150390625,0.9882811903953552,0.9915454020207433,0.4177093505859375,0.1163482666015625,-0.0553131103515625,0.4371241938910246
1782217216.818118,-0.064453125,-0.0336914025247097,0.9848632216453552,0.9875448755757966,-0.0095367431640625,0.1163482666015625,0.2498626708984375,0.27578836617933405
1782217216.828774,-0.0693359375,-0.0292968712747097,0.9892577528953552,0.9921172715758246,0.11444091796875,-0.00762939453125,0.0629425048828125,0.13083076965059293
1782217216.839429,-0.0595703087747097,-0.0346679650247097,0.9902343153953552,0.9926300866249101,0.1125335693359375,-0.1277923583984375,-0.1773834228515625,0.24588527771108457
1782217216.850084,-0.0585937425494194,-0.037109375,0.9907225966453552,0.9931473183181604,0.0514984130859375,0.1773834228515625,-0.0553131103515625,0.19281209876371921
1782217216.858109,-0.0624999962747097,-0.0244140587747097,0.9897460341453552,0.9920178969689268,0.0514984130859375,-0.0667572021484375,0.0629425048828125,0.10521582347717516
1782217216.866136,-0.06689453125,-0.0239257849752903,0.9843749403953552,0.9869353295815284,-0.0705718994140625,0.1163482666015625,-0.0553131103515625,0.1468906133994305
1782217216.874163,-0.0522460900247097,-0.0346679650247097,0.9897460341453552,0.991730171885621,-0.1316070556640625,-0.0667572021484375,-0.1201629638671875,0.19030522595188498
1782217216.88219,-0.0683593675494194,-0.0400390625,0.9853515028953552,0.9885310889981006,-0.011444091796875,-0.19073486328125,-0.0553131103515625,0.19892283801699734
1782217216.892902,-0.0624999962747097,-0.0434570275247097,0.9877929091453552,0.9907217541436476,-0.06866455078125,-0.19073486328125,-0.1201629638671875,0.23565599184034128
1782217216.903614,-0.06982421875,-0.0336914025247097,0.9931640028953552,0.9961853586432874,-0.06866455078125,-0.19073486328125,0.0629425048828125,0.2122648523091632
1782217216.914326,-0.0649413987994194,-0.0361328125,0.9980468153953552,1.0008098776181196,0.049591064453125,-0.19073486328125,-0.1773834228515625,0.26514890240588845
1782217216.924954,-0.0629882737994194,-0.03369140625,0.9868163466453552,0.9893983704746128,-0.0705718994140625,-0.1277923583984375,0.1277923583984375,0.1940158929494642
1782217216.935584,-0.0566406212747097,-0.0278320349752903,0.9882811903953552,0.9902941449077194,0.1125335693359375,-0.0667572021484375,0.1277923583984375,0.1828967335170541
1782217216.946214,-0.0654296875,-0.0322265662252903,0.9853515028953552,0.9880471546617378,-0.0705718994140625,-0.2498626708984375,-0.0553131103515625,0.26546428662284044
1782217216.95425,-0.0624999962747097,-0.0380859412252903,0.9887694716453552,0.9914745869215156,-0.06866455078125,-0.00762939453125,0.0057220458984375,0.06932366121439457
1782217216.962286,-0.07080078125,-0.0366210974752903,0.9833983778953552,0.9866236491454687,-0.1316070556640625,0.1773834228515625,0.0629425048828125,0.22966726959674238
1782217216.970322,-0.0688476487994194,-0.0380859375,0.9809569716453552,0.9841072693563889,-0.194549560546875,-0.00762939453125,0.0057220458984375,0.19478316400335907
1782217216.978358,-0.0625,-0.04150390625,0.9863280653953552,0.9891773737912493,0.0514984130859375,0.0553131103515625,-0.0553131103515625,0.09365450818779691
1782217216.98895,-0.06982421875,-0.0380859412252903,0.9873046278953552,0.9905030987870003,0.2956390380859375,-0.0667572021484375,0.1277923583984375,0.32892225790314106
1782217216.999542,-0.0634765550494194,-0.03564453125,0.9873046278953552,0.9899849665083607,0.1735687255859375,-0.1277923583984375,-0.3032684326171875,0.37206011824521956
1782217217.010134,-0.06591796875,-0.0317382849752903,0.9887694716453552,0.9914724229120715,-0.011444091796875,-0.00762939453125,-0.0553131103515625,0.05699750060075354
1782217217.020805,-0.0678710862994194,-0.03857421875,0.9931640028953552,0.9962274797227595,0.1125335693359375,0.0553131103515625,-0.1773834228515625,0.21722850436069988
1782217217.031476,-0.0649413987994194,-0.03076171875,0.9799804091453552,0.9826114547099363,-0.194549560546875,-0.12969970703125,0.1277923583984375,0.26646281612639494
1782217217.042147,-0.0791015550494194,-0.04052734375,0.9960936903953552,1.0000510795194937,-0.1316070556640625,-0.0667572021484375,0.0629425048828125,0.16043285218487474
1782217217.052811,-0.068359375,-0.0434570275247097,0.9814452528953552,0.9847823626682709,0.2346038818359375,0.1163482666015625,-0.1201629638671875,0.2881233041581777
1782217217.063476,-0.0639648362994194,-0.02294921875,0.9863280653953552,0.9886663843332547,-0.0705718994140625,0.1773834228515625,0.3681182861328125,0.4146761920761837
1782217217.074141,-0.05224609375,-0.03662109375,0.9848632216453552,0.9869277198302053,0.2956390380859375,-0.2498626708984375,-0.0553131103515625,0.3910157737555397
1782217217.082144,-0.0727538987994194,-0.044921875,0.9877929091453552,0.9914867301189036,-0.0095367431640625,0.1163482666015625,0.0057220458984375,0.11687861404307198
1782217217.090149,-0.0698242112994194,-0.03076171875,0.9887694716453552,0.9917090157308619,-0.0095367431640625,0.0553131103515625,0.0057220458984375,0.05642013342952362
1782217217.098154,-0.0590820237994194,-0.0380859375,0.9799804091453552,0.9824982577491864,-0.0705718994140625,0.1163482666015625,0.0057220458984375,0.13619858272889862
1782217217.106159,-0.0595703087747097,-0.0341796837747097,0.9951171278953552,0.9974843210302377,0.0514984130859375,-0.0057220458984375,0.1277923583984375,0.13789748084960937
1782217217.116819,-0.07568359375,-0.0400390587747097,0.9780272841453552,0.9817680485344892,-0.011444091796875,-0.00762939453125,-0.1201629638671875,0.12094756212225105
1782217217.127479,-0.0781249925494194,-0.025390625,0.9838866591453552,0.9873100608942187,-0.0705718994140625,0.0553131103515625,0.0057220458984375,0.08984806605006315
1782217217.138139,-0.0722656175494194,-0.0419921875,0.9960936903953552,0.9995940692782604,0.0514984130859375,-0.0667572021484375,0.0057220458984375,0.08450652281523026
1782217217.146122,-0.0610351525247097,-0.0415039099752903,0.9838866591453552,0.9866513175540587,0.23651123046875,-0.19073486328125,-0.0553131103515625,0.3088314918940804
1782217217.154103,-0.07177734375,-0.0458984375,0.9838866591453552,0.9875685351837388,-0.0705718994140625,-0.1277923583984375,-0.0553131103515625,0.15611156276428528
1782217217.162084,-0.0751953125,-0.0332031287252903,0.9838866591453552,0.9873144082931886,0.0514984130859375,-0.0667572021484375,0.0629425048828125,0.10521582347717516
1782217217.170065,-0.0610351525247097,-0.0317382849752903,0.9746093153953552,0.9770342502861864,-0.0705718994140625,0.0553131103515625,0.1888275146484375,0.20903531627927985
1782217217.180973,-0.0673828050494194,-0.0498046875,0.9848632216453552,0.9884212232965097,-0.1316070556640625,-0.0667572021484375,-0.0553131103515625,0.15759594320925627
1782217217.191881,-0.07080078125,-0.0351562462747097,0.9892577528953552,0.9924110105905245,0.2346038818359375,-0.0057220458984375,0.1277923583984375,0.26721266820042244
1782217217.202789,-0.06494140625,-0.0341796837747097,0.9975585341453552,1.0002543007030245,0.11444091796875,0.17547607421875,0.0629425048828125,0.21874719483841912
1782217217.213234,-0.0634765550494194,-0.0400390625,0.9902343153953552,0.9930742162362935,-0.011444091796875,-0.00762939453125,0.0629425048828125,0.06442774106618704
1782217217.223681,-0.0610351525247097,-0.0395507775247097,0.9946288466453552,0.9972843608648404,0.0514984130859375,-0.0057220458984375,0.1277923583984375,0.13789748084960937
1782217217.234128,-0.0595703050494194,-0.03173828125,0.9907225966453552,0.9930192360896641,-0.011444091796875,-0.00762939453125,0.1277923583984375,0.12853039237084538
1782217217.24481,-0.06591796875,-0.0336914025247097,0.9829100966453552,0.9856939420000458,0.1125335693359375,0.2384185791015625,-0.1773834228515625,0.31776107658243874
1782217217.255491,-0.0595703050494194,-0.03759765625,0.9858397841453552,0.98835331992306,0.0514984130859375,-0.2498626708984375,0.0629425048828125,0.26276453295639735
1782217217.266172,-0.06201171875,-0.03564453125,0.9873046278953552,0.9898921224729224,0.171661376953125,-0.00762939453125,0.1277923583984375,0.21414182885039307
1782217217.276865,-0.0527343712747097,-0.0380859412252903,0.9868163466453552,0.9889580146999372,-0.194549560546875,0.05340576171875,0.3681182861328125,0.4197770592577699
1782217217.287558,-0.06640625,-0.0361328125,0.9873046278953552,0.9901948285270977,-0.0095367431640625,0.0553131103515625,0.0057220458984375,0.05642013342952362
1782217217.298251,-0.0732421800494194,-0.033203125,0.9843749403953552,0.9876542349053723,0.293731689453125,-0.19073486328125,0.0629425048828125,0.3558368339292984
1782217217.306227,-0.0581054612994194,-0.0283203125,0.9765624403953552,0.9786993842461779,-0.0095367431640625,0.0553131103515625,-0.0553131103515625,0.07880374244733275
1782217217.314202,-0.0605468712747097,-0.0278320349752903,0.9824218153953552,0.9846792214506851,-0.011444091796875,-0.12969970703125,0.0057220458984375,0.13032928700146873
1782217217.322177,-0.0581054612994194,-0.03662109375,0.9936522841453552,0.9960231979866464,-0.0705718994140625,0.1163482666015625,0.1888275146484375,0.23275124578915296
1782217217.330152,-0.0639648362994194,-0.037109375,0.9882811903953552,0.9910440541595326,-0.0095367431640625,0.1163482666015625,-0.1773834228515625,0.21235052934688387
1782217217.340808,-0.0644531175494194,-0.04248046875,0.9819335341453552,0.9849630754836682,-0.06866455078125,-0.00762939453125,0.1277923583984375,0.1452718660303468
1782217217.351464,-0.05224609375,-0.0419921875,0.9833983778953552,0.9856801549033971,0.171661376953125,-0.00762939453125,0.1277923583984375,0.21414182885039307
1782217217.36212,-0.0688476487994194,-0.03515625,0.9863280653953552,0.9893528254600654,0.1125335693359375,0.0553131103515625,0.2498626708984375,0.2795616188119379
1782217217.372787,-0.0634765550494194,-0.0439453125,0.9921874403953552,0.995186605823225,0.171661376953125,-0.00762939453125,0.2498626708984375,0.3032444398614049
1782217217.383455,-0.08154296875,-0.03662109375,0.9858397841453552,0.9898840539496383,0.1735687255859375,-0.0667572021484375,0.0057220458984375,0.18605205817049605
1782217217.394123,-0.0693359375,-0.0336914025247097,0.9868163466453552,0.9898227542543018,-0.06866455078125,-0.19073486328125,-0.1201629638671875,0.23565599184034128
1782217217.40212,-0.0576171875,-0.03466796875,0.9912108778953552,0.993489110564752,-0.06866455078125,-0.00762939453125,0.1277923583984375,0.1452718660303468
1782217217.410116,-0.0629882737994194,-0.0498046875,0.9941405653953552,0.9973783100197235,0.293731689453125,-0.00762939453125,0.0629425048828125,0.300496708752065
1782217217.418112,-0.0581054612994194,-0.03173828125,0.9907225966453552,0.9929324381010208,-0.0705718994140625,0.0553131103515625,0.2498626708984375,0.26546428662284044
1782217217.426108,-0.0678710862994194,-0.033203125,0.9873046278953552,0.9901915774883235,0.1735687255859375,0.0553131103515625,-0.1201629638671875,0.21823102566692393
1782217217.434216,-0.076171875,-0.0341796837747097,0.9916991591453552,0.9952073289388293,-0.1316070556640625,-0.3108978271484375,0.0057220458984375,0.3376545836138571
1782217217.442324,-0.0673828050494194,-0.03125,0.9882811903953552,0.9910684720066462,-0.2536773681640625,-0.1277923583984375,0.0629425048828125,0.2909378849593206
1782217217.450432,-0.0571289025247097,-0.0473632849752903,0.9814452528953552,0.9842468068010971,-0.1316070556640625,-0.1277923583984375,0.0629425048828125,0.19394087471835642
1782217217.45854,-0.0830078050494194,-0.0341796875,0.9804686903953552,0.9845696519710035,-0.1316070556640625,0.2384185791015625,-0.2384185791015625,0.3619492434336335
1782217217.469051,-0.07080078125,-0.0375976599752903,0.9936522841453552,0.9968807333119192,-0.0095367431640625,-0.0667572021484375,-0.0553131103515625,0.08721819584025327
1782217217.479562,-0.0605468712747097,-0.0385742150247097,0.9809569716453552,0.9835804359103302,-0.0705718994140625,-0.0667572021484375,0.1277923583984375,0.16052353064467093
1782217217.490073,-0.0610351525247097,-0.0209960900247097,0.9804686903953552,0.9825909517625446,-0.0705718994140625,0.2384185791015625,0.0629425048828125,0.25648697972536433
1782217217.500749,-0.0590820237994194,-0.03466796875,0.9951171278953552,0.9974721308508758,-0.0705718994140625,0.1163482666015625,0.0057220458984375,0.13619858272889862
1782217217.511427,-0.0625,-0.03173828125,0.9960936903953552,0.9985570632378211,0.0514984130859375,-0.0057220458984375,-0.2384185791015625,0.24398411263941286
1782217217.522105,-0.0615234337747097,-0.0336914025247097,0.9848632216453552,0.9873579942742051,0.0514984130859375,-0.0057220458984375,-0.0553131103515625,0.0757916125728818
1782217217.532822,-0.0727538987994194,-0.0341796875,0.9960936903953552,0.9993317871825911,0.171661376953125,-0.00762939453125,0.1888275146484375,0.2553070039906117
1782217217.543539,-0.0727538987994194,-0.0302734375,0.9970702528953552,1.0001793339283662,-0.0095367431640625,0.1163482666015625,-0.1201629638671875,0.16753210586843514
1782217217.554256,-0.0571289025247097,-0.0327148474752903,1.00390625,1.0060624888833058,0.171661376953125,-0.00762939453125,-0.0553131103515625,0.18051419937257143
1782217217.562242,-0.0683593675494194,-0.029296875,0.9882811903953552,0.9910756889893841,0.1735687255859375,-0.0667572021484375,-0.1773834228515625,0.2569970918955116
1782217217.570227,-0.0693359375,-0.0288085974752903,0.9819335341453552,0.9847999152095235,-0.0705718994140625,0.1773834228515625,0.1888275146484375,0.2685164836239121
1782217217.578212,-0.0673828050494194,-0.03564453125,0.9833983778953552,0.9863484904796966,0.0514984130859375,-0.0057220458984375,-0.1201629638671875,0.13085857344851615
1782217217.586197,-0.0522460900247097,-0.0385742150247097,0.9956054091453552,0.9977212810735936,-0.0705718994140625,0.0553131103515625,-0.3032684326171875,0.3162462258838171
1782217217.594253,-0.0576171875,-0.0302734375,0.9799804091453552,0.9821394115003096,0.0514984130859375,0.1163482666015625,0.1277923583984375,0.18033272735860462
1782217217.602309,-0.0693359375,-0.0332031287252903,0.9916991591453552,0.9946743900572471,-0.011444091796875,-0.12969970703125,-0.1201629638671875,0.1771782128998777
1782217217.610365,-0.06689453125,-0.03564453125,0.9814452528953552,0.9843679166602379,0.1125335693359375,-0.1277923583984375,0.1888275146484375,0.2542646679757666
1782217217.618421,-0.06689453125,-0.0351562462747097,0.9916991591453552,0.9945743120616427,0.1125335693359375,-0.1277923583984375,0.0057220458984375,0.17037439039299532
1782217217.628988,-0.0561523400247097,-0.0234375037252903,0.9873046278953552,0.9891778556633329,-0.011444091796875,0.17547607421875,0.2498626708984375,0.30553915325008746
1782217217.639555,-0.0678710862994194,-0.0263671875,0.9921874403953552,0.9948555823889264,-0.1316070556640625,0.0553131103515625,0.0057220458984375,0.14287301734964375
1782217217.650122,-0.0585937425494194,-0.033203125,0.9965819716453552,0.9988549946735296,-0.133514404296875,-0.00762939453125,-0.0553131103515625,0.14471988112359335
1782217217.660805,-0.0581054612994194,-0.02783203125,0.9721679091453552,0.9743004209012592,-0.0705718994140625,-0.1277923583984375,0.1277923583984375,0.1940158929494642
1782217217.671486,-0.0590820237994194,-0.0361328125,0.9785155653953552,0.9809632905447517,-0.0705718994140625,0.1163482666015625,0.0057220458984375,0.13619858272889862
1782217217.682167,-0.0605468675494194,-0.03125,0.9902343153953552,0.9925756822814846,0.2346038818359375,0.1163482666015625,0.0057220458984375,0.26193251482575164
1782217217.692816,-0.0634765550494194,-0.02734375,0.9877929091453552,0.9902079504138757,0.171661376953125,-0.00762939453125,0.0629425048828125,0.18299616094136845
1782217217.703466,-0.0703124925494194,-0.03662109375,0.9804686903953552,0.9836685437491337,0.0514984130859375,-0.0057220458984375,-0.3032684326171875,0.30766307965324546
1782217217.714116,-0.0600585862994194,-0.03076171875,0.9858397841453552,0.9881464451853781,0.0514984130859375,0.0553131103515625,0.1888275146484375,0.20338991375050994
1782217217.722137,-0.0624999962747097,-0.0434570275247097,0.9941405653953552,0.9970507642744268,-0.0095367431640625,0.2384185791015625,0.1277923583984375,0.2706755533771382
1782217217.730159,-0.0786132737994194,-0.04052734375,0.9902343153953552,0.9941762981460587,-0.1316070556640625,-0.0667572021484375,-0.2384185791015625,0.28039322388399296
1782217217.738181,-0.0483398362994194,-0.0302734375,0.9907225966453552,0.9923630808808015,-0.011444091796875,-0.19073486328125,-0.1201629638671875,0.2257208302158209
1782217217.746203,-0.0615234337747097,-0.0400390587747097,0.9956054091453552,0.9983077630923671,-0.0095367431640625,0.0553131103515625,0.0057220458984375,0.05642013342952362
1782217217.756861,-0.0561523400247097,-0.0410156212747097,0.9916991591453552,0.9941340899136322,0.1735687255859375,-0.2498626708984375,-0.1773834228515625,0.35216805010188473
1782217217.767519,-0.07421875,-0.0292968712747097,0.9916991591453552,0.9949039912311408,0.2346038818359375,0.1773834228515625,0.1277923583984375,0.3206785726238369
1782217217.778177,-0.0625,-0.044921875,0.9892577528953552,0.992247512729099,-0.133514404296875,-0.00762939453125,0.0629425048828125,0.1478041363987684
1782217217.786158,-0.0634765625,-0.0434570275247097,0.9931640028953552,0.9961388075339827,-0.0705718994140625,-0.2498626708984375,-0.0553131103515625,0.26546428662284044
1782217217.794139,-0.0732421800494194,-0.0361328125,0.9921874403953552,0.9955430246633433,-0.1316070556640625,-0.2498626708984375,0.1277923583984375,0.3099720282123844
1782217217.80212,-0.0732421800494194,-0.04443359375,0.9843749403953552,0.9880955340807339,-0.1316070556640625,0.0553131103515625,0.0057220458984375,0.14287301734964375
1782217217.810101,-0.06640625,-0.0288085974752903,0.9916991591453552,0.9943374415042211,-0.0095367431640625,-0.2498626708984375,-0.1201629638671875,0.27741925251147437
1782217217.820783,-0.0629882737994194,-0.0302734375,0.9829100966453552,0.9853914256485483,-0.0705718994140625,0.1163482666015625,0.0629425048828125,0.14993022059951655
1782217217.831465,-0.0678710862994194,-0.02294921875,0.9677733778953552,0.9704217959009807,0.0514984130859375,-0.2498626708984375,0.0057220458984375,0.25517872691142296
1782217217.842147,-0.0673828050494194,-0.03369140625,0.9838866591453552,0.9867666954836077,0.0514984130859375,0.1163482666015625,0.0629425048828125,0.14195338887283035
1782217217.852822,-0.07568359375,-0.0307617150247097,0.9902343153953552,0.9935986558267298,0.0514984130859375,0.0553131103515625,-0.0553131103515625,0.09365450818779691
1782217217.863498,-0.06201171875,-0.04638671875,0.9853515028953552,0.9883899863904206,0.2346038818359375,0.1773834228515625,0.0629425048828125,0.3007750305393545
1782217217.874174,-0.0512695275247097,-0.0327148474752903,0.9916991591453552,0.9935623019959761,0.0514984130859375,0.1163482666015625,0.1888275146484375,0.22769461122271648
1782217217.882158,-0.0522460900247097,-0.0297851525247097,0.9916991591453552,0.9935210271974091,-0.0705718994140625,0.0553131103515625,0.1277923583984375,0.15611156276428528
1782217217.890141,-0.0629882737994194,-0.037109375,0.9956054091453552,0.9982859104828693,0.0514984130859375,-0.0667572021484375,-0.1201629638671875,0.14679151363210413
1782217217.898124,-0.0600585900247097,-0.0288085974752903,0.9838866591453552,0.98613889871988,-0.194549560546875,-0.12969970703125,0.3108978271484375,0.3890102883454292
1782217217.906107,-0.0546874962747097,-0.0234375037252903,0.9790038466453552,0.9808101603144573,-0.194549560546875,0.05340576171875,0.0629425048828125,0.21133732707372108
1782217217.916771,-0.06640625,-0.0332031287252903,0.9931640028953552,0.9959352260279459,-0.0095367431640625,0.1163482666015625,-0.1201629638671875,0.16753210586843514
1782217217.927435,-0.0678710862994194,-0.02685546875,0.9916991591453552,0.9943816786359502,-0.194549560546875,0.301361083984375,0.1277923583984375,0.3807872389067869
1782217217.938099,-0.0732421800494194,-0.0390625,0.9794921278953552,0.9830031151800143,-0.2536773681640625,-0.2498626708984375,-0.1201629638671875,0.3757960874097723
1782217217.94878,-0.0600585900247097,-0.0332031287252903,0.9936522841453552,0.9960192486996353,0.1125335693359375,-0.0667572021484375,0.0629425048828125,0.14519671892675975
1782217217.959462,-0.06640625,-0.0371093787252903,0.9814452528953552,0.9843889883878564,0.0514984130859375,0.1163482666015625,-0.1773834228515625,0.21829769672191768
1782217217.970144,-0.0595703050494194,-0.0302734375,0.9912108778953552,0.9934606719542691,0.2956390380859375,-0.0667572021484375,0.1888275146484375,0.35709213820437385
1782217217.978156,-0.0590820237994194,-0.03662109375,0.9873046278953552,0.9897485631751466,-0.0095367431640625,0.0553131103515625,0.2498626708984375,0.25608952332229895
1782217217.986169,-0.0781249925494194,-0.037109375,0.9916991591453552,0.9954636318938739,-0.0095367431640625,-0.0667572021484375,0.0057220458984375,0.06767728805240697
1782217217.994182,-0.0634765625,-0.0288085974752903,0.9926757216453552,0.995120242794526,-0.1316070556640625,-0.1277923583984375,0.0057220458984375,0.1835321382615649
1782217218.002195,-0.0678710862994194,-0.03857421875,0.9960936903953552,0.9991481845817836,0.0514984130859375,-0.0667572021484375,0.0057220458984375,0.08450652281523026
1782217218.012845,-0.0654296875,-0.0283203162252903,0.9785155653953552,0.9811094719950674,-0.1316070556640625,-0.0667572021484375,-0.1201629638671875,0.19030522595188498
1782217218.023495,-0.0751953125,-0.0292968712747097,0.9970702528953552,1.0003308107307638,0.0514984130859375,0.0553131103515625,0.3108978271484375,0.319951692686183
1782217218.034145,-0.0629882737994194,-0.04345703125,0.9941405653953552,0.9970814911359506,0.1125335693359375,-0.1277923583984375,0.0057220458984375,0.17037439039299532
1782217218.044788,-0.0737304612994194,-0.03759765625,0.9809569716453552,0.9844421490867529,-0.194549560546875,-0.12969970703125,0.0057220458984375,0.2338894767240247
1782217218.055432,-0.06201171875,-0.04150390625,0.9931640028953552,0.9959632343332072,-0.0705718994140625,-0.0667572021484375,-0.0553131103515625,0.11178755387949069
1782217218.066076,-0.0600585900247097,-0.0322265662252903,0.9809569716453552,0.9833220052587328,-0.194549560546875,0.05340576171875,-0.0553131103515625,0.20919189054670884
1782217218.074095,-0.0566406212747097,-0.0273437537252903,0.9746093153953552,0.9766366563372365,-0.2536773681640625,0.0553131103515625,0.2498626708984375,0.36033748292942036
1782217218.082117,-0.06591796875,-0.0307617150247097,0.9785155653953552,0.9812156610227841,-0.0705718994140625,0.1163482666015625,0.1277923583984375,0.18667672322261156
1782217218.090139,-0.0610351525247097,-0.0253906212747097,0.9926757216453552,0.9948743950049961,0.1125335693359375,-0.2498626708984375,0.1277923583984375,0.30236740135309204
1782217218.098161,-0.05712890625,-0.037109375,0.9833983778953552,0.985755135563304,-0.06866455078125,-0.19073486328125,0.1277923583984375,0.2396361731248909
1782217218.10726,-0.0556640587747097,-0.0395507775247097,0.9907225966453552,0.9930730159186678,-0.011444091796875,-0.19073486328125,0.0057220458984375,0.19116353500925917
1782217218.116359,-0.076171875,-0.0444335900247097,0.9853515028953552,0.9892896859472633,-0.011444091796875,-0.00762939453125,0.0629425048828125,0.06442774106618704
1782217218.125458,-0.08154296875,-0.0322265662252903,0.9907225966453552,0.9945949280118774,-0.0705718994140625,0.1773834228515625,-0.1201629638671875,0.22557572913501087
1782217218.134557,-0.0634765550494194,-0.05029296875,0.9785155653953552,0.9818611752521953,0.0514984130859375,0.0553131103515625,0.1277923583984375,0.14846721386275386
1782217218.143737,-0.0551757775247097,-0.0341796837747097,0.9829100966453552,0.9850506968150304,0.171661376953125,-0.00762939453125,0.0057220458984375,0.17192608239479013
1782217218.152917,-0.0644531175494194,-0.04248046875,0.9838866591453552,0.9869102049483871,0.1125335693359375,-0.0667572021484375,0.4329681396484375,0.4523071281958781
1782217218.162097,-0.0751953125,-0.0380859412252903,0.9804686903953552,0.9840852233351397,-0.0095367431640625,-0.0667572021484375,0.2498626708984375,0.25880268124068095
1782217218.172835,-0.0683593675494194,-0.041015625,0.9799804091453552,0.9832176193165961,-0.194549560546875,0.118255615234375,-0.0553131103515625,0.23429353857972024
1782217218.183574,-0.0688476487994194,-0.03662109375,0.9956054091453552,0.9986547120862869,-0.194549560546875,-0.00762939453125,0.0629425048828125,0.2046203755514551
1782217218.194313,-0.06689453125,-0.03076171875,0.9814452528953552,0.9842032036538182,0.293731689453125,-0.00762939453125,0.0629425048828125,0.300496708752065
1782217218.204905,-0.0625,-0.02734375,0.9873046278953552,0.9896587083068831,0.0514984130859375,-0.2498626708984375,-0.3032684326171875,0.39630188377164743
1782217218.215497,-0.0678710862994194,-0.0322265625,0.9829100966453552,0.9857775072365017,-0.0762939453125,0.12969970703125,0.0553131103515625,0.1603194319853428
1782217218.226089,-0.0644531175494194,-0.03271484375,0.9882811903953552,0.990920873053286,0.3509521484375,-0.05340576171875,0.1163482666015625,0.37357262348684656
1782217218.234332,-0.0600585900247097,-0.0346679650247097,0.9853515028953552,0.9877886850398955,0.2307891845703125,0.0705718994140625,0.1773834228515625,0.299514472778987
1782217218.242575,-0.06201171875,-0.0302734375,0.9829100966453552,0.9853294841664777,-0.0171661376953125,0.0705718994140625,0.1163482666015625,0.13715680227925717
1782217218.250818,-0.06591796875,-0.0283203162252903,0.9960936903953552,0.9986740504091733,0.0457763671875,0.00762939453125,0.2384185791015625,0.24289319116559507
1782217218.259061,-0.0654296800494194,-0.0361328125,0.9926757216453552,0.9954856661522838,0.1659393310546875,-0.2956390380859375,-0.0057220458984375,0.339073803530322
1782217218.269439,-0.0556640587747097,-0.0297851525247097,0.9887694716453552,0.9907828777325683,-0.0743865966796875,0.0705718994140625,0.1163482666015625,0.15508280979426223
1782217218.279817,-0.0605468712747097,-0.0268554724752903,0.9897460341453552,0.991959854091629,-0.1373291015625,-0.232696533203125,-0.0667572021484375,0.2783226234775101
1782217218.290195,-0.0576171837747097,-0.0380859412252903,0.9897460341453552,0.9921529574070742,-0.1373291015625,0.00762939453125,-0.1888275146484375,0.2336093321876992
1782217218.300837,-0.0644531175494194,-0.03076171875,0.9838866591453552,0.9864752636262613,0.0457763671875,-0.05340576171875,0.1773834228515625,0.19082067466650712
1782217218.311481,-0.0590820237994194,-0.0380859375,0.9912108778953552,0.9937002710221879,-0.2593994140625,0.00762939453125,0.0553131103515625,0.2653409200512539
1782217218.322125,-0.0561523400247097,-0.0400390587747097,0.9921874403953552,0.9945813834956403,0.0457763671875,-0.05340576171875,0.1163482666015625,0.13595797261960402
1782217218.332788,-0.07470703125,-0.0341796837747097,0.9858397841453552,0.9892570299496932,-0.0171661376953125,0.0095367431640625,-0.0667572021484375,0.06958555735380058
1782217218.343453,-0.068359375,-0.0385742150247097,0.9877929091453552,0.9909065574376865,-0.3204345703125,-0.17547607421875,0.1163482666015625,0.38341503050319903
1782217218.354118,-0.0625,-0.0224609375,0.9873046278953552,0.9895358366309756,-0.0171661376953125,0.0705718994140625,-0.1277923583984375,0.14698964635414863
1782217218.362143,-0.0786132737994194,-0.0263671875,0.9873046278953552,0.9907803508637565,0.1049041748046875,0.0705718994140625,-0.1888275146484375,0.22724680232440425
1782217218.370169,-0.0493163987994194,-0.0361328125,0.9897460341453552,0.991632441702147,-0.1392364501953125,-0.1125335693359375,-0.1888275146484375,0.2602045802417472
1782217218.378195,-0.076171875,-0.0346679650247097,0.9960936903953552,0.99960325248841,-0.0171661376953125,-0.2956390380859375,-0.0667572021484375,0.3035681820653149
1782217218.386221,-0.0678710862994194,-0.03564453125,0.9887694716453552,0.9917369031256881,0.0457763671875,-0.05340576171875,-0.4329681396484375,0.438644572664787
1782217218.394214,-0.0629882737994194,-0.037109375,0.9824218153953552,0.9851381891459831,0.0457763671875,0.00762939453125,0.2994537353515625,0.30302841957447146
1782217218.402207,-0.0639648362994194,-0.03515625,0.9853515028953552,0.9880511355466423,0.0457763671875,-0.17547607421875,-0.2498626708984375,0.30873723896642263
1782217218.4102,-0.0610351525247097,-0.0332031287252903,0.9965819716453552,0.9990011830870904,-0.1373291015625,-0.17547607421875,-0.0667572021484375,0.232610530281574
1782217218.418193,-0.06396484375,-0.0341796837747097,0.9912108778953552,0.993860531703006,-0.0762939453125,0.12969970703125,0.0553131103515625,0.1603194319853428
1782217218.428863,-0.0756835862994194,-0.041015625,0.9941405653953552,0.9978605867023103,-0.0743865966796875,-0.1125335693359375,0.1163482666015625,0.17814064425127976
1782217218.439533,-0.0732421800494194,-0.0244140625,0.9921874403953552,0.9951866057501135,-0.2593994140625,0.12969970703125,-0.1888275146484375,0.3460721027593329
1782217218.450203,-0.0634765550494194,-0.03564453125,0.9804686903953552,0.9831676655050028,0.0457763671875,0.00762939453125,-0.0057220458984375,0.046759226501965574
1782217218.460977,-0.0581054612994194,-0.029296875,0.9809569716453552,0.983112980148879,0.1068115234375,-0.05340576171875,0.1773834228515625,0.21383581464837864
1782217218.471752,-0.0786132737994194,-0.03955078125,0.9985350966453552,1.0024054321219018,-0.1373291015625,-0.17547607421875,0.2384185791015625,0.32633503278072323
1782217218.482527,-0.0712890625,-0.0356445275247097,0.9882811903953552,0.9914899767843591,0.3509521484375,-0.17547607421875,0.0553131103515625,0.3962559820278874
1782217218.490428,-0.0551757737994194,-0.03076171875,0.9980468153953552,1.0000440465677645,0.0457763671875,0.072479248046875,0.0553131103515625,0.10202086731198373
1782217218.498329,-0.0615234337747097,-0.0439453087747097,0.9882811903953552,0.9911690241104169,-0.2002716064453125,0.0095367431640625,-0.0667572021484375,0.21132011228714312
1782217218.50623,-0.06884765625,-0.0288085974752903,0.9785155653953552,0.9813575529747571,0.1049041748046875,-0.2956390380859375,0.3604888916015625,0.4778698229643235
1782217218.514131,-0.0654296875,-0.0234375037252903,0.9892577528953552,0.9916961541978412,-0.0743865966796875,0.0705718994140625,0.1773834228515625,0.2048868894171398
1782217218.523473,-0.0649413987994194,-0.02197265625,0.9897460341453552,0.9921176316380858,-0.0152587890625,-0.05340576171875,-0.0667572021484375,0.08684198332086342
1782217218.532815,-0.0600585900247097,-0.0322265662252903,0.9863280653953552,0.9886802508359178,-0.0743865966796875,0.0705718994140625,-0.1277923583984375,0.16384335695269964
1782217218.542157,-0.0786132737994194,-0.02734375,0.9931640028953552,0.9966456060850567,-0.0152587890625,-0.05340576171875,-0.1277923583984375,0.13934092325461486
1782217218.551499,-0.0781249925494194,-0.029296875,0.9829100966453552,0.9864451730496703,0.1049041748046875,0.0705718994140625,-0.3108978271484375,0.3356229101297775
1782217218.560037,-0.0561523400247097,-0.0366210974752903,0.9936522841453552,0.9959111666498308,-0.0762939453125,-0.05340576171875,-0.1888275146484375,0.21054399009331168
1782217218.568575,-0.0683593675494194,-0.03564453125,0.9853515028953552,0.9883628483496959,0.0476837158203125,-0.1125335693359375,0.1773834228515625,0.21541220876369752
1782217218.577113,-0.06640625,-0.0429687537252903,0.9985350966453552,1.0016628390173592,-0.0743865966796875,0.0095367431640625,0.1163482666015625,0.13842411053336068
1782217218.585651,-0.0625,-0.03173828125,0.9853515028953552,0.9878416638079401,0.2307891845703125,-0.1125335693359375,-0.0667572021484375,0.2652997851126219
1782217218.594189,-0.0693359300494194,-0.02783203125,0.9916991591453552,0.9945095853781015,0.1049041748046875,0.0705718994140625,-0.0057220458984375,0.12656231938308027
1782217218.603766,-0.07666015625,-0.0278320349752903,0.9877929091453552,0.9911539906013516,-0.0743865966796875,-0.2346038818359375,-0.3108978271484375,0.3965221381760377
1782217218.613343,-0.0654296800494194,-0.03076171875,0.9868163466453552,0.9894613829646457,-0.0743865966796875,0.0705718994140625,-0.1277923583984375,0.16384335695269964
1782217218.62292,-0.0566406212747097,-0.0278320349752903,0.9799804091453552,0.9820103789970597,0.1659393310546875,-0.1125335693359375,-0.1888275146484375,0.2754187649864644
1782217218.632497,-0.0712890625,-0.0488281212747097,0.9916991591453552,0.9954564471180802,-0.1373291015625,0.072479248046875,0.0553131103515625,0.16483950894784904
1782217218.642074,-0.076171875,-0.0292968712747097,0.9897460341453552,0.993105066603711,0.3490447998046875,-0.1125335693359375,-0.0057220458984375,0.366781703888627
1782217218.651797,-0.0620117150247097,-0.0292968712747097,0.9785155653953552,0.980916138713083,0.1049041748046875,0.0705718994140625,-0.0667572021484375,0.142974833159715
1782217218.661525,-0.0688476487994194,-0.033203125,0.9916991591453552,0.9946404719820013,0.0457763671875,-0.05340576171875,0.0553131103515625,0.08948291096298142
1782217218.671253,-0.06689453125,-0.0283203162252903,0.9804686903953552,0.9831560260039302,-0.2002716064453125,0.0095367431640625,-0.0057220458984375,0.20058017755408247
1782217218.680981,-0.06640625,-0.0288085974752903,0.9858397841453552,0.9884937052562937,-0.2002716064453125,0.1926422119140625,-0.0057220458984375,0.27794330351457025
1782217218.690709,-0.06201171875,-0.041015625,0.9916991591453552,0.9944822557522454,-0.1983642578125,-0.05340576171875,-0.1277923583984375,0.24193272004278085
1782217218.700193,-0.0649413987994194,-0.03564453125,0.9741210341453552,0.9769338294124499,0.0457763671875,0.12969970703125,-0.1888275146484375,0.2336093321876992
1782217218.709676,-0.0678710862994194,-0.0400390625,0.9926757216453552,0.9957985234099661,-0.0152587890625,-0.05340576171875,-0.0057220458984375,0.05583679644891528
1782217218.719159,-0.0737304612994194,-0.03125,0.9916991591453552,0.9949271157592549,-0.0743865966796875,0.0095367431640625,-0.0667572021484375,0.10040338278390393
1782217218.728642,-0.0532226487994194,-0.02294921875,0.9887694716453552,0.9904667511049003,0.1049041748046875,0.2536773681640625,-0.3719329833984375,0.46226749523383115
1782217218.738125,-0.0688476487994194,-0.0341796875,0.9858397841453552,0.9888318005538487,0.1678466796875,-0.05340576171875,-0.0667572021484375,0.1883645595794641
1782217218.746123,-0.06591796875,-0.0322265662252903,0.9755858778953552,0.9783412162040654,-0.1373291015625,0.00762939453125,0.2384185791015625,0.275246995728718
1782217218.754121,-0.06591796875,-0.0332031287252903,0.9887694716453552,0.9915203953621474,0.0457763671875,0.12969970703125,-0.0667572021484375,0.15288562337762257
1782217218.762119,-0.0810546875,-0.0302734337747097,0.9790038466453552,0.9828198588269554,-0.0743865966796875,-0.1125335693359375,-0.0057220458984375,0.13501819063495324
1782217218.770117,-0.0576171837747097,-0.0239257849752903,0.9975585341453552,0.9995074847638923,0.1068115234375,-0.05340576171875,0.1773834228515625,0.21383581464837864
1782217218.780766,-0.0732421800494194,-0.0419921875,0.9902343153953552,0.9938268260295324,0.0476837158203125,-0.1125335693359375,-0.0057220458984375,0.12235310699439716
1782217218.791415,-0.07421875,-0.0283203162252903,0.9931640028953552,0.9963358870430132,-0.0152587890625,-0.17547607421875,-0.0057220458984375,0.17623116942284062
1782217218.802064,-0.0537109300494194,-0.03173828125,0.9965819716453552,0.9985328280592588,0.1678466796875,-0.05340576171875,0.0553131103515625,0.18461913076288236
1782217218.81008,-0.0634765550494194,-0.02294921875,0.9916991591453552,0.9939935421982287,0.0457763671875,0.072479248046875,-0.0667572021484375,0.10865192694569484
1782217218.818096,-0.0722656175494194,-0.0361328125,0.9902343153953552,0.993524986603491,0.2288818359375,0.00762939453125,-0.0057220458984375,0.229080431927954
1782217218.826112,-0.0732421800494194,-0.04052734375,0.9819335341453552,0.9854949761460023,0.0476837158203125,-0.1125335693359375,-0.0667572021484375,0.13926257580773782
1782217218.834128,-0.0605468712747097,-0.0273437537252903,0.9873046278953552,0.9895372821437964,-0.0152587890625,-0.17547607421875,-0.3108978271484375,0.35732638048778015
1782217218.84479,-0.0673828050494194,-0.03271484375,0.9902343153953552,0.993063292446369,0.1659393310546875,0.0705718994140625,-0.1888275146484375,0.26109784538768527
1782217218.855452,-0.0673828050494194,-0.0341796875,0.9882811903953552,0.9911651753079231,-0.0743865966796875,0.0705718994140625,0.0553131103515625,0.1165045017553364
1782217218.866114,-0.0644531175494194,-0.0361328125,0.9829100966453552,0.9856835407920642,-0.0171661376953125,0.0705718994140625,-0.0057220458984375,0.07285472585595809
1782217218.876785,-0.0605468675494194,-0.0458984375,0.9946288466453552,0.9975265070734,-0.0762939453125,-0.05340576171875,-0.1277923583984375,0.1581259888226516
1782217218.887458,-0.0566406212747097,-0.0493164025247097,0.9853515028953552,0.9882094169731938,0.2880096435546875,0.0095367431640625,0.1773834228515625,0.33838644026203485
1782217218.898131,-0.0683593675494194,-0.052734375,0.9877929091453552,0.991558747022203,-0.1373291015625,0.072479248046875,-0.3108978271484375,0.34751975837212995
1782217218.906137,-0.07080078125,-0.0209960900247097,0.9863280653953552,0.9890887922772557,-0.1373291015625,-0.17547607421875,0.1163482666015625,0.25137234116023177
1782217218.914144,-0.0605468712747097,-0.0390624962747097,0.9873046278953552,0.9899304169990706,-0.0171661376953125,-0.2346038818359375,0.2384185791015625,0.3349284647752009
1782217218.922151,-0.07177734375,-0.0332031287252903,0.9907225966453552,0.99387408575567,0.1049041748046875,0.1316070556640625,-0.0057220458984375,0.16839847030564115
1782217218.930158,-0.0595703050494194,-0.04736328125,0.9951171278953552,0.9980230457685575,-0.2002716064453125,0.0095367431640625,-0.0667572021484375,0.21132011228714312
1782217218.940946,-0.0654296875,-0.0351562462747097,0.9775390028953552,0.9803568267932452,-0.0743865966796875,-0.2346038818359375,-0.0057220458984375,0.24618100850256674
1782217218.951734,-0.0600585900247097,-0.0429687537252903,0.9960936903953552,0.9988273064338492,-0.1373291015625,0.00762939453125,-0.0057220458984375,0.13765984020817668
1782217218.962522,-0.06982421875,-0.0390624962747097,0.9829100966453552,0.986161020435629,-0.3204345703125,0.255584716796875,-0.0667572021484375,0.415281091972874
1782217218.973059,-0.0634765550494194,-0.029296875,0.9946288466453552,0.9970828062426796,0.0457763671875,-0.05340576171875,0.1163482666015625,0.13595797261960402
1782217218.983595,-0.0703125,-0.0454101525247097,0.9873046278953552,0.9908462836747954,-0.2002716064453125,0.0095367431640625,-0.0667572021484375,0.21132011228714312
1782217218.994131,-0.0654296875,-0.0385742150247097,0.9843749403953552,0.9873008849127399,-0.0171661376953125,0.2536773681640625,-0.3108978271484375,0.4016271185162171
1782217219.00213,-0.0737304612994194,-0.03759765625,0.9912108778953552,0.9946601274490695,-0.0762939453125,-0.05340576171875,-0.1888275146484375,0.21054399009331168
1782217219.01013,-0.0546874962747097,-0.0292968712747097,0.9931640028953552,0.9950998771793756,-0.0171661376953125,0.0095367431640625,-0.0667572021484375,0.06958555735380058
1782217219.01813,-0.0673828050494194,-0.02685546875,0.9887694716453552,0.9914266118457509,-0.0152587890625,-0.35858154296875,-0.1277923583984375,0.38097826770898374
1782217219.02613,-0.07177734375,-0.04541015625,0.9912108778953552,0.9948432408296977,0.0457763671875,0.072479248046875,-0.0057220458984375,0.08591541770595709
1782217219.036825,-0.06884765625,-0.0385742150247097,0.9956054091453552,0.9987282415929675,0.0457763671875,0.12969970703125,-0.0057220458984375,0.13765984020817668
1782217219.04752,-0.0712890625,-0.0351562462747097,0.9843749403953552,0.9875789160176599,-0.0152587890625,-0.17547607421875,-0.2498626708984375,0.3057058023253386
1782217219.058215,-0.0678710862994194,-0.02685546875,0.9946288466453552,0.9973034859742118,0.0457763671875,-0.232696533203125,0.0553131103515625,0.2435214416317422
1782217219.069022,-0.0517578087747097,-0.0385742150247097,0.9838866591453552,0.9860019264069114,0.0457763671875,-0.05340576171875,0.2384185791015625,0.24857809645753734
1782217219.079829,-0.06689453125,-0.0175781287252903,0.9882811903953552,0.9906985314463227,0.4138946533203125,0.0705718994140625,0.1163482666015625,0.43569036731977273
1782217219.090636,-0.0605468712747097,-0.0429687537252903,1.001953125,1.004700105561419,-0.0152587890625,-0.05340576171875,-0.0667572021484375,0.08684198332086342
1782217219.098501,-0.0712890625,-0.0332031287252903,0.9926757216453552,0.9957859541755969,-0.0762939453125,-0.05340576171875,-0.0057220458984375,0.0933042511645127
1782217219.106367,-0.0620117150247097,-0.0478515662252903,0.9804686903953552,0.9835924349221592,0.2288818359375,0.12969970703125,-0.0057220458984375,0.2631380828298644
1782217219.114233,-0.08154296875,-0.0361328125,0.9970702528953552,1.001051409818962,0.0476837158203125,-0.1125335693359375,0.0553131103515625,0.13415320032963324
1782217219.122099,-0.0576171875,-0.044921875,0.9912108778953552,0.9938997532985943,-0.0152587890625,0.12969970703125,0.2384185791015625,0.27184235046889577
1782217219.132838,-0.0532226487994194,-0.03173828125,0.9824218153953552,0.984374213501469,-0.1373291015625,0.12969970703125,0.1773834228515625,0.25912578961286686
1782217219.143577,-0.06640625,-0.0395507775247097,0.9970702528953552,1.0000615697299238,-0.2002716064453125,0.0095367431640625,-0.0057220458984375,0.20058017755408247
1782217219.154316,-0.0688476487994194,-0.0419921875,0.9829100966453552,0.9862127562770747,0.1678466796875,0.00762939453125,0.1163482666015625,0.20437131570800232
1782217219.16494,-0.06640625,-0.03662109375,0.9814452528953552,0.9843707020108515,-0.1983642578125,-0.05340576171875,-0.1277923583984375,0.24193272004278085
1782217219.175564,-0.0585937425494194,-0.0283203125,0.9907225966453552,0.9928577593340148,0.1049041748046875,0.0095367431640625,-0.1277923583984375,0.16561015133941645
1782217219.186188,-0.0595703087747097,-0.0297851525247097,0.9829100966453552,0.9851639635541974,-0.0152587890625,-0.05340576171875,-0.2498626708984375,0.2559616384087949
1782217219.196839,-0.0678710862994194,-0.03173828125,0.9936522841453552,0.9964731128532516,0.1068115234375,-0.05340576171875,0.1163482666015625,0.16672671071243436
1782217219.20749,-0.0781249925494194,-0.0283203125,0.9926757216453552,0.9961479021235106,-0.0762939453125,-0.05340576171875,0.0553131103515625,0.10831658069229648
1782217219.218141,-0.0722656175494194,-0.0458984375,0.9936522841453552,0.9973333684541102,-0.0743865966796875,0.0095367431640625,0.1773834228515625,0.19258554966118308
1782217219.226132,-0.06591796875,-0.0371093787252903,0.9956054091453552,0.9984750449124871,-0.0743865966796875,0.0705718994140625,-0.3108978271484375,0.32737015392077934
1782217219.234124,-0.0624999962747097,-0.0195312462747097,0.9931640028953552,0.9953202779821715,-0.2002716064453125,0.0095367431640625,-0.2498626708984375,0.3203607655860254
1782217219.242116,-0.0839843675494194,-0.0419921875,0.9882811903953552,0.9927318011895113,0.0457763671875,-0.29754638671875,0.0553131103515625,0.30608637378856457
1782217219.250108,-0.07421875,-0.0292968712747097,0.9897460341453552,0.9929571700856529,-0.0171661376953125,0.0705718994140625,-0.1277923583984375,0.14698964635414863
1782217219.260772,-0.0737304612994194,-0.0244140625,0.9824218153953552,0.9854871134296401,-0.0152587890625,-0.05340576171875,-0.0667572021484375,0.08684198332086342
1782217219.271436,-0.0732421800494194,-0.04296875,0.9848632216453552,0.9885172207729221,-0.0152587890625,-0.17547607421875,-0.1277923583984375,0.21761335007740867
1782217219.2821,-0.0737304612994194,-0.033203125,0.9941405653953552,0.9974237275089195,0.2288818359375,0.12969970703125,0.1163482666015625,0.28765574558367685
1782217219.290112,-0.076171875,-0.0390624962747097,0.9853515028953552,0.9890629997196148,-0.0743865966796875,0.1926422119140625,0.0553131103515625,0.21378476969488072
1782217219.298127,-0.07177734375,-0.0395507775247097,0.9882811903953552,0.9916733143368712,0.2288818359375,-0.17547607421875,-0.1277923583984375,0.3154514769507026
1782217219.306142,-0.0629882737994194,-0.0380859375,0.9838866591453552,0.9866362142733729,-0.1983642578125,-0.05340576171875,-0.0667572021484375,0.21600249582111597
1782217219.314157,-0.0610351525247097,-0.0297851525247097,0.9951171278953552,0.9974319743147076,-0.0743865966796875,0.0095367431640625,-0.0057220458984375,0.07521341000797407
1782217219.32491,-0.0546874925494194,-0.03076171875,0.9868163466453552,0.9888091358742003,0.0457763671875,-0.232696533203125,-0.0057220458984375,0.23722540792862326
1782217219.335663,-0.05712890625,-0.03125,0.9770507216453552,0.9792182530452701,0.1049041748046875,0.2536773681640625,0.0553131103515625,0.28002970054417775
1782217219.346416,-0.0712890625,-0.0341796837747097,0.9765624403953552,0.9797574093651957,-0.3223419189453125,-0.4177093505859375,-0.0667572021484375,0.5318288618671982
1782217219.354388,-0.0610351525247097,-0.0434570275247097,0.9833983778953552,0.9862485349708834,-0.2593994140625,0.12969970703125,-0.1888275146484375,0.3460721027593329
1782217219.36236,-0.0683593675494194,-0.03564453125,0.9887694716453552,0.9917704390621973,0.2288818359375,-0.232696533203125,-0.1277923583984375,0.3505216944097875
1782217219.370332,-0.06494140625,-0.0341796837747097,0.9902343153953552,0.9929499667229837,-0.0171661376953125,-0.1125335693359375,-0.1277923583984375,0.17114136664142712
1782217219.378304,-0.06201171875,-0.03076171875,0.9799804091453552,0.9824221795702095,-0.0171661376953125,-0.1125335693359375,0.2994537353515625,0.3203607655860254
1782217219.388907,-0.0615234337747097,-0.0200195275247097,0.9863280653953552,0.9884477563191126,-0.0152587890625,-0.05340576171875,0.0553131103515625,0.07838715586866195
1782217219.39951,-0.0610351525247097,-0.0346679650247097,0.9926757216453552,0.9951543829913004,0.1049041748046875,0.1316070556640625,-0.4940032958984375,0.5218855807076253
1782217219.410113,-0.07080078125,-0.0297851525247097,0.9907225966453552,0.9936957127009484,0.1049041748046875,-0.1125335693359375,0.1773834228515625,0.23480538499249737
1782217219.41814,-0.0610351525247097,-0.0424804724752903,0.9892577528953552,0.992048780075358,0.1049041748046875,-0.1735687255859375,0.1163482666015625,0.23381169246675235
1782217219.426167,-0.0737304612994194,-0.029296875,0.9790038466453552,0.9822133269074458,-0.0171661376953125,0.0705718994140625,-0.0667572021484375,0.09864883835590935
1782217219.434194,-0.0698242112994194,-0.02685546875,0.9853515028953552,0.988187341015611,0.1659393310546875,-0.1125335693359375,-0.1277923583984375,0.23776154584666992
1782217219.442221,-0.0693359300494194,-0.037109375,0.9912108778953552,0.9943256917966011,0.1678466796875,-0.05340576171875,0.1163482666015625,0.21109619231067717
1782217219.452855,-0.0751953050494194,-0.04638671875,0.9819335341453552,0.9859003636560107,-0.3814697265625,-0.05340576171875,-0.0057220458984375,0.38523248756782213
1782217219.463489,-0.0610351525247097,-0.0390624962747097,0.9897460341453552,0.9923952743566371,-0.0171661376953125,-0.1125335693359375,-0.0667572021484375,0.1319659219251244
1782217219.474123,-0.0605468712747097,-0.0454101525247097,0.9877929091453552,0.9906880623744881,-0.1373291015625,-0.29754638671875,-0.0667572021484375,0.33443931949463523
1782217219.482227,-0.0732421800494194,-0.02587890625,0.9941405653953552,0.9971707970511794,0.0457763671875,-0.17547607421875,0.0553131103515625,0.18959659435990198
1782217219.490333,-0.0673828050494194,-0.0400390625,0.9829100966453552,0.9860303377835737,-0.0152587890625,-0.17547607421875,0.1773834228515625,0.24997912306713604
1782217219.498439,-0.06689453125,-0.03076171875,0.9882811903953552,0.9910201173239984,0.0457763671875,0.00762939453125,0.1773834228515625,0.18335365323967373
1782217219.506545,-0.06591796875,-0.0263671912252903,0.9824218153953552,0.9849837718165424,-0.0171661376953125,0.0705718994140625,-0.3108978271484375,0.3192687397724724
1782217219.517071,-0.0624999962747097,-0.0288085974752903,0.9907225966453552,0.9931099880308057,0.1049041748046875,0.0095367431640625,-0.0667572021484375,0.12470909910795232
1782217219.527597,-0.0732421800494194,-0.0400390625,0.9990233778953552,1.002504490287059,0.1049041748046875,0.2536773681640625,0.0553131103515625,0.28002970054417775
1782217219.538123,-0.0751953125,-0.0283203162252903,1.001953125,1.0051698563080464,-0.2593994140625,-0.05340576171875,0.0553131103515625,0.2705545630321033
1782217219.548796,-0.07080078125,-0.0371093787252903,0.9819335341453552,0.985181872597225,-0.1373291015625,0.00762939453125,-0.0667572021484375,0.15288562337762257
1782217219.559469,-0.0712890625,-0.0283203162252903,0.9882811903953552,0.9912536920649979,0.0457763671875,0.00762939453125,-0.0057220458984375,0.046759226501965574
1782217219.570142,-0.0488281212747097,-0.0336914025247097,0.9790038466453552,0.98079958593879,0.1678466796875,-0.17547607421875,-0.0667572021484375,0.2518350343856665
1782217219.580788,-0.0654296875,-0.0371093787252903,1.0009765625,1.0037988985200377,-0.3204345703125,0.00762939453125,0.1773834228515625,0.3663350927972997
1782217219.591433,-0.0639648362994194,-0.0380859375,0.9809569716453552,0.9837777285229076,-0.0171661376953125,-0.1125335693359375,-0.0057220458984375,0.11397904333746843
1782217219.602078,-0.0727538987994194,-0.02734375,0.9833983778953552,0.9864649918277862,-0.1373291015625,-0.232696533203125,-0.0057220458984375,0.27025858082580895
1782217219.610102,-0.0625,-0.03564453125,0.9912108778953552,0.9938187898536197,-0.1373291015625,0.12969970703125,0.0553131103515625,0.19682691969524813
1782217219.618126,-0.0693359300494194,-0.03662109375,0.9912108778953552,0.994307588305221,-0.0743865966796875,0.0095367431640625,-0.0057220458984375,0.07521341000797407
1782217219.62615,-0.06689453125,-0.0322265662252903,0.9838866591453552,0.9866845432690423,-0.0152587890625,-0.05340576171875,0.1163482666015625,0.12892604535004568
1782217219.634174,-0.0625,-0.0302734375,0.9921874403953552,0.994614823887294,0.1678466796875,-0.05340576171875,-0.0057220458984375,0.17623116942284062
1782217219.644824,-0.06201171875,-0.03125,0.9951171278953552,0.9975370238708084,-0.0743865966796875,0.0705718994140625,0.1773834228515625,0.2048868894171398
1782217219.655474,-0.0771484300494194,-0.03125,0.9941405653953552,0.997619118964591,0.1678466796875,-0.05340576171875,-0.2498626708984375,0.3057058023253386
1782217219.666124,-0.0693359375,-0.0434570275247097,0.9746093153953552,0.9780384977728076,0.1678466796875,-0.05340576171875,-0.0057220458984375,0.17623116942284062
1782217219.67679,-0.07177734375,-0.03662109375,0.9780272841453552,0.9813411537869954,-0.0152587890625,-0.05340576171875,-0.0667572021484375,0.08684198332086342
1782217219.687454,-0.06591796875,-0.0307617150247097,0.9736327528953552,0.9763463520830993,0.1678466796875,-0.17547607421875,0.0553131103515625,0.24904598105993722
1782217219.698118,-0.0561523400247097,-0.0424804724752903,0.9946288466453552,0.9971179561170505,0.2899169921875,-0.05340576171875,-0.0057220458984375,0.2948504359044949
1782217219.706149,-0.0624999962747097,-0.0244140587747097,0.9912108778953552,0.993479390957998,-0.2002716064453125,0.1926422119140625,-0.1888275146484375,0.33596959452848496
1782217219.714178,-0.0683593675494194,-0.0361328125,0.9916991591453552,0.9947089049166702,0.0476837158203125,-0.1125335693359375,0.1163482666015625,0.16874377062015308
1782217219.722207,-0.0771484300494194,-0.02685546875,0.9814452528953552,0.9848390126775544,0.1659393310546875,0.1926422119140625,0.1773834228515625,0.31001897055592575
1782217219.730236,-0.0605468712747097,-0.0302734337747097,0.9960936903953552,0.99839122815613,0.1659393310546875,0.0705718994140625,0.1773834228515625,0.25294492143611413
1782217219.740896,-0.05224609375,-0.04638671875,0.9833983778953552,0.9858771483484853,0.1049041748046875,-0.1125335693359375,-0.1277923583984375,0.19999894245713748
1782217219.751556,-0.0615234375,-0.041015625,0.9912108778953552,0.9939649990387176,-0.2002716064453125,-0.1735687255859375,-0.1888275146484375,0.32540843433755445
1782217219.762216,-0.0629882737994194,-0.03564453125,0.9794921278953552,0.9821623510668863,0.2880096435546875,0.0095367431640625,0.1773834228515625,0.33838644026203485
1782217219.772859,-0.0551757775247097,-0.0371093787252903,0.9921874403953552,0.9944130878528902,-0.0762939453125,0.12969970703125,-0.0057220458984375,0.15058393640957407
1782217219.783504,-0.06201171875,-0.04052734375,0.9863280653953552,0.989106147711308,-0.0762939453125,-0.05340576171875,-0.1277923583984375,0.1581259888226516
1782217219.794149,-0.0708007737994194,-0.03125,0.9877929091453552,0.9908199349167539,-0.1983642578125,-0.05340576171875,0.0553131103515625,0.212744199307591
1782217219.80215,-0.0673828050494194,-0.02978515625,0.9736327528953552,0.9764160667767368,-0.0743865966796875,0.2536773681640625,0.2384185791015625,0.35599015680920143
1782217219.810152,-0.0639648362994194,-0.03076171875,0.9882811903953552,0.9908266724874366,0.0457763671875,0.072479248046875,-0.0057220458984375,0.08591541770595709
1782217219.818154,-0.0654296800494194,-0.041015625,0.9873046278953552,0.9903200254408147,0.2288818359375,0.00762939453125,0.0553131103515625,0.23559423307839744
1782217219.826156,-0.0644531175494194,-0.03125,0.9833983778953552,0.9860036189127579,0.0457763671875,-0.29754638671875,-0.0667572021484375,0.30835993916356275
1782217219.836868,-0.0620117150247097,-0.0429687537252903,0.9843749403953552,0.9872617636044503,0.0457763671875,-0.232696533203125,-0.1277923583984375,0.2693956926579796
1782217219.84758,-0.0703125,-0.015136715024709702,0.9785155653953552,0.9811552779855903,0.1049041748046875,0.2536773681640625,-0.0057220458984375,0.2745720940288025
1782217219.858292,-0.07080078125,-0.0371093787252903,0.9882811903953552,0.9915087331457286,-0.0171661376953125,-0.2956390380859375,-0.4329681396484375,0.5245555519431491
1782217219.866263,-0.0654296800494194,-0.03173828125,0.9897460341453552,0.9924140132195495,0.0457763671875,0.072479248046875,0.1773834228515625,0.1970116643573712
1782217219.874233,-0.0600585900247097,-0.0327148474752903,0.9760741591453552,0.978467199057996,-0.2593994140625,-0.17547607421875,0.0553131103515625,0.3180242896634732
1782217219.882203,-0.0634765550494194,-0.03955078125,0.9863280653953552,0.9891595371450307,0.1659393310546875,0.1926422119140625,-0.0667572021484375,0.2628752697396754
1782217219.890173,-0.0683593675494194,-0.0361328125,0.9941405653953552,0.9971429421279144,0.1049041748046875,0.2536773681640625,0.0553131103515625,0.28002970054417775
1782217219.900825,-0.0634765550494194,-0.0380859375,0.9975585341453552,1.0003013749477832,0.2880096435546875,0.0705718994140625,-0.0667572021484375,0.30395143001159586
1782217219.911477,-0.05712890625,-0.03173828125,1.001953125,1.0040822153206832,-0.0762939453125,-0.05340576171875,0.1773834228515625,0.2003442541692745
1782217219.922129,-0.0688476487994194,-0.0380859375,0.9897460341453552,0.9928684452065746,-0.1373291015625,-0.05340576171875,-0.1888275146484375,0.2395146922613083
1782217219.932791,-0.06689453125,-0.0395507775247097,0.9858397841453552,0.9888979837767529,0.1049041748046875,0.0705718994140625,-0.0057220458984375,0.12656231938308027
1782217219.943454,-0.06494140625,-0.0288085974752903,0.9873046278953552,0.9898574391283861,0.1659393310546875,0.0705718994140625,-0.1277923583984375,0.22101389423025067
1782217219.954117,-0.06689453125,-0.0444335900247097,0.9946288466453552,0.9978656045844604,-0.1983642578125,0.12969970703125,-0.0667572021484375,0.24622533748618033
1782217219.962534,-0.0751953050494194,-0.041015625,0.9970702528953552,1.000742576592214,0.1049041748046875,0.0705718994140625,-0.1888275146484375,0.22724680232440425
1782217219.970951,-0.0605468675494194,-0.03662109375,1.0009765625,1.0034745170415686,-0.1373291015625,0.072479248046875,-0.1277923583984375,0.2011054708316971
1782217219.979368,-0.0678710862994194,-0.0439453125,0.9775390028953552,0.9808772487053776,-0.0762939453125,-0.17547607421875,0.1773834228515625,0.26091664840923284
1782217219.987785,-0.0615234337747097,-0.0239257849752903,0.9824218153953552,0.9846370902290957,0.1678466796875,-0.05340576171875,-0.1277923583984375,0.21761335007740867
1782217219.997943,-0.0595703050494194,-0.037109375,0.9975585341453552,1.0000243777042643,0.0457763671875,0.00762939453125,0.0553131103515625,0.07220265667246895
1782217220.008101,-0.0751953125,-0.0273437537252903,0.9892577528953552,0.9924882455492002,0.0457763671875,0.12969970703125,0.0553131103515625,0.14824651757677493
1782217220.018259,-0.06982421875,-0.0400390587747097,0.9931640028953552,0.9964202348400687,-0.0152587890625,-0.17547607421875,-0.3108978271484375,0.35732638048778015
1782217220.028887,-0.0639648362994194,-0.0322265625,0.9721679091453552,0.9748027981009438,-0.0152587890625,0.12969970703125,-0.1888275146484375,0.22958805486338316
1782217220.039513,-0.06201171875,-0.037109375,0.9804686903953552,0.9831283801319147,0.1068115234375,-0.05340576171875,-0.0667572021484375,0.13681155273765028
1782217220.050139,-0.06982421875,-0.0341796837747097,0.9892577528953552,0.9923077012552884,0.0457763671875,0.072479248046875,0.0553131103515625,0.10202086731198373
1782217220.058139,-0.064453125,-0.0380859412252903,0.9794921278953552,0.98234900765983,-0.0171661376953125,-0.2346038818359375,0.1163482666015625,0.26243204224532724
1782217220.066139,-0.056640625,-0.04150390625,0.9887694716453552,0.9912597049674895,0.1068115234375,-0.05340576171875,0.2384185791015625,0.2666538876232775
1782217220.074139,-0.0673828050494194,-0.03125,0.9897460341453552,0.9925292021007678,-0.0743865966796875,-0.1125335693359375,0.1163482666015625,0.17814064425127976
1782217220.082139,-0.0654296800494194,-0.04638671875,0.9853515028953552,0.9886103150209875,-0.2002716064453125,-0.1735687255859375,-0.1277923583984375,0.2942205052588064
1782217220.092797,-0.0712890625,-0.0336914025247097,1.0029296875,1.006024452538336,-0.0762939453125,0.12969970703125,-0.1277923583984375,0.19741749405859027
1782217220.103455,-0.07470703125,-0.0395507775247097,0.9960936903953552,0.9996739691351553,-0.0152587890625,-0.05340576171875,0.0553131103515625,0.07838715586866195
1782217220.114113,-0.07666015625,-0.03564453125,0.9892577528953552,0.9928636431191719,-0.0762939453125,-0.05340576171875,-0.0667572021484375,0.11458387982082817
1782217220.122112,-0.06689453125,-0.0200195275247097,0.9858397841453552,0.988309536429367,0.1659393310546875,0.1926422119140625,-0.1277923583984375,0.2845659330753673
1782217220.130113,-0.06396484375,-0.0483398400247097,0.9877929091453552,0.9910414081800116,0.2880096435546875,0.0095367431640625,-0.1277923583984375,0.31523228120817537
1782217220.138114,-0.0649413987994194,-0.02587890625,0.9892577528953552,0.9917247625880323,-0.0743865966796875,-0.1125335693359375,-0.0667572021484375,0.150511441531068
1782217220.146115,-0.0605468675494194,-0.041015625,0.9799804091453552,0.982705351045208,-0.2002716064453125,-0.2346038818359375,-0.1277923583984375,0.3338840885482735
1782217220.156784,-0.0703125,-0.0390624962747097,0.9848632216453552,0.9881423438053496,-0.0152587890625,-0.05340576171875,-0.0667572021484375,0.08684198332086342
1782217220.167453,-0.0722656175494194,-0.03271484375,0.9887694716453552,0.9919463939846854,-0.0171661376953125,-0.2346038818359375,-0.0057220458984375,0.23530065759603983
1782217220.178122,-0.0615234337747097,-0.0380859412252903,0.9916991591453552,0.9943354032076158,-0.1373291015625,-0.232696533203125,0.2384185791015625,0.36034757882012264
1782217220.186143,-0.06591796875,-0.0302734337747097,0.9990233778953552,1.0016533177592353,-0.0171661376953125,0.0705718994140625,0.1163482666015625,0.13715680227925717
1782217220.194164,-0.0688476487994194,-0.02734375,0.9853515028953552,0.9881322096093245,-0.2593994140625,-0.05340576171875,0.2384185791015625,0.35634765364954524
1782217220.202185,-0.0561523400247097,-0.0366210974752903,0.9941405653953552,0.9963983409435916,0.1049041748046875,0.1926422119140625,-0.1888275146484375,0.2894334776609314
1782217220.210206,-0.0502929650247097,-0.0292968712747097,0.9882811903953552,0.9899936364879948,-0.0152587890625,-0.17547607421875,-0.0057220458984375,0.17623116942284062
1782217220.220835,-0.0673828050494194,-0.02392578125,0.9873046278953552,0.9898905564194138,-0.0762939453125,-0.05340576171875,-0.0057220458984375,0.0933042511645127
