timestamp,accel_x,accel_y,accel_z,accel_rms,gyro_x,gyro_y,gyro_z,gyro_rms
1781791085.081697,0.0468750037252903,-0.07373046875,0.9931640028953552,0.9969995910949341,-0.431060791015625,0.09918212890625,-0.8487701416015625,0.9571108888314502
1781791085.089695,0.044921875,-0.0712890625,0.9941405653953552,0.9977051513599803,-0.3681182861328125,-0.2689361572265625,-0.8487701416015625,0.9634565286111699
1781791085.097694,0.0434570275247097,-0.0634765625,0.9951171278953552,0.9980861112443157,-0.064849853515625,-0.148773193359375,-1.1539459228515625,1.1653026042316597
1781791085.105692,0.0546875,-0.0722656175494194,0.9946288466453552,0.9987490098694058,0.118255615234375,-0.209808349609375,-1.5201568603515625,1.539116894252737
1781791085.113701,0.0336914025247097,-0.06298828125,0.9887694716453552,0.9913464087980276,0.362396240234375,-0.209808349609375,-1.1539459228515625,1.2275755664591752
1781791085.12171,0.04052734375,-0.0712890625,0.9902343153953552,0.993623970831052,0.362396240234375,-0.514984130859375,-1.4591217041015625,1.589206039931023
1781791085.129719,0.0361328125,-0.06640625,0.9975585341453552,1.0004191117848822,0.3604888916015625,-0.6351470947265625,-1.3980865478515625,1.5773427237576543
1781791085.137727,0.0463867224752903,-0.0673828125,0.9853515028953552,0.9887415009498413,0.1773834228515625,-0.6351470947265625,-1.1539459228515625,1.3290853635142754
1781791085.145734,0.0537109375,-0.07177734375,0.9848632216453552,0.988934991408739,0.545501708984375,-0.38909912109375,-1.0318756103515625,1.2303404064644923
1781791085.153739,0.04931640625,-0.0732421875,0.9912108778953552,0.9951359356456188,0.606536865234375,-0.698089599609375,-0.8487701416015625,1.255239742537439
1781791085.161746,0.0478515662252903,-0.06982421875,0.9936522841453552,0.9972512500375935,0.423431396484375,-0.57220458984375,-0.9098052978515625,1.1551873961248593
1781791085.169752,0.0498046875,-0.07177734375,0.9809569716453552,0.9848396185127833,0.118255615234375,-0.514984130859375,-0.7877349853515625,0.9485354251256369
1781791085.180406,0.05322265625,-0.06640625,1.00146484375,1.0050742631490373,-0.247955322265625,-0.637054443359375,-0.4215240478515625,0.8031206189364953
1781791085.19106,0.0483398400247097,-0.072265625,0.9858397841453552,0.9896661763918254,-0.064849853515625,-0.453948974609375,-0.4825592041015625,0.665686533221932
1781791085.201714,0.0468750037252903,-0.06396484375,0.9926757216453552,0.9958382677695885,-0.064849853515625,-0.38909912109375,-0.4215240478515625,0.5773094079036761
1781791085.209728,0.0478515662252903,-0.0703125,0.9902343153953552,0.9938800830245926,0.057220458984375,-0.820159912109375,-0.2994537353515625,0.8749908582228981
1781791085.217744,0.05029296875,-0.0751953125,0.9985350966453552,1.002624584258839,0.4825592041015625,-0.6351470947265625,-0.0553131103515625,0.7995841153871746
1781791085.225759,0.05126953125,-0.0615234375,0.9985350966453552,1.0017415022993508,0.1773834228515625,-0.5741119384765625,-0.1773834228515625,0.6265255583824085
1781791085.233773,0.06396484375,-0.0712890625,0.9848632216453552,0.9895095739899432,0.0553131103515625,-0.4520416259765625,-0.1773834228515625,0.4887392459122091
1781791085.241767,0.05322265625,-0.06982421875,0.9956054091453552,0.9994689606895473,0.0553131103515625,-0.5741119384765625,-0.2994537353515625,0.6498742937630969
1781791085.249759,0.05029296875,-0.05712890625,0.9921874403953552,0.9951025130675213,0.3604888916015625,-0.7572174072265625,0.1277923583984375,0.848328550527492
1781791085.257753,0.0498046875,-0.07861328125,0.9868163466453552,0.9911947623410599,0.118255615234375,-1.003265380859375,0.0057220458984375,1.0102269827987327
1781791085.265746,0.0571289099752903,-0.07373046875,0.9936522841453552,0.998020418711131,0.240325927734375,-0.698089599609375,-0.2384185791015625,0.7758408725279776
1781791085.276464,0.0498046875,-0.06591796875,1.0048828125,1.008273352002823,0.667572021484375,-0.698089599609375,-0.5435943603515625,1.1083665104817706
1781791085.287182,0.05126953125,-0.07177734375,0.9980468153953552,1.001937122593634,0.3604888916015625,-0.6351470947265625,-0.6046295166015625,0.9481249523420187
1781791085.297899,0.0527343787252903,-0.064453125,0.9931640028953552,0.9966493147887742,0.3604888916015625,-0.4520416259765625,-0.6046295166015625,0.8365827663354635
1781791085.305867,0.0473632849752903,-0.0600585900247097,0.9956054091453552,0.9985391558265989,0.789642333984375,-0.514984130859375,-0.8487701416015625,1.2685245066342288
1781791085.313836,0.0434570275247097,-0.06787109375,0.9960936903953552,0.999348607170462,0.8487701416015625,-0.5741119384765625,-0.6046295166015625,1.1897865873851041
1781791085.321804,0.0400390625,-0.06982421875,0.9843749403953552,0.9876601497115726,0.8487701416015625,-0.4520416259765625,-0.6656646728515625,1.1695562584042072
1781791085.329772,0.05810546875,-0.0751953125,0.9956054091453552,1.0001303471248735,0.8487701416015625,-0.3910064697265625,-0.4215240478515625,1.0251728320432278
1781791085.337757,0.0498046875,-0.07763671875,0.9848632216453552,0.9891731558958257,0.728607177734375,-0.209808349609375,-0.7266998291015625,1.0502288344109112
1781791085.345742,0.0390624962747097,-0.0771484375,0.9775390028953552,0.9813563380370804,0.9708404541015625,-0.0858306884765625,-0.4825592041015625,1.087548380472162
1781791085.353727,0.0361328125,-0.06396484375,0.9814452528953552,0.9841909701912276,1.033782958984375,-0.148773193359375,-0.1163482666015625,1.0508937094159543
1781791085.361712,0.0400390625,-0.07080078125,0.9790038466453552,0.9823769179382684,0.850677490234375,-0.331878662109375,0.0667572021484375,0.9155611190923582
1781791085.369699,0.0576171912252903,-0.07275390625,0.9853515028953552,0.9897123096422822,0.911712646484375,-0.209808349609375,0.2498626708984375,0.9683340578714835
1781791085.377687,0.03857421875,-0.0615234375,0.9775390028953552,0.980232424425776,0.8487701416015625,-0.2689361572265625,0.3108978271484375,0.9430773398103395
1781791085.385675,0.0478515662252903,-0.06689453125,0.9931640028953552,0.9965637899043371,0.728607177734375,-0.148773193359375,0.4329681396484375,0.8605017678418947
1781791085.393663,0.04833984375,-0.08154296875,0.9848632216453552,0.9894147571145308,0.3032684326171875,-0.2689361572265625,0.5550384521484375,0.6872889365101182
1781791085.404351,0.0522460974752903,-0.087890625,0.9902343153953552,0.9954990788799335,0.8487701416015625,-0.1468658447265625,0.4940032958984375,0.992985189204805
1781791085.415038,0.0371093787252903,-0.068359375,0.9877929091453552,0.990850615127029,0.423431396484375,0.09918212890625,0.4940032958984375,0.6581568951105832
1781791085.425725,0.05224609375,-0.0615234375,0.9985350966453552,1.0017919578966978,0.4825592041015625,0.1583099365234375,0.4940032958984375,0.7084946561715956
1781791085.433708,0.0571289099752903,-0.0693359375,0.9912108778953552,0.9952739266363052,0.545501708984375,-0.026702880859375,0.4329681396484375,0.6969552125507726
1781791085.441693,0.0361328125,-0.07080078125,0.9833983778953552,0.9866056458443699,0.3604888916015625,-0.2689361572265625,0.5550384521484375,0.7143854568755209
1781791085.449677,0.04443359375,-0.06005859375,0.9853515028953552,0.9881796209166139,0.6084442138671875,-0.0858306884765625,0.3108978271484375,0.6886426703294244
1781791085.457661,0.0419921912252903,-0.07861328125,0.9956054091453552,0.9995866759977762,0.728607177734375,-0.148773193359375,0.4329681396484375,0.8605017678418947
1781791085.468343,0.0522460974752903,-0.0634765625,0.9882811903953552,0.9916948320816612,0.4825592041015625,0.0362396240234375,0.4329681396484375,0.6493366659623669
1781791085.479027,0.044921875,-0.083984375,0.9829100966453552,0.9875138521484333,0.362396240234375,0.156402587890625,0.0667572021484375,0.4003115392710818
1781791085.48971,0.0468750037252903,-0.0634765625,0.9853515028953552,0.9885060061624298,0.6084442138671875,-0.2689361572265625,0.2498626708984375,0.710607044969828
1781791085.497711,0.03662109375,-0.06201171875,0.9912108778953552,0.9938237078213903,0.484466552734375,-0.209808349609375,0.4940032958984375,0.7230260304046168
1781791085.505712,0.0556640625,-0.06103515625,0.9965819716453552,0.9999997021804604,0.545501708984375,-0.38909912109375,0.2498626708984375,0.7151234822387693
1781791085.513713,0.0517578162252903,-0.0590820275247097,0.9960936903953552,0.9991857672936896,0.6656646728515625,-0.4520416259765625,0.2498626708984375,0.8425452169507658
1781791085.521714,0.0419921875,-0.06005859375,0.9916991591453552,0.9944031379394713,0.423431396484375,-0.38909912109375,0.3108978271484375,0.6537199189945618
1781791085.529903,0.0546875,-0.0595703125,1.0009765625,1.0042377325424066,0.484466552734375,-0.698089599609375,0.1888275146484375,0.8704554900104958
1781791085.538091,0.0498046875,-0.05078125,0.9926757216453552,0.995220744655507,0.301361083984375,-0.514984130859375,0.6771087646484375,0.9024984416279933
1781791085.546281,0.05224609375,-0.076171875,1.001953125,1.0062017061953408,0.1773834228515625,-0.3299713134765625,0.3719329833984375,0.5279015917381255
1781791085.55447,0.041015625,-0.07177734375,0.9970702528953552,1.0004915580747065,0.545501708984375,-0.698089599609375,0.4329681396484375,0.9860844860042572
1781791085.564969,0.04833984375,-0.0625,0.9921874403953552,0.9953285424281075,0.179290771484375,-0.698089599609375,0.5550384521484375,0.9096933291970285
1781791085.575468,0.04931640625,-0.0693359375,0.9907225966453552,0.9943695709634995,0.2384185791015625,-0.2689361572265625,0.6771087646484375,0.7665809511645404
1781791085.585967,0.04931640625,-0.060546875,0.9897460341453552,0.992821859199393,-0.064849853515625,-0.331878662109375,0.4329681396484375,0.5493726966414836
1781791085.593914,0.04736328125,-0.06103515625,0.9907225966453552,0.9937302623010651,0.0553131103515625,-0.2689361572265625,0.9212493896484375,0.9612942498362159
1781791085.601861,0.04833984375,-0.06982421875,0.9711913466453552,0.9748973247561206,-0.1888275146484375,-0.6961822509765625,0.3719329833984375,0.8115785242370338
1781791085.609808,0.05029296875,-0.068359375,0.9970702528953552,1.0006755098756472,0.240325927734375,-0.38909912109375,0.7991790771484375,0.9207832942278791
1781791085.617755,0.0483398400247097,-0.0634765625,0.9843749403953552,0.9876031781028198,0.0553131103515625,-0.5741119384765625,0.4940032958984375,0.7594098461546306
1781791085.625751,0.04052734375,-0.06494140625,0.9936522841453552,0.9965965651277552,0.1773834228515625,-0.3910064697265625,0.2498626708984375,0.49677187156587915
1781791085.633749,0.06103515625,-0.06591796875,0.9921874403953552,0.9962461471849587,-0.1277923583984375,-0.3910064697265625,0.1888275146484375,0.45262874027327277
1781791085.641746,0.0498046875,-0.07763671875,0.9887694716453552,0.9930624527455835,0.118255615234375,-0.38909912109375,-0.1773834228515625,0.4436748756385981
1781791085.649743,0.0624999962747097,-0.0732421875,1.00048828125,1.0051106747431862,0.3604888916015625,-0.3910064697265625,-0.1163482666015625,0.5444035446957896
1781791085.65778,0.0419921912252903,-0.07373046875,0.9892577528953552,0.9928899374097634,0.057220458984375,-0.148773193359375,0.0667572021484375,0.1728125227737153
1781791085.665817,0.044921875,-0.07763671875,0.9946288466453552,0.998665097783462,0.240325927734375,-0.331878662109375,0.0667572021484375,0.41515842993197677
1781791085.673854,0.0566406287252903,-0.07861328125,0.9863280653953552,0.9910758101163765,0.1773834228515625,-0.5741119384765625,-0.0553131103515625,0.6034309710154233
1781791085.68189,0.0488281212747097,-0.072265625,0.9965819716453552,1.000390989659744,0.362396240234375,-0.209808349609375,0.0667572021484375,0.42403667593795225
1781791085.69255,0.0634765625,-0.060546875,0.9887694716453552,0.9926531449186654,-0.0057220458984375,-0.2689361572265625,0.1277923583984375,0.2978091424689458
1781791085.703209,0.0581054650247097,-0.072265625,0.9902343153953552,0.9945665211582814,-0.3108978271484375,-0.3910064697265625,0.0057220458984375,0.49957608039508133
1781791085.713867,0.0610351599752903,-0.07861328125,0.9916991591453552,0.9966807718581239,-0.308990478515625,-0.026702880859375,0.2498626708984375,0.3982706541637304
1781791085.721902,0.0556640662252903,-0.078125,0.9921874403953552,0.9968138847207236,0.1201629638671875,0.2193450927734375,-0.0553131103515625,0.25614634056706537
1781791085.729936,0.05322265625,-0.06591796875,0.9765624403953552,0.9802306002841186,-0.3108978271484375,0.0362396240234375,-0.0553131103515625,0.31785265368051274
1781791085.73797,0.0493164025247097,-0.0673828125,0.9946288466453552,0.9981277942014534,0.3032684326171875,-0.0858306884765625,-0.2384185791015625,0.3951987704526095
1781791085.746004,0.0527343787252903,-0.0693359375,0.9858397841453552,0.9896809925083471,-0.064849853515625,0.09918212890625,-0.4215240478515625,0.43786427247783116
1781791085.756576,0.0419921912252903,-0.064453125,0.9902343153953552,0.9932177751292386,0.1773834228515625,0.0362396240234375,-0.4215240478515625,0.4587599720649816
1781791085.767148,0.0483398400247097,-0.0673828125,0.9990233778953552,1.0024594221889833,0.118255615234375,-0.209808349609375,-0.2384185791015625,0.33889135864031456
1781791085.777719,0.0429687537252903,-0.06982421875,0.9760741591453552,0.979511357500292,-0.064849853515625,0.034332275390625,-0.1163482666015625,0.13755409036333308
1781791085.785725,0.05078125,-0.06005859375,1.00244140625,1.0055220251189267,0.3604888916015625,-0.3910064697265625,-0.3604888916015625,0.6424877752177666
1781791085.79373,0.0434570275247097,-0.0634765625,0.9907225966453552,0.9937047100279917,0.118255615234375,-0.331878662109375,-0.4825592041015625,0.5974874244376217
1781791085.801735,0.0576171875,-0.06640625,0.9946288466453552,0.9985069218155387,0.4253387451171875,-0.2689361572265625,-0.4215240478515625,0.6564466678099756
1781791085.80974,0.0458984412252903,-0.06787109375,0.9863280653953552,0.9897253178838444,0.179290771484375,-0.209808349609375,0.0057220458984375,0.27603888514942226
1781791085.81778,0.05126953125,-0.06103515625,1.00048828125,1.0036586352199814,0.301361083984375,-0.209808349609375,-0.4215240478515625,0.5590353919236363
1781791085.825822,0.05615234375,-0.064453125,0.9975585341453552,1.0012144226273978,0.5435943603515625,-0.7572174072265625,-0.2994537353515625,0.9790534050954247
1781791085.833863,0.04541015625,-0.08544921875,1.00634765625,1.0109892464885584,0.850677490234375,-0.514984130859375,-0.5435943603515625,1.1332941701228616
1781791085.841904,0.0576171912252903,-0.06787109375,0.9951171278953552,0.9990917497018048,1.1539459228515625,-0.4520416259765625,0.0667572021484375,1.241124227674235
1781791085.852527,0.048828125,-0.068359375,0.9956054091453552,0.9991432933573124,0.9708404541015625,-0.0858306884765625,-0.3604888916015625,1.03915847461906
1781791085.86315,0.0595703125,-0.0654296875,0.9921874403953552,0.9961252847990467,0.972747802734375,-0.209808349609375,-0.4215240478515625,1.080712891663429
1781791085.873773,0.03955078125,-0.07373046875,0.9965819716453552,1.000088032389211,0.606536865234375,-0.209808349609375,-0.3604888916015625,0.736110557879912
1781791085.881776,0.06201171875,-0.06640625,1.005859375,1.0099546156024943,0.423431396484375,0.40435791015625,-0.3604888916015625,0.6875694204971313
1781791085.889779,0.05859375,-0.06689453125,0.9887694716453552,0.9927603809117559,0.057220458984375,0.278472900390625,0.0057220458984375,0.28434851676703593
1781791085.897782,0.04931640625,-0.0654296875,0.9829100966453552,0.9863191217953469,-0.553131103515625,0.278472900390625,-0.2384185791015625,0.6635846538228473
1781791085.905785,0.0517578162252903,-0.0595703087747097,0.9892577528953552,0.9924003198767586,-0.9212493896484375,0.4024505615234375,-0.1773834228515625,1.0208485544392396
1781791085.913815,0.0458984375,-0.06884765625,0.9916991591453552,0.9951451595549586,-1.346588134765625,0.339508056640625,0.0057220458984375,1.3887397405650646
1781791085.921844,0.04052734375,-0.07568359375,0.9824218153953552,0.986165855887868,-1.468658447265625,0.461578369140625,-0.4825592041015625,1.613342992375251
1781791085.929875,0.068359375,-0.0615234375,0.9941405653953552,0.9983854973289644,-1.1043548583984375,0.0362396240234375,-0.3604888916015625,1.1622672689987084
1781791085.937905,0.0483398400247097,-0.068359375,0.9814452528953552,0.9850099130033326,-1.224517822265625,-0.08392333984375,-0.2994537353515625,1.2633920862632795
1781791085.948508,0.0546875,-0.0703125,0.9799804091453552,0.9840204127055484,-0.8563995361328125,-0.0858306884765625,-0.6046295166015625,1.0518383549380086
1781791085.959111,0.0424804724752903,-0.06884765625,1.005859375,1.0091073642523043,-0.8563995361328125,-0.4520416259765625,-0.2384185791015625,0.9972989601743496
1781791085.969714,0.044921875,-0.0693359375,1.00146484375,1.0048667973168044,-0.858306884765625,0.09918212890625,-0.4825592041015625,0.9896419496937169
1781791085.97775,0.05078125,-0.07861328125,0.9887694716453552,0.9931887289927775,-0.492095947265625,0.278472900390625,-0.4215240478515625,0.7052574710588936
1781791085.985785,0.05859375,-0.07080078125,0.9853515028953552,0.9896279919357618,-0.4329681396484375,0.0362396240234375,-0.2384185791015625,0.49559876832050037
1781791085.993822,0.0522460974752903,-0.07861328125,0.9907225966453552,0.9952090062866213,0.179290771484375,-0.026702880859375,-0.4215240478515625,0.458847194066629
1781791086.001858,0.0517578125,-0.07568359375,0.9912108778953552,0.9954425558392513,0.362396240234375,-0.331878662109375,-0.4215240478515625,0.6474233577935584
1781791086.009815,0.05078125,-0.0703125,0.9882811903953552,0.9920797822237246,0.2384185791015625,-0.2689361572265625,0.0057220458984375,0.35944793410710013
1781791086.017774,0.0488281212747097,-0.072265625,0.9843749403953552,0.9882310100691121,0.1773834228515625,-0.3299713134765625,0.1277923583984375,0.39582424544868244
1781791086.025732,0.05859375,-0.07421875,0.9877929091453552,0.9923086625382593,0.423431396484375,-0.87738037109375,0.2498626708984375,1.0057444095881494
1781791086.035737,0.0546875,-0.0703125,0.9819335341453552,0.9859655347889639,0.6084442138671875,-0.5741119384765625,0.0667572021484375,0.8392052212233092
1781791086.045742,0.0556640625,-0.06103515625,0.9907225966453552,0.9941604707773193,0.118255615234375,-0.87738037109375,0.3719329833984375,0.9602681137342474
1781791086.055747,0.04833984375,-0.0615234375,0.9897460341453552,0.9928338662445241,-0.064849853515625,-0.698089599609375,0.4940032958984375,0.8576560201749269
1781791086.065752,0.0561523474752903,-0.06884765625,0.9995116591453552,1.0034523619313498,0.057220458984375,-0.331878662109375,0.3719329833984375,0.5017487134308902
1781791086.073764,0.0522460974752903,-0.0693359375,0.9858397841453552,0.9896550949366967,-0.0057220458984375,-0.6351470947265625,0.2498626708984375,0.6825510442870611
1781791086.081776,0.0507812537252903,-0.0585937462747097,0.9760741591453552,0.9791489809950933,0.057220458984375,-0.514984130859375,0.0057220458984375,0.518184887634358
1781791086.089788,0.05810546875,-0.05419921875,0.9760741591453552,0.9793031016815376,-0.247955322265625,-0.38909912109375,-0.1773834228515625,0.49431249890966233
1781791086.0978,0.06298828125,-0.060546875,0.9755858778953552,0.9794903025532952,-0.4940032958984375,-0.6351470947265625,-0.1163482666015625,0.8130116896080279
1781791086.105792,0.0527343787252903,-0.0634765625,0.9951171278953552,0.9985330675130691,-0.1888275146484375,-0.5130767822265625,-0.1163482666015625,0.5589638037381827
1781791086.113784,0.05029296875,-0.0751953125,0.9907225966453552,0.9948441994761674,-0.1277923583984375,-0.7572174072265625,-0.0553131103515625,0.7699146893316925
1781791086.121776,0.0522460974752903,-0.06689453125,0.9970702528953552,1.000676582228925,0.3032684326171875,-0.5741119384765625,-0.1773834228515625,0.6730833074931647
1781791086.129768,0.0620117224752903,-0.0546874962747097,0.9863280653953552,0.9897874663581535,0.423431396484375,-0.637054443359375,0.0057220458984375,0.7649609487692133
1781791086.140608,0.0527343787252903,-0.07763671875,0.9838866591453552,0.9883528382323882,0.362396240234375,-0.514984130859375,-0.1163482666015625,0.64037224261689
1781791086.151448,0.05517578125,-0.0712890625,0.9965819716453552,1.0006508499357907,0.4825592041015625,-0.0247955322265625,-0.3604888916015625,0.6028519261391266
1781791086.162288,0.0566406287252903,-0.0673828125,0.9853515028953552,0.9892755877413237,0.911712646484375,-0.331878662109375,-0.3604888916015625,1.0350437851082315
1781791086.170398,0.0502929724752903,-0.0673828125,0.9750975966453552,0.9787160719454638,1.0318756103515625,0.0362396240234375,-0.6046295166015625,1.1965188832331937
1781791086.178508,0.0375976599752903,-0.06689453125,0.9916991591453552,0.9946636037356446,0.8487701416015625,-0.1468658447265625,-0.6046295166015625,1.052405426614393
1781791086.186618,0.0546875,-0.07080078125,0.9838866591453552,0.9879455609121733,0.545501708984375,-0.148773193359375,-0.1163482666015625,0.5772715970047444
1781791086.194728,0.04833984375,-0.05712890625,0.9863280653953552,0.9891630325733164,0.362396240234375,-0.209808349609375,-0.1773834228515625,0.4547696748952779
1781791086.202556,0.0302734375,-0.06591796875,0.9946288466453552,0.9972703756761563,-0.003814697265625,-0.209808349609375,0.0667572021484375,0.2202058571421874
1781791086.210384,0.046875,-0.0703125,0.9848632216453552,0.9884820072368127,-0.370025634765625,-0.209808349609375,-0.2384185791015625,0.4876288884083073
1781791086.218212,0.04833984375,-0.06396484375,0.9711913466453552,0.9744951890740944,-0.308990478515625,-0.209808349609375,0.0667572021484375,0.37940899227326175
1781791086.22604,0.060546875,-0.06494140625,0.9755858778953552,0.9796178415417127,-0.736236572265625,-0.209808349609375,0.1888275146484375,0.7884920191070753
1781791086.236611,0.06298828125,-0.05908203125,0.9902343153953552,0.9939930630431798,-0.6771087646484375,-0.3910064697265625,0.3108978271484375,0.8414391228469128
1781791086.247182,0.044921875,-0.0556640625,0.9868163466453552,0.9894053591496286,-0.553131103515625,-0.08392333984375,-0.2994537353515625,0.6345625928645229
1781791086.257753,0.0561523474752903,-0.0673828125,0.9907225966453552,0.9945978046683549,-0.4940032958984375,-0.0858306884765625,0.0667572021484375,0.5058287135795746
1781791086.265836,0.0571289099752903,-0.06884765625,1.0009765625,1.0049665620309958,-0.6160736083984375,-0.0858306884765625,-0.1163482666015625,0.6328115969154012
1781791086.273919,0.064453125,-0.064453125,0.9833983778953552,0.987613679680343,-0.431060791015625,0.09918212890625,-0.1773834228515625,0.4765662377339886
1781791086.282002,0.05126953125,-0.0712890625,0.9946288466453552,0.9984974901549794,-0.3108978271484375,-0.0858306884765625,-0.6046295166015625,0.6852745569155618
1781791086.290085,0.0541992150247097,-0.07275390625,0.9916991591453552,0.9958403024750169,-0.064849853515625,-0.026702880859375,-0.3604888916015625,0.3672475844921394
1781791086.297997,0.0625,-0.0810546875,0.9897460341453552,0.9950242833580402,-0.0057220458984375,-0.0858306884765625,-0.6656646728515625,0.6711997508761474
1781791086.305911,0.05810546875,-0.06591796875,0.9858397841453552,0.9897482023760102,-0.064849853515625,0.09918212890625,-0.5435943603515625,0.5563608782089179
1781791086.313823,0.05859375,-0.07568359375,0.9951171278953552,0.9997096239072015,0.1773834228515625,-0.2689361572265625,-0.5435943603515625,0.6318911013555666
1781791086.321737,0.0468750037252903,-0.06884765625,0.9912108778953552,0.9947041118862658,0.3604888916015625,-0.0858306884765625,-0.5435943603515625,0.6578859906233816
1781791086.332383,0.0546875,-0.0615234375,0.9902343153953552,0.993649764959754,0.3604888916015625,-0.3910064697265625,-0.6046295166015625,0.8052422943946694
1781791086.343029,0.04541015625,-0.0703125,0.9843749403953552,0.9879270991451032,0.728607177734375,-0.38909912109375,-0.7266998291015625,1.1001632547482305
1781791086.353674,0.06005859375,-0.07568359375,0.9907225966453552,0.995422676328934,0.423431396484375,-0.209808349609375,-0.4825592041015625,0.6754088217943641
1781791086.361725,0.05810546875,-0.0625,0.9814452528953552,0.9851483542743625,0.1201629638671875,-0.2689361572265625,-0.2994537353515625,0.4200456334318225
1781791086.369775,0.05029296875,-0.07177734375,0.9819335341453552,0.9858371241035111,0.179290771484375,-0.209808349609375,-0.2384185791015625,0.36470281485900286
1781791086.377825,0.04931640625,-0.0625,0.9926757216453552,0.9958631664388145,-0.1888275146484375,-0.5741119384765625,-0.3604888916015625,0.7037134282914781
1781791086.385875,0.03857421875,-0.07666015625,0.9848632216453552,0.9885951220080521,-0.064849853515625,-0.331878662109375,0.1277923583984375,0.36149666212780085
1781791086.39385,0.05078125,-0.0654296875,0.9829100966453552,0.9863934496159693,-0.1888275146484375,-0.6351470947265625,0.0667572021484375,0.665976115387471
1781791086.401824,0.0556640625,-0.06201171875,0.9833983778953552,0.9869226467983947,-0.3108978271484375,-0.4520416259765625,0.0667572021484375,0.5526803909854605
1781791086.4098,0.0512695349752903,-0.08251953125,0.9863280653953552,0.9911009488648703,-0.3108978271484375,-0.4520416259765625,0.1888275146484375,0.580219717718607
1781791086.417775,0.0615234375,-0.06103515625,0.9843749403953552,0.9881823955822313,-0.247955322265625,-0.38909912109375,0.0057220458984375,0.4614246522294214
1781791086.429235,0.0527343787252903,-0.0693359375,0.9960936903953552,0.9998955080277059,-0.431060791015625,-0.38909912109375,-0.3604888916015625,0.6834937984759395
1781791086.440695,0.0600585974752903,-0.072265625,0.9936522841453552,0.9980852756526475,-0.4940032958984375,-0.3910064697265625,-0.1163482666015625,0.6406732668589635
1781791086.452155,0.05810546875,-0.06103515625,0.9877929091453552,0.9913810403447119,-0.247955322265625,-0.57220458984375,-0.2384185791015625,0.6676401376032691
1781791086.459566,0.06494140625,-0.0478515625,0.9882811903953552,0.9915678844984237,0.118255615234375,-0.698089599609375,-0.0553131103515625,0.7101922414346711
1781791086.466976,0.05517578125,-0.06689453125,1.00732421875,1.0110496164026783,0.118255615234375,-0.38909912109375,-0.2384185791015625,0.47140845922744884
1781791086.474388,0.0581054650247097,-0.0634765625,0.9868163466453552,0.9905614675824211,0.1773834228515625,-0.5741119384765625,-0.2384185791015625,0.6464617664368563
1781791086.481799,0.048828125,-0.0654296875,0.9912108778953552,0.9945673603408892,0.4825592041015625,-0.2689361572265625,0.1277923583984375,0.5670281553785125
1781791086.489763,0.0581054650247097,-0.06884765625,0.9799804091453552,0.9841127207518221,0.240325927734375,-0.637054443359375,0.3719329833984375,0.7758408725279776
1781791086.497729,0.0498046875,-0.064453125,0.9965819716453552,0.9999051647170255,0.4825592041015625,-0.2689361572265625,-0.2384185791015625,0.6016921646388058
1781791086.505694,0.0581054650247097,-0.068359375,0.9921874403953552,0.9962354973069445,0.545501708984375,-0.331878662109375,0.0057220458984375,0.6385517227896628
1781791086.513659,0.04833984375,-0.06884765625,0.9965819716453552,1.000126175276618,0.606536865234375,0.034332275390625,-0.1163482666015625,0.618548779938194
1781791086.524388,0.060546875,-0.05859375,0.9882811903953552,0.991866353346351,0.5435943603515625,-0.0858306884765625,0.0057220458984375,0.5503584990709682
1781791086.535116,0.0429687537252903,-0.0751953125,0.9775390028953552,0.9813679997841394,0.4825592041015625,0.0972747802734375,-0.0553131103515625,0.49536381429929166
1781791086.545846,0.0527343787252903,-0.0620117224752903,0.9951171278953552,0.9984410181150389,0.850677490234375,0.278472900390625,0.1277923583984375,0.9041737861210404
1781791086.553834,0.06591796875,-0.060546875,0.9877929091453552,0.9918396715368042,1.216888427734375,-0.026702880859375,0.0057220458984375,1.2171948205646017
1781791086.561824,0.05712890625,-0.06103515625,0.9853515028953552,0.9888915949111502,0.911712646484375,0.09918212890625,0.0667572021484375,0.9195181175445138
1781791086.569813,0.06494140625,-0.06298828125,0.9985350966453552,1.0026251787448317,1.0318756103515625,0.2193450927734375,-0.1163482666015625,1.0613276893134305
1781791086.577802,0.06201171875,-0.06640625,0.9877929091453552,0.9919627385437598,0.8487701416015625,0.0972747802734375,0.0057220458984375,0.8543452919989937
1781791086.585825,0.06005859375,-0.052734375,0.9765624403953552,0.979827611868945,0.667572021484375,0.278472900390625,0.1888275146484375,0.7475663117135547
1781791086.59385,0.05615234375,-0.07080078125,0.9999999403953552,1.0040745575528456,0.423431396484375,0.278472900390625,-0.1163482666015625,0.5199790600801759
1781791086.601874,0.05517578125,-0.07373046875,0.9892577528953552,0.9935348260238341,0.4825592041015625,0.3414154052734375,0.0667572021484375,0.5948818273067739
1781791086.609898,0.04931640625,-0.05126953125,0.9897460341453552,0.9922992919812391,0.4825592041015625,0.5855560302734375,0.0057220458984375,0.7587964100218082
1781791086.620522,0.05712890625,-0.07080078125,0.9858397841453552,0.9900285564359708,0.3032684326171875,0.2193450927734375,-0.2384185791015625,0.44376506262512544
1781791086.631148,0.06005859375,-0.0625,0.9916991591453552,0.9954800384401649,0.118255615234375,0.278472900390625,-0.0553131103515625,0.30755664025215196
1781791086.641773,0.0615234375,-0.06591796875,0.9877929091453552,0.9918997647563923,0.545501708984375,0.156402587890625,-0.1773834228515625,0.5945576193324703
1781791086.64976,0.0605468787252903,-0.07275390625,0.9863280653953552,0.9908592775891806,0.301361083984375,0.644683837890625,-0.0553131103515625,0.7137893904748006
1781791086.657747,0.0517578125,-0.06494140625,0.9956054091453552,0.9990627548457619,0.3032684326171875,0.5855560302734375,0.1277923583984375,0.6716982162226629
1781791086.665734,0.0527343787252903,-0.0771484375,0.9912108778953552,0.9956062477537566,0.240325927734375,0.644683837890625,-0.2994537353515625,0.7503641395980869
1781791086.673721,0.0576171912252903,-0.07373046875,0.9877929091453552,0.9922150745199503,0.4825592041015625,0.4634857177734375,-0.2994537353515625,0.7330449751953121
1781791086.681722,0.0473632849752903,-0.064453125,0.9829100966453552,0.9861590866454042,0.240325927734375,0.58746337890625,-0.2384185791015625,0.678021527650962
1781791086.689723,0.0546875,-0.06201171875,0.9956054091453552,0.999032685470335,0.423431396484375,0.522613525390625,-0.2384185791015625,0.7136262770601525
1781791086.697724,0.0595703125,-0.0615234375,0.9902343153953552,0.9939304577683853,0.7915496826171875,0.7076263427734375,-0.2384185791015625,1.0881770811311404
1781791086.705725,0.05078125,-0.07373046875,0.9873046278953552,0.9913553074641014,0.362396240234375,0.461578369140625,-0.3604888916015625,0.688721908147732
1781791086.713738,0.05322265625,-0.06884765625,0.9814452528953552,0.9852956080995448,0.3032684326171875,0.7076263427734375,-0.2994537353515625,0.826062541715214
1781791086.721753,0.0429687537252903,-0.072265625,0.9951171278953552,0.9986624718011817,0.240325927734375,0.522613525390625,-0.3604888916015625,0.6788473240948428
1781791086.729767,0.05810546875,-0.0654296875,0.9804686903953552,0.9843658579768946,0.6656646728515625,0.2193450927734375,-0.2384185791015625,0.7403142206301143
1781791086.737781,0.05322265625,-0.06640625,1.00146484375,1.0050742631490373,0.545501708984375,0.278472900390625,-0.2384185791015625,0.6572386854238335
1781791086.748419,0.06396484375,-0.07275390625,0.9790038466453552,0.9837851207743478,0.3032684326171875,-0.1468658447265625,0.0057220458984375,0.3370075078964802
1781791086.759057,0.05078125,-0.0615234375,0.9902343153953552,0.9934424332088331,0.301361083984375,0.156402587890625,-0.5435943603515625,0.6409173901878046
1781791086.769695,0.04931640625,-0.06884765625,0.9853515028953552,0.9889841717412208,0.3032684326171875,-0.1468658447265625,-0.1163482666015625,0.35648034687836666
1781791086.777753,0.04736328125,-0.0654296875,0.9980468153953552,1.0013100269836133,0.057220458984375,-0.514984130859375,-0.1773834228515625,0.5476748256638282
1781791086.785811,0.04931640625,-0.0556640625,0.9873046278953552,0.9901015220890254,-0.003814697265625,-0.209808349609375,-0.4215240478515625,0.4708679415698253
1781791086.793869,0.0527343787252903,-0.0498046837747097,0.9960936903953552,0.9987312257413798,-0.1888275146484375,-0.1468658447265625,-0.2384185791015625,0.33774076670778236
1781791086.801927,0.0522460974752903,-0.0541992150247097,0.9829100966453552,0.9857887540939355,-0.247955322265625,-0.08392333984375,0.1888275146484375,0.32277050531094903
1781791086.812508,0.0458984412252903,-0.06298828125,0.9809569716453552,0.9840481546659019,-0.1277923583984375,0.0362396240234375,0.0667572021484375,0.1486631132900228
1781791086.823089,0.044921875,-0.05078125,0.9897460341453552,0.992065482874763,-0.4940032958984375,-0.0858306884765625,0.2498626708984375,0.5602120292812185
1781791086.83367,0.0556640662252903,-0.07275390625,0.9960936903953552,1.000297085464516,-0.4329681396484375,-0.0858306884765625,0.0667572021484375,0.4464133074558564
1781791086.841687,0.0634765625,-0.07177734375,0.9843749403953552,0.9890274436743306,-0.4940032958984375,-0.1468658447265625,0.1277923583984375,0.5309799615529768
1781791086.849706,0.0732421875,-0.0634765625,0.9853515028953552,0.990106699439377,-0.3681182861328125,0.0362396240234375,0.0667572021484375,0.37587352523609147
1781791086.857724,0.0566406287252903,-0.06787109375,0.9921874403953552,0.9961177455840771,-0.4329681396484375,-0.0858306884765625,0.3108978271484375,0.5398942266413017
1781791086.865741,0.05419921875,-0.0615234375,0.9897460341453552,0.993136395859796,-0.064849853515625,-0.08392333984375,0.0667572021484375,0.12532020790844117
1781791086.873747,0.0556640625,-0.05908203125,0.9868163466453552,0.9901493201922201,-0.1888275146484375,0.0362396240234375,0.1277923583984375,0.23086798717600646
1781791086.881752,0.0419921875,-0.0859375,0.9926757216453552,0.9972731251073659,0.118255615234375,-0.209808349609375,0.0057220458984375,0.2409080237549885
1781791086.889757,0.0566406287252903,-0.06787109375,0.9960936903953552,1.0000086430799762,0.423431396484375,-0.08392333984375,0.1277923583984375,0.4501868071859417
1781791086.897762,0.03955078125,-0.06201171875,0.9829100966453552,0.9856581433982048,0.911712646484375,-0.148773193359375,0.2498626708984375,0.9569664399185531
1781791086.908406,0.0498046875,-0.0703125,0.9858397841453552,0.9895981177008085,0.789642333984375,-0.148773193359375,0.0057220458984375,0.8035553624311775
1781791086.919051,0.0527343787252903,-0.07275390625,0.9814452528953552,0.9855500139541392,0.5435943603515625,-0.2689361572265625,0.1277923583984375,0.6198002679370584
1781791086.929697,0.0439453087747097,-0.0673828125,0.9985350966453552,1.0017704192160315,0.606536865234375,-0.209808349609375,0.3108978271484375,0.7131367129658743
1781791086.937772,0.0361328162252903,-0.0634765625,1.00341796875,1.0060727977664254,1.094818115234375,-0.331878662109375,0.4940032958984375,1.246117734472701
1781791086.945847,0.05810546875,-0.05078125,0.9877929091453552,0.9908026101136713,1.094818115234375,0.034332275390625,0.5550384521484375,1.2279548419800217
1781791086.953922,0.05029296875,-0.052734375,0.9931640028953552,0.9958338383783985,0.5435943603515625,0.0362396240234375,0.5550384521484375,0.777737630771919
1781791086.961997,0.0517578125,-0.0498046875,0.9858397841453552,0.9884530631524788,0.301361083984375,0.461578369140625,0.2498626708984375,0.6052309047853204
1781791086.96998,0.060546875,-0.060546875,0.9951171278953552,0.9987942462665832,-0.431060791015625,0.827789306640625,0.0667572021484375,0.9356842767612751
1781791086.977962,0.0595703125,-0.0546875,0.9853515028953552,0.988664214506489,-0.4940032958984375,0.7076263427734375,0.1888275146484375,0.8834195648918669
1781791086.985946,0.04736328125,-0.06591796875,0.9882811903953552,0.99160887970215,-0.6771087646484375,0.9517669677734375,0.3719329833984375,1.2258347295814551
1781791086.993929,0.04833984375,-0.05517578125,0.9877929091453552,0.9905129674507882,-0.7991790771484375,0.7076263427734375,0.1888275146484375,1.0840101792082233
1781791087.004586,0.04833984375,-0.07421875,0.9916991591453552,0.995646717262173,-0.858306884765625,0.827789306640625,-0.0553131103515625,1.193727516982583
1781791087.015243,0.03955078125,-0.0732421875,0.9843749403953552,0.9878880025618438,-0.9822845458984375,0.6465911865234375,0.1277923583984375,1.1829175704442474
1781791087.025899,0.04248046875,-0.076171875,0.9936522841453552,0.9974726094251998,-1.224517822265625,0.522613525390625,-0.0553131103515625,1.3325270481848128
1781791087.03389,0.06103515625,-0.0625,0.9980468153953552,1.0018627580758115,-0.8563995361328125,0.2193450927734375,-0.5435943603515625,1.0377992406136693
1781791087.041882,0.0561523474752903,-0.06787109375,0.9809569716453552,0.9849041332604068,-0.6771087646484375,0.2193450927734375,-0.2994537353515625,0.772179440611782
1781791087.049873,0.0517578162252903,-0.07421875,0.9858397841453552,0.989983522284959,-0.553131103515625,0.09918212890625,-0.4825592041015625,0.7407121558567286
1781791087.057864,0.0537109375,-0.0576171875,0.9838866591453552,0.9870347324926045,-0.3108978271484375,0.0362396240234375,-0.3604888916015625,0.4774128299942335
1781791087.065815,0.06298828125,-0.0615234375,0.9990233778953552,1.002895989880352,-0.064849853515625,-0.148773193359375,-0.3604888916015625,0.395336827947343
1781791087.073768,0.0361328162252903,-0.08203125,0.9892577528953552,0.9933104288431189,0.240325927734375,0.034332275390625,-0.3604888916015625,0.43461189312190807
1781791087.08172,0.05517578125,-0.0703125,0.9843749403953552,0.9884241183677971,-0.019073486328125,0.133514404296875,-0.4215240478515625,0.44257475860313694
1781791087.089672,0.0458984375,-0.06884765625,0.9848632216453552,0.9883330570641294,0.2269744873046875,0.0705718994140625,-0.2384185791015625,0.33666189231177074
1781791087.100353,0.0478515662252903,-0.072265625,0.9965819716453552,1.0003438004783143,0.2269744873046875,0.0705718994140625,0.1277923583984375,0.26986792647361596
1781791087.111036,0.0546875,-0.06396484375,0.9931640028953552,0.9967231112697935,0.2269744873046875,-0.0514984130859375,0.3719329833984375,0.43875237728958005
1781791087.121717,0.04833984375,-0.06591796875,0.9931640028953552,0.9965222806064226,0.469207763671875,-0.049591064453125,0.2498626708984375,0.5338975121425993
1781791087.129759,0.05517578125,-0.0654296875,0.9873046278953552,0.9910074869073802,0.1049041748046875,0.1316070556640625,0.6160736083984375,0.6386485684295294
1781791087.1378,0.05029296875,-0.06591796875,0.9912108778953552,0.9946725922472657,0.4100799560546875,-0.1735687255859375,0.6771087646484375,0.8104122111759385
1781791087.145841,0.0498046875,-0.05859375,0.9946288466453552,0.9975972519083565,0.2899169921875,0.316619873046875,0.6771087646484375,0.801733300749694
1781791087.153882,0.0654296875,-0.0673828125,0.9956054091453552,1.0000258087400784,0.1049041748046875,0.1316070556640625,0.9822845458984375,0.9965983303733333
1781791087.161937,0.05517578125,-0.0712890625,0.9877929091453552,0.9918978418297525,-0.0782012939453125,0.2536773681640625,0.6160736083984375,0.6708310819114137
1781791087.169992,0.0527343787252903,-0.0615234412252903,0.9804686903953552,0.9838114155494065,-0.2002716064453125,-0.2346038818359375,0.4329681396484375,0.5316099205915044
1781791087.178047,0.0517578125,-0.06103515625,0.9877929091453552,0.9910292593112935,-0.1983642578125,-0.293731689453125,0.3719329833984375,0.5137711828296264
1781791087.186101,0.06396484375,-0.080078125,0.9941405653953552,0.9994095612430742,0.164031982421875,-0.293731689453125,0.5550384521484375,0.6490396598125346
1781791087.196765,0.0634765625,-0.07666015625,0.9716796278953552,0.9767637139093297,-0.2002716064453125,-0.1125335693359375,0.2498626708984375,0.33941696316503284
1781791087.207428,0.0537109375,-0.07177734375,0.9946288466453552,0.9986608005033561,-0.1983642578125,0.011444091796875,0.1277923583984375,0.2362418948442337
1781791087.218091,0.05517578125,-0.060546875,0.9794921278953552,0.9829115522353903,-0.324249267578125,0.133514404296875,0.3719329833984375,0.5111729920676192
1781791087.226088,0.06494140625,-0.06640625,1.00341796875,1.0077076938751466,-0.324249267578125,0.316619873046875,-0.1163482666015625,0.46789170827698795
1781791087.234085,0.05859375,-0.0546875,1.0029296875,1.0061271829466492,-0.1983642578125,0.621795654296875,-0.2384185791015625,0.694853677647885
1781791087.242082,0.05322265625,-0.06884765625,0.9926757216453552,0.9964826838703975,0.164031982421875,0.743865966796875,-0.3604888916015625,0.8427308637898715
1781791087.250079,0.0512695349752903,-0.06787109375,0.9902343153953552,0.9938808026971402,0.164031982421875,0.377655029296875,-0.4215240478515625,0.5892472616208243
1781791087.258003,0.03515625,-0.05859375,0.9809569716453552,0.9833340071780042,-0.3223419189453125,0.5588531494140625,-0.2994537353515625,0.7112620437893242
1781791087.265927,0.046875,-0.0556640625,0.9824218153953552,0.9851133827350582,0.0438690185546875,0.3795623779296875,0.0057220458984375,0.3821319554000349
1781791087.273851,0.04638671875,-0.0595703125,0.9916991591453552,0.9945690383564852,-0.2002716064453125,0.4367828369140625,0.3719329833984375,0.6076364925763964
1781791087.281775,0.05810546875,-0.0712890625,0.9956054091453552,0.9998442411947355,-0.019073486328125,0.316619873046875,0.2498626708984375,0.4037862010983403
1781791087.292433,0.06298828125,-0.072265625,0.9897460341453552,0.9943777231203083,-0.1983642578125,0.133514404296875,0.6160736083984375,0.6608488222712701
1781791087.303091,0.0610351599752903,-0.0532226525247097,0.9873046278953552,0.9906201945037064,-0.507354736328125,-0.171661376953125,0.6160736083984375,0.8163474430517287
1781791087.313749,0.05517578125,-0.07861328125,0.9785155653953552,0.9832177411674543,-0.629425048828125,0.194549560546875,0.5550384521484375,0.8614482613393581
1781791087.32178,0.0581054650247097,-0.06884765625,0.9931640028953552,0.997241686595572,-0.629425048828125,-0.049591064453125,0.5550384521484375,0.8406562015052378
1781791087.329811,0.0610351599752903,-0.07373046875,0.9809569716453552,0.9856155705927795,-0.141143798828125,-0.049591064453125,0.6160736083984375,0.6339775521154511
1781791087.337842,0.06689453125,-0.0712890625,0.9873046278953552,0.9921327718641654,-0.4444122314453125,0.2536773681640625,0.6160736083984375,0.8008752271995424
1781791087.345873,0.0620117224752903,-0.072265625,1.00537109375,1.0098706899544438,-0.019073486328125,0.133514404296875,0.3719329833984375,0.3956311895883854
1781791087.353848,0.04443359375,-0.06640625,0.9829100966453552,0.9861523170281475,-0.019073486328125,0.194549560546875,0.0667572021484375,0.206566825575596
1781791087.361823,0.0537109375,-0.06494140625,0.9921874403953552,0.995760095570787,-0.0782012939453125,0.0705718994140625,0.4940032958984375,0.5051089899419222
1781791087.369798,0.05419921875,-0.05810546875,1.0009765625,1.0041254301560558,-0.0782012939453125,0.0705718994140625,-0.1163482666015625,0.15694825422035757
1781791087.377773,0.06298828125,-0.0673828125,1.001953125,1.0061898586710685,-0.263214111328125,0.011444091796875,0.3719329833984375,0.4557924744650489
1781791087.388432,0.05126953125,-0.07470703125,0.9941405653953552,0.9982610726244813,-0.141143798828125,0.133514404296875,0.1277923583984375,0.2325479627247212
1781791087.399091,0.05517578125,-0.0556640625,0.9804686903953552,0.9835963132993814,-0.1392364501953125,0.0705718994140625,0.1888275146484375,0.24499594351377774
1781791087.40975,0.06005859375,-0.07861328125,0.9863280653953552,0.9912770224607566,-0.324249267578125,0.133514404296875,0.3719329833984375,0.5111729920676192
1781791087.417761,0.0415039099752903,-0.0634765625,0.9887694716453552,0.9916737954528638,-0.2002716064453125,0.0705718994140625,0.3108978271484375,0.37649245445388996
1781791087.425771,0.0537109375,-0.06005859375,0.9907225966453552,0.9939935427325832,0.0438690185546875,-0.1125335693359375,0.2498626708984375,0.27752414187767277
1781791087.433783,0.0478515662252903,-0.06494140625,0.9887694716453552,0.9920545482450931,-0.324249267578125,0.316619873046875,0.1277923583984375,0.4708679415698253
1781791087.441793,0.0522460974752903,-0.0732421875,0.9858397841453552,0.9899364387348024,-0.019073486328125,0.316619873046875,0.0667572021484375,0.3241426629242374
1781791087.452521,0.0488281212747097,-0.07275390625,0.9902343153953552,0.9941032721444787,0.041961669921875,0.194549560546875,0.1888275146484375,0.27434675784474005
1781791087.463248,0.05615234375,-0.06005859375,0.9995116591453552,1.0028876692627877,-0.019073486328125,0.255584716796875,0.1888275146484375,0.31834442924159023
1781791087.473974,0.0522460974752903,-0.064453125,0.9785155653953552,0.9820267673259496,-0.2002716064453125,0.4367828369140625,0.0667572021484375,0.48512316684484363
1781791087.481923,0.05126953125,-0.06982421875,0.9833983778953552,0.9872063391236193,-0.1983642578125,0.194549560546875,0.1277923583984375,0.3058247817812037
1781791087.489871,0.0537109337747097,-0.072265625,0.9916991591453552,0.9957782921982165,-0.4444122314453125,0.0705718994140625,0.1277923583984375,0.46777506486573783
1781791087.497819,0.0463867224752903,-0.0585937462747097,0.9897460341453552,0.9925634323462472,-0.3223419189453125,0.0705718994140625,0.1888275146484375,0.3801848707991427
1781791087.505767,0.04931640625,-0.06884765625,0.9956054091453552,0.9992007998475698,-0.1983642578125,0.011444091796875,0.4329681396484375,0.4763829929428507
1781791087.513755,0.0537109375,-0.08056640625,0.9829100966453552,0.9876679951838829,-0.507354736328125,0.011444091796875,0.3719329833984375,0.6291851395664864
1781791087.521743,0.04638671875,-0.0517578125,0.9838866591453552,0.986338459594568,-0.2002716064453125,-0.1125335693359375,0.2498626708984375,0.33941696316503284
1781791087.529731,0.0615234412252903,-0.06298828125,0.9995116591453552,1.0033823868109961,-0.3814697265625,-0.171661376953125,0.1277923583984375,0.43739875112549886
1781791087.537719,0.05517578125,-0.076171875,0.9941405653953552,0.9985799843488553,-0.5664825439453125,-0.2346038818359375,0.4940032958984375,0.7873885383505164
1781791087.54838,0.0517578125,-0.0712890625,0.9868163466453552,0.9907408862025429,-0.2613067626953125,-0.2918243408203125,0.3719329833984375,0.540163692101919
1781791087.559041,0.056640625,-0.0751953125,0.9926757216453552,0.997129672493247,-0.3833770751953125,-0.0514984130859375,0.4329681396484375,0.5805957959599011
1781791087.569702,0.0556640625,-0.0615234375,0.9931640028953552,0.9966234784826943,-0.324249267578125,-0.049591064453125,0.3108978271484375,0.4519450410438909
1781791087.577712,0.048828125,-0.06982421875,0.9965819716453552,1.0002175930884274,-0.019073486328125,-0.415802001953125,0.1277923583984375,0.4354147328398184
1781791087.585721,0.0483398400247097,-0.06787109375,0.9941405653953552,0.9976265279477247,-0.2002716064453125,-0.0514984130859375,0.1888275146484375,0.28002970054417775
1781791087.593732,0.0532226525247097,-0.0585937462747097,0.9882811903953552,0.9914462109128923,-0.0782012939453125,0.5588531494140625,0.0667572021484375,0.5682330587210014
1781791087.601742,0.0517578162252903,-0.0634765625,0.9809569716453552,0.9843702178280556,-0.0782012939453125,0.1964569091796875,0.4940032958984375,0.5373546462976535
1781791087.609736,0.05224609375,-0.07080078125,0.9951171278953552,0.9989997513355271,-0.141143798828125,0.194549560546875,0.2498626708984375,0.34670226097491386
1781791087.617729,0.0517578125,-0.07080078125,0.9931640028953552,0.997028765095331,-0.263214111328125,0.316619873046875,0.0667572021484375,0.41711669404275964
1781791087.625724,0.0556640662252903,-0.0673828125,0.9824218153953552,0.9863019593683514,-0.324249267578125,0.438690185546875,0.0057220458984375,0.5455450560946968
1781791087.633718,0.0522460974752903,-0.0625,0.9848632216453552,0.9882264265091607,-0.0782012939453125,0.1964569091796875,0.1277923583984375,0.24706607700004438
1781791087.641716,0.0473632849752903,-0.06298828125,0.9892577528953552,0.9923919114956788,-0.019073486328125,0.316619873046875,0.3108978271484375,0.44415020073680944
1781791087.649716,0.06103515625,-0.06640625,1.001953125,1.0060045452356516,-0.1983642578125,0.499725341796875,-0.0553131103515625,0.5404936042066285
1781791087.657715,0.04541015625,-0.07177734375,0.9970702528953552,1.000681347170648,0.1049041748046875,0.1964569091796875,0.1888275146484375,0.29198635814742147
1781791087.665714,0.0517578125,-0.07470703125,0.9995116591453552,1.0036351769644558,-0.1983642578125,0.316619873046875,0.0667572021484375,0.3795432081126081
1781791087.67638,0.05029296875,-0.06689453125,0.9936522841453552,0.9971705585325549,-0.3833770751953125,0.3795623779296875,0.3719329833984375,0.655270726238105
1781791087.687046,0.06396484375,-0.05712890625,0.9912108778953552,0.9949141760088475,-0.1983642578125,-0.171661376953125,-0.1163482666015625,0.2869719955956245
1781791087.697712,0.0532226525247097,-0.06298828125,0.9726561903953552,0.9761456033968501,-0.324249267578125,0.255584716796875,0.1888275146484375,0.4540010630751818
1781791087.7057,0.056640625,-0.06689453125,0.9819335341453552,0.9858379705563868,-0.2613067626953125,0.3795623779296875,-0.0553131103515625,0.46412106518311297
1781791087.713688,0.05810546875,-0.0556640625,0.9960936903953552,0.999338467886681,-0.324249267578125,0.377655029296875,0.0667572021484375,0.5022125373951365
1781791087.721676,0.05029296875,-0.06494140625,0.9853515028953552,0.9887691101614933,-0.324249267578125,0.377655029296875,0.1888275146484375,0.5323689876077304
1781791087.729663,0.0517578125,-0.07177734375,0.9833983778953552,0.9873718792217078,-0.4444122314453125,-0.1125335693359375,-0.1163482666015625,0.4729724673031999
1781791087.740346,0.05419921875,-0.07080078125,0.9931640028953552,0.9971584841868648,-0.2613067626953125,0.2536773681640625,-0.1163482666015625,0.38232231231009517
1781791087.751028,0.04638671875,-0.06640625,0.9936522841453552,0.9969485340290821,-0.1392364501953125,0.2536773681640625,0.0667572021484375,0.29697730590118226
1781791087.761709,0.04833984375,-0.06640625,0.9873046278953552,0.9907153772887664,-0.1392364501953125,0.2536773681640625,0.0667572021484375,0.29697730590118226
1781791087.76973,0.05908203125,-0.08154296875,0.9868163466453552,0.9919407463027594,-0.2613067626953125,0.2536773681640625,-0.0553131103515625,0.36836526916325024
1781791087.77775,0.06396484375,-0.064453125,0.9858397841453552,0.9900130234304941,-0.1392364501953125,0.0705718994140625,0.0667572021484375,0.16977545785120898
1781791087.78577,0.0576171875,-0.07080078125,0.9838866591453552,0.98811206295907,-0.324249267578125,0.194549560546875,-0.1773834228515625,0.417674511715126
1781791087.79379,0.0566406287252903,-0.07373046875,0.9897460341453552,0.994103392485384,-0.141143798828125,0.438690185546875,0.1277923583984375,0.47822749576725565
1781791087.801826,0.05517578125,-0.0546875,0.9931640028953552,0.9961976842674967,0.0438690185546875,0.0705718994140625,0.1277923583984375,0.15243283977179842
1781791087.809862,0.0527343787252903,-0.07470703125,0.9785155653953552,0.9827791038370334,-0.324249267578125,-0.049591064453125,0.0057220458984375,0.32806950941501456
1781791087.817898,0.0478515662252903,-0.0600585900247097,1.001953125,1.0048914724104465,0.0438690185546875,0.2536773681640625,0.1888275146484375,0.3192687397724724
1781791087.825933,0.06103515625,-0.06396484375,0.9804686903953552,0.9844468722993673,-0.019073486328125,0.133514404296875,0.2498626708984375,0.2839388109152383
1781791087.834069,0.05126953125,-0.0693359375,0.9931640028953552,0.9969005836645517,-0.0782012939453125,0.3147125244140625,0.0667572021484375,0.33108297968406714
1781791087.842206,0.0498046875,-0.0693359375,0.9833983778953552,0.9870969297759934,-0.1983642578125,0.133514404296875,-0.0553131103515625,0.2454261907560346
1781791087.850342,0.0522460974752903,-0.0625,0.9873046278953552,0.9906595444273393,-0.446319580078125,0.011444091796875,0.3108978271484375,0.5440492567073214
1781791087.858478,0.0576171912252903,-0.064453125,1.00439453125,1.0081082880583139,-0.1983642578125,0.316619873046875,0.2498626708984375,0.449475112875256
1781791087.869215,0.0615234375,-0.0615234375,0.9809569716453552,0.9848080254258995,-0.2613067626953125,0.2536773681640625,0.3719329833984375,0.5205454595792879
1781791087.879954,0.0556640625,-0.0625,0.9941405653953552,0.9976573568207676,-0.446319580078125,0.133514404296875,0.1277923583984375,0.48307157914836796
1781791087.890692,0.0488281212747097,-0.06787109375,0.9965819716453552,1.000083145044742,-0.507354736328125,0.194549560546875,0.0057220458984375,0.5434069394043723
1781791087.898592,0.0439453125,-0.05517578125,0.9985350966453552,1.0010234245809733,-0.507354736328125,0.011444091796875,-0.0553131103515625,0.5104893102586975
1781791087.906492,0.0541992150247097,-0.08251953125,0.9794921278953552,0.9844551064197825,-0.5664825439453125,0.1964569091796875,-0.0553131103515625,0.60212733697778
1781791087.914392,0.0507812537252903,-0.0732421875,0.9785155653953552,0.9825659598625881,-0.2613067626953125,0.1316070556640625,-0.1773834228515625,0.3421498502606778
1781791087.922292,0.0400390662252903,-0.0673828125,0.9990233778953552,1.0020934486494006,-0.3814697265625,0.316619873046875,-0.0553131103515625,0.49882545691719854
1781791087.930176,0.04248046875,-0.08056640625,0.9882811903953552,0.9924692677007788,-0.324249267578125,0.255584716796875,-0.2994537353515625,0.5100330132462927
1781791087.93806,0.0595703125,-0.07177734375,0.9873046278953552,0.9917010827213708,-0.141143798828125,0.011444091796875,-0.3604888916015625,0.38730450572232256
1781791087.945944,0.0483398400247097,-0.0732421875,0.9824218153953552,0.98633350421047,-0.2002716064453125,0.0705718994140625,-0.2994537353515625,0.3670989634296157
1781791087.953828,0.0546875,-0.06787109375,0.9853515028953552,0.9891990660535455,-0.1983642578125,-0.171661376953125,-0.2384185791015625,0.35448473306442246
1781791087.964487,0.05322265625,-0.06591796875,0.9877929091453552,0.9914195182163178,-0.3223419189453125,-0.4177093505859375,-0.2994537353515625,0.6066778007247964
1781791087.975146,0.04833984375,-0.0703125,0.9916991591453552,0.995363155034196,-0.0782012939453125,-0.1125335693359375,-0.0553131103515625,0.14777952083753537
1781791087.985805,0.05224609375,-0.07177734375,0.9912108778953552,0.9951787004583751,0.0438690185546875,-0.4177093505859375,-0.1773834228515625,0.4559281424286215
1781791087.993811,0.05078125,-0.0791015625,0.9960936903953552,1.0005190815706324,-0.324249267578125,-0.659942626953125,-0.0553131103515625,0.7373746663477843
1781791088.001817,0.0556640625,-0.06201171875,0.9912108778953552,0.9947074673362083,-0.2613067626953125,-0.5397796630859375,0.0057220458984375,0.5997299815089591
1781791088.009823,0.05859375,-0.07421875,0.9780272841453552,0.9825879191824843,-0.3223419189453125,-0.4177093505859375,0.1277923583984375,0.5428777957711172
1781791088.017829,0.06396484375,-0.0771484375,0.9887694716453552,0.9938352231142183,-0.2613067626953125,-0.1125335693359375,0.3108978271484375,0.42142910125359206
1781791088.025817,0.04541015625,-0.06591796875,1.00146484375,1.004658695359766,-0.1983642578125,-0.293731689453125,0.0057220458984375,0.35448473306442246
1781791088.033805,0.06005859375,-0.08349609375,0.9877929091453552,0.9931331550766898,-0.0782012939453125,-0.3566741943359375,0.0057220458984375,0.36519127192359774
1781791088.041793,0.04931640625,-0.06640625,0.9931640028953552,0.9966025459588204,0.0438690185546875,-0.1125335693359375,0.4329681396484375,0.4494993937338143
1781791088.04978,0.0537109375,-0.0654296875,0.9868163466453552,0.9904405135190919,-0.019073486328125,-0.049591064453125,0.3719329833984375,0.3757089507770151
1781791088.057775,0.0537109375,-0.0751953125,0.9799804091453552,0.9843275888330061,0.469207763671875,0.133514404296875,0.3108978271484375,0.5784803199507579
1781791088.065769,0.0556640662252903,-0.0634765625,0.9863280653953552,0.9899347528206563,0.164031982421875,0.682830810546875,0.3108978271484375,0.7679986106855743
1781791088.073763,0.06494140625,-0.06201171875,0.9877929091453552,0.9918657524412771,0.1049041748046875,1.1081695556640625,-0.2384185791015625,1.138370795853858
1781791088.081757,0.064453125,-0.06591796875,0.9877929091453552,0.9920857902844066,-0.0782012939453125,1.1081695556640625,-0.2384185791015625,1.136221204403533
1781791088.092423,0.068359375,-0.06982421875,0.9907225966453552,0.9955298534841402,-0.324249267578125,0.988006591796875,-0.2994537353515625,1.0821123567241209
1781791088.103089,0.05029296875,-0.0595703125,0.9843749403953552,0.9874573550869907,-0.446319580078125,0.682830810546875,-0.4825592041015625,0.9477987491320874
1781791088.113755,0.0429687537252903,-0.06298828125,0.9814452528953552,0.9844026725900136,-0.8697509765625,0.804901123046875,-0.6046295166015625,1.3303794313876707
1781791088.121761,0.0434570275247097,-0.0732421875,0.9877929091453552,0.9914573932494086,-0.8697509765625,0.499725341796875,-0.4825592041015625,1.1131287274743022
1781791088.129767,0.0468750037252903,-0.0673828125,1.00048828125,1.0038498445052604,-1.1749267578125,0.499725341796875,-0.7266998291015625,1.4691054914722894
1781791088.137773,0.0473632849752903,-0.078125,0.9770507216453552,0.9813128497356793,-1.300811767578125,0.133514404296875,-0.6046295166015625,1.4406645005587924
1781791088.147772,0.0498046875,-0.0703125,0.9887694716453552,0.9925167115021578,-0.8697509765625,0.316619873046875,-0.1773834228515625,0.9424329068650871
1781791088.15777,0.0566406287252903,-0.06298828125,0.9926757216453552,0.996283480110632,-1.1157989501953125,0.2536773681640625,-0.2384185791015625,1.1688468348061753
1781791088.16777,0.05126953125,-0.08154296875,0.9858397841453552,0.9905341491291044,-1.117706298828125,0.377655029296875,-0.4825592041015625,1.2746584158339922
1781791088.177769,0.0478515662252903,-0.06982421875,0.9897460341453552,0.993359152583153,-0.6866455078125,0.316619873046875,-0.1773834228515625,0.7766563436358719
1781791088.185765,0.0522460974752903,-0.08251953125,0.9985350966453552,1.00330028753692,-0.934600830078125,0.316619873046875,0.0667572021484375,0.9890315362159221
1781791088.19376,0.05078125,-0.06494140625,0.9882811903953552,0.9917135840990333,-0.446319580078125,0.194549560546875,0.2498626708984375,0.5472495348363459
1781791088.201757,0.0458984375,-0.06005859375,0.9946288466453552,0.9974969893825437,-0.3833770751953125,0.1964569091796875,0.5550384521484375,0.702595888340575
1781791088.209753,0.04052734375,-0.0751953125,0.9897460341453552,0.993425393635507,0.1049041748046875,0.0705718994140625,0.2498626708984375,0.28002970054417775
1781791088.220425,0.04931640625,-0.0712890625,0.9990233778953552,1.0027771177779186,-0.1983642578125,-0.293731689453125,0.4329681396484375,0.5595427545032818
1781791088.231097,0.05078125,-0.07080078125,0.9892577528953552,0.9930873011174499,-0.0782012939453125,-0.2918243408203125,0.6771087646484375,0.7414534155519578
1781791088.241769,0.048828125,-0.08544921875,0.9921874403953552,0.9970565037420335,0.2269744873046875,-0.2346038818359375,0.6771087646484375,0.7516865559682768
1781791088.249997,0.0468750037252903,-0.0576171912252903,0.9951171278953552,0.9978853165217125,0.164031982421875,-0.293731689453125,0.4329681396484375,0.5483121433972316
1781791088.258225,0.048828125,-0.080078125,0.9897460341453552,0.9941800158929921,0.225067138671875,-0.171661376953125,0.4329681396484375,0.5172854678009201
1781791088.266453,0.0556640625,-0.07177734375,0.9921874403953552,0.9963364852338271,0.041961669921875,-0.293731689453125,0.3108978271484375,0.42976336053372344
1781791088.274681,0.06884765625,-0.0625,0.9892577528953552,0.993618212109,-0.1392364501953125,-0.2346038818359375,0.3108978271484375,0.41362208519505095
1781791088.282432,0.05810546875,-0.060546875,0.9794921278953552,0.9830803620151781,-0.0782012939453125,-0.1735687255859375,0.3108978271484375,0.36455315634604973
1781791088.290183,0.0595703125,-0.06201171875,0.9897460341453552,0.9934743517072474,-0.3833770751953125,-0.1125335693359375,0.1277923583984375,0.4194909687679024
1781791088.297934,0.06640625,-0.07568359375,0.9873046278953552,0.9924254252413949,-0.7495880126953125,0.1316070556640625,0.0667572021484375,0.7639758699826579
1781791088.305685,0.048828125,-0.0732421875,0.9877929091453552,0.9917073334299009,-0.934600830078125,0.133514404296875,0.2498626708984375,0.9765941644541865
1781791088.313939,0.0537109375,-0.06689453125,0.9916991591453552,0.9954029160937247,-0.8716583251953125,0.1964569091796875,-0.1163482666015625,0.9010662973321782
1781791088.322193,0.0703125,-0.06103515625,0.9853515028953552,0.9897407348456702,-0.5664825439453125,0.2536773681640625,0.1888275146484375,0.6487761632502416
1781791088.330446,0.0673828125,-0.0654296875,0.9921874403953552,0.9966230000883205,-0.019073486328125,0.499725341796875,0.0667572021484375,0.5045252611647905
1781791088.338701,0.046875,-0.0654296875,0.9829100966453552,0.9862000647529533,0.041961669921875,0.316619873046875,0.2498626708984375,0.4055123673321845
1781791088.349427,0.05322265625,-0.07177734375,0.9785155653953552,0.9825870699002216,-0.141143798828125,0.377655029296875,-0.1163482666015625,0.4196210340796157
1781791088.360152,0.0634765625,-0.072265625,0.9946288466453552,0.9992688012354467,0.1068115234375,0.316619873046875,-0.1773834228515625,0.37831431938243504
1781791088.370879,0.0478515662252903,-0.07763671875,0.9902343153953552,0.994425076048964,0.1659393310546875,0.5588531494140625,0.1277923583984375,0.5968111854396903
1781791088.3786,0.0468750037252903,-0.07421875,0.9877929091453552,0.9916856962685568,0.2269744873046875,0.6198883056640625,-0.0553131103515625,0.6624488429781217
1781791088.386321,0.06298828125,-0.06982421875,0.9926757216453552,0.9971198691446298,0.0438690185546875,0.7419586181640625,0.3108978271484375,0.8056578310812205
1781791088.394042,0.04736328125,-0.07666015625,0.9951171278953552,0.9991887500356186,-0.019073486328125,0.988006591796875,0.1277923583984375,0.9964194449025072
1781791088.401762,0.0571289099752903,-0.078125,0.9726561903953552,0.9774596117970146,-0.1983642578125,0.499725341796875,0.4329681396484375,0.6903152946025
1781791088.409821,0.05615234375,-0.0556640625,0.9912108778953552,0.9943593807174058,-0.3833770751953125,0.5588531494140625,0.0057220458984375,0.6777370922449151
1781791088.417879,0.048828125,-0.06640625,0.9877929091453552,0.9912259112775059,-0.324249267578125,0.377655029296875,0.0667572021484375,0.5022125373951365
1781791088.425937,0.06005859375,-0.064453125,0.9780272841453552,0.9819870714720396,-0.324249267578125,0.316619873046875,0.1888275146484375,0.4909598372794618
1781791088.433995,0.0546875,-0.064453125,0.9785155653953552,0.9821596813652591,-0.507354736328125,0.316619873046875,0.5550384521484375,0.8159195155443543
1781791088.444577,0.0556640625,-0.0703125,0.9921874403953552,0.9962320273854582,-0.8106231689453125,0.0705718994140625,0.2498626708984375,0.8511883865081514
1781791088.455161,0.0615234375,-0.06494140625,0.9775390028953552,0.9816236660702458,-0.6885528564453125,0.2536773681640625,0.0667572021484375,0.7368268231248994
1781791088.465744,0.05810546875,-0.06591796875,0.9936522841453552,0.9975300927240566,-0.751495361328125,0.011444091796875,0.2498626708984375,0.792027524549018
1781791088.473768,0.05712890625,-0.07177734375,0.9804686903953552,0.9847510100785426,-0.812530517578125,-0.049591064453125,0.0057220458984375,0.8140625636145133
1781791088.481791,0.05517578125,-0.06884765625,0.9965819716453552,1.0004798812650906,-0.751495361328125,0.011444091796875,0.0667572021484375,0.754541429858846
1781791088.489815,0.05810546875,-0.07177734375,0.9970702528953552,1.0013377660825893,-0.6866455078125,0.133514404296875,0.0667572021484375,0.7026839073100527
1781791088.49784,0.048828125,-0.09375,0.9868163466453552,0.9924614603587897,-0.446319580078125,0.133514404296875,0.2498626708984375,0.528638456815586
1781791088.508476,0.06396484375,-0.06982421875,0.9916991591453552,0.9962098900380453,-0.446319580078125,0.316619873046875,-0.1163482666015625,0.5594517233064185
1781791088.519112,0.0546875,-0.07666015625,0.9833983778953552,0.9878966908840925,0.164031982421875,0.316619873046875,-0.2994537353515625,0.46564704968621157
1781791088.529748,0.04248046875,-0.08154296875,0.9809569716453552,0.9852565281171242,-0.019073486328125,0.133514404296875,-0.1773834228515625,0.22283350901063959
1781791088.537733,0.0439453087747097,-0.07763671875,0.9897460341453552,0.9937584527278396,-0.2613067626953125,0.4367828369140625,-0.2994537353515625,0.5905362058917341
1781791088.545717,0.0458984375,-0.06201171875,0.9877929091453552,0.9908011663220399,-0.141143798828125,0.316619873046875,-0.0553131103515625,0.3510402485935446
1781791088.553703,0.0517578125,-0.076171875,1.0029296875,1.0071489382234629,-0.141143798828125,-0.171661376953125,0.0057220458984375,0.22231046330377913
1781791088.561687,0.0595703125,-0.0615234375,0.9892577528953552,0.9929575303892567,0.1068115234375,0.011444091796875,-0.1773834228515625,0.20737537818803645
1781791088.569699,0.0576171912252903,-0.064453125,0.9750975966453552,0.978922504098514,-0.0782012939453125,0.0133514404296875,0.0057220458984375,0.0795389536361429
1781791088.57771,0.0498046875,-0.06787109375,0.9902343153953552,0.9938063149579508,0.164031982421875,0.194549560546875,-0.0553131103515625,0.26041421417233857
1781791088.585721,0.06201171875,-0.06201171875,0.9941405653953552,0.9980011875189602,-0.0782012939453125,-0.0514984130859375,-0.1773834228515625,0.20058017755408247
1781791088.593732,0.05517578125,-0.07666015625,0.9853515028953552,0.989868036988243,-0.2002716064453125,-0.2346038818359375,0.1888275146484375,0.3616677038511768
1781791088.604408,0.0415039099752903,-0.08203125,0.9829100966453552,0.9872000600725169,-0.3814697265625,-0.171661376953125,0.1888275146484375,0.4589581799133961
1781791088.615083,0.05126953125,-0.07421875,0.9975585341453552,1.0016286820635614,-0.1392364501953125,0.0705718994140625,0.1888275146484375,0.24499594351377774
1781791088.62576,0.04541015625,-0.0751953125,0.9887694716453552,0.992663833012192,-0.3814697265625,0.011444091796875,0.3719329833984375,0.53290173921689
1781791088.633756,0.0551757849752903,-0.07763671875,0.9809569716453552,0.9855700926699899,-0.4444122314453125,-0.1125335693359375,-0.0553131103515625,0.46176354973346734
1781791088.641752,0.056640625,-0.0712890625,0.9941405653953552,0.998301434736581,-0.5664825439453125,0.1964569091796875,-0.1773834228515625,0.6252700764163636
1781791088.649748,0.05419921875,-0.07568359375,0.9980468153953552,1.0023786746518681,-0.3223419189453125,0.0705718994140625,0.0667572021484375,0.33666189231177074
1781791088.657744,0.056640625,-0.08154296875,0.9912108778953552,0.9961708792225533,-0.751495361328125,0.011444091796875,-0.1163482666015625,0.7605347884718573
1781791088.665982,0.0517578125,-0.06494140625,0.9814452528953552,0.9849523043433831,-0.3833770751953125,0.0705718994140625,0.1888275146484375,0.4331445544625105
1781791088.67422,0.0571289099752903,-0.07373046875,0.9863280653953552,0.990728493061345,-0.263214111328125,-0.171661376953125,0.2498626708984375,0.4014731012760361
1781791088.682458,0.064453125,-0.0576171875,0.9951171278953552,0.9988653782409201,-0.6275177001953125,0.0705718994140625,0.0667572021484375,0.634992426005232
1781791088.690696,0.06005859375,-0.07470703125,0.9819335341453552,0.986601054469639,-0.2002716064453125,0.0705718994140625,0.4329681396484375,0.48223492126319883
1781791088.69847,0.064453125,-0.0712890625,0.9926757216453552,0.9973171131082236,-0.324249267578125,0.133514404296875,0.1888275146484375,0.3982706541637304
1781791088.706244,0.0527343787252903,-0.06689453125,0.9785155653953552,0.9822161191569253,-0.2002716064453125,-0.1125335693359375,0.2498626708984375,0.33941696316503284
1781791088.714018,0.0673828125,-0.06591796875,0.9941405653953552,0.9985995622816649,0.041961669921875,0.133514404296875,0.4329681396484375,0.4550255903221385
1781791088.721792,0.0566406287252903,-0.0634765625,0.9848632216453552,0.9885307279790956,0.0438690185546875,0.0705718994140625,0.3719329833984375,0.3811023850824375
1781791088.732433,0.0576171912252903,-0.06884765625,0.9770507216453552,0.9811665776836873,0.1049041748046875,-0.0514984130859375,0.0057220458984375,0.11700305231525422
1781791088.743073,0.0537109375,-0.05859375,0.9819335341453552,0.9851454500861174,0.0438690185546875,0.0705718994140625,0.1277923583984375,0.15243283977179842
1781791088.753715,0.05908203125,-0.07421875,0.9897460341453552,0.9942818118494611,-0.446319580078125,0.133514404296875,0.1277923583984375,0.48307157914836796
1781791088.761775,0.05712890625,-0.0654296875,0.9965819716453552,1.0003601262266568,-0.1983642578125,0.316619873046875,0.1277923583984375,0.394876448589629
1781791088.769835,0.0522460974752903,-0.08251953125,0.9882811903953552,0.9930955840342749,-0.0782012939453125,0.1964569091796875,-0.0553131103515625,0.2185641775678743
1781791088.777895,0.05078125,-0.0576171875,0.9941405653953552,0.9971027727428949,-0.3814697265625,0.316619873046875,0.0057220458984375,0.4957822486749113
1781791088.785954,0.04931640625,-0.06982421875,0.9892577528953552,0.9929443242765581,-0.019073486328125,0.438690185546875,0.1277923583984375,0.45732238480189824
1781791088.79398,0.0439453125,-0.07080078125,0.9887694716453552,0.9922746641803205,-0.141143798828125,0.316619873046875,0.0667572021484375,0.35302441841116433
1781791088.802005,0.04345703125,-0.07470703125,0.9916991591453552,0.9954581238469333,-0.141143798828125,0.377655029296875,-0.1163482666015625,0.4196210340796157
1781791088.81003,0.06103515625,-0.064453125,0.9941405653953552,0.9980956664495263,-0.446319580078125,0.194549560546875,-0.0553131103515625,0.4900104480996912
1781791088.818055,0.0556640625,-0.06982421875,0.9819335341453552,0.9859854841006734,-0.3833770751953125,0.3795623779296875,0.1277923583984375,0.5544154285280902
1781791088.82863,0.0615234375,-0.06689453125,0.9965819716453552,1.0007175614935102,-0.019073486328125,0.255584716796875,0.1888275146484375,0.31834442924159023
1781791088.839207,0.0517578162252903,-0.0625,0.9833983778953552,0.986740842971257,-0.446319580078125,0.316619873046875,-0.3604888916015625,0.6552873816406479
1781791088.849782,0.0517578125,-0.06689453125,0.9951171278953552,0.9987050854464711,-0.3833770751953125,0.2536773681640625,-0.2384185791015625,0.5178548134031059
1781791088.857773,0.05615234375,-0.06640625,0.9892577528953552,0.9930728963229478,-0.8716583251953125,0.2536773681640625,-0.1163482666015625,0.9152471590461949
1781791088.865762,0.0483398400247097,-0.07275390625,0.9809569716453552,0.9848382868409791,-0.5664825439453125,0.2536773681640625,-0.2994537353515625,0.6891496349338088
1781791088.873753,0.0595703125,-0.0771484300494194,0.9965819716453552,1.001337170287302,-0.446319580078125,0.194549560546875,-0.4215240478515625,0.6439978431542006
1781791088.881742,0.05029296875,-0.078125,1.0009765625,1.0052795516695865,-0.6866455078125,-0.171661376953125,-0.1773834228515625,0.7296674313953344
1781791088.889753,0.0537109337747097,-0.0732421875,0.9838866591453552,0.9880699572808318,-0.141143798828125,0.194549560546875,0.0667572021484375,0.24945466019961174
1781791088.897763,0.06103515625,-0.07421875,0.9868163466453552,0.991483845131382,-0.3833770751953125,0.1964569091796875,0.1888275146484375,0.47035000716280867
1781791088.905772,0.06005859375,-0.06884765625,0.9897460341453552,0.9939538452869954,-0.3223419189453125,-0.1125335693359375,0.0057220458984375,0.341468679011848
1781791088.913783,0.0458984375,-0.07861328125,0.9956054091453552,0.999758393449799,-0.2613067626953125,-0.1125335693359375,-0.0553131103515625,0.2898354164600226
1781791088.924443,0.0522460974752903,-0.072265625,0.9921874403953552,0.9961866753457028,-0.263214111328125,-0.171661376953125,0.0667572021484375,0.3212566276022719
1781791088.935103,0.0571289099752903,-0.06396484375,0.9873046278953552,0.9910225233840614,-0.3833770751953125,0.2536773681640625,0.3719329833984375,0.5913242199027704
1781791088.945763,0.05810546875,-0.052734375,0.9882811903953552,0.9913913813900938,-0.4444122314453125,0.3795623779296875,0.0057220458984375,0.584467768150738
1781791088.953759,0.056640625,-0.0654296875,0.9877929091453552,0.991576540547719,-0.507354736328125,0.011444091796875,0.1277923583984375,0.5233265544348684
1781791088.961755,0.05615234375,-0.06982421875,0.9965819716453552,1.0006018855874745,-0.3833770751953125,0.1316070556640625,0.4329681396484375,0.5930934233630524
1781791088.969751,0.0556640625,-0.07421875,0.9956054091453552,0.9999185173928207,-0.3833770751953125,0.0705718994140625,0.1888275146484375,0.4331445544625105
1781791088.977747,0.0498046875,-0.08154296875,0.9936522841453552,0.998235755939857,-0.2613067626953125,0.0705718994140625,0.1888275146484375,0.33002643455565617
1781791088.988415,0.0498046875,-0.08544921875,0.9833983778953552,0.9883594718163903,-0.4444122314453125,-0.0514984130859375,0.0057220458984375,0.4474226858551494
1781791088.999083,0.0502929724752903,-0.072265625,0.9858397841453552,0.9897634988424262,-0.0782012939453125,-0.2918243408203125,0.0667572021484375,0.30940816457976417
1781791089.009751,0.0615234375,-0.0654296875,0.9848632216453552,0.9889498180988923,-0.3833770751953125,-0.0514984130859375,0.1888275146484375,0.43044848544743197
1781791089.017744,0.04931640625,-0.083984375,0.9985350966453552,1.003273553126018,0.164031982421875,0.194549560546875,0.1277923583984375,0.2847576331396003
1781791089.025737,0.0751953125,-0.08642578125,0.9926757216453552,0.9992641487768749,-0.141143798828125,0.133514404296875,-0.0553131103515625,0.20200794112892628
1781791089.03373,0.0546875,-0.0576171875,0.9902343153953552,0.9934155537025621,-0.0782012939453125,0.0705718994140625,0.1277923583984375,0.16561015133941645
1781791089.041723,0.05322265625,-0.07666015625,0.9760741591453552,0.9805254687390289,-0.019073486328125,0.316619873046875,0.1277923583984375,0.34196904648515064
1781791089.049779,0.0512695349752903,-0.07373046875,0.9916991591453552,0.9957569831481383,-0.0782012939453125,0.1316070556640625,0.2498626708984375,0.29303107989390087
1781791089.057834,0.04638671875,-0.07421875,0.9838866591453552,0.9877717897227895,0.164031982421875,0.316619873046875,0.0667572021484375,0.3627825234271311
1781791089.065891,0.04931640625,-0.078125,0.9921874403953552,0.9964795735130257,-0.141143798828125,0.438690185546875,0.3108978271484375,0.5559029679435122
1781791089.073947,0.0473632849752903,-0.07421875,0.9785155653953552,0.9824685314737591,-0.1983642578125,0.316619873046875,0.3719329833984375,0.5271913001230062
1781791089.084601,0.0537109337747097,-0.0732421875,0.9936522841453552,0.9977946403063198,-0.1392364501953125,0.5588531494140625,0.3719329833984375,0.6855930103295034
1781791089.095254,0.0566406287252903,-0.0693359375,0.9882811903953552,0.9923282442522033,-0.0782012939453125,0.3795623779296875,0.2498626708984375,0.4611012854274655
1781791089.105908,0.05615234375,-0.0791015625,0.9824218153953552,0.9871994561704666,-0.2613067626953125,0.6847381591796875,0.0667572021484375,0.7359375618255796
1781791089.113919,0.0590820275247097,-0.072265625,0.9995116591453552,1.0038608286513484,0.164031982421875,0.621795654296875,0.4329681396484375,0.7752404381289446
1781791089.121931,0.04345703125,-0.07568359375,0.9936522841453552,0.9974775093781615,-0.019073486328125,0.560760498046875,0.3719329833984375,0.673164376798231
1781791089.129941,0.04931640625,-0.068359375,0.9912108778953552,0.9947884782876641,-0.019073486328125,0.316619873046875,0.0667572021484375,0.3241426629242374
1781791089.137953,0.0581054650247097,-0.068359375,0.9863280653953552,0.9904000715885841,0.164031982421875,0.133514404296875,-0.0553131103515625,0.2186141065639723
1781791089.145969,0.0561523474752903,-0.072265625,0.9770507216453552,0.9813274271879574,-0.0782012939453125,0.3147125244140625,-0.0553131103515625,0.3289664961277321
1781791089.153985,0.0415039099752903,-0.06787109375,0.9946288466453552,0.9978053930948299,-0.141143798828125,0.438690185546875,-0.1163482666015625,0.4752973490184582
1781791089.162001,0.05224609375,-0.0751953125,0.9960936903953552,1.0002932716856314,-0.0782012939453125,0.2536773681640625,0.0667572021484375,0.2737228041871079
1781791089.170017,0.0654296875,-0.078125,1.0029296875,1.008093506426956,0.2880096435546875,0.2536773681640625,-0.2994537353515625,0.48680006318317903
1781791089.180574,0.0458984375,-0.06982421875,0.9863280653953552,0.9898611724254737,0.164031982421875,-0.049591064453125,0.0057220458984375,0.17145992750525743
1781791089.191131,0.03955078125,-0.06640625,0.9897460341453552,0.9927594202237552,0.164031982421875,-0.171661376953125,-0.0553131103515625,0.24379019621686454
1781791089.201688,0.0527343787252903,-0.080078125,0.9799804091453552,0.9846598514775322,0.1068115234375,-0.171661376953125,0.0057220458984375,0.20225991121758735
1781791089.20971,0.04443359375,-0.064453125,0.9931640028953552,0.9962445915652094,0.2880096435546875,-0.7228851318359375,0.1277923583984375,0.7885704505464262
1781791089.217731,0.04052734375,-0.0693359375,0.9760741591453552,0.9793726063004554,0.225067138671875,-0.659942626953125,0.1277923583984375,0.7088796616103267
1781791089.225754,0.04345703125,-0.0703125,0.9765624403953552,0.9800543664574151,0.4100799560546875,-0.8449554443359375,0.4940032958984375,1.0612042827039831
1781791089.233776,0.0566406287252903,-0.072265625,0.9946288466453552,0.9988578597368628,0.1659393310546875,-0.6008148193359375,0.3719329833984375,0.7258432701790483
1781791089.241775,0.056640625,-0.060546875,1.00537109375,1.00878398114796,0.4100799560546875,-0.7801055908203125,0.5550384521484375,1.0415363587269801
1781791089.249774,0.05029296875,-0.07666015625,0.9965819716453552,1.000790581725521,1.0833740234375,-0.659942626953125,0.4329681396484375,1.3404047729994015
1781791089.257772,0.0576171875,-0.06640625,1.0029296875,1.006775788546447,0.8983612060546875,-0.6618499755859375,0.6160736083984375,1.2746156038948409
1781791089.265772,0.05078125,-0.07958984375,0.9897460341453552,0.9942386487590243,1.2645721435546875,-0.2346038818359375,0.2498626708984375,1.3101958028995089
1781791089.273775,0.060546875,-0.05712890625,0.9721679091453552,0.9757254119749258,1.140594482421875,-0.232696533203125,0.7991790771484375,1.4120165180506232
1781791089.281778,0.064453125,-0.06494140625,0.9916991591453552,0.9959110471410576,1.0204315185546875,-0.1125335693359375,0.5550384521484375,1.1670526858932484
1781791089.28978,0.05810546875,-0.0625,1.0068359375,1.0104459909070653,0.469207763671875,0.194549560546875,0.2498626708984375,0.5660713835793549
1781791089.297784,0.0576171875,-0.07080078125,0.9877929091453552,0.9920016745343047,0.530242919921875,0.804901123046875,-0.0553131103515625,0.9654444117535513
1781791089.308431,0.05224609375,-0.0615234375,0.9809569716453552,0.9842719989380865,0.2269744873046875,0.5588531494140625,0.1277923583984375,0.6165753379452319
1781791089.319078,0.05419921875,-0.07958984375,0.9677733778953552,0.9725520086371966,-0.0762939453125,0.545501708984375,-0.0667572021484375,0.5548417834256066
1781791089.329725,0.060546875,-0.060546875,0.9770507216453552,0.9807955754448736,-0.3795623779296875,0.6694793701171875,-0.3719329833984375,0.8547539820859611
1781791089.337711,0.0634765625,-0.0634765625,0.9741210341453552,0.9782486070207558,-0.8068084716796875,0.4253387451171875,-0.3147125244140625,0.9648300011375314
1781791089.345696,0.056640625,-0.06640625,0.9853515028953552,0.9892095504480274,-1.2950897216796875,0.4863739013671875,-0.3719329833984375,1.432533107216434
1781791089.353683,0.05712890625,-0.06103515625,0.9990233778953552,1.0025151928071858,-1.110076904296875,0.240325927734375,-0.0667572021484375,1.1377538437787889
1781791089.361669,0.0546875,-0.0791015625,0.9882811903953552,0.9929488864666961,-0.8678436279296875,0.3032684326171875,-0.6160736083984375,1.1066485420969563
1781791089.36974,0.03955078125,-0.0849609375,0.9897460341453552,0.9941729413461337,-0.8678436279296875,-0.0019073486328125,-0.1926422119140625,0.8889697533257875
1781791089.377811,0.04443359375,-0.07421875,0.9956054091453552,0.9993562416999219,-0.2593994140625,0.240325927734375,-0.3147125244140625,0.4733799537162809
1781791089.385882,0.05078125,-0.0751953125,0.9887694716453552,0.9929240345723181,-0.5016326904296875,0.0591278076171875,-0.0667572021484375,0.5094977701423522
1781791089.393953,0.0546875,-0.078125,0.9848632216453552,0.9894694556331277,-0.5016326904296875,0.1201629638671875,-0.2498626708984375,0.5731542971151613
1781791089.404564,0.05517578125,-0.07861328125,0.9956054091453552,1.0002272469518763,-0.1354217529296875,-0.1239776611328125,-0.1277923583984375,0.22369711328389222
1781791089.415175,0.0439453125,-0.0654296875,0.9853515028953552,0.9884987702345439,-0.0743865966796875,-0.0019073486328125,0.1163482666015625,0.13810837369827308
1781791089.425786,0.0600585974752903,-0.07275390625,0.9946288466453552,0.9990929429159242,0.2288818359375,-0.431060791015625,0.1163482666015625,0.5017342120229846
1781791089.433815,0.05810546875,-0.07177734375,0.9858397841453552,0.9901557011794778,0.4119873046875,-0.6103515625,0.2384185791015625,0.7740193718058163
1781791089.441844,0.0424804724752903,-0.072265625,0.9985350966453552,1.0020475289779989,0.5340576171875,-0.553131103515625,0.3604888916015625,0.8491900830323718
1781791089.449873,0.0463867224752903,-0.06884765625,0.9921874403953552,0.9956543801296734,0.4119873046875,-0.6103515625,0.4215240478515625,0.8484957819500512
1781791089.457901,0.0527343787252903,-0.07666015625,0.9877929091453552,0.9921655736890193,0.3528594970703125,-0.6122589111328125,0.4787445068359375,0.8535614223709013
1781791089.468512,0.0537109337747097,-0.078125,0.9980468153953552,1.0025396878691444,-0.1354217529296875,-0.3070831298828125,0.3604888916015625,0.4925356238824728
1781791089.479122,0.0576171912252903,-0.07861328125,0.9877929091453552,0.9925898549105906,0.3528594970703125,-0.3681182861328125,0.6046295166015625,0.790947374737354
1781791089.489732,0.0517578162252903,-0.06787109375,0.9873046278953552,0.9909872780065434,0.2288818359375,-0.064849853515625,0.1163482666015625,0.2648194053771493
1781791089.49773,0.0590820275247097,-0.07275390625,0.9956054091453552,1.0000069737609605,-0.1964569091796875,-0.2460479736328125,0.2994537353515625,0.4345198063486322
1781791089.505728,0.064453125,-0.07568359375,0.9843749403953552,0.9893817437993991,-0.3795623779296875,-0.3070831298828125,-0.1277923583984375,0.5046766630856809
1781791089.513726,0.0581054650247097,-0.078125,0.9882811903953552,0.9930656936879846,-0.5016326904296875,-0.0629425048828125,-0.1926422119140625,0.5410250796772661
1781791089.521724,0.0625,-0.0654296875,0.9936522841453552,0.9977635771031279,-0.7476806640625,-0.064849853515625,-0.1277923583984375,0.7612901981366722
1781791089.529736,0.0561523474752903,-0.08251953125,1.00537109375,1.0103136123564687,-0.6847381591796875,-0.1850128173828125,-0.0667572021484375,0.7124272687589943
1781791089.537748,0.06591796875,-0.0703125,0.9873046278953552,0.9919977089308029,-0.5626678466796875,-0.0019073486328125,-0.3719329833984375,0.6744871294588398
1781791089.545759,0.05419921875,-0.078125,0.9775390028953552,0.9821525202939488,-0.5016326904296875,-0.0019073486328125,-0.5550384521484375,0.7481354673118146
1781791089.553771,0.04443359375,-0.06591796875,0.9882811903953552,0.9914732644640128,-0.4425048828125,-0.064849853515625,-0.3147125244140625,0.54686382933686
1781791089.564955,0.05419921875,-0.0703125,0.9833983778953552,0.9873974744835923,-0.2593994140625,0.3662109375,-0.2498626708984375,0.5136437102399855
1781791089.576138,0.0478515662252903,-0.0634765625,0.9926757216453552,0.9958534705071608,-0.0133514404296875,0.1811981201171875,-0.3719329833984375,0.41393859911249226
1781791089.587321,0.04541015625,-0.064453125,0.9960936903953552,0.9992091511081915,0.1697540283203125,0.6084442138671875,-0.7381439208984375,0.9715334474318175
1781791089.594934,0.0458984375,-0.0693359375,0.9877929091453552,0.9912865227328521,-0.0743865966796875,0.3643035888671875,-0.0095367431640625,0.3719427645448646
1781791089.602547,0.0517578125,-0.07958984375,0.9887694716453552,0.9933169093702017,0.171661376953125,0.545501708984375,-0.4329681396484375,0.7172873571958072
1781791089.61016,0.0546875,-0.080078125,0.9902343153953552,0.9949709684941935,0.2288818359375,0.606536865234375,-0.3147125244140625,0.7206371047438058
1781791089.617773,0.05810546875,-0.0595703125,0.9907225966453552,0.9942113111073119,0.0457763671875,0.728607177734375,-0.0667572021484375,0.7330896393195195
1781791089.625934,0.04833984375,-0.06005859375,0.9877929091453552,0.9907969552510978,0.2288818359375,0.423431396484375,0.1163482666015625,0.4951948722392195
1781791089.634094,0.0478515662252903,-0.06884765625,0.9941405653953552,0.9976699032876195,-0.0743865966796875,0.3032684326171875,-0.0667572021484375,0.3193143154109434
1781791089.642256,0.0571289099752903,-0.06298828125,0.9824218153953552,0.9860952587323901,-0.0133514404296875,0.2422332763671875,-0.0667572021484375,0.2516182528748999
1781791089.650417,0.06201171875,-0.08056640625,0.9848632216453552,0.9900969469845048,-0.0133514404296875,0.4253387451171875,-0.1277923583984375,0.44432217581890504
1781791089.659536,0.0478515662252903,-0.0571289099752903,0.9838866591453552,0.9867048407651533,-0.1964569091796875,0.3032684326171875,-0.0095367431640625,0.361466469892712
1781791089.668655,0.05517578125,-0.0595703125,0.9902343153953552,0.9935577428385345,-0.2593994140625,-0.1220703125,0.1163482666015625,0.30939640649335964
1781791089.677773,0.04541015625,-0.06494140625,0.9892577528953552,0.992426506195771,-0.2593994140625,0.3662109375,-0.3147125244140625,0.5481263356049124
1781791089.686893,0.0512695349752903,-0.08203125,0.9853515028953552,0.9900885189978117,-0.0743865966796875,0.3032684326171875,-0.3147125244140625,0.4433385625126061
1781791089.693598,0.04833984375,-0.0791015625,1.00048828125,1.0047739042203947,-0.5645751953125,0.240325927734375,-0.2498626708984375,0.6625202313982845
1781791089.700303,0.0546875,-0.07861328125,0.9804686903953552,0.9851343174870747,-0.1354217529296875,-0.0019073486328125,-0.3719329833984375,0.39582424544868244
1781791089.707007,0.0615234375,-0.08056640625,0.9897460341453552,0.9949237615437251,0.1087188720703125,-0.1850128173828125,-0.1926422119140625,0.28837572288823043
1781791089.713713,0.0546875,-0.0751953125,0.9863280653953552,0.9907008177370031,0.3528594970703125,-0.0019073486328125,-0.3147125244140625,0.47281860758074323
1781791089.724406,0.05517578125,-0.08154296875,0.9814452528953552,0.9863713332310196,0.4138946533203125,-0.1850128173828125,-0.4978179931640625,0.6733210831104
1781791089.735101,0.04443359375,-0.0947265625,0.9965819716453552,1.0020594254360118,0.3528594970703125,-0.0019073486328125,-0.6160736083984375,0.7099719386120781
1781791089.745795,0.05810546875,-0.09033203125,0.9843749403953552,0.9902172209403184,0.2288818359375,0.057220458984375,-0.4978179931640625,0.5508936649358003
1781791089.753776,0.044921875,-0.06640625,0.9887694716453552,0.9920145326306531,0.1697540283203125,-0.0019073486328125,-0.4329681396484375,0.4650607251321159
1781791089.761757,0.0512695349752903,-0.0732421875,0.9965819716453552,1.00058413412112,-0.0133514404296875,0.2422332763671875,-0.1926422119140625,0.30978418770536414
1781791089.769738,0.046875,-0.0654296875,0.9907225966453552,0.9939867067194927,0.0457763671875,0.240325927734375,-0.1926422119140625,0.31138890337553043
1781791089.777719,0.05078125,-0.0712890625,0.9824218153953552,0.9863130786664024,-0.1964569091796875,-0.0629425048828125,-0.1277923583984375,0.242668421823676
1781791089.788399,0.0380859375,-0.07080078125,0.9916991591453552,0.9949525172139969,-0.1354217529296875,-0.0019073486328125,0.1163482666015625,0.1785486160308858
1781791089.799079,0.05078125,-0.08154296875,0.9824218153953552,0.9871071950243455,-0.2593994140625,-0.431060791015625,-0.0095367431640625,0.5031822841050367
1781791089.809759,0.0532226525247097,-0.08251953125,1.00244140625,1.0072392450376242,-0.2593994140625,-0.431060791015625,0.0553131103515625,0.5061235044371569
1781791089.81781,0.0522460974752903,-0.06787109375,0.9794921278953552,0.9832298656352897,-0.3185272216796875,-0.2460479736328125,0.1735687255859375,0.43832099970377925
1781791089.825861,0.0585937462747097,-0.0732421875,0.9794921278953552,0.9839728013218969,-0.1964569091796875,-0.1239776611328125,0.0553131103515625,0.23879974413965063
1781791089.833912,0.0556640625,-0.06494140625,0.9838866591453552,0.9875975051325008,-0.6847381591796875,-0.1850128173828125,0.0553131103515625,0.7114461535558942
1781791089.841963,0.05517578125,-0.07080078125,0.9999999403953552,1.0040204172490081,-0.4425048828125,-0.186920166015625,-0.0095367431640625,0.4804588111861312
1781791089.852611,0.05712890625,-0.06689453125,0.9970702528953552,1.0009433947278368,-0.1354217529296875,-0.1850128173828125,0.0553131103515625,0.23585659613256396
1781791089.863259,0.06103515625,-0.0654296875,0.9809569716453552,0.9850293977970586,-0.0133514404296875,0.0591278076171875,-0.2498626708984375,0.2571103127135579
1781791089.873907,0.0566406287252903,-0.06396484375,0.9897460341453552,0.9934268338256305,0.0457763671875,-0.553131103515625,-0.1277923583984375,0.5695440108844377
1781791089.881887,0.0488281212747097,-0.072265625,0.9868163466453552,0.9906629134021038,-0.0133514404296875,-0.5512237548828125,-0.1926422119140625,0.5840692687685228
1781791089.889868,0.06982421875,-0.0751953125,0.9819335341453552,0.987280720983251,-0.0762939453125,-0.247955322265625,-0.3147125244140625,0.4078560787266368
1781791089.89785,0.05419921875,-0.076171875,0.9804686903953552,0.9849155104371689,0.2307891845703125,-0.3070831298828125,-0.4329681396484375,0.5788135332936531
1781791089.905831,0.0537109375,-0.0791015625,0.9873046278953552,0.9919235606943996,0.1697540283203125,-0.3681182861328125,0.1163482666015625,0.4217397560789366
1781791089.913815,0.0488281212747097,-0.078125,0.9902343153953552,0.9945107844758274,-0.0133514404296875,-0.3681182861328125,0.1735687255859375,0.4072044155561592
1781791089.921799,0.04931640625,-0.06396484375,0.9912108778953552,0.9944961606861324,-0.0133514404296875,-0.4291534423828125,0.2994537353515625,0.5234725185590635
1781791089.929783,0.04931640625,-0.07080078125,0.9902343153953552,0.9939863469573077,0.0457763671875,-0.1220703125,0.1735687255859375,0.21707772683593993
1781791089.937767,0.05859375,-0.06884765625,0.9882811903953552,0.9924076473906481,0.1697540283203125,-0.0629425048828125,0.3604888916015625,0.40339859942743905
1781791089.948705,0.05712890625,-0.06591796875,0.9882811903953552,0.9921232795488208,0.1087188720703125,-0.1239776611328125,0.2994537353515625,0.34185200485035494
1781791089.959645,0.05126953125,-0.0693359375,0.9843749403953552,0.9881447567750171,-0.0762939453125,-0.064849853515625,0.2384185791015625,0.2585917408834876
1781791089.970583,0.0537109375,-0.06689453125,0.9853515028953552,0.9890790298941846,-0.1964569091796875,-0.1239776611328125,0.2994537353515625,0.37899646072279103
1781791089.978359,0.0576171912252903,-0.07421875,0.9838866591453552,0.9883628491705172,0.1087188720703125,0.1201629638671875,0.3604888916015625,0.39523559049978163
1781791089.986134,0.0527343787252903,-0.0654296875,0.9995116591453552,1.0030381425815225,-0.0133514404296875,0.2422332763671875,0.1163482666015625,0.26905787533970826
1781791089.993908,0.04931640625,-0.076171875,0.9916991591453552,0.9958420982846805,-0.1964569091796875,-0.0629425048828125,0.3604888916015625,0.41534240940876954
1781791090.001684,0.05419921875,-0.06640625,0.9858397841453552,0.9895592076050495,0.1087188720703125,0.1811981201171875,-0.1926422119140625,0.2859433050263395
1781791090.009736,0.05126953125,-0.07470703125,0.9838866591453552,0.9880499296073005,0.0457763671875,0.240325927734375,-0.1277923583984375,0.2760125254391684
1781791090.017788,0.06103515625,-0.064453125,1.0029296875,1.0068502637878063,-0.1983642578125,0.545501708984375,-0.1926422119140625,0.6115811598582156
1781791090.02584,0.0473632849752903,-0.068359375,0.9921874403953552,0.995666712204605,-0.3185272216796875,0.3032684326171875,-0.0095367431640625,0.43991167595693986
1781791090.033892,0.0502929724752903,-0.072265625,0.9853515028953552,0.989277154236959,-0.1964569091796875,0.4253387451171875,0.0553131103515625,0.47177103073319787
1781791090.04455,0.0585937462747097,-0.0771484375,0.9926757216453552,0.9973916968048828,-0.2593994140625,0.118255615234375,-0.3147125244140625,0.4246368090186021
1781791090.055208,0.0517578162252903,-0.08740234375,0.9951171278953552,1.0002880282519155,-0.0743865966796875,0.4863739013671875,-0.3719329833984375,0.6167877121314816
1781791090.065866,0.0400390625,-0.080078125,0.9853515028953552,0.9894105401134201,0.1087188720703125,0.4863739013671875,-0.3719329833984375,0.6218629344277097
1781791090.074105,0.0571289099752903,-0.07470703125,0.9882811903953552,0.9927459716173185,0.1068115234375,0.057220458984375,-0.2498626708984375,0.27769450259939077
1781791090.082344,0.0541992150247097,-0.0771484375,0.9838866591453552,0.9883938457731283,-0.1964569091796875,-0.0019073486328125,-0.1277923583984375,0.23437116291958313
1781791090.090583,0.044921875,-0.08349609375,0.9941405653953552,0.9986516090657547,-0.3795623779296875,-0.0629425048828125,-0.3147125244140625,0.4970647147843364
1781791090.098822,0.04931640625,-0.0732421875,0.9916991591453552,0.9956222919384664,-0.0133514404296875,-0.1850128173828125,-0.3719329833984375,0.41562260248587996
1781791090.106569,0.048828125,-0.0712890625,0.9946288466453552,0.9983751092661586,-0.2574920654296875,0.1811981201171875,-0.3147125244140625,0.4451728827279589
1781791090.114316,0.05029296875,-0.06982421875,0.9785155653953552,0.9822919708267639,-0.3185272216796875,-0.1239776611328125,-0.1277923583984375,0.3649122336617094
1781791090.122063,0.0424804724752903,-0.0830078125,0.9970702528953552,1.001420978752975,0.0457763671875,-0.247955322265625,-0.3719329833984375,0.44934559280402114
1781791090.12981,0.0522460974752903,-0.07275390625,0.9995116591453552,1.0035169865744835,-0.0743865966796875,-0.3070831298828125,-0.3147125244140625,0.44595671028394973
1781791090.140488,0.04736328125,-0.08154296875,0.9936522841453552,0.9981169259914451,0.1087188720703125,-0.0629425048828125,-0.3719329833984375,0.39257572034554844
1781791090.151166,0.05029296875,-0.0751953125,0.9838866591453552,0.9880367785522306,0.1087188720703125,-0.3070831298828125,-0.1277923583984375,0.3499296053035524
1781791090.161844,0.04833984375,-0.0859375,0.9907225966453552,0.9956170237112961,0.5340576171875,-0.6103515625,-0.4329681396484375,0.9193519338494973
1781791090.169842,0.0546875,-0.0712890625,0.9868163466453552,0.9908982566817164,0.4119873046875,0.057220458984375,-0.1926422119140625,0.4583871092877679
1781791090.17784,0.0610351599752903,-0.07275390625,0.9951171278953552,0.9996381944776539,0.4749298095703125,-0.2460479736328125,-0.1926422119140625,0.5685146886039525
1781791090.185838,0.0585937462747097,-0.07275390625,0.9843749403953552,0.9887974419745926,0.9002685546875,-0.247955322265625,-0.4329681396484375,1.0292845682072567
1781791090.193835,0.05224609375,-0.07080078125,0.9951171278953552,0.9989997513355271,0.5970001220703125,-0.0019073486328125,-0.0667572021484375,0.6007239863443631
1781791090.201818,0.0576171875,-0.0810546875,0.9873046278953552,0.9923003733369844,0.7781982421875,-0.431060791015625,-0.1277923583984375,0.8987417852530091
1781791090.2098,0.0595703125,-0.06005859375,0.9931640028953552,0.9967599477615964,0.7171630859375,-0.30517578125,-0.3147125244140625,0.8405350214690747
1781791090.217782,0.06005859375,-0.0654296875,0.9863280653953552,0.9903187018713315,0.4749298095703125,-0.3070831298828125,-0.1926422119140625,0.5974691577715624
1781791090.225764,0.0517578162252903,-0.068359375,0.9780272841453552,0.9817786126329809,0.5950927734375,-0.247955322265625,-0.2498626708984375,0.6914105908545851
1781791090.236473,0.0498046875,-0.07080078125,0.9858397841453552,0.9896329307002387,0.5970001220703125,-0.3681182861328125,0.1735687255859375,0.7225277301521746
1781791090.247182,0.05517578125,-0.0595703125,0.9873046278953552,0.9906378840078152,0.2918243408203125,-0.3681182861328125,-0.1277923583984375,0.48682995526734363
1781791090.25789,0.06201171875,-0.07177734375,0.9873046278953552,0.9918507289918784,0.3528594970703125,-0.1850128173828125,-0.0667572021484375,0.40397535977745863
1781791090.265856,0.0527343787252903,-0.06640625,0.9765624403953552,0.9802371675923824,0.2918243408203125,-0.2460479736328125,-0.0095367431640625,0.3818271869500657
1781791090.273821,0.05859375,-0.07421875,0.9965819716453552,1.0010580785344918,0.2918243408203125,-0.0629425048828125,0.1163482666015625,0.3204061858911607
1781791090.281785,0.06640625,-0.0595703125,1.00048828125,1.0044576711285496,0.4749298095703125,-0.1239776611328125,-0.0095367431640625,0.4909376069814097
1781791090.289751,0.0561523474752903,-0.08203125,0.9921874403953552,0.9971550175282852,0.4749298095703125,0.1201629638671875,-0.3719329833984375,0.6150866654736572
1781791090.297748,0.05419921875,-0.06494140625,0.9946288466453552,0.998219156366931,0.5950927734375,0.545501708984375,-0.3147125244140625,0.8664591718745214
1781791090.305745,0.0566406287252903,-0.06298828125,0.9926757216453552,0.996283480110632,0.7171630859375,0.728607177734375,-0.2498626708984375,1.0524365375574671
1781791090.313742,0.046875,-0.0654296875,0.9833983778953552,0.9866867178991331,0.9021759033203125,0.8525848388671875,-0.5550384521484375,1.3597389276480039
1781791090.321738,0.05322265625,-0.07080078125,0.9858397841453552,0.9898108313044854,1.2054443359375,0.606536865234375,-0.4329681396484375,1.4171959729983612
1781791090.332401,0.04443359375,-0.06591796875,0.9887694716453552,0.9919599744523471,1.3294219970703125,1.0967254638671875,-0.9212493896484375,1.954192935028866
1781791090.343063,0.0517578162252903,-0.0791015625,0.9946288466453552,0.9991108403522714,1.6937255859375,0.728607177734375,-0.6160736083984375,1.9439962630803718
1781791090.353725,0.0546875,-0.07861328125,0.9975585341453552,1.0021446001906968,1.2683868408203125,0.3032684326171875,-0.5550384521484375,1.4173371523923133
1781791090.361724,0.0483398400247097,-0.06787109375,0.9824218153953552,0.98594921211244,1.5125274658203125,-0.0019073486328125,-0.4329681396484375,1.573278228029058
1781791090.369723,0.064453125,-0.0625,0.9877929091453552,0.9918645505713518,1.2054443359375,0.423431396484375,-0.3719329833984375,1.3306856648781376
1781791090.377722,0.0400390625,-0.0595703125,0.9892577528953552,0.9918581805484059,1.2683868408203125,0.1201629638671875,-0.1926422119140625,1.288547763050568
1781791090.38572,0.0517578125,-0.0703125,0.9951171278953552,0.9989398465582079,0.9632110595703125,-0.0019073486328125,0.0553131103515625,0.9647998359422204
1781791090.393746,0.048828125,-0.0576171875,0.9819335341453552,0.9848336872617698,0.2288818359375,0.118255615234375,-0.1277923583984375,0.2875798536434983
1781791090.401771,0.0576171912252903,-0.0654296875,0.9853515028953552,0.9892008739326783,0.1068115234375,0.240325927734375,-0.0095367431640625,0.2631657320978644
1781791090.409796,0.05810546875,-0.05615234375,0.9726561903953552,0.9760068626406686,-0.1964569091796875,0.6694793701171875,0.0553131103515625,0.6998981957068515
1781791090.417821,0.0576171912252903,-0.0590820275247097,0.9926757216453552,0.99610015311978,-0.5645751953125,0.728607177734375,-0.2498626708984375,0.9550104318365844
1781791090.428739,0.0498046875,-0.08056640625,0.9921874403953552,0.9966982339661786,-0.8697509765625,0.728607177734375,-0.5550384521484375,1.2630925793625767
1781791090.439657,0.06787109375,-0.06982421875,0.9912108778953552,0.9959823850595702,-1.1730194091796875,0.7915496826171875,-0.3147125244140625,1.4496790704796374
1781791090.450575,0.0546875,-0.08154296875,0.9902343153953552,0.9950899345261821,-0.8068084716796875,0.3643035888671875,-0.6160736083984375,1.0785192190224044
1781791090.458368,0.0576171912252903,-0.083984375,0.9926757216453552,0.9978868694962165,-0.6847381591796875,0.8525848388671875,-0.4978179931640625,1.2014949056990918
1781791090.466161,0.0429687537252903,-0.0654296875,1.00048828125,1.0035457930366862,-0.5626678466796875,0.6084442138671875,-0.8029937744140625,1.1539490754896242
1781791090.473953,0.06396484375,-0.0771484375,0.9951171278953552,1.0001507290780496,-0.3814697265625,0.545501708984375,-0.8602142333984375,1.087685521706437
1781791090.481747,0.052734375,-0.08056640625,0.9750975966453552,0.979840386545803,-0.2574920654296875,0.6694793701171875,-1.1043548583984375,1.3168539949591926
1781791090.48981,0.05419921875,-0.080078125,0.9853515028953552,0.9900846659123457,-0.2593994140625,0.240325927734375,-1.4743804931640625,1.5161934065877152
1781791090.497873,0.0537109375,-0.07568359375,0.9873046278953552,0.9916568456041787,-0.0743865966796875,0.1811981201171875,-1.1043548583984375,1.1215907354145818
1781791090.505936,0.0517578125,-0.07666015625,0.9951171278953552,0.999406698467526,-0.1354217529296875,0.3032684326171875,-0.7381439208984375,0.8094240182672823
1781791090.513999,0.04150390625,-0.0693359375,0.9902343153953552,0.9935260670206497,0.1697540283203125,0.1811981201171875,-0.7381439208984375,0.7787847178933951
1781791090.522376,0.05908203125,-0.06982421875,0.9985350966453552,1.0027155365173228,0.2288818359375,0.240325927734375,-0.4329681396484375,0.5455317188891381
1781791090.530752,0.04541015625,-0.06494140625,0.9956054091453552,0.9987540233990886,0.2288818359375,0.3662109375,-0.1277923583984375,0.4503645550349009
1781791090.539129,0.0400390625,-0.0693359375,0.9999999403953552,1.003200119390741,-0.0133514404296875,0.2422332763671875,-0.0667572021484375,0.2516182528748999
1781791090.547507,0.05078125,-0.06640625,0.9809569716453552,0.9845126233879641,0.1087188720703125,0.3032684326171875,0.0553131103515625,0.32688082773862814
1781791090.557626,0.0478515662252903,-0.068359375,0.9956054091453552,0.9990960450627828,0.0457763671875,-0.30517578125,0.1735687255859375,0.3540534363001709
1781791090.567744,0.05224609375,-0.0712890625,0.9887694716453552,0.992711867966782,0.0457763671875,-0.064849853515625,0.6618499755859375,0.6665931063827385
1781791090.577864,0.04541015625,-0.06640625,0.9912108778953552,0.9944701487665644,-0.133514404296875,0.057220458984375,0.6046295166015625,0.6218336830913641
1781791090.585894,0.0546875,-0.07470703125,1.00048828125,1.0047629890143335,-0.2593994140625,-0.064849853515625,1.0929107666015625,1.125143325657039
1781791090.593924,0.04345703125,-0.0712890625,0.9848632216453552,0.9883957756621892,-0.0133514404296875,-0.4901885986328125,0.8487701416015625,0.9802417438904979
1781791090.601954,0.06005859375,-0.07470703125,0.9916991591453552,0.9963209309509765,-0.0743865966796875,-0.1239776611328125,0.7877349853515625,0.80089339700885
1781791090.609983,0.060546875,-0.076171875,0.9882811903953552,0.9930598118454605,-0.0133514404296875,-0.3070831298828125,0.7877349853515625,0.8455795153425834
1781791090.620574,0.06298828125,-0.08056640625,0.9916991591453552,0.996958219606255,-0.0133514404296875,-0.6732940673828125,0.6046295166015625,0.9050303942300932
1781791090.631164,0.0527343787252903,-0.08203125,0.9926757216453552,0.9974543242776742,0.2918243408203125,-0.3681182861328125,0.6618499755859375,0.8116143842143726
1781791090.641754,0.0537109337747097,-0.078125,0.9868163466453552,0.991360117232097,0.1087188720703125,-0.3070831298828125,0.4215240478515625,0.5327310435107303
1781791090.649754,0.0458984375,-0.080078125,0.9843749403953552,0.988692670118888,0.2288818359375,-0.370025634765625,0.6046295166015625,0.7449045023032573
1781791090.657754,0.0537109375,-0.06591796875,0.9770507216453552,0.9807436750134891,0.2288818359375,-0.6103515625,0.1735687255859375,0.6745680300531879
1781791090.665754,0.04443359375,-0.07470703125,0.9868163466453552,0.9906371620216023,0.5340576171875,-0.48828125,0.1735687255859375,0.744152014093276
1781791090.673753,0.0537109337747097,-0.0732421875,0.9960936903953552,1.0002259357176129,0.5970001220703125,-0.1239776611328125,0.2994537353515625,0.6793026908734678
1781791090.681755,0.05322265625,-0.07177734375,0.9912108778953552,0.9952304470182733,0.5340576171875,0.057220458984375,-0.1277923583984375,0.5521074227606504
1781791090.689756,0.0502929724752903,-0.07275390625,0.9858397841453552,0.9897992695283194,0.5970001220703125,0.3643035888671875,0.2384185791015625,0.7388976041876769
1781791090.697757,0.05078125,-0.07568359375,0.9907225966453552,0.9949060283354367,0.354766845703125,0.545501708984375,-0.1926422119140625,0.678632928118111
1781791090.705758,0.05810546875,-0.0595703125,0.9833983778953552,0.986912983640007,0.1068115234375,0.240325927734375,-0.1277923583984375,0.2923972297157795
1781791090.713747,0.0556640625,-0.06591796875,0.9912108778953552,0.9949586277409783,0.0457763671875,-0.064849853515625,-0.0667572021484375,0.10371838473756809
1781791090.721736,0.0576171912252903,-0.07470703125,0.9916991591453552,0.996176743099579,0.1087188720703125,-0.0019073486328125,0.1163482666015625,0.15924933363828037
1781791090.729725,0.0478515662252903,-0.07421875,0.9853515028953552,0.9893006517231812,0.0457763671875,-0.064849853515625,0.2994537353515625,0.3097959310738062
1781791090.737714,0.05224609375,-0.0751953125,0.9882811903953552,0.9925138289330617,0.0457763671875,-0.370025634765625,-0.0095367431640625,0.37296835743366463
1781791090.748397,0.05615234375,-0.0703125,0.9960936903953552,1.0001497754888045,0.1068115234375,-0.247955322265625,0.2384185791015625,0.3601860106107643
1781791090.75908,0.0556640662252903,-0.068359375,0.9868163466453552,0.9907461806263045,0.1068115234375,0.057220458984375,0.4215240478515625,0.4385948077469551
1781791090.769763,0.0551757849752903,-0.06787109375,0.9956054091453552,0.9994403350545499,-0.0743865966796875,-0.3681182861328125,0.3604888916015625,0.5205734139572139
1781791090.777761,0.05859375,-0.06884765625,0.9794921278953552,0.983655455898635,-0.0133514404296875,-0.1239776611328125,0.3604888916015625,0.3814458839594852
1781791090.78576,0.0615234412252903,-0.0732421875,0.9780272841453552,0.9826937062903813,0.0457763671875,0.118255615234375,0.2994537353515625,0.3251959500721819
1781791090.79376,0.0463867224752903,-0.07763671875,0.9916991591453552,0.9958144457527571,0.1697540283203125,-0.1850128173828125,0.2384185791015625,0.3462507640247273
1781791090.801759,0.056640625,-0.06982421875,0.9809569716453552,0.9850686078360557,0.0457763671875,0.18310546875,-0.2498626708984375,0.3131364603292675
1781791090.8124,0.03955078125,-0.0634765625,0.9912108778953552,0.9940284416164271,0.1697540283203125,-0.1239776611328125,0.1163482666015625,0.2402577984834711
1781791090.82304,0.044921875,-0.0703125,0.9794921278953552,0.9830394962150486,-0.0762939453125,-0.064849853515625,0.1163482666015625,0.15350305773349607
1781791090.833682,0.068359375,-0.0693359375,0.9926757216453552,0.997439504292627,-0.1964569091796875,-0.1850128173828125,0.1735687255859375,0.32086003531429147
1781791090.841717,0.0498046875,-0.07275390625,0.9946288466453552,0.9985290082669988,-0.1354217529296875,0.1201629638671875,-0.1277923583984375,0.22160567663516886
1781791090.849751,0.0419921875,-0.07080078125,0.9790038466453552,0.9824584602837149,-0.1354217529296875,-0.1239776611328125,-0.0667572021484375,0.1953612952076208
1781791090.857787,0.0537109375,-0.0712890625,0.9975585341453552,1.00154382045195,-0.1964569091796875,0.1201629638671875,0.0553131103515625,0.23684170922062509
1781791090.865822,0.0478515662252903,-0.064453125,0.9995116591453552,1.0027300406789355,-0.0762939453125,0.057220458984375,-0.1926422119140625,0.21495573690616365
1781791090.873801,0.046875,-0.06689453125,0.9809569716453552,0.9843519310469114,-0.3185272216796875,0.3032684326171875,-0.1277923583984375,0.45799805680603173
1781791090.88178,0.0532226525247097,-0.0771484375,0.9912108778953552,0.9956322295951142,-0.3185272216796875,-0.0629425048828125,-0.3719329833984375,0.49371600542373145
1781791090.889759,0.0478515662252903,-0.08642578125,0.9863280653953552,0.9912629523196307,-0.1964569091796875,-0.0629425048828125,-0.2498626708984375,0.32401918213874276
1781791090.897738,0.0439453125,-0.0849609375,0.9926757216453552,0.9972736032482402,-0.2593994140625,0.240325927734375,-0.1277923583984375,0.3759993276887487
1781791090.908441,0.0546875,-0.06640625,0.9912108778953552,0.9949369412949713,-0.0133514404296875,-0.0019073486328125,0.0553131103515625,0.05693363783492775
1781791090.919144,0.05615234375,-0.08154296875,0.9873046278953552,0.9922564032168134,0.0476837158203125,-0.0019073486328125,-0.3147125244140625,0.3183101439733131
1781791090.929847,0.04638671875,-0.080078125,0.9838866591453552,0.9882293214755954,0.1087188720703125,0.1811981201171875,-0.0095367431640625,0.2115265972600632
1781791090.937832,0.04931640625,-0.0732421875,0.9858397841453552,0.9897861415270275,0.2288818359375,-0.064849853515625,-0.1926422119140625,0.30611014379510726
1781791090.945817,0.05078125,-0.0810546875,0.9833983778953552,0.9880389503276179,0.2288818359375,-0.247955322265625,0.1735687255859375,0.3794665191601192
1781791090.953802,0.05029296875,-0.07568359375,0.9799804091453552,0.9841844295543907,-0.1354217529296875,-0.1850128173828125,-0.1926422119140625,0.2994658838225447
1781791090.961787,0.05078125,-0.0810546875,0.9804686903953552,0.9851230636640623,0.2307891845703125,-0.3070831298828125,0.0553131103515625,0.3881020955238688
1781791090.969981,0.05078125,-0.0751953125,0.9809569716453552,0.9851444820903995,0.2918243408203125,-0.3070831298828125,0.0553131103515625,0.4272248058465219
1781791090.978175,0.0512695349752903,-0.0634765625,0.9902343153953552,0.9935903776657193,0.1697540283203125,-0.0019073486328125,0.1163482666015625,0.20580813213031407
1781791090.986368,0.0532226525247097,-0.07275390625,0.9921874403953552,0.9962739073641778,0.1697540283203125,0.1201629638671875,0.6046295166015625,0.6394000472021875
1781791090.994563,0.04443359375,-0.07568359375,0.9887694716453552,0.9926567476596782,0.1087188720703125,0.1201629638671875,-0.0095367431640625,0.16232646272177953
1781791091.004966,0.0546875,-0.06591796875,0.9916991591453552,0.9953909400381242,-0.3185272216796875,-0.3681182861328125,0.2384185791015625,0.5420461995043855
1781791091.015369,0.05419921875,-0.06396484375,0.9882811903953552,0.9918310177839432,0.1087188720703125,-0.3070831298828125,0.1163482666015625,0.34591438383515294
1781791091.025772,0.05517578125,-0.076171875,0.9965819716453552,1.001010563174089,-0.3795623779296875,-0.3070831298828125,-0.0095367431640625,0.48832222647391393
1781791091.033757,0.05810546875,-0.0556640625,0.9902343153953552,0.9934982298621216,-0.0743865966796875,-0.4901885986328125,0.0553131103515625,0.4988765059330327
1781791091.041742,0.04931640625,-0.07177734375,0.9868163466453552,0.9906516022334525,-0.4425048828125,-0.370025634765625,-0.0667572021484375,0.5806772474751317
1781791091.049727,0.0429687537252903,-0.0732421875,0.9990233778953552,1.002625773361096,-0.5626678466796875,-0.1850128173828125,-0.0095367431640625,0.5923814630398723
1781791091.057712,0.05419921875,-0.06884765625,0.9965819716453552,1.0004264996953909,-0.2574920654296875,-0.0019073486328125,-0.2498626708984375,0.3587996043010004
1781791091.06573,0.0517578125,-0.0751953125,0.9770507216453552,0.9813059252060324,-0.3185272216796875,-0.0019073486328125,-0.1926422119140625,0.37225562553295344
1781791091.073748,0.0522460974752903,-0.0673828125,0.9907225966453552,0.9943849162298888,-0.1964569091796875,0.1811981201171875,0.1163482666015625,0.29148755554847783
1781791091.081766,0.0546875,-0.0722656175494194,0.9902343153953552,0.9943726874379428,-0.1983642578125,0.057220458984375,-0.1277923583984375,0.2428033083978083
1781791091.089784,0.0561523474752903,-0.0732421875,0.9960936903953552,1.0003600072984768,0.0457763671875,0.18310546875,-0.0667572021484375,0.20019893235911473
1781791091.097983,0.0576171912252903,-0.08349609375,0.9902343153953552,0.9954171677154802,0.0457763671875,0.118255615234375,-0.1277923583984375,0.18002986750086794
1781791091.106182,0.0527343787252903,-0.080078125,0.9887694716453552,0.9934075139945806,0.1697540283203125,0.0591278076171875,-0.0667572021484375,0.19175257965220688
1781791091.114381,0.0419921912252903,-0.07958984375,0.9858397841453552,0.989938365432824,-0.1354217529296875,-0.0019073486328125,-0.1277923583984375,0.1862084208901174
1781791091.124219,0.05517578125,-0.0849609375,0.9936522841453552,0.998803078451758,-0.0133514404296875,-0.1850128173828125,-0.1277923583984375,0.22525294764443843
1781791091.134057,0.0546875,-0.07421875,0.9931640028953552,0.9974336479961651,0.1697540283203125,0.0591278076171875,-0.0667572021484375,0.19175257965220688
1781791091.143894,0.0424804724752903,-0.078125,0.9975585341453552,1.0015144208711892,0.1087188720703125,-0.0019073486328125,-0.3147125244140625,0.33296757221405204
1781791091.153733,0.0473632849752903,-0.0791015625,0.9863280653953552,0.9906277759785136,0.0457763671875,0.118255615234375,0.2384185791015625,0.27004311727602576
1781791091.161748,0.04541015625,-0.06689453125,0.9819335341453552,0.9852565280580454,0.354766845703125,0.057220458984375,-0.1277923583984375,0.3813981942819894
1781791091.169763,0.0380859412252903,-0.076171875,0.9814452528953552,0.9851332284979832,-0.0133514404296875,0.0591278076171875,-0.0667572021484375,0.09017140696390391
1781791091.177778,0.0429687537252903,-0.08056640625,0.9956054091453552,0.9997836717671653,0.2307891845703125,-0.0019073486328125,0.1163482666015625,0.2584650940352007
1781791091.185792,0.04931640625,-0.064453125,0.9975585341453552,1.0008543062273902,-0.0133514404296875,-0.0019073486328125,0.2384185791015625,0.23879974413965063
1781791091.196409,0.0532226525247097,-0.078125,0.9877929091453552,0.9923058992692777,-0.0133514404296875,-0.0629425048828125,0.0553131103515625,0.08485022132696238
1781791091.207025,0.0546875,-0.07177734375,0.9946288466453552,0.9987137989990552,-0.0133514404296875,-0.1239776611328125,0.0553131103515625,0.13641210209609012
1781791091.217641,0.05078125,-0.0791015625,0.9931640028953552,0.9976023903282455,-0.0133514404296875,-0.2460479736328125,0.1163482666015625,0.2724973127051879
1781791091.225688,0.05029296875,-0.07470703125,1.00048828125,1.0045333862756658,-0.0133514404296875,-0.1239776611328125,0.1163482666015625,0.17054512764279794
1781791091.233735,0.05224609375,-0.0712890625,0.9912108778953552,0.9951436023018706,0.0457763671875,-0.1220703125,-0.2498626708984375,0.2818297203902267
1781791091.241781,0.0439453125,-0.0751953125,0.9897460341453552,0.9935707008658992,-0.1964569091796875,-0.2460479736328125,-0.1926422119140625,0.36911508273760874
1781791091.249829,0.04248046875,-0.076171875,0.9892577528953552,0.993094983589084,-0.2574920654296875,-0.0019073486328125,-0.2498626708984375,0.3587996043010004
1781791091.257819,0.05419921875,-0.0625,0.9892577528953552,0.9927107871765463,-0.0133514404296875,-0.1239776611328125,-0.1926422119140625,0.22947710829765253
1781791091.265809,0.0654296875,-0.06591796875,0.9892577528953552,0.9936081341625789,0.1697540283203125,-0.0019073486328125,-0.1926422119140625,0.2567705004881268
1781791091.273799,0.0488281212747097,-0.0771484375,0.9809569716453552,0.985196755503963,-0.0762939453125,-0.247955322265625,-0.6809234619140625,0.7286695883020152
1781791091.281789,0.04638671875,-0.06640625,0.9956054091453552,0.9988952139413545,-0.0133514404296875,-0.1850128173828125,-0.2498626708984375,0.311190227780331
1781791091.29252,0.04833984375,-0.06640625,0.9882811903953552,0.991688581068723,0.1087188720703125,-0.3070831298828125,-0.3719329833984375,0.49442288169392773
1781791091.303251,0.0488281212747097,-0.0673828125,0.9921874403953552,0.995670902319594,-0.2593994140625,-0.064849853515625,-0.3147125244140625,0.41296190204429056
1781791091.313982,0.05419921875,-0.07861328125,0.9931640028953552,0.9977436243590471,0.1087188720703125,-0.0019073486328125,-0.3719329833984375,0.3875017100126275
1781791091.321974,0.05224609375,-0.07666015625,0.9804686903953552,0.9848478495249868,-0.1354217529296875,-0.2460479736328125,-0.3719329833984375,0.4660609409026087
1781791091.329966,0.0537109337747097,-0.06787109375,0.9946288466453552,0.9983876463342494,-0.0133514404296875,-0.3681182861328125,-0.2498626708984375,0.4451075014593751
1781791091.337958,0.06103515625,-0.06982421875,0.9868163466453552,0.9911645745429947,0.2288818359375,-0.1220703125,-0.1277923583984375,0.2891694017025367
1781791091.34595,0.0502929724752903,-0.07763671875,0.9809569716453552,0.9853087959610901,-0.0133514404296875,-0.0019073486328125,-0.2498626708984375,0.2502264039801865
1781791091.353934,0.0512695349752903,-0.0830078125,0.9926757216453552,0.9974587462630945,0.0457763671875,-0.30517578125,-0.1277923583984375,0.3340039223115013
1781791091.361918,0.04150390625,-0.07177734375,0.9980468153953552,1.0014849010497486,0.2918243408203125,-0.1239776611328125,-0.1277923583984375,0.34185200485035494
1781791091.369902,0.06005859375,-0.07958984375,0.9921874403953552,0.997184784676172,0.2288818359375,-0.1220703125,-0.0095367431640625,0.25957466264284274
1781791091.377886,0.0693359375,-0.0732421875,0.9853515028953552,0.9904996085395109,-0.0133514404296875,-0.4291534423828125,-0.0095367431640625,0.42946698073395906
1781791091.388544,0.0605468787252903,-0.06298828125,0.9882811903953552,0.9921356557383998,0.2307891845703125,-0.1850128173828125,-0.2498626708984375,0.38720116815301137
1781791091.399202,0.044921875,-0.078125,0.9887694716453552,0.9928678454539408,-0.0743865966796875,-0.1239776611328125,-0.3147125244140625,0.3463348080234224
1781791091.40986,0.05126953125,-0.06494140625,0.9951171278953552,0.9985509748185233,-0.133514404296875,-0.431060791015625,-0.2498626708984375,0.5158205657147324
1781791091.417832,0.04296875,-0.06591796875,0.9824218153953552,0.9855679151866673,-0.1964569091796875,-0.5512237548828125,-0.2498626708984375,0.6362973357008843
1781791091.425803,0.05126953125,-0.06640625,0.9794921278953552,0.9830784218375603,0.0457763671875,-0.064849853515625,-0.1277923583984375,0.15043891171807094
1781791091.433776,0.0551757849752903,-0.072265625,0.9946288466453552,0.9987758659395759,-0.3185272216796875,-0.2460479736328125,0.4215240478515625,0.5828222020453239
1781791091.441748,0.0429687537252903,-0.07373046875,0.9936522841453552,0.9973100609169052,-0.0133514404296875,-0.1239776611328125,0.1735687255859375,0.21371669079189032
1781791091.449781,0.056640625,-0.07568359375,0.9887694716453552,0.9932780249361911,-0.0133514404296875,-0.1239776611328125,0.2994537353515625,0.3243782684421286
1781791091.457816,0.05859375,-0.0810546875,0.9916991591453552,0.9967298090026152,0.4749298095703125,-0.1850128173828125,0.2384185791015625,0.5627001736939728
1781791091.46585,0.0478515662252903,-0.07763671875,0.9809569716453552,0.9851871967845026,0.2918243408203125,-0.1850128173828125,0.4787445068359375,0.5904129836959218
1781791091.473884,0.0571289099752903,-0.06787109375,0.9916991591453552,0.9956592891001372,0.7801055908203125,0.1811981201171875,0.4215240478515625,0.9050303942300932
1781791091.484508,0.05615234375,-0.06982421875,0.9882811903953552,0.9923347310872105,0.4749298095703125,0.1811981201171875,0.2384185791015625,0.5614574797910381
1781791091.495132,0.0595703125,-0.07373046875,0.9863280653953552,0.9908722706484355,-0.0133514404296875,0.7305145263671875,0.1163482666015625,0.7398423165352277
1781791091.505756,0.0600585974752903,-0.07763671875,0.9824218153953552,0.987313080331498,0.1068115234375,1.033782958984375,0.2384185791015625,1.0662829486990484
1781791091.513752,0.046875,-0.0703125,0.9838866591453552,0.9875090234147019,-0.1354217529296875,0.7915496826171875,-0.2498626708984375,0.841023962516182
1781791091.521749,0.06005859375,-0.07470703125,0.9833983778953552,0.988058978426203,-0.3185272216796875,0.7305145263671875,-0.1277923583984375,0.8071195395042123
1781791091.529747,0.0478515662252903,-0.0576171912252903,0.9887694716453552,0.9916020276162912,-0.4425048828125,0.789642333984375,-0.2498626708984375,0.9390297871961765
1781791091.537744,0.05517578125,-0.06396484375,0.9975585341453552,1.001128811451723,-0.6847381591796875,0.6084442138671875,-0.2498626708984375,0.9494746243758955
