timestamp,accel_x,accel_y,accel_z,accel_rms,gyro_x,gyro_y,gyro_z,gyro_rms
1785165118.38932,-0.0043945275247097015,-3.725290298461914e-09,0.9990233778953552,0.9990330432241024,0.11444091796875,-0.37384033203125,-0.1010894775390625,0.403822238154223
1785165118.398938,-0.0063476525247097015,0.0019531212747097015,0.9946288466453552,0.9946510191792686,0.17547607421875,-0.61798095703125,0.0209808349609375,0.6427538497062013
1785165118.408556,-0.012695308774709702,0.0058593712747097015,0.9833983778953552,0.9834977746511865,0.7228851318359375,-0.7419586181640625,0.2651214599609375,1.0692777438201941
1785165118.418174,0.00146484375,-0.00244140625,1.00341796875,1.0034220080514804,0.96893310546875,-0.92315673828125,0.2040863037109375,1.3537728560101157
1785165118.427792,0.01513671875,0.00732421875,0.9916991591453552,0.9918417145313152,1.39617919921875,-0.67901611328125,-0.0400543212890625,1.5530562086030926
1785165118.437378,0.00048828125,0.01171875,0.9858397841453552,0.9859095534195326,0.66375732421875,0.05340576171875,-0.7114410400390625,0.974461037851518
1785165118.446962,0.0107421875,0.00244140625,0.9873046278953552,0.9873660837401438,0.17547607421875,0.48065185546875,-0.6504058837890625,0.8275541507697293
1785165118.456546,-0.0053710900247097015,0.0073242150247097015,0.9907225966453552,0.9907642283800404,0.1125335693359375,0.3566741943359375,-0.8335113525390625,0.9135761927415653
1785165118.46613,0.0,0.00341796875,0.9824218153953552,0.982427761148412,-0.61798095703125,-0.06866455078125,-0.7114410400390625,0.944861702705276
1785165118.475714,0.00634765625,-0.00244140625,0.9990233778953552,0.9990465268373597,-0.49591064453125,-0.43487548828125,-0.9555816650390625,1.1611116984278826
1785165118.48373,0.0073242224752902985,-0.008789066225290298,0.9990233778953552,0.9990888856860664,-0.9212493896484375,-0.4367828369140625,-0.5283355712890625,1.1483110033608732
1785165118.491746,0.00048828125,-0.00634765625,0.9912108778953552,0.9912313229597459,-0.92315673828125,-0.00762939453125,-0.5893707275390625,1.0952782411674733
1785165118.499762,0.0048828125,-0.00537109375,0.9897460341453552,0.9897726519824843,-0.9212493896484375,-0.1316070556640625,-0.5283355712890625,1.070121175810255
1785165118.507778,0.011230472475290298,0.00048827752470970154,0.9980468153953552,0.998110117996892,-1.3523101806640625,0.2346038818359375,-0.1621246337890625,1.3820514472990495
1785165118.518495,0.0039062537252902985,-0.0039062537252902985,0.9956054091453552,0.9956207351978076,-0.80108642578125,-0.00762939453125,-0.5893707275390625,0.9945629812695702
1785165118.529212,0.00634765625,-0.0107421875,0.9921874403953552,0.9922658939066886,-1.04522705078125,0.60272216796875,-0.5893707275390625,1.3428073033483783
1785165118.539929,0.00146484375,0.0087890625,0.9897460341453552,0.9897861412917941,-0.9212493896484375,0.3566741943359375,-0.8335113525390625,1.2925393973277202
1785165118.550542,0.00634765625,-0.00341796875,0.9965819716453552,0.9966080480604136,-0.92315673828125,0.41961669921875,-0.6504058837890625,1.2047092393456384
1785165118.561158,0.0019531287252902985,0.0063476525247097015,1.00048828125,1.0005103239462205,-0.61798095703125,0.29754638671875,-1.1997222900390625,1.381943518642935
1785165118.571774,0.0,0.00341796875,1.001953125,1.0019589548517651,-0.55694580078125,0.48065185546875,-1.0166168212890625,1.254880310030123
1785165118.57977,0.005859375,-0.00634765625,0.9970702528953552,0.9971076743381662,-0.4329681396484375,0.0514984130859375,-0.8335113525390625,0.9406671416141291
1785165118.587767,-0.01318359375,-0.0107421875,0.9873046278953552,0.9874510772691658,-0.37384033203125,-0.31280517578125,-1.0166168212890625,1.1274366648183176
1785165118.595764,-0.00390625,0.00244140625,0.9926757216453552,0.9926864094958019,-0.3757476806640625,-0.1316070556640625,-1.0776519775390625,1.1488431230236955
1785165118.603761,0.012695316225290298,-0.013183597475290298,0.9926757216453552,0.9928444322453429,0.05340576171875,0.17547607421875,-0.8945465087890625,0.9131579734058529
1785165118.613344,-0.0014648400247097015,-0.010742183774709702,1.00390625,1.0039647897499244,0.11444091796875,0.17547607421875,-1.0776519775390625,1.0978261980034028
1785165118.622927,0.0,0.0009765625,1.0009765625,1.0009770388718378,0.60272216796875,0.11444091796875,-0.6504058837890625,0.8940909065267981
1785165118.63251,0.0043945349752902985,-3.725290298461914e-09,0.9936522841453552,0.9936620017515668,1.02996826171875,0.23651123046875,-0.7724761962890625,1.3090040703217862
1785165118.642093,-0.0029296875,0.0029296875,0.9814452528953552,0.9814539981927441,0.54168701171875,0.17547607421875,-1.0166168212890625,1.1652151872576546
1785165118.651676,0.00048828125,-0.00048828125,0.9687499403953552,0.9687501865048401,0.29754638671875,-0.31280517578125,-0.8335113525390625,0.9386810454336553
1785165118.662389,-0.0048828087747097015,0.011718746274709702,0.9843749403953552,0.9844568015480113,0.35858154296875,-0.67901611328125,-0.8335113525390625,1.1333070104190313
1785165118.673102,-0.0029296837747097015,-0.013183597475290298,1.005859375,1.00595003482519,0.66375732421875,-0.98419189453125,-0.1621246337890625,1.1981201390496212
1785165118.683815,0.005859375,0.0126953125,0.9926757216453552,0.9927741896216833,0.7228851318359375,-1.1081695556640625,0.0209808349609375,1.3232697659078456
1785165118.691796,-0.00341796875,0.0078125,0.9863280653953552,0.986364927525898,0.29754638671875,-0.67901611328125,-0.2841949462890625,0.7939543449350236
1785165118.699775,0.0126953125,-0.0009765625,0.9897460341453552,0.989827932895535,0.17547607421875,-0.12969970703125,-0.2231597900390625,0.312112413270435
1785165118.707754,-0.0014648400247097015,0.0014648400247097015,0.9970702528953552,0.997072404954326,0.41961669921875,-0.19073486328125,-0.2231597900390625,0.5121115642361872
1785165118.715733,0.011718753725290298,0.0048828087747097015,0.9824218153953552,0.9825038393691445,0.4177093505859375,-0.0705718994140625,0.0209808349609375,0.42414819342948085
1785165118.72638,0.01025390625,0.00732421875,0.9936522841453552,0.9937321815061457,0.17547607421875,-0.00762939453125,0.2040863037109375,0.2692606165901927
1785165118.737027,0.00048828125,-0.00634765625,0.9965819716453552,0.9966023065230136,0.17547607421875,-0.25177001953125,-0.1010894775390625,0.3231084613981981
1785165118.747674,-0.00244140625,0.0087890625,0.9853515028953552,0.9853937245295616,0.05340576171875,-0.19073486328125,-0.2231597900390625,0.2983827329889508
1785165118.758478,-0.0024414025247097015,0.0014648400247097015,1.0009765625,1.000980611638858,-0.00762939453125,-0.43487548828125,0.1430511474609375,0.45786300217276776
1785165118.769281,-0.0063476525247097015,0.0034179650247097015,1.00390625,1.0039321361359776,0.1125335693359375,-0.2536773681640625,-0.1010894775390625,0.29535587655445794
1785165118.780084,0.009765625,0.00830078125,0.9848632216453552,0.9849466156856772,0.23651123046875,-0.19073486328125,0.1430511474609375,0.3358287971551132
1785165118.79063,0.001953125,-0.00048828125,0.9985350966453552,0.9985371261742818,-0.12969970703125,0.29754638671875,-0.1010894775390625,0.33996315788993464
1785165118.801174,-0.0068359337747097015,-0.0009765587747097015,0.9999999403953552,1.0000237819413729,0.17547607421875,0.23651123046875,-0.3452301025390625,0.4537766393945352
1785165118.811718,-0.0029296875,0.0087890625,0.9819335341453552,0.9819772381107742,0.05340576171875,0.23651123046875,-0.2231597900390625,0.3295300129167001
1785165118.819741,0.008300784975290298,0.0078124962747097015,0.9946288466453552,0.9946941644084969,0.4177093505859375,0.2346038818359375,-0.2841949462890625,0.5570339760155203
1785165118.827766,0.0,0.00537109375,0.9995116591453552,0.9995260904126375,0.4177093505859375,0.2346038818359375,-0.1621246337890625,0.5057711733784892
1785165118.835791,0.00048828125,0.00830078125,0.9897460341453552,0.9897809623822829,0.60272216796875,0.11444091796875,-0.2231597900390625,0.6528177596824084
1785165118.843816,0.005859375,0.00634765625,1.0068359375,1.0068729959914322,0.66375732421875,-0.06866455078125,-0.2841949462890625,0.7252967485686591
1785165118.851859,-0.0019531212747097015,0.0029296837747097015,0.9858397841453552,0.985846072028232,0.48065185546875,-0.00762939453125,0.0820159912109375,0.4876587296878609
1785165118.859902,0.0039062537252902985,0.0039062537252902985,0.9970702528953552,0.9970855564319143,0.4177093505859375,-0.2536773681640625,-0.0400543212890625,0.4903444272544539
1785165118.867945,0.005859375,-0.00244140625,0.9824218153953552,0.9824423220243382,0.29754638671875,-0.55694580078125,0.1430511474609375,0.6474458340642425
1785165118.875988,-0.014648430049419403,-0.001953125,1.001953125,1.0020621018167706,-0.00762939453125,-0.74005126953125,-0.2231597900390625,0.7730034806428796
1785165118.886612,0.0175781287252903,0.010253902524709702,1.00634765625,1.0065533956856623,0.35858154296875,-0.37384033203125,-0.4062652587890625,0.6583226999808138
1785165118.897236,0.0039062537252902985,-0.0058593712747097015,0.9873046278953552,0.9873297419370527,0.6008148193359375,-0.1316070556640625,-0.1621246337890625,0.6360685978064603
1785165118.90786,0.0107421875,0.01318359375,0.9868163466453552,0.9869628684722319,-0.12969970703125,-0.12969970703125,-0.0400543212890625,0.18774551036419382
1785165118.918494,0.01123046875,-0.0009765625,0.9990233778953552,0.9990869765361307,0.4177093505859375,-0.2536773681640625,-0.2841949462890625,0.5653318283820699
1785165118.929126,0.00244140625,-0.0068359375,0.9926757216453552,0.9927022609272672,0.4787445068359375,0.3566741943359375,-0.4673004150390625,0.7581440902799779
1785165118.939758,-0.0063476525247097015,-0.0034179724752902985,0.9897460341453552,0.9897722906481444,0.66375732421875,0.11444091796875,-0.5283355712890625,0.8560426303922632
1785165118.950469,0.013671878725290298,-0.010742183774709702,0.9809569716453552,0.9811110513085433,0.6008148193359375,-0.1316070556640625,-0.1010894775390625,0.6233120780984109
1785165118.961178,-0.004882805049419403,-0.00634765625,1.001953125,1.0019851292420883,0.96893310546875,-0.19073486328125,-0.5283355712890625,1.1199775117535054
1785165118.971887,-0.0009765587747097015,-0.015624996274709702,0.9936522841453552,0.9937756064438827,0.84686279296875,-0.12969970703125,-0.4673004150390625,0.9758935812958829
1785165118.980622,0.00146484375,-0.0009765625,1.0029296875,1.0029312326926387,0.4177093505859375,0.1773834228515625,-0.3452301025390625,0.5702015467960373
1785165118.989358,0.003906257450580597,0.00341796875,0.9809569716453552,0.9809707037303776,0.35858154296875,-0.00762939453125,-0.2841949462890625,0.457608673557447
1785165118.998094,0.0039062537252902985,0.009765621274709702,0.9946288466453552,0.9946844568787214,0.29754638671875,0.11444091796875,-0.4062652587890625,0.5164126610123516
1785165119.00683,0.0058593787252902985,0.00048827752470970154,0.9868163466453552,0.9868338627856633,-0.19073486328125,-0.19073486328125,-0.4062652587890625,0.4876587296878609
1785165119.015804,-0.009765617549419403,0.0029296875,0.9907225966453552,0.9907750571439939,-0.3757476806640625,-0.1316070556640625,-0.1010894775390625,0.4107624850130627
1785165119.024781,-0.012207027524709702,0.010742183774709702,0.9907225966453552,0.9908560286625671,-0.0095367431640625,-0.1316070556640625,-0.1010894775390625,0.1662240928381369
1785165119.033758,-0.0019531212747097015,0.010253902524709702,0.9946288466453552,0.9946836179302289,-0.12969970703125,-0.19073486328125,-0.4062652587890625,0.46717583688997993
1785165119.042735,0.0,0.01123046875,0.9853515028953552,0.9854155000234571,-0.19073486328125,-0.37384033203125,-0.2231597900390625,0.4753279644776129
1785165119.051712,-0.0058593712747097015,-0.009277347475290298,0.9877929091453552,0.9878538519263648,0.11444091796875,-0.19073486328125,-0.2231597900390625,0.3150822173127607
1785165119.062393,-0.0009765587747097015,0.0024414025247097015,0.9877929091453552,0.987796408917937,-0.12969970703125,-0.12969970703125,-0.2231597900390625,0.28886730500051855
1785165119.073074,-0.0024414025247097015,0.0019531212747097015,0.9999999403953552,1.0000048279482032,-0.00762939453125,-0.37384033203125,0.3261566162109375,0.4961783346865495
1785165119.083755,0.0107421875,-0.0107421875,0.9975585341453552,0.9976742044529368,0.4177093505859375,-0.5588531494140625,0.0820159912109375,0.7025130368834835
1785165119.094428,0.0029296912252902985,-3.725290298461914e-09,0.9873046278953552,0.9873089746144625,0.54168701171875,-0.25177001953125,0.4482269287109375,0.7468067628384166
1785165119.105101,-0.00244140625,0.00390625,0.9755858778953552,0.9755967529683517,0.2956390380859375,0.0514984130859375,0.2040863037109375,0.362912863857347
1785165119.115774,-0.0068359337747097015,0.0068359337747097015,0.9936522841453552,0.9936993115467204,-0.00762939453125,0.48065185546875,0.2040863037109375,0.5222409723383054
1785165119.12376,0.00537109375,-0.01025390625,0.9936522841453552,0.993719705464643,-0.2536773681640625,0.4177093505859375,0.0820159912109375,0.4955400402589921
1785165119.131745,-0.0034179650247097015,0.0058593712747097015,0.9926757216453552,0.992698898488747,-0.2536773681640625,-0.0057220458984375,-0.1621246337890625,0.30111350984163227
1785165119.13973,-0.0019531212747097015,0.0019531212747097015,0.9965819716453552,0.9965857994041311,-0.49591064453125,0.05340576171875,-0.1621246337890625,0.5244653845826217
1785165119.147715,0.01513671875,-0.0009765625,1.00146484375,1.001579705862716,-0.37384033203125,0.29754638671875,-0.4673004150390625,0.6683263603946048
1785165119.158483,0.0146484375,-0.0078125,1.00732421875,1.007461013418256,-0.31280517578125,-0.19073486328125,-0.5283355712890625,0.6429349437974233
1785165119.169251,-0.0019531212747097015,0.0014648400247097015,0.9931640028953552,0.9931670036233267,-0.55694580078125,-0.19073486328125,-0.5893707275390625,0.8330223691826701
1785165119.180019,-0.00244140625,0.0078125,0.9824218153953552,0.9824559119804984,-0.49591064453125,-0.55694580078125,-0.5283355712890625,0.9139225723531549
1785165119.187969,-0.0024414025247097015,0.010253902524709702,0.9951171278953552,0.9951729503930332,-0.55694580078125,-0.37384033203125,-0.4062652587890625,0.7842172399023417
1785165119.19592,-0.00927734375,0.00634765625,0.9877929091453552,0.9878568687845258,-0.80108642578125,-0.06866455078125,-0.3452301025390625,0.875007488998866
1785165119.203871,0.01171875,-0.0009765625,0.9951171278953552,0.9951866061229822,-0.6809234619140625,-0.1316070556640625,-0.1621246337890625,0.7122229812122275
1785165119.211822,-0.0063476525247097015,-0.009277347475290298,0.9873046278953552,0.9873686191754008,-0.61798095703125,0.05340576171875,-0.1010894775390625,0.6284677566169486
1785165119.222502,-0.0048828087747097015,0.0068359337747097015,0.9926757216453552,0.9927112672656785,-0.31280517578125,-0.12969970703125,0.0209808349609375,0.3392775964239149
1785165119.233182,-0.0048828087747097015,-3.725290298461914e-09,0.9951171278953552,0.995129107227917,-0.4329681396484375,-0.1316070556640625,0.0209808349609375,0.4530143733777667
1785165119.243862,0.0009765662252902985,0.0048828087747097015,0.9985350966453552,0.9985475125078784,-0.19073486328125,-0.06866455078125,-0.1621246337890625,0.25957466264284274
1785165119.252386,-0.00390625,-0.0009765625,0.9960936903953552,0.9961018283834322,-0.0095367431640625,-0.1316070556640625,0.0209808349609375,0.13360973769302534
1785165119.260909,-0.0034179650247097015,0.0058593712747097015,0.9926757216453552,0.992698898488747,-0.1926422119140625,-0.1316070556640625,-0.1010894775390625,0.2542646679757666
1785165119.269432,-0.014648433774709702,0.00048827752470970154,1.0009765625,1.001083859474974,-0.2536773681640625,-0.2536773681640625,0.2651214599609375,0.4460872143080427
1785165119.277955,-0.0063476525247097015,0.0024414025247097015,0.9897460341453552,0.9897694000348368,-0.00762939453125,-0.00762939453125,0.0820159912109375,0.08272265793686463
1785165119.289872,-0.0043945275247097015,0.0053710900247097015,0.9990233778953552,0.9990474813849763,0.17547607421875,-0.12969970703125,-0.1010894775390625,0.24048482092709503
1785165119.301789,-0.0048828087747097015,-3.725290298461914e-09,0.9980468153953552,0.9980587595639551,-0.12969970703125,-0.19073486328125,-0.3452301025390625,0.41519347992717903
1785165119.313706,0.0004882849752902985,0.0048828087747097015,0.9902343153953552,0.9902464741821883,-0.12969970703125,-0.06866455078125,-0.2841949462890625,0.3198493427134501
1785165119.322104,-0.0014648400247097015,-0.0039062537252902985,0.9975585341453552,0.9975672576927804,0.05340576171875,0.17547607421875,-0.6504058837890625,0.675774993378281
1785165119.330502,-0.0004882737994194031,0.0029296875,0.9936522841453552,0.9936567230525,0.2956390380859375,-0.6198883056640625,-0.1010894775390625,0.6941779561528594
1785165119.3389,0.0048828125,0.01171875,1.001953125,1.002033550165232,0.66375732421875,-0.61798095703125,-0.5283355712890625,1.0495774028610918
1785165119.347298,-0.0014648400247097015,0.010742183774709702,0.9965819716453552,0.9966409416018847,0.35858154296875,-0.43487548828125,-0.3452301025390625,0.6609699213767876
1785165119.355696,0.0068359375,0.013671875,0.9775390028953552,0.9776585049950545,0.11444091796875,-0.49591064453125,-0.2231597900390625,0.5557196981889416
1785165119.363717,-0.010742183774709702,-0.0024414099752902985,0.9965819716453552,0.99664285539177,0.35858154296875,-0.00762939453125,-0.4673004150390625,0.5890743658609183
1785165119.371738,0.0024414099752902985,0.010253902524709702,1.00341796875,1.0034733294961204,0.35858154296875,0.11444091796875,-0.1621246337890625,0.4098314818856859
1785165119.379759,0.0058593787252902985,0.00048827752470970154,0.9970702528953552,0.9970875889021963,-0.12969970703125,0.11444091796875,-0.5283355712890625,0.5559291444049883
1785165119.38778,0.013671878725290298,-0.0058593712747097015,0.9965819716453552,0.9966929711341189,0.35858154296875,0.29754638671875,-0.4062652587890625,0.6181957907541731
1785165119.398419,-0.0029296837747097015,0.0195312462747097,0.9873046278953552,0.9875021422212962,0.35858154296875,0.23651123046875,-0.3452301025390625,0.5510917426298667
1785165119.409058,0.0048828125,-0.00537109375,0.9853515028953552,0.985378239441138,-0.2536773681640625,-0.1316070556640625,-0.0400543212890625,0.28857749890304407
1785165119.419697,-0.00390625,0.001953125,0.9990233778953552,0.9990329239158107,0.2346038818359375,-0.3108978271484375,0.0209808349609375,0.39004696606148387
1785165119.430374,-0.0087890625,0.00146484375,0.9902343153953552,0.9902744027658943,-0.00762939453125,-0.31280517578125,0.0209808349609375,0.31360083082177936
1785165119.441052,0.008300784975290298,0.0166015587747097,0.9897460341453552,0.989920060859166,-0.37384033203125,0.17547607421875,0.0820159912109375,0.421040460396352
1785165119.45173,0.008300784975290298,-0.00048827752470970154,1.005859375,1.0058937437530555,-0.2536773681640625,0.2346038818359375,-0.2231597900390625,0.4113289199429263
1785165119.462385,0.0,0.0,0.9980468153953552,0.9980468153953552,-0.37384033203125,0.17547607421875,0.0209808349609375,0.4135077289629755
1785165119.473041,-0.0019531212747097015,-0.009765621274709702,0.9868163466453552,0.9868665989119708,-0.19073486328125,0.29754638671875,-0.2231597900390625,0.4179879570162034
1785165119.483697,-0.0063476525247097015,0.009765621274709702,0.9780272841453552,0.978096635606214,-0.00762939453125,0.11444091796875,0.0209808349609375,0.11659814236128177
1785165119.491718,0.0039062537252902985,0.012207027524709702,1.0048828125,1.0049645452437939,-0.19073486328125,0.11444091796875,0.0820159912109375,0.23707200296694647
1785165119.499738,-0.00390625,0.00146484375,0.9848632216453552,0.9848720576328391,0.29754638671875,-0.31280517578125,-0.0400543212890625,0.4335726915972108
1785165119.507758,-0.00048827752470970154,-0.008300784975290298,0.9819335341453552,0.9819687402994733,0.2346038818359375,-0.4940032958984375,0.2040863037109375,0.5837203586422207
1785165119.515778,0.00537109375,-0.001953125,0.9951171278953552,0.9951335395694578,0.29754638671875,-0.00762939453125,0.3261566162109375,0.44155429814289676
1785165119.523747,0.0034179724752902985,0.0063476525247097015,0.9985350966453552,0.9985611220455988,0.29754638671875,0.41961669921875,0.0209808349609375,0.514832226990775
1785165119.531716,0.00732421875,-0.001953125,0.9960936903953552,0.9961225320827761,0.54168701171875,0.11444091796875,0.2651214599609375,0.613849273765261
1785165119.539685,-0.0039062462747097015,-3.725290298461914e-09,0.9975585341453552,0.9975661821684757,0.54168701171875,-0.06866455078125,0.0209808349609375,0.5464245919012414
1785165119.547654,0.0190429724752903,0.0043945349752902985,0.9921874403953552,0.9923798988374514,0.48065185546875,-0.00762939453125,0.2040863037109375,0.5222409723383054
1785165119.558347,-0.00732421875,0.013671875,0.9916991591453552,0.991820440702811,0.66375732421875,-0.12969970703125,-0.1621246337890625,0.6954712045363665
1785165119.56904,-0.005371086299419403,0.0029296875,0.9848632216453552,0.9848822249317689,0.41961669921875,-0.00762939453125,-0.1010894775390625,0.4316890830137739
1785165119.579733,0.00244140625,-0.0009765625,0.9775390028953552,0.9775425393917337,0.66375732421875,-0.19073486328125,-0.2231597900390625,0.7257781103169414
1785165119.590407,-0.00341796875,-0.00634765625,0.9882811903953552,0.9883074858258964,0.29754638671875,0.11444091796875,-0.2231597900390625,0.3891411926861413
1785165119.601081,-0.0029296875,-0.01123046875,0.9858397841453552,0.9859081024623709,0.05340576171875,0.05340576171875,-0.3452301025390625,0.35339521002505314
1785165119.611755,-0.00341796875,0.00439453125,0.9838866591453552,0.9839024100282973,0.11444091796875,-0.37384033203125,-0.3452301025390625,0.5215717987563141
1785165119.622411,0.01123046875,0.0078125,0.9921874403953552,0.9922817520557764,0.17547607421875,-0.31280517578125,-0.4673004150390625,0.5890743658609183
1785165119.633069,0.0034179724752902985,-0.0068359412252902985,0.9877929091453552,0.9878224759470304,0.05340576171875,-0.06866455078125,-0.4062652587890625,0.4154737734414709
1785165119.643727,0.0039062537252902985,0.0009765587747097015,0.9926757216453552,0.9926838876648163,-0.12969970703125,-0.00762939453125,-0.1621246337890625,0.20776096492397983
1785165119.651742,-0.00390625,-0.00830078125,0.9853515028953552,0.9853942084346539,-0.1926422119140625,-0.6198883056640625,-0.4062652587890625,0.7657832551114896
1785165119.659757,0.00048828125,-0.00048828125,0.9902343153953552,0.9902345561651876,-0.37384033203125,-0.00762939453125,-0.2231597900390625,0.435448152372274
1785165119.667772,0.0043945349752902985,0.0170898400247097,0.9858397841453552,0.9859976950142834,-0.43487548828125,-0.25177001953125,0.2040863037109375,0.5423615513704992
1785165119.675787,-0.0029296875,0.00439453125,0.9990233778953552,0.9990373389194223,-0.5588531494140625,-0.2536773681640625,0.2651214599609375,0.6685495032235689
1785165119.686435,0.0170898474752903,0.009765621274709702,0.9916991591453552,0.9918944764919373,-0.12969970703125,-0.31280517578125,-0.1010894775390625,0.35339521002505314
1785165119.697083,-0.00927734375,-0.00048828125,0.9951171278953552,0.9951604924615605,-0.2536773681640625,-0.2536773681640625,-0.1621246337890625,0.39368618355046225
1785165119.707731,-0.00439453125,0.01123046875,0.9999999403953552,1.0000726554225778,0.05340576171875,-0.49591064453125,-0.1010894775390625,0.5089190753089142
1785165119.715833,0.0024414099752902985,0.0161132775247097,0.9853515028953552,0.9854862670039553,0.29754638671875,-0.31280517578125,0.1430511474609375,0.4548016721987877
1785165119.723935,-0.0014648400247097015,0.0014648400247097015,0.9902343153953552,0.9902364823107175,0.48065185546875,-0.74005126953125,-0.2231597900390625,0.9102210608366769
1785165119.732037,-0.004882805049419403,-0.0029296875,0.9819335341453552,0.9819500447238575,0.4177093505859375,-0.2536773681640625,-0.1621246337890625,0.5148958201100574
1785165119.740139,0.00341796875,-0.00146484375,0.9951171278953552,0.9951240759364074,0.48065185546875,0.05340576171875,-0.2231597900390625,0.5326149391826993
1785165119.750672,0.00146484375,-0.001953125,1.0126953125,1.0126982553672887,0.78582763671875,-0.31280517578125,0.0209808349609375,0.8460569413828909
1785165119.761205,-0.011230465024709702,-0.007812503725290298,0.9956054091453552,0.9956993970464274,0.96893310546875,-0.86212158203125,-0.2231597900390625,1.3160111234209457
1785165119.771738,0.007812503725290298,0.0019531212747097015,0.9897460341453552,0.989778794480681,1.15203857421875,-0.55694580078125,-0.1010894775390625,1.2835889466511305
1785165119.779735,-0.00244140625,0.00927734375,0.9770507216453552,0.9770978161060655,1.21307373046875,0.17547607421875,-0.3452301025390625,1.2733905731847261
1785165119.787735,0.0,0.0029296875,0.9873046278953552,0.9873089746034083,0.48065185546875,0.60272216796875,-0.2841949462890625,0.8216246012764864
1785165119.795735,-0.00048827752470970154,0.0024414025247097015,0.9926757216453552,0.9926788439396478,0.54168701171875,0.60272216796875,-0.1010894775390625,0.8166504226992477
1785165119.803735,-0.0053710900247097015,0.0009765587747097015,0.9926757216453552,0.9926907326147558,0.2956390380859375,0.8449554443359375,-0.2841949462890625,0.9392118564251428
1785165119.814438,-0.0019531212747097015,0.0024414025247097015,0.9985350966453552,0.9985399913681726,0.2346038818359375,0.5397796630859375,-0.0400543212890625,0.5899198375267491
1785165119.825141,-0.005371086299419403,0.00830078125,0.9843749403953552,0.9844245907207698,0.17547607421875,0.72479248046875,0.0209808349609375,0.7460269350384916
1785165119.835844,0.0029296912252902985,0.0053710900247097015,0.9897460341453552,0.9897649437140051,-0.19073486328125,0.41961669921875,-0.1621246337890625,0.488612688348751
1785165119.846473,0.00146484375,0.00439453125,0.9902343153953552,0.9902451499798557,-0.31280517578125,0.35858154296875,-0.2231597900390625,0.5255740602842445
1785165119.857102,-0.0068359337747097015,-0.0058593712747097015,0.9868163466453552,0.9868574183886916,-0.8640289306640625,0.2346038818359375,-0.4673004150390625,1.0099280431261695
1785165119.867731,-0.0073242150247097015,0.00048827752470970154,0.9926757216453552,0.9927028613259842,-0.92315673828125,0.23651123046875,-0.2231597900390625,0.9787523780110049
1785165119.875755,0.00244140625,-0.001953125,0.9853515028953552,0.9853564631238171,-0.86212158203125,0.29754638671875,-0.0400543212890625,0.912902964781787
1785165119.883779,0.0029296912252902985,0.0048828087747097015,0.9858397841453552,0.9858562293336521,-1.04522705078125,0.48065185546875,-0.2841949462890625,1.185028506554448
1785165119.891803,-0.0009765587747097015,0.0068359337747097015,0.9853515028953552,0.9853756988660457,-0.9212493896484375,0.5397796630859375,-0.4062652587890625,1.1424158538412055
1785165119.899827,0.013671878725290298,0.0019531212747097015,0.9946288466453552,0.9947247244990256,-0.80108642578125,0.17547607421875,-0.2841949462890625,0.8679274633806938
1785165119.910881,-0.012207027524709702,0.0053710900247097015,0.9799804091453552,0.980071151722027,-0.7419586181640625,0.2346038818359375,-0.4673004150390625,0.9076955713983051
1785165119.921935,-0.004882805049419403,-0.0009765625,0.9892577528953552,0.9892702851713654,-0.49591064453125,-0.43487548828125,-0.4673004150390625,0.808340111316354
1785165119.932989,-0.00341796875,-0.0029296875,0.9951171278953552,0.995127310352763,-0.31280517578125,-0.19073486328125,-0.3452301025390625,0.5033991356424715
1785165119.943559,0.00146484375,0.0029296875,1.00048828125,1.000493643035596,-0.00762939453125,-0.43487548828125,-0.2231597900390625,0.4888508871415163
1785165119.954131,-0.012207027524709702,0.0043945349752902985,0.9848632216453552,0.9849486731847026,0.2346038818359375,-0.8640289306640625,-0.1621246337890625,0.9098732720979398
1785165119.964703,-0.004882805049419403,-0.00146484375,0.9926757216453552,0.9926888112074645,0.17547607421875,-0.55694580078125,0.0820159912109375,0.5896669402683219
1785165119.972469,0.00146484375,0.00732421875,0.9897460341453552,0.9897742177153174,0.5435943603515625,-0.6198883056640625,0.1430511474609375,0.8367914739616898
1785165119.980233,-0.0014648400247097015,-0.0068359412252902985,0.9882811903953552,0.9883059177896255,0.7228851318359375,-0.3108978271484375,0.0820159912109375,0.7911681209258833
1785165119.987997,-0.00390625,-0.001953125,0.9863280653953552,0.9863377342841915,0.54168701171875,-0.19073486328125,-0.0400543212890625,0.5756812967168846
1785165119.995761,0.00244140625,0.0078125,0.9780272841453552,0.9780615339299807,0.1125335693359375,-0.1316070556640625,0.0820159912109375,0.19160074149742343
1785165120.006418,-0.00048827752470970154,0.0048828087747097015,0.9912108778953552,0.9912230246995639,0.4177093505859375,-0.2536773681640625,0.2651214599609375,0.5559880369372977
1785165120.017075,0.0009765625,0.00390625,0.9936522841453552,0.9936604421283262,0.4787445068359375,-0.6198883056640625,-0.0400543212890625,0.7842589897339874
1785165120.027732,0.008300784975290298,-0.009277347475290298,0.9926757216453552,0.9927537763975064,0.2346038818359375,-0.4940032958984375,0.3871917724609375,0.670071418874475
1785165120.038448,0.0048828125,0.00341796875,0.9863280653953552,0.9863460736246839,0.11444091796875,-0.67901611328125,-0.0400543212890625,0.689756445750986
1785165120.049165,0.012207034975290298,0.0019531212747097015,0.9965819716453552,0.996658643967003,0.05340576171875,-0.43487548828125,-0.2231597900390625,0.49170027209967454
1785165120.059882,0.013183597475290298,0.0024414025247097015,1.0009765625,1.0010663546254037,-0.1926422119140625,0.0514984130859375,-0.1010894775390625,0.22356697168999057
1785165120.067883,-0.0014648400247097015,0.012695308774709702,0.9941405653953552,0.9942227016045146,0.11444091796875,-0.06866455078125,-0.1621246337890625,0.20999033577943213
1785165120.075882,-0.00439453125,0.00634765625,0.9863280653953552,0.986358280358268,-0.2536773681640625,-0.0057220458984375,-0.1010894775390625,0.2731373855718579
1785165120.083881,0.0009765625,0.00634765625,0.9931640028953552,0.9931847678359298,0.05340576171875,0.23651123046875,0.1430511474609375,0.28151974764213783
1785165120.09188,0.009765625,0.00146484375,0.9916991591453552,0.9917483226345569,-0.19073486328125,-0.06866455078125,-0.2231597900390625,0.3014878115201118
1785165120.099873,0.007812503725290298,0.0068359337747097015,0.9858397841453552,0.9858944391813915,-0.00762939453125,-0.19073486328125,0.0820159912109375,0.20776096492397983
1785165120.107866,0.00244140625,-0.001953125,0.9760741591453552,0.9760791665193226,-0.0705718994140625,-0.2536773681640625,0.2040863037109375,0.33314234115156677
1785165120.115859,0.0,-0.0009765625,0.9843749403953552,0.9843754248012674,0.05340576171875,-0.00762939453125,0.0820159912109375,0.0981682528111097
1785165120.123852,-0.01416015625,0.00634765625,0.9985350966453552,0.998655667383629,-0.00762939453125,-0.25177001953125,-0.1010894775390625,0.27141376690359703
1785165120.134554,0.0019531287252902985,-3.725290298461914e-09,0.9902343153953552,0.9902362415597227,-0.06866455078125,-0.00762939453125,-0.1621246337890625,0.17623116942284062
1785165120.145256,0.007812503725290298,0.0068359337747097015,0.9829100966453552,0.9829649145785476,0.05340576171875,0.29754638671875,-0.3452301025390625,0.4588789070476823
1785165120.155958,-0.0029296875,-0.00244140625,0.9770507216453552,0.9770581641852416,0.17547607421875,0.54168701171875,-0.3452301025390625,0.6658832442606925
1785165120.166539,-0.0009765587747097015,0.0043945349752902985,1.0009765625,1.0009866853654976,0.48065185546875,0.17547607421875,-0.5893707275390625,0.7804972218199756
1785165120.17712,0.0068359412252902985,0.014648433774709702,0.9965819716453552,0.9967130644839723,0.48065185546875,-0.00762939453125,-0.5893707275390625,0.7605539220241977
1785165120.187701,-0.0053710900247097015,0.009765621274709702,0.9824218153953552,0.9824850326247418,0.35858154296875,-0.06866455078125,-0.2231597900390625,0.4278969915553495
1785165120.198384,-0.0009765587747097015,0.0014648400247097015,0.9863280653953552,0.9863296365870198,0.469207763671875,-0.057220458984375,0.3185272216796875,0.5699909625312716
1785165120.209066,0.005859375,0.01123046875,0.9750975966453552,0.9751798699149214,0.4100799560546875,-0.1811981201171875,0.2574920654296875,0.5170111148235245
1785165120.219748,-0.014648430049419403,0.00390625,0.9853515028953552,0.9854681220364819,0.5950927734375,0.186920166015625,0.2574920654296875,0.6748160647317838
1785165120.230404,0.007812503725290298,0.0063476525247097015,0.9907225966453552,0.9907737337105518,0.4100799560546875,0.1239776611328125,0.3185272216796875,0.5338498119965556
1785165120.241063,0.009765625,0.0009765625,0.9873046278953552,0.9873534065214657,0.225067138671875,0.370025634765625,0.3757476806640625,0.5733764093665443
1785165120.251722,0.00537109375,0.00146484375,0.9912108778953552,0.9912265123942983,0.1049041748046875,0.4291534423828125,-0.1087188720703125,0.45496962112289585
1785165120.259708,-0.0029296837747097015,-0.0043945349752902985,0.9975585341453552,0.9975725156753762,-0.0782012939453125,0.3719329833984375,-0.2307891845703125,0.4446495633968545
1785165120.267696,-0.00048827752470970154,0.0058593712747097015,0.9907225966453552,0.9907400436796684,-0.2613067626953125,0.2460479736328125,0.0095367431640625,0.35904286516973827
1785165120.275684,-0.0063476525247097015,-3.725290298461914e-09,0.9838866591453552,0.9839071352199774,-0.446319580078125,0.003814697265625,-0.2956390380859375,0.5353673134556504
1785165120.283672,0.009765625,0.0107421875,0.9946288466453552,0.9947347910890597,-0.507354736328125,0.064849853515625,-0.4787445068359375,0.7005787855774426
1785165120.294357,-0.0009765587747097015,-0.0024414099752902985,0.9956054091453552,0.9956088814736428,-0.5664825439453125,0.2460479736328125,-0.4138946533203125,0.7434721662380561
1785165120.305042,-0.0014648400247097015,0.00048827752470970154,0.9926757216453552,0.9926769225258366,-0.6885528564453125,-0.2422332763671875,0.0095367431640625,0.7299814694694371
1785165120.315727,0.00146484375,-0.00537109375,0.9868163466453552,0.9868320507673882,-0.507354736328125,-0.179290771484375,-0.4787445068359375,0.7202432311654366
1785165120.326398,-0.005371086299419403,-0.01171875,0.9975585341453552,0.997641822858198,-0.0782012939453125,-0.1163482666015625,-0.5359649658203125,0.5539953123472059
1785165120.33707,0.0019531287252902985,0.00048827752470970154,0.9833983778953552,0.983400438668793,-0.019073486328125,0.186920166015625,-0.0476837158203125,0.1938470611034645
1785165120.347742,0.0068359375,-0.0009765625,0.9931640028953552,0.9931880085678368,0.041961669921875,0.064849853515625,-0.2956390380859375,0.3055629658253906
1785165120.355729,-0.0058593712747097015,-0.008789066225290298,1.001953125,1.0020088046589775,-0.0782012939453125,0.0667572021484375,0.1354217529296875,0.17003240155910826
1785165120.363715,0.014160159975290298,-0.014160159975290298,0.9873046278953552,0.9875076954255281,-0.3833770751953125,0.2460479736328125,-0.2307891845703125,0.5106674405410583
1785165120.371701,0.0029296912252902985,0.0053710900247097015,0.9892577528953552,0.9892766717972767,-0.2002716064453125,0.1239776611328125,0.1354217529296875,0.2716951011238479
1785165120.379687,0.00048828125,0.00439453125,0.9980468153953552,0.9980566096391009,-0.0782012939453125,0.1239776611328125,-0.3528594970703125,0.3820938726378605
1785165120.390399,-0.0029296837747097015,0.0058593712747097015,0.9912108778953552,0.9912325255644285,-0.141143798828125,0.125885009765625,-0.1087188720703125,0.21814765819409268
1785165120.401111,0.0048828125,0.0087890625,0.9936522841453552,0.993703150475443,-0.1983642578125,-0.179290771484375,-0.1697540283203125,0.316717523430485
1785165120.411823,-0.00830078125,0.00927734375,0.9853515028953552,0.9854301377239034,-0.2613067626953125,0.1239776611328125,-0.1087188720703125,0.3089845915810493
1785165120.422486,-0.0058593712747097015,-0.00048827752470970154,0.9897460341453552,0.9897634983940026,-0.0782012939453125,-0.5474090576171875,-0.0476837158203125,0.5550187884121499
1785165120.43315,-0.001953125,0.0185546875,0.9956054091453552,0.9957802075985335,0.4100799560546875,-0.5474090576171875,-0.2956390380859375,0.7451340064441632
1785165120.443814,0.0039062537252902985,0.0058593712747097015,0.9887694716453552,0.988794548482007,0.5931854248046875,-0.3643035888671875,-0.0476837158203125,0.6977533875350679
1785165120.451809,0.005859375,0.00732421875,0.9877929091453552,0.987837439973568,0.469207763671875,-0.545501708984375,-0.0476837158203125,0.7211114870457052
1785165120.459803,0.009765625,0.01025390625,0.9990233778953552,0.999123725875064,0.713348388671875,-0.484466552734375,0.4978179931640625,0.9956889668249739
1785165120.467797,0.0234375037252903,0.008789066225290298,0.9995116591453552,0.9998250452121542,0.8373260498046875,-0.7305145263671875,0.2574920654296875,1.1406439193167361
1785165120.475791,0.0019531287252902985,0.009765621274709702,0.9916991591453552,0.9917491640129087,1.2035369873046875,-0.6694793701171875,0.0743865966796875,1.3792161805128795
1785165120.486436,0.0068359412252902985,0.0063476525247097015,0.9975585341453552,0.9976021510758886,1.018524169921875,-0.484466552734375,0.1354217529296875,1.1359746373048665
1785165120.497081,0.0029296912252902985,0.0043945349752902985,0.9833983778953552,0.9834125607676264,0.835418701171875,0.064849853515625,0.0743865966796875,0.8412272436947623
1785165120.507726,0.0,-0.001953125,0.9897460341453552,0.9897479612526233,0.5931854248046875,0.1239776611328125,0.1926422119140625,0.6358855482489145
1785165120.515714,-0.00390625,-0.009765625,1.0087890625,1.0088438922054948,0.4100799560546875,0.5550384521484375,0.0095367431640625,0.6901624469581963
1785165120.523702,0.012695316225290298,-0.00048827752470970154,0.9907225966453552,0.990804053772852,0.164031982421875,0.186920166015625,0.2574920654296875,0.35797737844702643
1785165120.53169,0.0034179724752902985,0.0068359337747097015,0.9814452528953552,0.9814750108674402,-0.019073486328125,0.492095947265625,0.3757476806640625,0.6194421189428309
1785165120.539678,-0.0043945275247097015,0.0048828087747097015,0.9829100966453552,0.982932048404709,-0.3814697265625,0.675201416015625,0.3185272216796875,0.8383768218552767
1785165120.550367,0.00048828125,0.0068359375,0.9921874403953552,0.9922111092597027,-0.3814697265625,0.858306884765625,0.4405975341796875,1.0374661670844796
1785165120.561056,0.00244140625,0.01806640625,0.9995116591453552,0.9996779042605515,-0.7495880126953125,0.4291534423828125,0.4405975341796875,0.9696293379486549
1785165120.571745,-0.0004882737994194031,0.01318359375,0.9770507216453552,0.9771397843825507,-0.934600830078125,0.675201416015625,0.2574920654296875,1.1813880935287404
1785165120.580364,0.0073242224752902985,0.0195312462747097,0.9892577528953552,0.989477647791742,-0.8716583251953125,0.9174346923828125,-0.1697540283203125,1.2768285244310673
1785165120.588982,0.0014648474752902985,0.0058593712747097015,0.9736327528953552,0.9736514856561606,-1.1749267578125,0.675201416015625,0.0095367431640625,1.3551534185779393
1785165120.5976,-0.010742183774709702,-0.007812503725290298,0.9838866591453552,0.9839763146391867,-1.117706298828125,0.980377197265625,-0.3528594970703125,1.5280434038440078
1785165120.606218,-0.011230465024709702,0.0019531212747097015,0.9995116591453552,0.9995766577881287,-0.9326934814453125,0.5550384521484375,-0.0476837158203125,1.086397050091882
1785165120.615349,0.00048828125,-0.001953125,1.00439453125,1.0043965489390891,-0.812530517578125,0.492095947265625,-0.1697540283203125,0.9649770429611276
1785165120.62448,-0.0053710900247097015,-0.0034179724752902985,0.9921874403953552,0.9922078653297312,-0.263214111328125,0.370025634765625,-0.2307891845703125,0.5093763701827835
1785165120.633611,-0.0126953125,0.00830078125,0.9858397841453552,0.9859564665504221,0.1068115234375,0.186920166015625,-0.2956390380859375,0.36571886858996877
1785165120.642742,-0.011230465024709702,-0.0043945349752902985,0.9863280653953552,0.9864017882530751,0.347137451171875,-0.301361083984375,-0.4787445068359375,0.6637162162942295
1785165120.651873,-0.0034179650247097015,-0.0039062537252902985,0.9853515028953552,0.9853651737103416,0.6542205810546875,-0.7305145263671875,-0.1087188720703125,0.9866487901240493
1785165120.662527,-0.00048827752470970154,-0.0029296912252902985,1.0029296875,1.0029340853587858,0.469207763671875,-0.606536865234375,-0.2956390380859375,0.8218548139535856
1785165120.673181,-0.005371086299419403,-0.00048828125,0.9975585341453552,0.9975731131264739,0.530242919921875,-0.423431396484375,-0.1697540283203125,0.6994770416439394
1785165120.683835,0.00537109375,0.00341796875,0.9887694716453552,0.9887899671903443,0.530242919921875,-0.606536865234375,0.0095367431640625,0.8056894392294066
1785165120.691811,0.0,0.00146484375,0.9848632216453552,0.9848643110179595,0.652313232421875,-0.606536865234375,-0.0476837158203125,0.8920051899150867
1785165120.699785,0.0063476599752902985,-0.008789066225290298,0.9965819716453552,0.9966409417040913,0.530242919921875,-0.301361083984375,0.1354217529296875,0.624752037398889
1785165120.707759,0.0014648474752902985,0.00048827752470970154,0.9746093153953552,0.9746105385478191,0.5931854248046875,-0.1163482666015625,0.0743865966796875,0.6090478085565142
1785165120.715733,0.00732421875,0.00390625,0.9926757216453552,0.9927104267174225,0.5931854248046875,0.0019073486328125,0.2574920654296875,0.6466643255497949
1785165120.72642,-0.0019531212747097015,-3.725290298461914e-09,0.9916991591453552,0.9917010824499075,0.164031982421875,-0.667572021484375,0.1354217529296875,0.7006410966340287
1785165120.737107,0.01513671875,-0.001953125,0.9868163466453552,0.986934363044609,0.2269744873046875,-0.5474090576171875,0.1926422119140625,0.6231252811912751
1785165120.747794,-0.010253902524709702,0.0019531212747097015,0.9975585341453552,0.9976131445835754,-0.019073486328125,-0.545501708984375,-0.0476837158203125,0.5479139066860917
1785165120.758438,-0.0034179650247097015,-3.725290298461914e-09,0.9780272841453552,0.978033256601047,-0.2613067626953125,-0.6046295166015625,-0.4787445068359375,0.8142815111506146
1785165120.769081,0.01123046875,-0.00146484375,0.9990233778953552,0.999087573127102,-0.3814697265625,-0.301361083984375,-0.6580352783203125,0.8181369584232198
1785165120.779724,-0.00439453125,0.00390625,0.9892577528953552,0.9892752257878176,-0.141143798828125,-0.179290771484375,-0.5359649658203125,0.5825162635273502
1785165120.787734,0.005859375,0.01123046875,1.00390625,1.003986162500658,0.1049041748046875,0.0019073486328125,-0.8411407470703125,0.8476592949129166
1785165120.795742,0.00048828125,-0.0048828125,1.0009765625,1.0009885908194986,-0.019073486328125,0.003814697265625,-0.6580352783203125,0.6583226999808138
1785165120.80375,0.009765621274709702,0.009765621274709702,0.9887694716453552,0.9888659174911415,0.164031982421875,0.064849853515625,-0.5359649658203125,0.5642432448377358
1785165120.811758,0.003906257450580597,0.00341796875,0.9824218153953552,0.9824355270053865,0.347137451171875,0.370025634765625,-0.4787445068359375,0.6975813093936754
1785165120.822486,-0.00341796875,0.01220703125,0.9892577528953552,0.9893389691030482,0.2880096435546875,0.3070831298828125,-0.7190704345703125,0.8332537988585834
1785165120.833214,0.00146484375,0.0126953125,0.9985350966453552,0.998616871457334,-0.019073486328125,0.308990478515625,-0.5970001220703125,0.6724939103411957
1785165120.843942,-0.005371086299419403,0.00390625,0.9843749403953552,0.984397343878709,-0.263214111328125,0.186920166015625,-0.4138946533203125,0.5249091358632512
1785165120.851889,-0.0034179650247097015,0.015624996274709702,0.9843749403953552,0.9845048736658717,-0.1392364501953125,0.2460479736328125,-0.4138946533203125,0.5012336565305113
1785165120.859834,-0.0004882737994194031,0.0029296875,0.9921874403953552,0.9921918858559756,-0.1983642578125,0.370025634765625,-0.2956390380859375,0.5134878674336776
1785165120.867779,0.0,0.00341796875,0.9960936903953552,0.9960995545405157,-0.3833770751953125,0.4901885986328125,-0.2956390380859375,0.688959566923409
1785165120.875724,0.00732421875,0.00341796875,0.9819335341453552,0.9819667978958664,-0.324249267578125,0.614166259765625,-0.3528594970703125,0.7790042405739275
1785165120.886446,0.0063476599752902985,0.010742183774709702,0.9926757216453552,0.9927541365532245,-0.1983642578125,0.553131103515625,-0.1087188720703125,0.5975970127085292
1785165120.897168,0.0,-0.0078125,0.9980468153953552,0.998077392228208,-0.2002716064453125,0.4291534423828125,-0.1087188720703125,0.48590244556026374
1785165120.90789,-0.00048827752470970154,0.0019531212747097015,0.9999999403953552,1.00000196694225,0.041961669921875,0.553131103515625,0.2574920654296875,0.6115692627808332
1785165120.915839,0.014160159975290298,0.012207027524709702,1.00244140625,1.0026157262959685,0.164031982421875,0.064849853515625,-0.0476837158203125,0.1827176278104569
1785165120.923788,0.011230472475290298,-0.013671878725290298,0.9970702528953552,0.9972272223463943,0.2269744873046875,0.0667572021484375,-0.1697540283203125,0.29118786385577017
1785165120.931737,-0.0034179650247097015,0.010742183774709702,1.001953125,1.0020165376351957,0.041961669921875,0.553131103515625,-0.2307891845703125,0.6008148193359375
1785165120.939686,0.0034179724752902985,-0.0043945349752902985,0.9882811903953552,0.9882968712703442,-0.019073486328125,0.492095947265625,-0.2956390380859375,0.574390685889265
1785165120.95037,0.0039062537252902985,0.0068359337747097015,0.9941405653953552,0.9941717419909576,-0.019073486328125,0.186920166015625,-0.4787445068359375,0.5142949048645173
1785165120.961054,-0.0024414025247097015,0.0019531212747097015,0.9902343153953552,0.9902392511486854,-0.141143798828125,0.186920166015625,-0.4138946533203125,0.4755728171984651
1785165120.971738,-0.0073242150247097015,0.0024414025247097015,0.9995116591453552,0.9995414755474215,-0.141143798828125,0.370025634765625,-0.1087188720703125,0.4106827674441416
1785165120.982432,-0.0029296837747097015,-0.013183597475290298,0.9897460341453552,0.9898381698014423,-0.3814697265625,0.003814697265625,-0.3528594970703125,0.5196571262588542
1785165120.993126,-0.0043945275247097015,0.015136715024709702,0.9902343153953552,0.9903597484754783,0.041961669921875,0.003814697265625,-0.3528594970703125,0.3553662312749688
1785165121.00382,-0.010742183774709702,0.0024414025247097015,0.9946288466453552,0.9946898499218774,-0.324249267578125,0.186920166015625,-0.2956390380859375,0.47694777159416285
1785165121.011836,-0.01708984375,0.00830078125,0.9965819716453552,0.996763057068882,0.164031982421875,0.186920166015625,-0.1087188720703125,0.27141376690359703
1785165121.019854,0.005859375,0.01123046875,0.9853515028953552,0.9854329200721227,0.2899169921875,0.003814697265625,-0.1697540283203125,0.33598042265175027
1785165121.027872,-0.0087890625,0.01220703125,0.9975585341453552,0.9976719341936994,0.2880096435546875,-0.1811981201171875,0.0095367431640625,0.3404016201264003
1785165121.03589,-0.0053710900247097015,-0.0034179724752902985,0.9946288466453552,0.994649221445915,0.2269744873046875,-0.4215240478515625,-0.4138946533203125,0.6328575865481378
1785165121.046508,-0.00439453125,0.00341796875,0.9868163466453552,0.9868320507673882,0.408172607421875,-0.301361083984375,0.0743865966796875,0.5127930831781919
1785165121.057126,-0.0014648400247097015,-0.0048828087747097015,0.9907225966453552,0.9907357120249293,0.1049041748046875,-0.4215240478515625,0.0743865966796875,0.44070486107394513
1785165121.067744,-0.0029296875,0.00927734375,0.9916991591453552,0.9917468802196999,-0.0782012939453125,-0.4215240478515625,0.2574920654296875,0.5001001190273143
1785165121.078394,0.005859375,0.0068359375,1.0009765625,1.0010170532969012,-0.324249267578125,-0.057220458984375,0.1354217529296875,0.3560208134616323
1785165121.089044,0.009277351200580597,0.00390625,0.9956054091453552,0.9956562954925016,-0.0782012939453125,0.0667572021484375,0.2574920654296875,0.2772618440619895
1785165121.099694,-0.009277340024709702,0.010253902524709702,0.9916991591453552,0.9917955604884128,0.1049041748046875,0.3719329833984375,0.1354217529296875,0.40948514160792715
1785165121.110384,0.01220703125,0.00732421875,0.9843749403953552,0.9844778712955388,0.164031982421875,0.064849853515625,0.1354217529296875,0.22237591129616008
1785165121.121076,0.01220703125,-0.0009765625,0.9887694716453552,0.9888453030399091,0.2899169921875,-0.118255615234375,-0.0476837158203125,0.316717523430485
1785165121.131768,0.00048828125,0.0009765625,0.9921874403953552,0.9921880411349363,0.041961669921875,0.003814697265625,-0.1087188720703125,0.11659814236128177
1785165121.142497,-0.00341796875,0.0029296875,0.9887694716453552,0.988779719470954,-0.019073486328125,0.125885009765625,-0.1697540283203125,0.21219628577186295
1785165121.153224,0.0068359375,0.0029296875,0.9843749403953552,0.9844030355442382,-0.2613067626953125,0.3070831298828125,-0.1087188720703125,0.41761353669771006
1785165121.163951,-0.0068359375,-0.0068359375,0.9897460341453552,0.9897932471933047,-0.3833770751953125,0.0667572021484375,-0.1087188720703125,0.4040473969328854
1785165121.172201,-0.010742180049419403,-0.0068359375,0.9941405653953552,0.9942221020668945,-0.507354736328125,-0.057220458984375,0.0743865966796875,0.515961602414899
1785165121.18045,-0.010742183774709702,0.012695308774709702,1.00146484375,1.0016029146544787,-0.507354736328125,-0.057220458984375,-0.2307891845703125,0.5603094297935682
1785165121.188699,-0.011230465024709702,0.0068359337747097015,0.9799804091453552,0.9800685974175182,-0.507354736328125,0.003814697265625,0.0743865966796875,0.5127930831781919
1785165121.196948,-0.0063476525247097015,0.0043945349752902985,0.9931640028953552,0.9931940098879718,-0.4444122314453125,-0.5474090576171875,0.0095367431640625,0.7051594552225168
1785165121.207281,0.0048828125,-0.00048828125,0.9882811903953552,0.9882933732276816,-0.0782012939453125,-0.1163482666015625,-0.1087188720703125,0.17740393079114794
1785165121.217614,-0.010742180049419403,0.00390625,0.9907225966453552,0.9907885327984937,-0.3833770751953125,-0.1811981201171875,0.0743865966796875,0.4305160929453178
1785165121.227947,-0.012695308774709702,-0.0039062537252902985,0.9912108778953552,0.9912998709478037,0.1068115234375,-0.301361083984375,0.2574920654296875,0.41052328586637277
1785165121.23857,-0.0014648400247097015,-0.0063476525247097015,0.9882811903953552,0.9883026609992168,-0.1983642578125,-0.179290771484375,0.3757476806640625,0.46117228780726693
1785165121.249193,0.0039062537252902985,-0.0039062537252902985,0.9848632216453552,0.984878714860871,0.041961669921875,-0.301361083984375,0.3185272216796875,0.44049843999025773
1785165121.259816,0.00634765625,-0.0146484375,0.9995116591453552,0.9996391480071998,0.347137451171875,-0.484466552734375,0.3185272216796875,0.675774993378281
1785165121.267812,0.0,-0.00439453125,0.9907225966453552,0.9907323429709067,0.957489013671875,-0.728607177734375,0.4405975341796875,1.281319561184333
1785165121.275809,-0.0029296875,0.01806640625,0.9868163466453552,0.9869860587212586,0.713348388671875,-0.118255615234375,0.0743865966796875,0.7269000480952024
1785165121.283806,0.01611328125,0.00634765625,0.9892577528953552,0.9894093350257402,0.8983612060546875,0.4901885986328125,-0.2307891845703125,1.0490954992221933
1785165121.291803,0.01025390625,-0.005859375,0.9907225966453552,0.9907929846201423,0.4100799560546875,0.4901885986328125,0.0095367431640625,0.6391724196627951
1785165121.302455,0.0029296912252902985,-0.0024414099752902985,1.0009765625,1.0009838271658835,0.2880096435546875,-0.0591278076171875,-0.1087188720703125,0.31347319751193126
1785165121.313107,-0.011718746274709702,-0.0053710900247097015,0.9995116591453552,0.9995947850953432,0.1049041748046875,0.0667572021484375,-0.1697540283203125,0.2104230026900891
1785165121.323759,0.008300784975290298,0.0024414025247097015,0.9931640028953552,0.9932016915635106,0.2269744873046875,0.2460479736328125,-0.2307891845703125,0.4065964472676424
1785165121.334437,0.0063476599752902985,0.015624996274709702,0.9926757216453552,0.9928189772762572,-0.019073486328125,0.247955322265625,-0.2307891845703125,0.3392775964239149
1785165121.345114,-0.0039062462747097015,0.00048827752470970154,0.9794921278953552,0.9795000386849766,-0.3223419189453125,0.2460479736328125,-0.0476837158203125,0.40831073313420496
1785165121.355791,-0.0029296875,0.00390625,0.9912108778953552,0.9912229044548915,-0.4444122314453125,0.1239776611328125,0.0095367431640625,0.46147983855022506
1785165121.363779,-0.0024414025247097015,-0.0053710900247097015,0.9873046278953552,0.9873222560633013,-0.7495880126953125,0.1239776611328125,0.0095367431640625,0.7598312962142635
1785165121.371767,-0.00048827752470970154,0.0068359337747097015,0.9863280653953552,0.9863518748357796,-1.2378692626953125,0.3070831298828125,0.0095367431640625,1.2754259326415776
1785165121.379755,-0.0019531212747097015,0.014648433774709702,0.9926757216453552,0.9927857168789711,-1.2378692626953125,0.3070831298828125,0.1926422119140625,1.289857116891481
1785165121.387743,-0.0029296837747097015,-0.0048828087747097015,0.9960936903953552,0.9961099662758063,-1.0528564453125,0.675201416015625,-0.1087188720703125,1.255477375252067
1785165121.398391,0.00537109375,-0.00048828125,1.0087890625,1.0088034792199516,-0.5664825439453125,0.5550384521484375,0.0095367431640625,0.7931337248082845
1785165121.409039,0.00048828125,-0.005859375,0.9858397841453552,0.985857317616363,-0.5664825439453125,0.3719329833984375,-0.0476837158203125,0.6793455332074008
1785165121.419687,-0.0014648400247097015,-0.0073242224752902985,1.00439453125,1.0044223038125313,-0.2613067626953125,0.4291534423828125,0.2574920654296875,0.5645848608478347
1785165121.430388,0.004394538700580597,-0.005859375,0.9970702528953552,0.9970971534683013,-0.141143798828125,0.186920166015625,0.1354217529296875,0.2705545630321033
1785165121.441089,-0.00341796875,-0.0068359375,0.9882811903953552,0.9883107425507123,-0.019073486328125,0.125885009765625,0.0743865966796875,0.14745914461296447
1785165121.45179,-0.0009765587747097015,0.0014648400247097015,0.9946288466453552,0.9946304047244926,-0.019073486328125,0.186920166015625,0.1926422119140625,0.2690984358095761
1785165121.459785,-0.0195312462747097,-0.0034179724752902985,0.9902343153953552,0.9904328101912785,0.5931854248046875,0.0667572021484375,0.4405975341796875,0.7419242949011886
1785165121.467779,0.0009765625,-0.0068359375,0.9990233778953552,0.9990472427754685,0.5321502685546875,0.1239776611328125,0.2574920654296875,0.604033552496908
1785165121.475773,-0.01220703125,0.00341796875,0.9848632216453552,0.984944800215719,0.713348388671875,0.003814697265625,0.4978179931640625,0.869886906358455
1785165121.483767,0.0034179724752902985,0.0053710900247097015,1.00244140625,1.002461622262106,0.7152557373046875,-0.1811981201171875,0.3757476806640625,0.8280156085519748
1785165121.494398,-0.012207027524709702,0.010253902524709702,0.9926757216453552,0.9928037280258883,0.5931854248046875,0.0667572021484375,0.5626678466796875,0.8203173641503398
1785165121.505029,0.005859375,0.00732421875,0.9882811903953552,0.9883256992231604,0.2880096435546875,0.1239776611328125,0.0743865966796875,0.32226290665549323
1785165121.51566,0.0068359375,0.01318359375,0.9877929091453552,0.9879045341243824,0.041961669921875,0.003814697265625,0.0095367431640625,0.043200499164223194
1785165121.526348,0.0029296912252902985,-0.0024414099752902985,0.9985350966453552,0.9985423790735634,0.1659393310546875,-0.7305145263671875,0.1926422119140625,0.7734974832767693
1785165121.537034,-0.0073242150247097015,0.010742183774709702,0.9838866591453552,0.9839725589070999,0.4100799560546875,-0.1811981201171875,0.3185272216796875,0.5499617441629898
1785165121.54772,-0.00390625,0.01611328125,0.9902343153953552,0.9903731094936958,-0.6866455078125,-0.179290771484375,0.4405975341796875,0.8353163599881002
1785165121.555723,-0.00732421875,-0.02099609375,0.9965819716453552,0.9968300288121342,0.1049041748046875,-0.1163482666015625,0.6237030029296875,0.6430763880723273
1785165121.563726,0.0014648474752902985,0.011230465024709702,0.9819335341453552,0.9819988465380113,0.2269744873046875,0.1239776611328125,0.9860992431640625,1.0194506342711869
1785165121.571729,-0.0014648400247097015,0.0190429724752903,0.9814452528953552,0.9816310737684604,-0.446319580078125,-0.484466552734375,0.7457733154296875,0.9950310780505456
1785165121.579732,0.0014648474752902985,-0.0043945349752902985,1.02294921875,1.02295970685898,-0.507354736328125,-0.667572021484375,0.2574920654296875,0.8771336249982454
1785165121.590403,0.0009765625,-0.0185546875,1.009765625,1.0099365561926055,-0.2613067626953125,-0.2422332763671875,-0.5359649658203125,0.6435966353211111
1785165121.601074,-0.02197265625,0.00390625,0.9433593153953552,0.9436232586975252,0.469207763671875,0.675201416015625,-0.1697540283203125,0.8395649515138425
1785165121.611745,-0.0078125,0.0478515625,0.9663085341453552,0.9675241549191868,-1.1749267578125,0.308990478515625,0.3185272216796875,1.2559409193859752
1785165121.62243,0.0063476599752902985,-0.009277347475290298,1.0458984375,1.0459588440891356,-1.972198486328125,-0.606536865234375,0.1354217529296875,2.067799044764708
1785165121.633116,-0.01708984375,-0.05615234375,1.013671875,1.0153697940327127,0.164031982421875,-0.057220458984375,0.1354217529296875,0.22027193046364799
1785165121.643802,-0.0058593712747097015,0.0483398400247097,0.9458007216453552,0.9470533656717683,1.0204315185546875,0.9174346923828125,1.4171600341796875,1.9726402260228662
1785165121.654435,0.0166015625,-0.06005859375,1.01611328125,1.018022026723052,-0.2613067626953125,-0.8525848388671875,0.4405975341796875,0.9946397935040169
1785165121.665069,-0.019531242549419403,0.01171875,0.9785155653953552,0.9787806241738127,1.506805419921875,0.553131103515625,0.4978179931640625,1.6805473350965887
1785165121.675703,0.013183597475290298,0.0239257849752903,0.9887694716453552,0.9891467628653037,0.0438690185546875,0.6122589111328125,0.3185272216796875,0.6915526415259141
1785165121.683796,0.0068359412252902985,-0.0341796837747097,0.9980468153953552,0.9986553092014206,-0.446319580078125,0.003814697265625,-0.3528594970703125,0.5689688428631713
1785165121.69189,-0.004882805049419403,-0.005859375,0.9975585341453552,0.9975876919382932,0.347137451171875,0.553131103515625,-0.2307891845703125,0.6926197191801203
1785165121.699984,0.012207034975290298,0.015624996274709702,0.9790038466453552,0.979204618023156,0.1049041748046875,0.1239776611328125,-0.9670257568359375,0.980568284585797
1785165121.708078,0.00146484375,-0.00048828125,1.0009765625,1.0009777534291695,-0.141143798828125,-0.179290771484375,-1.2722015380859375,1.292502807035761
1785165121.718615,-0.0078125,-0.0068359375,0.9965819716453552,0.9966360375815725,0.041961669921875,0.370025634765625,-1.7604827880859375,1.7994386344838693
1785165121.729152,-0.0166015587747097,0.0224609337747097,0.9882811903953552,0.9886757894219128,0.2880096435546875,0.7953643798828125,-1.5125274658203125,1.7330012655585931
1785165121.739689,0.0009765625,0.0078125,1.00048828125,1.0005192600590682,-0.0782012939453125,0.2460479736328125,-1.2073516845703125,1.2346469689503579
1785165121.747719,-0.00048827752470970154,0.010742183774709702,0.9980468153953552,0.9981047433250686,0.469207763671875,0.675201416015625,0.0743865966796875,0.8255823662391619
1785165121.755751,-0.0029296875,-0.0009765625,0.9863280653953552,0.9863328998516212,0.5931854248046875,0.0019073486328125,0.5626678466796875,0.8175987352403873
1785165121.763783,-0.0014648400247097015,0.0053710900247097015,1.0068359375,1.006851329346024,0.225067138671875,-0.118255615234375,0.1354217529296875,0.2880601649151699
1785165121.771815,-0.0019531212747097015,-0.0322265662252903,0.9912108778953552,0.9917365429948961,0.4100799560546875,-0.1163482666015625,0.3185272216796875,0.5321297590343764
1785165121.782562,-0.0019531212747097015,0.012695308774709702,0.9877929091453552,0.98787641783041,0.041961669921875,0.308990478515625,-0.0476837158203125,0.3154514769507026
1785165121.793309,0.01025390625,-0.015625,1.00830078125,1.0084739702579062,-0.629425048828125,0.186920166015625,-0.0476837158203125,0.6583226999808138
1785165121.804056,-0.020019523799419403,-0.01025390625,0.9658202528953552,0.9660821315133549,0.530242919921875,-0.118255615234375,-0.1697540283203125,0.5691734136383304
1785165121.812029,0.00537109375,0.04736328125,0.9887694716453552,0.9899177729067565,-0.995635986328125,0.370025634765625,0.3757476806640625,1.1266748897440222
1785165121.820001,0.009765625,-0.02734375,1.0517578125,1.0521585166934155,-1.117706298828125,-0.789642333984375,-0.4787445068359375,1.4498271237930205
1785165121.827973,-0.0205078087747097,-0.0449218712747097,0.9653319716453552,0.966594206593579,1.3866424560546875,-0.4215240478515625,-0.4787445068359375,1.5263211086387187
1785165121.835945,-0.0068359337747097015,0.0693359375,0.9624022841453552,0.9649209080270638,0.713348388671875,0.492095947265625,0.4978179931640625,0.9994233833835927
1785165121.846639,0.017578125,-0.0205078125,1.03369140625,1.0340442370649108,-1.9092559814453125,-0.9098052978515625,-0.2307891845703125,2.127502698094201
1785165121.857333,-0.0161132775247097,-0.0581054650247097,0.9980468153953552,0.9998666553591715,0.7152557373046875,-0.6694793701171875,-1.0852813720703125,1.4620632863602718
1785165121.868027,-0.0224609337747097,0.0634765625,0.9418944716453552,0.9442981326090458,1.3866424560546875,1.2226104736328125,0.1926422119140625,1.8586728310762948
1785165121.875945,0.0009765662252902985,-0.072265625,1.0126953125,1.0152709343804271,-0.141143798828125,-0.850677490234375,-0.6580352783203125,1.0847046565094023
1785165121.883862,-0.029785148799419403,0.01806640625,0.9677733778953552,0.9684001554557804,1.323699951171875,1.163482666015625,0.3757476806640625,1.8019599868963996
1785165121.891779,0.0161132849752903,0.0439453087747097,1.009765625,1.0108498630101506,-0.995635986328125,0.125885009765625,1.3523101806640625,1.6840073864692338
1785165121.899696,0.0029296912252902985,-0.0517578162252903,1.01123046875,1.0125584010611097,-0.446319580078125,-1.583099365234375,0.1926422119140625,1.6560542834030947
1785165121.910395,-0.006347648799419403,-0.00146484375,0.9858397841453552,0.9858613079009914,0.957489013671875,-0.301361083984375,0.6237030029296875,1.1817821923290635
1785165121.921094,0.009765625,0.0302734375,0.9829100966453552,0.9834246826966916,0.4100799560546875,-0.2422332763671875,0.9860992431640625,1.0950955428208689
1785165121.931793,0.009277347475290298,-0.0053710900247097015,1.00341796875,1.003475230284538,-0.1983642578125,-0.972747802734375,0.4405975341796875,1.0861458712471725
1785165121.942473,-0.0068359337747097015,-0.0053710900247097015,1.01171875,1.0117561008959561,0.2880096435546875,-0.2422332763671875,0.0095367431640625,0.3764538011898109
1785165121.953151,-0.0058593712747097015,0.0078124962747097015,0.9711913466453552,0.9712404435198299,0.896453857421875,0.675201416015625,-0.1087188720703125,1.1275399167303592
1785165121.963829,0.012695316225290298,0.0214843712747097,0.9897460341453552,0.9900605846965065,-0.019073486328125,0.003814697265625,0.0095367431640625,0.021663316138459295
1785165121.974464,-0.0029296875,-0.0166015625,0.9985350966453552,0.9986773924440454,1.323699951171875,-0.179290771484375,-0.7839202880859375,1.5488246380867738
1785165121.985099,-0.0087890625,0.02880859375,0.9614257216453552,0.9618973962615626,0.957489013671875,0.431060791015625,-0.3528594970703125,1.1077492683482442
1785165121.995734,-0.01171875,0.00341796875,0.9985350966453552,0.9986097089676664,-0.324249267578125,0.064849853515625,0.3185272216796875,0.4591325320394203
1785165122.006403,-0.0019531212747097015,-0.0346679650247097,1.01806640625,1.0186583774830786,0.164031982421875,-0.179290771484375,0.3757476806640625,0.44747959899992645
1785165122.017073,0.001953125,0.00341796875,0.9863280653953552,0.9863359213747545,1.323699951171875,0.125885009765625,0.4978179931640625,1.4198068004957611
1785165122.027743,0.01220703125,0.02294921875,0.9921874403953552,0.9925278812866973,0.5931854248046875,-0.3643035888671875,0.8068084716796875,1.0656106057262866
1785165122.038447,-0.01318359375,0.01220703125,0.9721679091453552,0.9723339253199773,0.469207763671875,0.492095947265625,0.0095367431640625,0.6800038943089901
1785165122.049152,-0.0029296837747097015,-3.725290298461914e-09,0.9936522841453552,0.9936566030748759,-0.0782012939453125,0.7953643798828125,0.3185272216796875,0.8603368701340613
1785165122.059857,-0.0009765587747097015,-3.725290298461914e-09,0.9790038466453552,0.9790043337051387,-0.1983642578125,0.492095947265625,0.2574920654296875,0.5897533076227748
1785165122.067842,-0.0014648400247097015,0.0019531212747097015,1.01513671875,1.0151396545271631,-0.3833770751953125,0.3070831298828125,0.1926422119140625,0.5276258638989176
1785165122.075825,-0.0200195275247097,-0.0234375037252903,0.9814452528953552,0.9819291636844347,0.1068115234375,0.186920166015625,0.0095367431640625,0.21549663448074013
1785165122.083808,0.0019531287252902985,0.0405273400247097,0.9633788466453552,0.9642328983005252,0.164031982421875,0.553131103515625,0.8640289306640625,1.0389448984225038
1785165122.091791,0.0205078125,-0.00146484375,1.02490234375,1.025108545650162,-1.300811767578125,-0.423431396484375,0.9860992431640625,1.6863561662849194
1785165122.102432,0.0048828125,-0.05126953125,1.00146484375,1.0027882328586215,0.2269744873046875,-1.3408660888671875,-0.1087188720703125,1.3642796924771163
1785165122.113073,-0.0063476525247097015,0.0449218712747097,0.9394530653953552,0.9405478878250302,1.323699951171875,-0.118255615234375,0.1354217529296875,1.3358536605607045
1785165122.123714,0.0185546912252903,0.0380859337747097,1.01025390625,1.0111418149850897,-0.934600830078125,0.003814697265625,0.3185272216796875,0.9873970095401998
1785165122.134392,-0.02880859375,0.0087890625,0.9589843153953552,0.9594571902215229,1.445770263671875,0.308990478515625,-0.4787445068359375,1.5540022760461913
1785165122.145071,-0.0053710900247097015,0.0493164025247097,1.00390625,1.005131192907222,-0.0782012939453125,0.3719329833984375,0.1926422119140625,0.42609929397445157
1785165122.15575,0.00537109375,-0.03955078125,1.005859375,1.0066509798440308,-0.141143798828125,-0.362396240234375,-0.5359649658203125,0.6622016697883009
1785165122.163746,-0.02880859375,0.00634765625,0.9682616591453552,0.9687109312816888,1.323699951171875,0.980377197265625,-0.4787445068359375,1.7153767261089943
1785165122.171742,-0.008789058774709702,0.0346679650247097,0.9965819716453552,0.9972235163500925,-0.0171661376953125,1.2226104736328125,0.4978179931640625,1.3201870325214982
1785165122.179738,0.00537109375,-0.0185546875,1.01171875,1.0119031347801313,-0.3814697265625,-0.484466552734375,-0.0476837158203125,0.6184664338154737
1785165122.187734,-0.005859367549419403,-0.00634765625,0.9667968153953552,0.9668354085295738,1.140594482421875,0.064849853515625,-0.1697540283203125,1.1549795266424407
1785165122.198402,0.0009765662252902985,0.0488281212747097,0.9702147841453552,0.9714431874705943,0.469207763671875,0.492095947265625,0.2574920654296875,0.7270601835917446
1785165122.20907,0.0146484375,-0.00244140625,1.017578125,1.0176864829917829,-0.751495361328125,0.186920166015625,-0.5359649658203125,0.94177644435809
1785165122.219738,-0.008300777524709702,-0.013671878725290298,1.00048828125,1.000616122243677,0.7152557373046875,0.4291534423828125,-0.6580352783203125,1.0624377037597927
1785165122.230432,0.00537109375,0.00927734375,1.02197265625,1.0220288782014957,-1.0547637939453125,-0.2422332763671875,0.0743865966796875,1.0847750858878897
1785165122.241126,-0.013671875,-0.048828125,0.9770507216453552,0.9783655853640503,0.164031982421875,-0.484466552734375,-0.7190704345703125,0.8824265532318921
1785165122.25182,-0.0322265625,0.04248046875,0.9570311903953552,0.9585154359452626,0.164031982421875,1.346588134765625,0.4978179931640625,1.4450013322716038
1785165122.25982,0.012207034975290298,0.011718746274709702,1.02978515625,1.0299241762139464,-1.9092559814453125,0.4291534423828125,0.8068084716796875,2.1166886851324724
1785165122.267822,0.00537109375,-0.02880859375,0.9990233778953552,0.999453097100294,-0.1983642578125,-0.789642333984375,0.0743865966796875,0.8175675875200665
1785165122.275824,-0.01318359375,0.01904296875,0.9746093153953552,0.9748844851870305,0.408172607421875,0.186920166015625,0.3757476806640625,0.5854317598467845
1785165122.283826,-0.0009765550494194031,0.0234375,0.9760741591453552,0.9763559976859499,-0.812530517578125,-0.362396240234375,-0.1087188720703125,0.896301662430695
1785165122.29444,-0.0029296875,-0.017578125,0.9931640028953552,0.9933238697396174,-0.8716583251953125,-1.0929107666015625,-0.7190704345703125,1.5720383168068932
1785165122.305054,-0.014160152524709702,-0.0043945349752902985,0.9790038466453552,0.979116108336276,-0.263214111328125,0.003814697265625,-0.4787445068359375,0.5463446926099566
1785165122.315668,-0.0126953125,0.0224609375,0.9877929091453552,0.9881297971575878,-0.446319580078125,-0.179290771484375,-0.1087188720703125,0.4931187903992477
1785165122.323757,-0.0166015587747097,-0.0219726599752903,0.9907225966453552,0.9911052784865264,-0.019073486328125,-0.850677490234375,-0.4138946533203125,0.9462160294136356
1785165122.331846,-0.0219726525247097,0.0043945349752902985,0.9775390028953552,0.9777957923709152,0.347137451171875,-0.118255615234375,0.1354217529296875,0.39093202952318423
1785165122.339935,-0.008300777524709702,0.011230465024709702,0.9765624403953552,0.9766622887380866,-0.7495880126953125,-0.4215240478515625,0.6809234619140625,1.096914523870801
1785165122.348024,-0.0170898400247097,-0.0205078087747097,1.021484375,1.021833137660915,-0.3814697265625,-0.789642333984375,0.6237030029296875,1.0761317780678488
1785165122.358596,-0.009765621274709702,-0.013183597475290298,0.9941405653953552,0.9942759367327906,0.225067138671875,-0.484466552734375,1.2340545654296875,1.3447132512495477
1785165122.369168,0.0068359412252902985,0.0263671837747097,0.9794921278953552,0.9798708012190259,-0.0782012939453125,-0.2422332763671875,1.3523101806640625,1.3760578575343307
1785165122.37974,0.0175781287252903,-0.0200195275247097,1.025390625,1.0257366650021271,-0.7495880126953125,-1.0929107666015625,0.7457733154296875,1.5206952260519238
1785165122.39042,-0.0009765587747097015,-0.0288085974752903,0.9873046278953552,0.9877253247837273,0.225067138671875,-1.277923583984375,0.5626678466796875,1.4143334151113631
1785165122.4011,-0.0029296837747097015,0.0415039025247097,0.9746093153953552,0.9754970397839264,0.2269744873046875,-0.2422332763671875,0.6809234619140625,0.7575296291577246
1785165122.41178,0.01513671875,-0.01416015625,1.03271484375,1.0329228329266074,-0.3814697265625,-0.789642333984375,0.6809234619140625,1.110275159088499
1785165122.419843,-0.010253902524709702,0.0634765625,0.9575194716453552,0.9596759635855234,0.5321502685546875,0.6122589111328125,0.7457733154296875,1.1019177467448973
1785165122.427906,0.0263671875,0.0087890625,1.03759765625,1.0379698321491728,-1.3027191162109375,-0.4825592041015625,0.4940032958984375,1.4744421784400563
1785165122.435969,-0.010253902524709702,-0.0625,0.9897460341453552,0.9917704394785343,1.07574462890625,-1.094818115234375,-0.7266998291015625,1.6982184352085672
1785165122.444032,-0.0073242150247097015,0.0581054650247097,0.9526366591453552,0.9544351698984535,1.74713134765625,0.553131103515625,0.4940032958984375,1.8980150737014911
1785165122.454666,0.03955078125,0.0322265625,1.00537109375,1.0066647166639562,-1.1806488037109375,-0.4825592041015625,0.3681182861328125,1.3275187590962927
1785165122.4653,0.00048828125,-0.041015625,1.00634765625,1.0071832629430395,0.2231597900390625,-1.1539459228515625,-1.0967254638671875,1.6075441604667413
1785165122.475934,-0.02294921875,0.03173828125,0.9741210341453552,0.9749080850533325,0.3452301025390625,1.4705657958984375,-0.1201629638671875,1.5153173666433324
1785165122.486674,0.00634765625,0.02197265625,1.00244140625,1.0027022805035533,-1.3637542724609375,0.6771087646484375,0.3108978271484375,1.5540139811934814
1785165122.497416,0.0146484375,-0.0205078125,1.0166015625,1.0169139019465552,-0.3871917724609375,-0.1773834228515625,0.0629425048828125,0.4305160929453178
1785165122.508158,-0.001953125,-0.02099609375,0.9790038466453552,0.9792309137258824,0.5283355712890625,0.4329681396484375,0.1277923583984375,0.6949322072727696
1785165122.516048,0.00537109375,0.0068359375,1.01513671875,1.015173943934778,-0.6313323974609375,-0.1773834228515625,0.4329681396484375,0.7858160629160874
1785165122.523938,0.00146484375,-0.01513671875,0.9848632216453552,0.9849806248710665,0.1010894775390625,0.3108978271484375,0.0057220458984375,0.3269698506040032
1785165122.531828,-0.013671875,0.01220703125,1.00244140625,1.0026089490636076,0.40435791015625,0.614166259765625,0.6771087646484375,0.999590812935053
1785165122.539718,0.013183597475290298,-0.013671878725290298,1.00439453125,1.004574089808799,-0.20599365234375,0.064849853515625,0.6160736083984375,0.6528289050524548
1785165122.55037,-0.005859367549419403,-0.01171875,0.9863280653953552,0.9864150819387272,0.2841949462890625,0.0057220458984375,0.2498626708984375,0.37845853618858677
1785165122.561022,-0.0078124962747097015,0.011230465024709702,0.9975585341453552,0.9976523379860057,-0.0209808349609375,0.5550384521484375,1.1653900146484375,1.2909848043417385
1785165122.571674,-0.004882805049419403,0.00390625,0.9833983778953552,0.9834182580272897,0.2231597900390625,0.1277923583984375,0.6771087646484375,0.7242979068857277
1785165122.582382,0.009277351200580597,0.01806640625,1.0205078125,1.0207098802566887,-0.08392333984375,0.064849853515625,0.9212493896484375,0.927334388664168
1785165122.59309,-0.00341796875,-0.02783203125,0.9951171278953552,0.9955121308676141,0.7114410400390625,-0.1773834228515625,0.5512237548828125,0.9173117573112786
1785165122.603798,-0.0068359337747097015,0.0463867150247097,0.9526366591453552,0.9537898414582635,1.0166168212890625,0.5550384521484375,0.6771087646484375,1.3416608080490926
1785165122.611841,-0.01416015625,-0.021484375,0.9824218153953552,0.982758725099335,0.3452301025390625,-0.1163482666015625,-0.2384185791015625,0.4353896665070588
1785165122.619884,-0.0058593712747097015,0.0273437462747097,0.9892577528953552,0.9896529262098093,0.46539306640625,0.553131103515625,0.4329681396484375,0.8426186171015059
1785165122.627927,-0.00927734375,-0.01611328125,0.9873046278953552,0.9874796885016335,-0.08392333984375,0.00762939453125,0.3108978271484375,0.32211611812677543
1785165122.63597,-0.0014648400247097015,0.0014648400247097015,0.9721679091453552,0.9721701163297747,0.2231597900390625,-0.2384185791015625,0.4329681396484375,0.5423145956930492
1785165122.646572,0.005859375,0.00439453125,0.9990233778953552,0.9990502258453994,-0.2040863037109375,0.1277923583984375,0.1277923583984375,0.2726040958835036
1785165122.657174,0.0039062537252902985,-0.012695316225290298,0.9980468153953552,0.9981351990552365,0.4673004150390625,-0.4825592041015625,-0.3032684326171875,0.7370242910385648
1785165122.667776,0.001953125,-0.0078125,0.9873046278953552,0.987337469215618,0.225067138671875,0.064849853515625,-0.4825592041015625,0.5363992038343052
1785165122.678588,0.00048828125,0.01708984375,0.9531249403953552,0.9532782663952997,0.1621246337890625,-0.4215240478515625,-0.6084442138671875,0.7577409063702868
1785165122.689402,0.01123046875,0.01123046875,0.9970702528953552,0.9971967388963409,-0.69427490234375,-0.423431396484375,-0.6656646728515625,1.050914479981939
1785165122.700216,-0.00439453125,-0.0361328125,1.01806640625,1.0187168888257705,-0.3871917724609375,-1.5201568603515625,-0.6656646728515625,1.70408444785402
1785165122.708089,0.0048828125,0.02587890625,0.9995116591453552,0.9998585482027481,-0.69427490234375,-0.301361083984375,0.5512237548828125,0.9363139275434111
1785165122.715962,-0.0019531212747097015,-0.0180664099752903,1.00146484375,1.0016296936090308,-0.446319580078125,-1.277923583984375,0.2498626708984375,1.3764887243901
1785165122.723835,-0.005371086299419403,-0.01123046875,0.9916991591453552,0.9917772906484525,0.77056884765625,-0.606536865234375,0.6160736083984375,1.1581062165586085
1785165122.731708,0.0034179724752902985,0.0078124962747097015,0.9702147841453552,0.9702522584400937,0.1621246337890625,-0.1163482666015625,0.9212493896484375,0.942614318769901
1785165122.742399,0.01025390625,0.0087890625,0.9990233778953552,0.9991146579819847,0.0400543212890625,-0.5435943603515625,0.6160736083984375,0.8225848699222611
1785165122.75309,-0.00244140625,-0.03076171875,0.9833983778953552,0.9838824185095226,0.3452301025390625,-0.4825592041015625,0.4329681396484375,0.73451250439519
1785165122.763781,-0.0014648400247097015,0.0219726525247097,0.9775390028953552,0.9777870143323212,0.09918212890625,0.064849853515625,0.4329681396484375,0.4488919782598068
1785165122.774424,0.009277347475290298,-0.0073242224752902985,1.0126953125,1.0127642911213435,-0.6923675537109375,-0.3604888916015625,0.4940032958984375,0.9237772062344417
1785165122.785068,0.00146484375,-0.01806640625,0.9999999403953552,1.0001641973159787,0.1621246337890625,-0.8487701416015625,0.4329681396484375,0.9665177495039617
1785165122.795712,0.00244140625,0.0283203125,0.9809569716453552,0.9813687282485628,0.5893707275390625,-0.0553131103515625,0.5512237548828125,0.808866504810154
1785165122.80642,-0.01416015625,-0.02001953125,0.9638671278953552,0.9641789937007211,0.89263916015625,-0.301361083984375,-0.7915496826171875,1.2305178069561054
1785165122.817131,-0.0058593712747097015,0.0483398400247097,0.9702147841453552,0.9714359473169436,0.3452301025390625,0.8602142333984375,0.2498626708984375,0.9599915131650352
1785165122.827842,0.0190429724752903,0.0161132775247097,1.02783203125,1.0281346978761021,-1.0585784912109375,-0.6656646728515625,0.2498626708984375,1.2751977231180676
1785165122.835826,0.0029296875,-0.03564453125,1.01318359375,1.0138146331164515,0.5893707275390625,-0.6656646728515625,-0.2384185791015625,0.9204948288954748
1785165122.843808,-0.011718746274709702,0.0244140587747097,0.9570311903953552,0.9574142649186175,1.2607574462890625,0.0057220458984375,0.0629425048828125,1.262340619287641
1785165122.85179,-0.00244140625,0.01806640625,0.9897460341453552,0.9899139192908272,-0.2040863037109375,0.0057220458984375,0.0629425048828125,0.21364859019562876
1785165122.859772,0.008789069950580597,-0.01611328125,1.017578125,1.0177436445695711,-0.629425048828125,-0.789642333984375,-0.6084442138671875,1.1789466778022824
1785165122.869355,-0.00390625,0.02197265625,0.9677733778953552,0.9680306644805883,0.77056884765625,1.224517822265625,0.2498626708984375,1.4682137447704713
1785165122.878938,-0.00146484375,-0.00146484375,0.9833983778953552,0.98340055988475,-0.20599365234375,0.370025634765625,0.3681182861328125,0.5611269266173035
1785165122.888521,0.0107421875,-0.01318359375,1.01416015625,1.014302728114972,-0.0209808349609375,0.2498626708984375,-0.0553131103515625,0.2567705004881268
1785165122.898104,-0.0009765587747097015,-0.0029296912252902985,0.9990233778953552,0.9990281509242679,0.40435791015625,0.98419189453125,0.1888275146484375,1.0806455640288573
1785165122.907687,0.0029296912252902985,0.015136715024709702,0.9750975966453552,0.9752194759211706,0.1010894775390625,0.6160736083984375,0.4329681396484375,0.7597546863197494
1785165122.91839,0.01123046875,0.00732421875,0.9931640028953552,0.9932545012511989,-0.57220458984375,0.00762939453125,0.1888275146484375,0.6026044561629739
1785165122.929093,-0.004882805049419403,-0.01123046875,0.9965819716453552,0.9966572085837934,-0.0209808349609375,0.0057220458984375,-0.3604888916015625,0.36114426232884417
1785165122.939796,-0.0043945275247097015,0.015136715024709702,0.9985350966453552,0.9986594871358573,0.0400543212890625,0.6771087646484375,-0.2384185791015625,0.7189743018206344
1785165122.947784,0.00732421875,-0.00146484375,0.9785155653953552,0.9785440724200937,-0.20599365234375,0.858306884765625,-0.3604888916015625,0.9534549460829875
1785165122.955773,0.00146484375,0.0068359375,0.9814452528953552,0.9814701524955018,-0.20599365234375,0.370025634765625,-0.6084442138671875,0.7413209268448323
1785165122.963762,0.00146484375,0.00390625,0.9951171278953552,0.9951258728356807,-0.4482269287109375,0.0667572021484375,-0.7915496826171875,0.9120936375787836
1785165122.971751,-0.005859367549419403,-0.001953125,0.9907225966453552,0.9907418485100243,-0.2040863037109375,0.1277923583984375,-0.5435943603515625,0.59453926265088
1785165122.9825,-0.0073242150247097015,0.0048828087747097015,0.9628905653953552,0.9629308006677558,-0.1430511474609375,0.0667572021484375,-0.1773834228515625,0.23745532954876894
1785165122.993249,-0.011718746274709702,0.0205078087747097,0.9897460341453552,0.9900278336195654,-0.6313323974609375,0.1888275146484375,0.0629425048828125,0.6619653958425651
1785165123.003998,-0.0078124962747097015,-0.009277347475290298,1.0166015625,1.016673910923095,-0.263214111328125,-0.606536865234375,0.0057220458984375,0.6612120530509564
1785165123.014559,-0.0024414025247097015,0.0302734337747097,0.9931640028953552,0.9936282895962275,0.7114410400390625,0.0667572021484375,0.9212493896484375,1.165892497367647
1785165123.025122,0.019042976200580597,0.00390625,1.00732421875,1.0075117743291817,0.2231597900390625,-0.6656646728515625,0.6771087646484375,0.9753901925571065
1785165123.035685,0.0068359375,-0.0029296875,0.9897460341453552,0.9897739768335042,1.1997222900390625,0.0057220458984375,0.4940032958984375,1.2974612022655458
1785165123.046381,0.00244140625,0.01806640625,0.9638671278953552,0.9640395198001525,0.8335113525390625,0.9212493896484375,0.7381439208984375,1.4450944815818911
1785165123.057076,0.0048828125,-0.00439453125,0.9907225966453552,0.9907443753393368,-0.263214111328125,0.370025634765625,0.4940032958984375,0.6709991767092397
1785165123.067771,0.009277351200580597,-0.015625,0.9931640028953552,0.9933302303450872,0.4673004150390625,0.2498626708984375,0.1277923583984375,0.5450980820634169
1785165123.075771,0.0209960974752903,0.0009765587747097015,0.9858397841453552,0.9860638264230125,-0.02288818359375,-0.118255615234375,-0.4825592041015625,0.4973647001404655
1785165123.083773,0.0107421875,0.00146484375,0.9824218153953552,0.9824816353114202,-0.2651214599609375,0.0057220458984375,-0.8487701416015625,0.8892316254021891
1785165123.091775,0.0009765625,0.00439453125,0.9956054091453552,0.9956155866089652,-0.2651214599609375,0.0057220458984375,-0.6656646728515625,0.7165414063567161
1785165123.099777,0.00537109375,-0.00732421875,1.001953125,1.001994290166184,-0.75531005859375,-0.057220458984375,-0.7915496826171875,1.0955904187198091
1785165123.109369,-0.00732421875,-0.00634765625,0.9775390028953552,0.9775870493730016,-0.3261566162109375,0.3108978271484375,-1.2798309326171875,1.3568355881637129
1785165123.118962,-0.009765621274709702,0.0209960900247097,0.9829100966453552,0.9831828218813571,-0.6313323974609375,0.3719329833984375,-0.4253387451171875,0.8472471825396065
1785165123.128555,-0.010742183774709702,0.0009765587747097015,1.009765625,1.0098232348341618,-0.6923675537109375,0.1888275146484375,-0.0553131103515625,0.719783439582169
1785165123.138148,-0.0166015587747097,0.0058593712747097015,0.9887694716453552,0.9889261914032411,-0.2040863037109375,0.3108978271484375,0.0057220458984375,0.3719427645448646
1785165123.147741,0.0,0.01611328125,0.9799804091453552,0.9801128711231882,-0.4482269287109375,0.3108978271484375,0.6160736083984375,0.8228678688053939
1785165123.157334,-0.00830078125,0.0166015625,0.9931640028953552,0.993337430833011,-0.57220458984375,-0.240325927734375,0.7381439208984375,0.964381196487655
1785165123.166927,-0.0078124962747097015,-0.008300784975290298,0.9975585341453552,0.99762366009206,-0.1430511474609375,-0.2384185791015625,0.9212493896484375,0.9622928283938925
1785165123.17652,-0.0009765587747097015,-0.0019531287252902985,0.9877929091453552,0.9877953227955182,0.28228759765625,0.064849853515625,1.4095306396484375,1.438981728653727
1785165123.186113,0.0068359375,0.001953125,0.9936522841453552,0.9936777176358799,-0.0209808349609375,-0.0553131103515625,1.3446807861328125,1.345981482861923
1785165123.195706,0.01123046875,0.00439453125,0.9838866591453552,0.9839605649503746,-0.1430511474609375,-0.3604888916015625,1.2264251708984375,1.2862871264112363
1785165123.20646,0.0175781287252903,0.00048827752470970154,0.9946288466453552,0.9947842839548148,0.3452301025390625,-0.6656646728515625,0.2498626708984375,0.7903952395417183
1785165123.217213,0.0058593787252902985,0.0053710900247097015,0.9804686903953552,0.9805009096235877,0.4673004150390625,-0.5435943603515625,0.0057220458984375,0.7168662694749756
1785165123.227966,0.009277347475290298,0.0073242150247097015,0.9824218153953552,0.9824929193976977,0.40435791015625,-0.789642333984375,-0.5435943603515625,1.0404495008083023
1785165123.238576,0.009277347475290298,-0.0024414099752902985,0.9995116591453552,0.9995576953964916,0.16021728515625,-0.301361083984375,-0.6656646728515625,0.7480625228452862
1785165123.249186,-0.0009765587747097015,-0.0029296912252902985,0.9926757216453552,0.9926805251952124,0.1621246337890625,-0.2384185791015625,-0.6084442138671875,0.6732994706150491
1785165123.259796,0.0048828125,-0.00537109375,1.00048828125,1.0005146132988565,0.0400543212890625,0.1888275146484375,-0.7915496826171875,0.8147460211584979
1785165123.270421,0.0068359412252902985,0.0048828087747097015,1.005859375,1.0058944547960071,-0.02288818359375,-0.118255615234375,0.1277923583984375,0.1756107808413722
1785165123.281048,-0.0063476525247097015,0.0073242150247097015,0.9916991591453552,0.9917465195643024,0.09918212890625,-0.118255615234375,0.4329681396484375,0.45965519161591706
1785165123.291675,-0.01904296875,0.00732421875,0.9990233778953552,0.9992316990671168,-0.0209808349609375,0.0057220458984375,0.6771087646484375,0.6774579074810885
1785165123.299699,-0.011718746274709702,0.0068359337747097015,0.9868163466453552,0.986909601235751,-0.08392333984375,-0.057220458984375,0.8563995361328125,0.8624021529341218
1785165123.307722,0.009277351200580597,0.0126953125,0.9946288466453552,0.9947531265514279,-0.2040863037109375,0.4329681396484375,1.2264251708984375,1.316522437760285
1785165123.315745,0.00244140625,0.00439453125,0.9960936903953552,0.9961063760536937,0.1621246337890625,0.6160736083984375,1.5277862548828125,1.6552830357540547
1785165123.323768,0.0063476599752902985,0.00048827752470970154,0.9946288466453552,0.9946492214751754,0.2841949462890625,0.6771087646484375,1.4705657958984375,1.6437173743458398
1785165123.334431,0.008789069950580597,-0.00634765625,1.00390625,1.0039647898604447,0.0400543212890625,0.1888275146484375,1.4095306396484375,1.4226864739112293
1785165123.345094,0.00146484375,-0.0078125,0.9838866591453552,0.9839187664475509,0.3452301025390625,0.4329681396484375,0.9212493896484375,1.0748700719516657
1785165123.355757,0.0180664099752903,0.0039062537252902985,0.9882811903953552,0.9884540279025738,-0.1430511474609375,0.3719329833984375,0.9212493896484375,1.0037421047545887
1785165123.363781,0.01025390625,-0.00146484375,0.9912108778953552,0.991264996264206,0.1010894775390625,0.0057220458984375,0.1277923583984375,0.1630420532973599
1785165123.371807,0.011718753725290298,0.0014648400247097015,0.9912108778953552,0.9912812312372573,-0.2651214599609375,-0.0553131103515625,-0.2384185791015625,0.36082176703933916
1785165123.379833,0.00146484375,0.00146484375,0.9951171278953552,0.9951192841891492,0.1621246337890625,-0.6046295166015625,-0.3604888916015625,0.7223665898940785
1785165123.387859,-0.0170898400247097,0.0170898400247097,0.9892577528953552,0.9895529429634919,0.2841949462890625,-0.3604888916015625,-0.7915496826171875,0.9150245398434604
1785165123.398584,-0.00439453125,0.0009765625,0.9838866591453552,0.9838969578281214,-0.0209808349609375,-0.6656646728515625,-0.5435943603515625,0.8596769630066053
1785165123.409309,-0.00732421875,0.0078125,0.9951171278953552,0.9951747472515813,0.3452301025390625,-0.3604888916015625,-0.1201629638671875,0.5133957562666464
1785165123.420034,0.0009765662252902985,-3.725290298461914e-09,1.00048828125,1.0004887578579638,0.4062652587890625,-0.3604888916015625,-0.2384185791015625,0.5931670256579297
1785165123.427952,-0.0014648400247097015,0.0053710900247097015,0.9902343153953552,0.9902499652869771,0.3452301025390625,-0.3604888916015625,0.0629425048828125,0.5030882860772824
1785165123.435871,-0.009765621274709702,-0.0185546912252903,0.9882811903953552,0.9885035939310526,0.40435791015625,-0.057220458984375,0.3681182861328125,0.5498095788704228
1785165123.44379,-0.0078124962747097015,-0.0034179724752902985,0.9892577528953552,0.9892945058461873,0.40435791015625,-0.301361083984375,0.6771087646484375,0.8442748969440586
1785165123.451709,0.0014648474752902985,0.0058593712747097015,0.9853515028953552,0.98537001287232,0.09918212890625,-0.423431396484375,0.9822845458984375,1.07425051609668
1785165123.462399,-0.011718746274709702,0.0043945349752902985,0.9887694716453552,0.9888486785194867,0.3452301025390625,0.3108978271484375,1.2264251708984375,1.3114724482191813
1785165123.473089,0.009765625,0.00537109375,0.9965819716453552,0.9966442907518487,-0.2651214599609375,-0.0553131103515625,1.2264251708984375,1.255972781759957
1785165123.483779,0.008300784975290298,0.0014648400247097015,0.9956054091453552,0.9956410897040129,0.4062652587890625,-0.1773834228515625,1.4095306396484375,1.4775970233149542
1785165123.494428,0.0043945349752902985,0.0195312462747097,0.9736327528953552,0.9738385487488571,0.5283355712890625,0.1277923583984375,0.6160736083984375,0.8215936061821842
1785165123.505078,0.0014648474752902985,0.010742183774709702,0.9912108778953552,0.9912701673854895,0.1621246337890625,0.1888275146484375,0.5512237548828125,0.6048039807380987
1785165123.515728,0.0073242224752902985,0.010253902524709702,0.9995116591453552,0.9995910881552289,0.28228759765625,-0.118255615234375,0.0057220458984375,0.30611014379510726
1785165123.526394,0.00537109375,-0.00830078125,0.9843749403953552,0.9844245907614207,0.40435791015625,0.247955322265625,-0.3032684326171875,0.5629910332925965
1785165123.537061,-0.014648433774709702,0.0253906212747097,0.9750975966453552,0.9755380993299624,0.3452301025390625,0.5550384521484375,-0.0553131103515625,0.6559809808517538
1785165123.547728,0.01953125,0.01806640625,0.9912108778953552,0.9915678843223158,-0.5092620849609375,0.0057220458984375,0.3681182861328125,0.6284040782596689
1785165123.555737,0.0019531287252902985,0.011718746274709702,0.9794921278953552,0.9795641746894582,1.0166168212890625,0.1888275146484375,0.0629425048828125,1.035918602273898
1785165123.563746,0.012695316225290298,0.0170898400247097,0.9799804091453552,0.9802116281675238,0.0400543212890625,-0.0553131103515625,0.6160736083984375,0.6198472229475284
1785165123.571755,0.00537109375,-0.00244140625,1.00537109375,1.0053884051751443,-0.263214111328125,-0.118255615234375,-0.4253387451171875,0.513983566891568
1785165123.579764,-0.013671875,-0.01708984375,0.9799804091453552,0.9802247626101438,0.1621246337890625,0.4329681396484375,-0.3604888916015625,0.5862576633187745
1785165123.587946,-0.00927734375,0.04052734375,0.9819335341453552,0.982813308913587,-0.1430511474609375,0.8602142333984375,0.3108978271484375,0.9257913463933286
1785165123.596128,0.0161132849752903,-0.009277347475290298,1.04052734375,1.0406934516082547,-0.4482269287109375,-0.5435943603515625,0.2498626708984375,0.7475517122822776
1785165123.60431,-0.009765617549419403,-0.015625,0.9682616591453552,0.96843696154269,0.9555816650390625,-0.6656646728515625,-0.4253387451171875,1.2398220934227897
1785165123.612492,-0.0019531212747097015,0.06689453125,0.9614257216453552,0.9637521005088202,0.58746337890625,0.67901611328125,0.3681182861328125,0.9704056761153466
1785165123.622438,0.0205078162252903,0.0053710900247097015,1.03759765625,1.037814200803726,-1.4858245849609375,-0.4825592041015625,0.0629425048828125,1.5634896359293202
1785165123.632384,-0.015624996274709702,-0.0590820275247097,1.01416015625,1.0159998272687056,0.40435791015625,-0.545501708984375,-0.6656646728515625,0.9508874227233114
1785165123.64233,-0.015136715024709702,0.0258789025247097,0.9384765028953552,0.9389552620994881,1.6880035400390625,1.4705657958984375,0.4940032958984375,2.292587832038138
1785165123.652276,0.0205078125,0.0581054612994194,0.9999999403953552,1.0018965494486283,-1.3027191162109375,0.1888275146484375,0.7381439208984375,1.509168437911763
1785165123.662222,0.0185546912252903,-0.064453125,1.068359375,1.0704626271099436,-1.1196136474609375,-1.3370513916015625,-0.7915496826171875,1.9151480473884597
1785165123.672029,-0.0341796837747097,-0.0234375037252903,0.9565429091453552,0.9574402876420396,2.1152496337890625,0.4940032958984375,-0.7915496826171875,2.311897742041082
1785165123.681836,0.0039062537252902985,0.09326171875,0.9487304091453552,0.9533112798239007,0.530242919921875,1.834869384765625,0.7991790771484375,2.0704082714839815
1785165123.691643,0.0214843787252903,0.00048827752470970154,1.04638671875,1.046607367698386,-2.0961761474609375,-0.8487701416015625,-0.1773834228515625,2.2684422128767245
1785165123.699679,-0.017578125,-0.07080078125,0.9926757216453552,0.9953526156334009,0.77056884765625,-0.423431396484375,-1.6422271728515625,1.8627883894202864
1785165123.707716,-0.0258789025247097,0.0527343712747097,0.9384765028953552,0.940313127631598,1.38092041015625,2.384185791015625,0.7381439208984375,2.8523918933460433
1785165123.715753,0.0273437537252903,0.0463867150247097,1.02197265625,1.0233902082398745,-1.54876708984375,0.370025634765625,0.9822845458984375,1.8709573480113548
1785165123.72379,0.0039062537252902985,-0.0654296875,1.009765625,1.011890764982147,-0.3871917724609375,-1.1539459228515625,-0.0553131103515625,1.2184285788276434
1785165123.734515,-0.0014648400247097015,-0.00048827752470970154,0.9575194716453552,0.9575207166172642,1.56402587890625,1.16729736328125,0.3681182861328125,1.9860189215607151
1785165123.74524,0.0170898474752903,0.0507812462747097,0.9956054091453552,0.9970461015316351,-0.2040863037109375,1.1653900146484375,1.1043548583984375,1.6184513458466743
1785165123.755965,0.0224609412252903,-0.0322265662252903,1.0185546875,1.0193118741973046,-0.75531005859375,-0.66375732421875,-0.1773834228515625,1.0210445380929596
1785165123.763893,0.0039062537252902985,0.0532226525247097,0.9824218153953552,0.9838701809307149,0.225067138671875,1.346588134765625,0.2498626708984375,1.3879431457772364
1785165123.771823,0.008789069950580597,-0.01123046875,1.009765625,1.0098663221489177,-0.6923675537109375,-0.3604888916015625,-0.1773834228515625,0.8004935659343723
1785165123.779753,-0.0078124962747097015,0.0048828087747097015,0.9770507216453552,0.9770941559477685,0.2231597900390625,-0.0553131103515625,-0.6084442138671875,0.650433850176559
1785165123.787683,-0.004882805049419403,0.00830078125,1.00244140625,1.0024876646218588,-0.2651214599609375,1.2264251708984375,-0.3032684326171875,1.290883352812006
1785165123.798357,-0.01416015625,-0.01171875,0.9702147841453552,0.9703888738546033,-0.08392333984375,0.553131103515625,-0.5435943603515625,0.7800589549854338
1785165123.809031,-0.0029296837747097015,0.0395507775247097,0.9990233778953552,0.9998102603150633,-0.3871917724609375,0.3108978271484375,-0.3604888916015625,0.6136180966653324
1785165123.819705,0.01123046875,-0.017578125,1.02685546875,1.0270673140591333,-1.24359130859375,0.064849853515625,-0.6084442138671875,1.3859759044440034
1785165123.830356,-0.0239257775247097,0.010253902524709702,0.9594725966453552,0.9598256347173317,0.58746337890625,0.064849853515625,-0.6084442138671875,0.8482470668651947
1785165123.841007,0.0058593787252902985,0.0351562462747097,1.005859375,1.0064906240231775,-0.75531005859375,0.19073486328125,0.1277923583984375,0.789432682088122
1785165123.851658,-0.0078125,-0.015625,0.9931640028953552,0.9933176291742613,-0.6923675537109375,-0.7266998291015625,-0.3604888916015625,1.0664978724854688
1785165123.862372,0.0029296912252902985,-0.010742183774709702,0.9833983778953552,0.9834614111647396,-0.0209808349609375,0.3108978271484375,-0.2384185791015625,0.39235325055628867
1785165123.873087,0.008300784975290298,0.0219726525247097,0.9804686903953552,0.9807499953279432,0.28228759765625,0.064849853515625,-0.3032684326171875,0.4193608631162671
1785165123.883802,0.005859375,-0.00634765625,1.01123046875,1.0112673662012452,-0.1430511474609375,-0.0553131103515625,-0.3032684326171875,0.33984542543447693
1785165123.891786,-0.0073242150247097015,-0.0053710900247097015,0.9736327528953552,0.9736751153461659,0.7724761962890625,-0.2384185791015625,-0.7915496826171875,1.1314211385445283
1785165123.89977,-0.0029296875,0.0087890625,0.9843749403953552,0.9844185359728024,0.4673004150390625,0.0057220458984375,0.1277923583984375,0.4844928343845537
1785165123.907754,-0.00341796875,-0.0224609375,0.9853515028953552,0.9856133930106115,0.2231597900390625,-0.4825592041015625,0.0629425048828125,0.5353741087074858
1785165123.915738,-0.00830078125,0.00732421875,1.00927734375,1.0093380522682744,0.7724761962890625,-0.4825592041015625,0.4329681396484375,1.0084861274439925
1785165123.926381,-0.00732421875,-0.01611328125,1.00830078125,1.0084561207520633,0.8335113525390625,-1.0318756103515625,0.8563995361328125,1.5789010784524797
1785165123.937024,-0.008300777524709702,0.0009765587747097015,0.9648436903953552,0.964879890696393,1.7490386962890625,-1.2149810791015625,0.6160736083984375,2.2169488209375543
1785165123.947667,0.0341796875,0.013671875,1.00927734375,1.0099484778000654,0.5283355712890625,-0.2384185791015625,0.7991790771484375,0.9872533069592506
1785165123.958376,0.00244140625,0.02880859375,0.9892577528953552,0.9896801489379777,0.77056884765625,0.858306884765625,-0.1773834228515625,1.167018395791981
1785165123.969086,0.01611328125,0.01806640625,1.00341796875,1.0037099445944568,-0.1430511474609375,0.9822845458984375,-0.0553131103515625,0.9941861496106021
1785165123.979796,-0.01220703125,0.00830078125,0.9672850966453552,0.9673977324624619,0.40435791015625,0.736236572265625,-0.2384185791015625,0.8731512060967304
1785165123.987856,0.02001953125,0.046875,1.01220703125,1.013489576349164,-0.1430511474609375,1.0433197021484375,-0.4825592041015625,1.1583794789032342
1785165123.995917,0.01123046875,-0.046875,1.0048828125,1.0060381980378552,-0.57220458984375,0.19073486328125,-0.8487701416015625,1.041253395664815
1785165124.003978,-0.030273430049419403,0.01806640625,0.9526366591453552,0.9532887704936898,1.0166168212890625,1.0433197021484375,-0.9136199951171875,1.7195136689473893
1785165124.012039,0.0043945349752902985,0.0361328087747097,1.0078125,1.0084695964499122,-1.24359130859375,1.529693603515625,-0.6084442138671875,2.0631738232235772
1785165124.022647,-0.00244140625,-0.05029296875,0.9941405653953552,0.9954148918590492,-1.1196136474609375,0.0667572021484375,-1.0318756103515625,1.524059880338657
1785165124.033255,-0.020019523799419403,0.0185546875,0.9848632216453552,0.9852414034697518,-0.5092620849609375,1.2264251708984375,-0.4253387451171875,1.3944101330275418
1785165124.043863,-0.015136715024709702,-0.0043945349752902985,0.9790038466453552,0.9791307184568312,-1.1196136474609375,1.4095306396484375,0.1277923583984375,1.8046169207212794
1785165124.052026,-0.01806640625,0.0087890625,0.9902343153953552,0.9904381061131113,-1.1196136474609375,0.6771087646484375,0.1277923583984375,1.3146641721784131
1785165124.060189,0.012695316225290298,-0.0190429724752903,1.00830078125,1.0085604946279203,-1.3027191162109375,0.9212493896484375,0.4329681396484375,1.6532510225672488
1785165124.068352,-0.01904296875,-0.00341796875,0.9648436903953552,0.9650376490401386,-0.2651214599609375,0.6771087646484375,0.1277923583984375,0.7383065451156361
1785165124.076515,0.0,0.02001953125,1.0205078125,1.0207041574349567,-1.1806488037109375,0.6160736083984375,0.3681182861328125,1.3816618114627395
1785165124.0843,0.00146484375,-0.02734375,0.9819335341453552,0.9823152711377656,-0.8144378662109375,0.0057220458984375,0.0057220458984375,0.814478066946405
1785165124.092085,-0.015136715024709702,0.0263671837747097,0.9902343153953552,0.9907009376741582,-0.2040863037109375,0.1277923583984375,0.0629425048828125,0.24888524493900918
1785165124.09987,0.0043945349752902985,-0.009765621274709702,1.005859375,1.005916379015632,-0.6923675537109375,-0.2384185791015625,0.0629425048828125,0.7349680314227272
1785165124.107655,-0.0268554650247097,-0.0170898474752903,1.00390625,1.0044107912988014,0.3452301025390625,-1.2149810791015625,0.1888275146484375,1.2771134157005144
1785165124.115713,0.0014648474752902985,0.015624996274709702,0.9980468153953552,0.998170191904928,0.4673004150390625,-0.7266998291015625,0.1277923583984375,0.8733803331750463
1785165124.123771,0.00048828125,-0.0078125,1.00244140625,1.0024719679568634,0.4673004150390625,-0.8487701416015625,-0.1773834228515625,0.9850103095260235
1785165124.131829,-0.0034179650247097015,0.0195312462747097,0.9731444716453552,0.9733464515576512,0.8335113525390625,-0.2994537353515625,-0.2384185791015625,0.9172007050195224
1785165124.139887,-0.0029296875,0.00244140625,1.02392578125,1.0239328830747394,0.1621246337890625,-0.6656646728515625,-0.2384185791015625,0.7254221339500356
1785165124.150539,0.00048828125,-0.00830078125,1.00048828125,1.000522834475315,1.0776519775390625,-0.5435943603515625,-0.3604888916015625,1.25967490022942
1785165124.161191,0.0,0.01904296875,0.9946288466453552,0.9948111264143978,0.6504058837890625,-0.1773834228515625,0.3108978271484375,0.7423948755854848
1785165124.171843,-0.0063476525247097015,-0.007812503725290298,0.9824218153953552,0.9824733845106124,-0.2040863037109375,-0.5435943603515625,-0.0553131103515625,0.5832714532232668
1785165124.182705,-0.014648430049419403,-0.0068359375,1.0146484375,1.014777196366576,-0.2040863037109375,-0.3604888916015625,0.4940032958984375,0.6447035882396152
1785165124.193569,-0.0126953125,-0.00048828125,0.9643554091453552,0.9644390932173774,0.6504058837890625,-0.7266998291015625,0.8563995361328125,1.2978985402457959
1785165124.204433,0.01025390625,0.0400390625,0.9877929091453552,0.9886572209199236,0.1621246337890625,-0.1163482666015625,1.4095306396484375,1.4235862952874192
1785165124.2149,-0.0019531212747097015,-0.0190429724752903,1.01708984375,1.0172699738726234,-0.6313323974609375,-0.9098052978515625,1.1653900146484375,1.6076256287845223
1785165124.225369,-0.0024414025247097015,-0.0034179724752902985,0.9614257216453552,0.9614348970280939,0.8335113525390625,-0.3604888916015625,0.9212493896484375,1.293597253285287
1785165124.235838,0.012207034975290298,0.0385742150247097,0.9926757216453552,0.9934999094674278,0.0400543212890625,0.3108978271484375,1.1043548583984375,1.1479814723451682
1785165124.24384,-0.0073242150247097015,-0.0043945349752902985,0.9536132216453552,0.9536514733172757,1.0166168212890625,0.0057220458984375,-0.4253387451171875,1.1020233896043248
1785165124.251843,0.00732421875,0.05712890625,0.9790038466453552,0.9806966339577298,-0.3871917724609375,0.6160736083984375,-0.0553131103515625,0.7297422146232722
1785165124.259846,0.01708984375,-0.00732421875,1.02587890625,1.0260473854693035,-1.06048583984375,-0.423431396484375,-1.0967254638671875,1.5832659622225538
1785165124.267849,-0.0009765587747097015,0.0048828087747097015,0.9760741591453552,0.9760868607044575,0.225067138671875,0.553131103515625,-0.6084442138671875,0.8525336333393644
1785165124.278499,0.0,0.0302734375,1.001953125,1.0024103679209089,-0.5702972412109375,1.1043548583984375,-0.3032684326171875,1.2793788879073802
1785165124.289149,-0.0009765587747097015,-0.0336914025247097,1.01123046875,1.01179203653689,-0.263214111328125,-0.301361083984375,-0.6084442138671875,0.7282201128305589
1785165124.299799,-0.01806640625,-0.00048828125,0.9565429091453552,0.9567136303458985,0.9555816650390625,0.7381439208984375,-0.2384185791015625,1.2307868155691926
1785165124.310477,-0.00439453125,0.0458984375,0.9970702528953552,0.9981357962114455,-0.934600830078125,1.346588134765625,0.4940032958984375,1.7119630757212039
1785165124.321156,-0.0014648400247097015,-0.0356445275247097,1.03173828125,1.0323548610315456,-0.6313323974609375,-0.4215240478515625,0.1277923583984375,0.7698012768669432
1785165124.331835,-0.0249023400247097,-0.0239257849752903,0.9448241591453552,0.9454550552142167,1.4438629150390625,0.3108978271484375,0.4940032958984375,1.5573814024538877
1785165124.342489,0.0146484375,-0.02783203125,1.0283203125,1.0288011779662725,-1.3027191162109375,-1.0929107666015625,0.5512237548828125,1.7875622135864608
1785165124.353143,-0.010742183774709702,-0.0292968712747097,0.9750975966453552,0.9755967528452953,1.0166168212890625,-0.6046295166015625,-0.1201629638671875,1.1889178910080644
1785165124.363797,0.0029296912252902985,0.0590820275247097,0.9926757216453552,0.9944367035720437,0.5283355712890625,1.0433197021484375,0.6160736083984375,1.3218173730684264
1785165124.374457,0.025390625,-0.0205078125,0.9975585341453552,0.9980923220111733,-0.75531005859375,-0.301361083984375,0.1277923583984375,0.8231905456321558
1785165124.385119,-0.0058593712747097015,-0.015136715024709702,0.9882811903953552,0.9884144695737384,0.5283355712890625,-0.3604888916015625,-0.6084442138671875,0.8827769130680315
1785165124.395781,-0.00390625,0.01123046875,0.9863280653953552,0.9863997337813668,0.7114410400390625,0.7381439208984375,-0.1773834228515625,1.0404180314247335
1785165124.403771,0.0073242224752902985,0.0019531212747097015,0.9902343153953552,0.990263327758879,0.0400543212890625,-0.4215240478515625,-0.5435943603515625,0.6890440480674064
1785165124.411761,-0.01220703125,-0.0009765625,1.00244140625,1.0025162034853763,0.28228759765625,-0.118255615234375,-0.7266998291015625,0.7885197016823597
1785165124.419751,-0.00732421875,0.0029296875,0.9682616591453552,0.9682937921003426,0.4062652587890625,0.1277923583984375,-0.6084442138671875,0.7426888370996554
1785165124.427741,0.0029296875,0.02880859375,1.00732421875,1.007740343453113,-0.2651214599609375,0.0057220458984375,-0.1773834228515625,0.31904076392150743
1785165124.4384,0.008789066225290298,-0.0258789025247097,1.021484375,1.0218499369526508,-0.08392333984375,-0.240325927734375,-0.6084442138671875,0.6595483605471075
1785165124.449059,-0.0161132775247097,-0.0043945349752902985,0.9550780653953552,0.9552240892322449,1.0166168212890625,-0.1163482666015625,-0.3032684326171875,1.0672480605234902
1785165124.459718,-0.0073242150247097015,0.0205078087747097,0.9843749403953552,0.9846157817264699,-0.4482269287109375,0.3108978271484375,0.3108978271484375,0.6278712427503582
1785165124.467746,0.0,-0.03369140625,1.01171875,1.012279575985145,-0.8144378662109375,-0.9708404541015625,-0.3604888916015625,1.3174947689484298
1785165124.475775,-0.0234375,-0.015625,0.9838866591453552,0.984289802383149,0.77056884765625,0.064849853515625,0.0057220458984375,0.7733140334227375
1785165124.483804,-0.00439453125,0.03662109375,0.9804686903953552,0.9811622033374179,0.2841949462890625,0.2498626708984375,0.2498626708984375,0.45346386417579615
1785165124.499859,-0.0073242150247097015,-0.0024414099752902985,0.9980468153953552,0.9980766755761833,0.1621246337890625,-0.1773834228515625,0.0057220458984375,0.24037890380197194
1785165124.507884,-0.0073242150247097015,0.0053710900247097015,1.0126953125,1.0127360409767465,-0.1430511474609375,0.1888275146484375,0.3681182861328125,0.43775624914278033
1785165124.515909,-0.00390625,-0.01123046875,0.9741210341453552,0.9741936005650127,0.40435791015625,-0.057220458984375,0.3108978271484375,0.5132611025179409
1785165124.523934,0.0034179724752902985,0.0297851525247097,0.9765624403953552,0.9770225370162624,0.09918212890625,-0.240325927734375,0.6771087646484375,0.7253067801968331
1785165124.531911,0.01611328125,-0.0029296875,1.0205078125,1.020639219447805,-0.57220458984375,-0.728607177734375,-0.2384185791015625,0.9566242370675715
1785165124.539888,0.008789069950580597,-0.0263671875,0.9897460341453552,0.9901361969111698,0.4673004150390625,-0.4215240478515625,-0.3604888916015625,0.725261636777356
1785165124.547865,-0.0009765587747097015,0.0268554650247097,0.9677733778953552,0.968146414873143,0.5283355712890625,0.1277923583984375,-0.0553131103515625,0.5463779854012595
1785165124.555842,0.01025390625,0.015625,0.9838866591453552,0.9840641448922891,-0.8144378662109375,-0.6656646728515625,-0.2384185791015625,1.0785462036749334
1785165124.566444,0.0034179724752902985,-0.0288085974752903,1.00439453125,1.0048134116487708,-0.2651214599609375,-0.7266998291015625,-0.7266998291015625,1.061355111055814
1785165124.577046,-0.008789058774709702,0.0058593712747097015,0.9667968153953552,0.9668545195863133,0.8945465087890625,0.3108978271484375,-0.0553131103515625,0.9486466441668806
1785165124.587648,-0.0009765550494194031,0.033203125,1.0107421875,1.0112878772940053,0.0400543212890625,0.2498626708984375,0.2498626708984375,0.3556220708433733
1785165124.595664,0.0034179724752902985,-0.0297851525247097,0.9790038466453552,0.9794627964313725,-0.08392333984375,-0.301361083984375,0.1888275146484375,0.36540041078120444
1785165124.60368,-0.0166015587747097,0.0219726525247097,0.9794921278953552,0.9798791955244752,0.7724761962890625,0.3108978271484375,0.0057220458984375,0.8327122399533358
1785165124.611696,0.009277347475290298,0.0043945349752902985,1.0078125,1.0078647807469394,-0.38909912109375,0.553131103515625,0.3681182861328125,0.7699761141085488
1785165124.619712,-0.005859367549419403,-0.0009765625,0.9765624403953552,0.976580506590894,0.713348388671875,-0.301361083984375,0.0629425048828125,0.7769467069766889
1785165124.630382,0.0009765662252902985,0.0205078087747097,1.0244140625,1.0246197808699997,0.4673004150390625,0.2498626708984375,0.1277923583984375,0.5450980820634169
1785165124.641052,-0.0078125,-0.037109375,0.9824218153953552,0.9831534794902809,0.2231597900390625,-0.2384185791015625,0.0057220458984375,0.32661361355637075
1785165124.651722,-0.011230465024709702,0.0258789025247097,0.9711913466453552,0.9716009843240039,0.7114410400390625,0.3108978271484375,0.1888275146484375,0.7990379482013282
1785165124.659833,0.0078125,0.00390625,1.0224609375,1.0224982457973664,-0.263214111328125,-0.301361083984375,0.6771087646484375,0.7864963130913109
1785165124.667945,-0.0068359337747097015,-0.014648433774709702,0.9814452528953552,0.981578367239953,0.96893310546875,-0.865936279296875,-0.0476837158203125,1.300365617597706
1785165124.676057,0.011230472475290298,0.0253906212747097,0.9750975966453552,0.9754927627329082,0.66375732421875,0.293731689453125,0.2574920654296875,0.7701650826947871
1785165124.684169,0.0009765662252902985,0.0053710900247097015,0.9858397841453552,0.9858548992085024,-0.12969970703125,-0.12969970703125,-0.3528594970703125,0.3976856204097629
1785165124.694726,0.001953125,0.001953125,1.0029296875,1.0029334910468286,-0.12969970703125,-0.072479248046875,-0.4138946533203125,0.4397545218057163
1785165124.705283,-0.0009765587747097015,-0.009277347475290298,0.9829100966453552,0.9829543636052486,0.05340576171875,0.720977783203125,-0.4138946533203125,0.8330485719958914
1785165124.71584,-0.004882805049419403,0.02294921875,0.9833983778953552,0.9836782390973188,0.11444091796875,0.904083251953125,-0.2307891845703125,0.9400674964502802
1785165124.72649,-0.008300777524709702,0.015136715024709702,0.9824218153953552,0.9825734814322842,0.4787445068359375,0.4787445068359375,-0.1697540283203125,0.6980036072844777
1785165124.737138,0.0024414099752902985,0.0019531212747097015,1.0029296875,1.0029345607935887,-0.12969970703125,0.54168701171875,0.3185272216796875,0.6416435331395167
1785165124.747786,-0.0209960900247097,-0.0029296912252902985,0.9926757216453552,0.9929020632625999,0.54168701171875,0.110626220703125,0.0133514404296875,0.553029149623592
1785165124.755773,0.004394538700580597,0.013671875,0.9995116591453552,0.9996148202702415,0.35858154296875,0.110626220703125,0.1964569091796875,0.4235731351600831
1785165124.763762,0.0073242224752902985,0.0063476525247097015,0.9965819716453552,0.9966291000848739,0.1125335693359375,-0.1926422119140625,-0.1087188720703125,0.24818263271806468
1785165124.771751,0.00048828125,0.0224609375,0.9658202528953552,0.9660815146947,0.4177093505859375,-0.1926422119140625,-0.1697540283203125,0.4903147494304466
1785165124.77974,0.0068359412252902985,0.0063476525247097015,1.00634765625,1.0063908922604965,-0.1926422119140625,0.1735687255859375,-0.1697540283203125,0.3099250787587905
1785165124.790405,-0.0014648400247097015,-0.0058593712747097015,0.9702147841453552,0.9702335828872608,-0.0705718994140625,-0.6198883056640625,-0.3528594970703125,0.7167647655672568
1785165124.80107,-0.0053710900247097015,0.0244140587747097,0.9897460341453552,0.9900616682714098,0.05340576171875,-0.377655029296875,-0.1697540283203125,0.4174828459577194
1785165124.811735,-0.00439453125,-0.0166015625,1.01708984375,1.0172348175528343,-0.2536773681640625,-0.3757476806640625,0.0743865966796875,0.4594256113982481
1785165124.819799,0.012207034975290298,0.0361328087747097,0.9990233778953552,0.9997511196064165,0.2346038818359375,0.0514984130859375,0.3185272216796875,0.398936910894243
1785165124.827864,0.01025390625,-0.0224609375,1.021484375,1.021782738489892,0.05340576171875,-0.682830810546875,-0.0476837158203125,0.6865739785130911
1785165124.835929,-0.010742180049419403,-0.01171875,0.9760741591453552,0.9762036097480324,1.64031982421875,-0.011444091796875,-0.2918243408203125,1.6661157039225385
1785165124.843994,0.0073242224752902985,0.0502929650247097,0.9633788466453552,0.9647185230571553,0.66375732421875,0.904083251953125,0.1964569091796875,1.1386551844525228
1785165124.854578,0.0166015662252903,0.009765621274709702,1.02001953125,1.0202013641882095,-0.7419586181640625,-0.0705718994140625,-0.7801055908203125,1.0789104304268926
1785165124.865162,-0.0087890625,-0.044921875,1.00634765625,1.0073881216854865,0.9059906005859375,0.3566741943359375,-0.7190704345703125,1.2104122186794035
1785165124.875746,-0.0214843712747097,0.0439453087747097,0.9492186903953552,0.9504782430798968,1.45721435546875,1.392364501953125,-0.1087188720703125,2.0184083772189463
1785165124.886462,0.011718753725290298,0.0346679650247097,1.01611328125,1.0167720478654347,-0.61798095703125,0.293731689453125,0.1964569091796875,0.7118806682349808
1785165124.897177,-0.0024414025247097015,-0.0541992150247097,0.9980468153953552,0.999520365513576,0.2956390380859375,0.0514984130859375,-0.5359649658203125,0.6142580662698024
1785165124.907892,-0.012207027524709702,0.0214843712747097,0.9794921278953552,0.9798037652198677,1.0890960693359375,1.2722015380859375,0.1964569091796875,1.686185730848073
1785165124.915874,0.0009765625,-0.00732421875,0.9858397841453552,0.9858674747948504,-0.5588531494140625,-0.0095367431640625,-0.2918243408203125,0.6305309175412445
1785165124.923858,-0.009765617549419403,-0.0029296875,0.9892577528953552,0.9893102910707726,-0.3757476806640625,0.7839202880859375,-0.3528594970703125,0.9382042220486302
1785165124.931842,-0.011230465024709702,0.008300777524709702,0.9755858778953552,0.9756858261761503,-0.49591064453125,0.54168701171875,-0.1087188720703125,0.742409576425594
1785165124.947807,0.0073242224752902985,0.0063476525247097015,0.9975585341453552,0.9976056164505449,-0.92315673828125,0.293731689453125,-0.2918243408203125,1.011759909621978
1785165124.95579,-0.011718746274709702,-0.009277347475290298,0.9912108778953552,0.991323561027634,-0.61798095703125,-0.072479248046875,-0.7801055908203125,0.9978569223489954
1785165124.963773,-0.005859367549419403,-0.0009765625,0.9887694716453552,0.9887873148054795,-0.4329681396484375,0.3566741943359375,-0.7801055908203125,0.9608551522913992
1785165124.971756,0.0,0.0009765625,0.9853515028953552,0.9853519868211824,-0.31280517578125,-0.011444091796875,-0.7190704345703125,0.7842450733703924
1785165124.982413,-0.00048827752470970154,-0.0048828087747097015,0.9931640028953552,0.9931761258123338,-0.3757476806640625,-0.1926422119140625,-0.7801055908203125,0.8870524641556855
1785165124.99307,0.012695316225290298,-0.014160159975290298,1.02099609375,1.0211732001170735,-0.61798095703125,-0.61798095703125,-0.6580352783203125,1.0939887357832394
1785165125.003727,-0.01318359375,-0.01123046875,0.9887694716453552,0.9889211286196411,0.17547607421875,-0.255584716796875,-0.9021759033203125,0.9539584690201062
1785165125.014393,-0.0078125,0.013671875,0.9814452528953552,0.9815715662920832,-0.31280517578125,-0.682830810546875,-0.6580352783203125,0.9985566690687776
1785165125.02506,-0.014648433774709702,0.014648433774709702,1.01025390625,1.010466282622774,-0.19073486328125,-0.560760498046875,-0.4138946533203125,0.7225931831174703
1785165125.035727,-0.008300777524709702,-0.0039062537252902985,1.00439453125,1.0044364271224875,0.4787445068359375,-0.1316070556640625,-0.2307891845703125,0.5475220247997138
1785165125.043729,-0.0087890625,0.02197265625,0.9555663466453552,0.9558593453450465,0.6008148193359375,0.3566741943359375,0.1964569091796875,0.7258031724946519
1785165125.051731,0.0156250037252903,0.015136715024709702,1.01025390625,1.010488107785806,-0.61798095703125,0.05340576171875,0.6237030029296875,0.8796351939875583
1785165125.059733,-0.0034179650247097015,-0.0239257849752903,1.00390625,1.0041971342623202,-0.2536773681640625,-0.6198883056640625,0.3185272216796875,0.7416692723638267
1785165125.067735,-0.0014648400247097015,0.015136715024709702,0.9790038466453552,0.9791219523861363,0.5435943603515625,0.3566741943359375,0.8678436279296875,1.0843725706828702
1785165125.078412,0.0039062537252902985,0.012207027524709702,0.9804686903953552,0.9805524581503726,0.1125335693359375,-0.3147125244140625,1.1119842529296875,1.161127364251723
1785165125.089089,0.00537109375,-0.015625,0.9980468153953552,0.998183567783943,-0.00762939453125,-0.865936279296875,0.2574920654296875,0.9034412051830907
1785165125.099766,-0.0063476525247097015,-0.012695316225290298,0.9716796278953552,0.9717832901493473,0.54168701171875,0.110626220703125,0.1964569091796875,0.5867352865954814
1785165125.110436,0.02099609375,0.0078125,1.0009765625,1.001227221854922,-0.31280517578125,-0.61798095703125,-0.1697540283203125,0.7131367129658743
1785165125.121105,-0.0014648400247097015,-0.013183597475290298,0.9951171278953552,0.9952055321537302,0.1125335693359375,-0.3147125244140625,-0.1697540283203125,0.37486558575245554
1785165125.131774,-0.00439453125,0.0283203125,0.9833983778953552,0.9838158982514059,0.05340576171875,0.904083251953125,-0.1087188720703125,0.9121614412981611
1785165125.139764,0.00146484375,0.01318359375,1.0087890625,1.0088762686925516,-0.2536773681640625,0.6008148193359375,-0.3528594970703125,0.7415122918232944
1785165125.147754,-0.0024414025247097015,-0.008300784975290298,0.9877929091453552,0.9878308027366517,0.1735687255859375,-0.3147125244140625,-0.4749298095703125,0.5955907987394463
1785165125.155744,-0.005371086299419403,0.0234375,0.9755858778953552,0.9758821497102694,0.41961669921875,0.232696533203125,0.0743865966796875,0.48555042641684343
1785165125.163734,0.008300784975290298,0.011718746274709702,0.9838866591453552,0.9839914583418219,-0.43487548828125,-0.072479248046875,-0.3528594970703125,0.5646943920192673
1785165125.171738,0.00244140625,-0.00244140625,1.0068359375,1.0068418574783524,-0.49591064453125,-0.011444091796875,-0.5970001220703125,0.7761877867812809
1785165125.179742,0.00244140625,-0.0166015625,0.9916991591453552,0.9918411135819706,0.48065185546875,0.110626220703125,0.1354217529296875,0.5114718154885546
1785165125.187746,0.0009765625,0.02880859375,0.9702147841453552,0.9706428880501764,0.35858154296875,0.293731689453125,0.0133514404296875,0.4637211331267792
1785165125.19575,0.013183597475290298,-0.007812503725290298,1.01611328125,1.0162288338703491,-0.67901611328125,-0.072479248046875,-0.0476837158203125,0.6845362373515723
1785165125.206413,-0.010742180049419403,-0.01611328125,0.9819335341453552,0.9821244817964998,0.1125335693359375,0.3566741943359375,-0.1087188720703125,0.3894869423702383
