timestamp,accel_x,accel_y,accel_z,accel_rms,gyro_x,gyro_y,gyro_z,gyro_rms
1781788018.497691,-0.0024414025247097015,-0.0278320349752903,0.9907225966453552,0.9911164644585765,-0.1201629638671875,-0.1773834228515625,0.1926422119140625,0.2881233041581777
1781788018.505681,-0.01318359375,-0.0078125,0.9926757216453552,0.9927940021195444,0.18310546875,-0.05340576171875,-0.0553131103515625,0.19859337412834613
1781788018.513671,-0.011230465024709702,-0.0170898474752903,0.9897460341453552,0.9899572709657011,0.2422332763671875,-0.1773834228515625,0.0705718994140625,0.3084189226831373
1781788018.521661,-0.010742183774709702,-0.015624996274709702,0.9824218153953552,0.9826047823950074,-0.18310546875,-0.11444091796875,-0.0553131103515625,0.2228988034253471
1781788018.528075,-0.0019531212747097015,-0.008789066225290298,1.0009765625,1.001017053322341,0.0591278076171875,-0.1773834228515625,0.0705718994140625,0.19985336955643235
1781788018.534491,-0.01171875,-0.02099609375,0.9873046278953552,0.9875973842198587,0.1220703125,-0.11444091796875,0.1277923583984375,0.21054399009331168
1781788018.540906,-0.009765617549419403,-0.0126953125,0.9902343153953552,0.9903638410362637,-0.1220703125,-0.11444091796875,0.1277923583984375,0.21054399009331168
1781788018.547321,-0.010742183774709702,-0.0185546912252903,0.9926757216453552,0.9929072259898415,-0.1220703125,-0.11444091796875,0.1277923583984375,0.21054399009331168
1781788018.553736,-0.0058593712747097015,-0.0239257849752903,0.9790038466453552,0.9793136919112388,0.06103515625,0.25177001953125,0.0705718994140625,0.2685029348445497
1781788018.56571,-0.0019531212747097015,-0.0190429724752903,0.9882811903953552,0.9884665703870156,0.0591278076171875,-0.1773834228515625,-0.0553131103515625,0.1949885035403767
1781788018.577684,-0.0009765587747097015,-0.0224609412252903,0.9746093153953552,0.9748685886842233,0.30517578125,-0.11444091796875,-0.0553131103515625,0.3305881445905799
1781788018.589658,-0.009765621274709702,-0.0180664099752903,0.9863280653953552,0.9865418466110905,0.18310546875,0.06866455078125,-0.1125335693359375,0.2256241065303846
1781788018.601631,0.00244140625,-0.025390625,0.9809569716453552,0.9812885531391846,0.2422332763671875,0.0057220458984375,0.0705718994140625,0.2523689659521444
1781788018.609656,-0.0019531212747097015,-0.0283203162252903,0.9858397841453552,0.9862484144461652,-0.0629425048828125,0.0057220458984375,0.0095367431640625,0.06391752655073563
1781788018.61768,-0.0024414025247097015,-0.0278320349752903,0.9848632216453552,0.9852594318081007,0.0591278076171875,0.0057220458984375,0.2536773681640625,0.2605399135670469
1781788018.625704,0.0039062537252902985,-0.0234375037252903,0.9931640028953552,0.993448192935175,0.18310546875,0.19073486328125,0.1277923583984375,0.29366356195842386
1781788018.633728,-0.015624996274709702,-0.0229492224752903,0.9868163466453552,0.9872068219614829,-0.244140625,-0.05340576171875,0.1277923583984375,0.28069148014356476
1781788018.644654,0.00048828125,-0.01708984375,0.9868163466453552,0.9869644386625409,0.0591278076171875,0.1316070556640625,-0.0553131103515625,0.15451878497756483
1781788018.65558,-0.012207027524709702,-0.0200195275247097,0.9960936903953552,0.9963696267192911,0.18310546875,-0.11444091796875,0.0095367431640625,0.2161371922225897
1781788018.666506,-0.0048828087747097015,-0.014160159975290298,0.9897460341453552,0.9898593657982506,0.0,-0.17547607421875,-0.2346038818359375,0.2929689983525813
1781788018.676888,0.004394538700580597,-0.01171875,0.9843749403953552,0.9844545009040857,-0.1220703125,-0.11444091796875,0.0705718994140625,0.18159922325353262
1781788018.687268,-0.00390625,-0.00830078125,0.9853515028953552,0.9853942084346539,-0.1220703125,0.12969970703125,0.2536773681640625,0.30996029151567955
1781788018.697648,-0.015136711299419403,-0.03125,0.9838866591453552,0.9844991826168117,0.18310546875,-0.1068115234375,0.0019073486328125,0.21199045309636924
1781788018.708325,-0.011718746274709702,-0.0175781287252903,0.9780272841453552,0.9782554309363548,-0.0591278076171875,0.0133514404296875,0.2460479736328125,0.25340474329415347
1781788018.719004,-0.0029296837747097015,-0.0185546912252903,0.9863280653953552,0.9865069245575673,0.18310546875,-0.2288818359375,0.2460479736328125,0.38269323594374005
1781788018.729683,0.00146484375,-0.0068359375,0.9916991591453552,0.9917238012966717,-0.1220703125,0.0762939453125,0.1239776611328125,0.1899799666942725
1781788018.738393,-0.011718746274709702,-0.0175781287252903,0.9868163466453552,0.9870424619185437,-0.1220703125,0.2593994140625,-0.0591278076171875,0.2927205405218963
1781788018.747102,-0.0014648400247097015,-0.0244140587747097,0.9843749403953552,0.984678737101859,-0.1220703125,-0.2288818359375,-0.2422332763671875,0.35491550571305075
1781788018.75581,-0.00927734375,-0.0263671875,0.9868163466453552,0.9872121351007602,0.244140625,-0.1068115234375,0.1239776611328125,0.29391122260708713
1781788018.76452,-0.00390625,-0.01025390625,0.9775390028953552,0.9776005848832597,-0.1220703125,0.0762939453125,0.3070831298828125,0.3391488993699061
1781788018.774291,-0.0063476525247097015,-0.0166015662252903,0.9858397841453552,0.9859999922400952,-0.1220703125,0.0762939453125,-0.1811981201171875,0.2314188540702704
1781788018.784062,-0.0024414025247097015,-0.0053710900247097015,0.9873046278953552,0.9873222560633013,-0.1811981201171875,0.0133514404296875,0.0629425048828125,0.1922830689802747
1781788018.793833,-0.0078125,-0.02001953125,0.9736327528953552,0.9738698857128233,-0.1220703125,0.0762939453125,-0.1811981201171875,0.2314188540702704
1781788018.804453,-0.0053710900247097015,-0.009277347475290298,0.9902343153953552,0.9902923392467189,0.2460479736328125,0.0133514404296875,0.1239776611328125,0.27584112592273685
1781788018.815074,-0.001953125,-0.0009765625,0.9980468153953552,0.9980492042441557,0.244140625,-0.2288818359375,-0.1811981201171875,0.38055787776830213
1781788018.825696,-0.012207027524709702,-0.0185546912252903,0.9858397841453552,0.9860899391491709,0.1239776611328125,-0.2918243408203125,0.0629425048828125,0.32325479930868045
1781788018.836383,-0.01416015625,-0.013671875,0.9877929091453552,0.9879889986983074,0.0629425048828125,0.0133514404296875,-0.0591278076171875,0.08738488150753256
1781788018.847069,0.0009765625,-0.0234375,0.9814452528953552,0.9817255494848823,0.18310546875,-0.0457763671875,0.2460479736328125,0.3101011025582709
1781788018.857755,0.00244140625,-0.02197265625,0.9858397841453552,0.9860876421956208,0.0629425048828125,0.1354217529296875,0.0019073486328125,0.14934673771555673
1781788018.865741,0.00048828125,-0.02392578125,0.9804686903953552,0.9807606916432697,-0.1811981201171875,0.0133514404296875,-0.1811981201171875,0.25660042562231444
1781788018.873729,-0.0087890625,-0.017578125,0.9829100966453552,0.9831065538310311,0.1239776611328125,-0.0438690185546875,0.0019073486328125,0.1315241013188119
1781788018.881716,-0.0078124962747097015,-0.008300784975290298,0.9926757216453552,0.992741167915069,-0.1811981201171875,-0.0438690185546875,-0.1201629638671875,0.22180258656810392
1781788018.889705,0.0029296912252902985,-0.0175781287252903,0.9897460341453552,0.9899064530583772,0.0,0.1373291015625,-0.3032684326171875,0.33291293810551886
1781788018.90036,-0.0019531212747097015,-0.0195312462747097,0.9995116591453552,0.9997043768190964,0.06103515625,-0.1068115234375,-0.1811981201171875,0.21901312876515927
1781788018.911015,-0.00341796875,-0.01220703125,0.9848632216453552,0.984944800215719,0.18310546875,0.1983642578125,0.1850128173828125,0.32727012399482347
1781788018.92167,-0.0205078087747097,-0.0249023400247097,0.9990233778953552,0.999544099247698,0.0,0.0152587890625,-0.2422332763671875,0.2427133923442135
1781788018.932362,-0.00732421875,-0.0205078125,0.9926757216453552,0.9929145496456177,-0.1220703125,0.0762939453125,0.0019073486328125,0.14396376371851874
1781788018.943053,0.0073242224752902985,-0.013671878725290298,0.9877929091453552,0.987914670333724,0.0,0.0762939453125,-0.0591278076171875,0.09652390235046383
1781788018.953744,-0.008789058774709702,-0.0190429724752903,0.9882811903953552,0.9885037145322724,0.0629425048828125,0.1354217529296875,0.0629425048828125,0.16205730162012164
1781788018.961766,0.0058593787252902985,-0.014160159975290298,0.9819335341453552,0.9820531085072536,0.1239776611328125,0.1354217529296875,0.1850128173828125,0.26065159547264954
1781788018.96979,-0.0014648400247097015,-0.0190429724752903,0.9946288466453552,0.9948122049593392,-0.30517578125,-0.1678466796875,0.0629425048828125,0.35393011211902975
1781788018.977813,-0.0053710900247097015,-0.0249023400247097,0.9863280653953552,0.9866569959886282,-0.1220703125,0.3814697265625,-0.2422332763671875,0.46807827727539164
1781788018.985837,-0.0073242150247097015,-0.0190429724752903,0.9946288466453552,0.9948380880854394,0.0,0.0152587890625,0.0019073486328125,0.015377536293599224
1781788018.993793,0.005859375,-0.015625,0.9843749403953552,0.9845163767956071,0.0,0.0762939453125,0.0019073486328125,0.07631778344628355
1781788019.001748,-0.011230465024709702,-0.0209960900247097,0.9946288466453552,0.9949138162273486,0.1239776611328125,0.0133514404296875,-0.2422332763671875,0.2724439054210834
1781788019.009703,-0.010742183774709702,-0.014648433774709702,0.9858397841453552,0.9860071252927447,0.0,-0.1678466796875,0.3681182861328125,0.4045782748337798
1781788019.017658,-0.011230465024709702,-0.0180664099752903,0.9809569716453552,0.9811875960965327,0.06103515625,-0.1068115234375,-0.0591278076171875,0.13649208574535251
1781788019.028346,-0.0068359337747097015,-0.0234375037252903,0.9863280653953552,0.9866301734479791,-0.0591278076171875,0.1964569091796875,-0.0591278076171875,0.21351232384025579
1781788019.039034,-0.004882805049419403,-0.02490234375,0.9887694716453552,0.9890950594190776,0.18310546875,0.0762939453125,0.0019073486328125,0.19837342754590662
1781788019.049722,-0.0024414025247097015,-0.0175781287252903,0.9770507216453552,0.9772118827170901,-0.1201629638671875,-0.1697540283203125,-0.1811981201171875,0.27584112592273685
1781788019.060385,0.001953125,-0.0166015625,0.9970702528953552,0.9972103668652441,-0.1220703125,-0.0457763671875,-0.1201629638671875,0.17730136737227803
1781788019.071048,-0.0078125,-0.02197265625,0.9799804091453552,0.9802578411252972,0.0,0.0762939453125,-0.1811981201171875,0.19660499694908432
1781788019.08171,-0.00439453125,-0.01806640625,0.9819335341453552,0.9821095521472565,0.0629425048828125,-0.1697540283203125,-0.0591278076171875,0.1904580969281996
1781788019.092509,-0.0034179650247097015,-0.008789066225290298,0.9985350966453552,0.9985796259700933,0.125885009765625,0.0762939453125,-0.0591278076171875,0.1586313317369976
1781788019.103307,-0.00830078125,-0.0263671875,0.9975585341453552,0.997941461505759,0.06103515625,-0.2288818359375,0.0019073486328125,0.2368877858805508
1781788019.114107,0.0048828125,-0.00732421875,0.9882811903953552,0.9883203920427163,-0.30517578125,-0.1678466796875,0.0019073486328125,0.34829355911712345
1781788019.124628,0.0009765625,-0.01611328125,0.9716796278953552,0.9718137119704651,0.06103515625,0.0762939453125,0.2460479736328125,0.26473696704204697
1781788019.135149,0.00634765625,-0.005859375,0.9921874403953552,0.9922250459918583,-0.1220703125,0.0152587890625,0.0019073486328125,0.12303507555290327
1781788019.145672,-0.014160152524709702,-0.009277347475290298,0.9790038466453552,0.9791501983057056,0.308990478515625,-0.1068115234375,0.0019073486328125,0.32693646987015934
1781788019.153675,-0.0161132775247097,-0.009765621274709702,0.9970702528953552,0.99724826110667,0.1239776611328125,-0.0438690185546875,-0.2422332763671875,0.2756300263550694
1781788019.161679,0.001953125,-0.0263671875,0.9799804091453552,0.9803370061272927,0.18310546875,-0.1068115234375,0.0629425048828125,0.22112908706481768
1781788019.169683,0.007812503725290298,-0.015624996274709702,0.9863280653953552,0.986482756215022,0.1239776611328125,0.1354217529296875,-0.0591278076171875,0.1928875560012282
1781788019.177686,-0.0048828087747097015,-0.0244140587747097,0.9873046278953552,0.9876185074971869,0.0,-0.0457763671875,0.1239776611328125,0.13215875397735602
1781788019.185691,-0.0029296837747097015,-0.014648433774709702,0.9936522841453552,0.9937645704322294,0.0,0.0152587890625,0.1850128173828125,0.18564097941882282
1781788019.202602,0.0,-0.03125,0.9819335341453552,0.9824306733704865,0.06103515625,-0.1068115234375,-0.1201629638671875,0.17196839745385933
1781788019.211508,0.0009765625,-0.01611328125,0.9907225966453552,0.9908541037966554,-0.0591278076171875,0.1354217529296875,-0.2422332763671875,0.28374655765268186
1781788019.220414,0.0039062537252902985,-0.009765621274709702,0.9819335341453552,0.9819898633164371,0.1850128173828125,0.1354217529296875,-0.0591278076171875,0.23678025972637665
1781788019.22932,0.0034179724752902985,-0.0053710900247097015,0.9794921278953552,0.9795128175541483,0.0,0.0762939453125,0.1239776611328125,0.14557206652139423
1781788019.238226,-0.01171875,-0.021484375,0.9829100966453552,0.9832147097954163,0.0629425048828125,0.1354217529296875,-0.2422332763671875,0.2845659330753673
1781788019.247132,-0.010742183774709702,-0.0180664099752903,0.9946288466453552,0.9948509095641992,0.06103515625,0.1983642578125,0.0629425048828125,0.216876527076788
1781788019.25778,0.0024414099752902985,-0.012695316225290298,0.9804686903953552,0.9805539171214964,0.0629425048828125,0.0133514404296875,-0.0591278076171875,0.08738488150753256
1781788019.268423,0.0024414099752902985,-0.0224609412252903,0.9975585341453552,0.9978143531787981,0.125885009765625,0.0762939453125,0.0019073486328125,0.14721222691694238
1781788019.279066,-0.004882805049419403,-0.00537109375,0.9916991591453552,0.9917257245240876,0.1239776611328125,0.1354217529296875,0.1239776611328125,0.22154000109793784
1781788019.289709,0.0039062537252902985,-0.0224609412252903,0.9853515028953552,0.9856152073487033,0.0,-0.0457763671875,0.0019073486328125,0.045816086385590794
1781788019.297706,-0.0087890625,-0.0107421875,0.9877929091453552,0.9878904157697644,-0.1201629638671875,-0.1697540283203125,0.1239776611328125,0.24212812409194218
1781788019.305705,-0.0068359337747097015,-0.0200195275247097,0.9814452528953552,0.9816732123796149,0.1239776611328125,-0.0438690185546875,-0.2422332763671875,0.2756300263550694
1781788019.313704,-0.00341796875,-0.0224609375,0.9804686903953552,0.9807318843951888,0.18310546875,-0.1068115234375,0.1239776611328125,0.24557437709410834
1781788019.321703,-0.00341796875,-0.015625,0.9833983778953552,0.9835284402510137,0.244140625,-0.1068115234375,-0.2422332763671875,0.3601254038442893
1781788019.332386,-0.0161132775247097,-0.0161132775247097,0.9833983778953552,0.9836623633505516,-0.244140625,-0.1068115234375,0.1239776611328125,0.29391122260708713
1781788019.343069,-0.00830078125,-0.02685546875,0.9946288466453552,0.9950259603398356,0.0,0.1373291015625,0.0629425048828125,0.15106634653981116
1781788019.353752,-0.00390625,-0.00537109375,0.9941405653953552,0.9941627488503733,-0.0591278076171875,0.1964569091796875,0.0629425048828125,0.21460003196405633
1781788019.361761,0.0048828125,-0.02490234375,0.9995116591453552,0.9998337488551055,0.06103515625,0.1983642578125,-0.1201629638671875,0.23981827903917768
1781788019.369772,-0.011230465024709702,-0.0073242224752902985,0.9814452528953552,0.9815368317135973,0.06103515625,-0.2288818359375,0.2460479736328125,0.34154324828547816
1781788019.377784,-0.0014648400247097015,-0.012695316225290298,0.9912108778953552,0.9912932569469233,-0.1220703125,-0.0457763671875,0.1239776611328125,0.17990858080340408
1781788019.385797,-0.017578125,-0.01513671875,0.9951171278953552,0.995387466750377,-0.0591278076171875,0.0133514404296875,-0.1201629638671875,0.13458639039854528
1781788019.396404,0.0024414099752902985,-0.013183597475290298,0.9887694716453552,0.9888603722381096,0.18310546875,0.0152587890625,0.2460479736328125,0.3070831298828125
1781788019.407011,-0.015136715024709702,-0.0244140587747097,0.9941405653953552,0.9945554937620076,0.0,0.1373291015625,0.0019073486328125,0.13734234640041115
1781788019.417618,-0.0058593712747097015,-0.0200195275247097,0.9941405653953552,0.994359380444839,-0.0591278076171875,0.0133514404296875,-0.0591278076171875,0.08467854644936795
1781788019.428332,-0.0029296875,-0.01513671875,0.9882811903953552,0.988401444056323,-0.179290771484375,-0.2288818359375,-0.1811981201171875,0.3425855138437493
1781788019.439046,-0.004882805049419403,-0.0126953125,0.9770507216453552,0.9771453962498788,-0.1201629638671875,-0.3528594970703125,-0.1811981201171875,0.41446558517211485
1781788019.449759,-0.015624992549419403,-0.0166015625,0.9897460341453552,0.9900085678296271,-0.0591278076171875,-0.1087188720703125,-0.0591278076171875,0.13715680227925717
1781788019.460404,-0.010253902524709702,-0.013671878725290298,0.9965819716453552,0.9967284931180651,-0.179290771484375,0.0762939453125,-0.1811981201171875,0.2660802615092142
1781788019.471051,-0.015624996274709702,-0.0180664099752903,0.9760741591453552,0.976366375818674,-0.0591278076171875,0.0133514404296875,-0.1811981201171875,0.19106835773922728
1781788019.481699,-0.0009765587747097015,-0.0190429724752903,0.9829100966453552,0.9830950343456714,-0.362396240234375,0.0762939453125,0.1239776611328125,0.3905409856690077
1781788019.489685,-0.014648430049419403,-0.017578125,0.9916991591453552,0.9919630987244601,0.06103515625,-0.0457763671875,0.1239776611328125,0.14557206652139423
1781788019.49767,-0.00341796875,-0.0263671875,0.9941405653953552,0.9944960406415063,0.244140625,-0.1068115234375,0.0629425048828125,0.2738158235664132
1781788019.505655,0.00244140625,-0.01123046875,0.9775390028953552,0.9776065599587942,0.06103515625,-0.0457763671875,-0.0591278076171875,0.09652390235046383
1781788019.51364,-0.015624996274709702,-0.0190429724752903,0.9790038466453552,0.9793136918555165,-0.1220703125,-0.1068115234375,0.0629425048828125,0.1739874180905336
1781788019.52433,0.00634765625,-0.009765625,0.9912108778953552,0.9912793070722246,0.3070831298828125,0.0133514404296875,0.0629425048828125,0.3137516032486442
1781788019.535022,0.0048828125,-0.01123046875,1.00244140625,1.0025162034853763,0.0,-0.0457763671875,-0.4253387451171875,0.42779495542929047
1781788019.545713,-0.0029296875,-0.0029296875,0.9882811903953552,0.9882898752020864,0.1239776611328125,-0.3528594970703125,0.0019073486328125,0.3740105922450372
1781788019.556364,-0.011230465024709702,-0.012207034975290298,0.9785155653953552,0.978656143274312,0.06103515625,-0.0457763671875,-0.0591278076171875,0.09652390235046383
1781788019.567013,-0.015136711299419403,-0.0205078125,0.9941405653953552,0.9944672715414488,0.0,0.0152587890625,0.0019073486328125,0.015377536293599224
1781788019.577662,-0.00341796875,-0.01171875,0.9794921278953552,0.9795681906947108,0.1239776611328125,-0.1087188720703125,0.1850128173828125,0.24783057963078203
1781788019.585671,-0.0019531212747097015,-0.012695316225290298,0.9853515028953552,0.9854352185683791,0.06103515625,-0.0457763671875,0.0629425048828125,0.0989066479680189
1781788019.593681,-0.00390625,-0.02783203125,0.9833983778953552,0.9837999036388342,-0.0591278076171875,-0.1697540283203125,-0.1811981201171875,0.2552357469058582
1781788019.601691,0.0009765662252902985,-0.0190429724752903,0.9902343153953552,0.9904178854750124,0.0629425048828125,0.0133514404296875,0.0019073486328125,0.06437125026964648
1781788019.609701,-0.0019531212747097015,-0.007812503725290298,0.9799804091453552,0.980013495930474,0.0,0.1373291015625,-0.1811981201171875,0.2273588372374519
1781788019.619312,0.00048828125,-0.0048828125,0.9863280653953552,0.9863402723518052,-0.2422332763671875,-0.1697540283203125,0.0629425048828125,0.3024155241244711
1781788019.628923,-0.004882805049419403,-0.00732421875,0.9936522841453552,0.9936912738636332,0.1850128173828125,0.1354217529296875,0.1239776611328125,0.26065159547264954
1781788019.638534,-0.0058593712747097015,-0.0219726599752903,0.9863280653953552,0.98659017966158,-0.1811981201171875,0.0133514404296875,0.1850128173828125,0.2593082379938519
1781788019.648145,-0.0068359337747097015,-0.0205078087747097,0.9833983778953552,0.983635943760967,0.0,0.1373291015625,0.0629425048828125,0.15106634653981116
1781788019.657756,-0.0170898400247097,-0.0200195275247097,0.9833983778953552,0.9837505851391392,0.0,0.1373291015625,-0.2422332763671875,0.27845330365349535
1781788019.667344,-0.0063476525247097015,-0.0278320349752903,0.9819335341453552,0.9823484006922533,-0.1220703125,0.0762939453125,-0.0591278076171875,0.15562141536051372
1781788019.676932,-0.012207027524709702,-0.008789066225290298,0.9848632216453552,0.984978083287019,0.0629425048828125,0.1354217529296875,-0.3032684326171875,0.3380422345056277
1781788019.68652,-0.0009765587747097015,-0.0249023400247097,0.9858397841453552,0.9861547344151967,0.3070831298828125,0.1354217529296875,0.0629425048828125,0.341468679011848
1781788019.696108,0.001953125,-0.021484375,0.9804686903953552,0.9807059936147985,0.0,0.2593994140625,-0.3032684326171875,0.3990736752005247
1781788019.705695,-0.0073242150247097015,-0.008300784975290298,0.9858397841453552,0.9859019358743012,0.18310546875,-0.1068115234375,0.0019073486328125,0.21199045309636924
1781788019.713821,0.0,-0.013671875,0.9809569716453552,0.9810522414151256,0.06103515625,-0.0457763671875,-0.0591278076171875,0.09652390235046383
1781788019.721946,0.0,-0.017578125,0.9960936903953552,0.9962487794341097,-0.0591278076171875,-0.1697540283203125,0.0629425048828125,0.1904580969281996
1781788019.730071,-0.0063476525247097015,-0.0170898474752903,0.9956054091453552,0.9957723064530332,-0.0591278076171875,-0.2918243408203125,-0.0591278076171875,0.3035681820653149
1781788019.738196,-0.011230465024709702,-0.0170898474752903,0.9829100966453552,0.9831228022575722,-0.179290771484375,-0.2288818359375,0.1239776611328125,0.31607362436866754
1781788019.74887,-0.0024414025247097015,-0.0175781287252903,0.9833983778953552,0.9835584988718192,-0.1220703125,0.0152587890625,-0.1201629638671875,0.17196839745385933
1781788019.759544,-0.0019531212747097015,-0.0180664099752903,0.9853515028953552,0.9855190480707332,0.1239776611328125,0.0133514404296875,0.2460479736328125,0.27584112592273685
1781788019.770218,-0.00439453125,-0.01123046875,0.9965819716453552,0.9966549360444644,0.06103515625,0.0762939453125,0.3070831298828125,0.3222516176040594
1781788019.778084,-0.0029296837747097015,-0.009765621274709702,0.9794921278953552,0.9795451898788905,0.06103515625,-0.1068115234375,0.0629425048828125,0.13818737553924526
1781788019.785948,-0.00830078125,-0.02490234375,0.9873046278953552,0.9876535110843222,-0.1220703125,-0.2899169921875,-0.0591278076171875,0.3200767426516799
1781788019.793812,-0.008300777524709702,-0.0185546912252903,0.9892577528953552,0.9894665639310649,-0.1811981201171875,-0.2918243408203125,0.1239776611328125,0.36519127192359774
1781788019.801676,-0.0078124962747097015,-0.0185546912252903,0.9902343153953552,0.9904389486742815,0.0,0.3204345703125,0.0629425048828125,0.3265579164134279
1781788019.81234,-0.01416015625,-0.02978515625,0.9887694716453552,0.9893193284353118,0.06103515625,-0.1068115234375,0.1850128173828125,0.2221795094814719
1781788019.823006,-0.0087890625,-0.0126953125,0.9863280653953552,0.9864489196940943,0.1239776611328125,0.0133514404296875,-0.1811981201171875,0.21995790541717905
1781788019.833671,-0.010253902524709702,-0.0229492224752903,0.9838866591453552,0.9842076850814644,0.18310546875,-0.2899169921875,0.0019073486328125,0.34290394139468744
1781788019.844339,-0.004882805049419403,-0.015625,0.9819335341453552,0.9820699811568104,0.125885009765625,0.0762939453125,0.0629425048828125,0.16009235052294385
1781788019.855007,-0.0029296837747097015,-0.0190429724752903,0.9848632216453552,0.9850516652426828,0.1239776611328125,0.1964569091796875,0.0019073486328125,0.23231318430774772
1781788019.865677,-0.013671875,-0.015625,0.9858397841453552,0.986058386098296,-0.2422332763671875,0.0133514404296875,0.0019073486328125,0.2426084481627481
1781788019.876325,-0.0063476525247097015,-0.0205078087747097,0.9990233778953552,0.9992540079953446,0.125885009765625,0.0762939453125,-0.0591278076171875,0.1586313317369976
1781788019.886975,-0.0068359337747097015,-0.012207034975290298,0.9902343153953552,0.9903331465118028,0.125885009765625,0.0762939453125,-0.1201629638671875,0.1900182613865974
1781788019.897624,-0.00048827752470970154,-0.0297851525247097,0.9912108778953552,0.9916584080135368,0.244140625,-0.1068115234375,0.0019073486328125,0.2664901204420857
1781788019.905923,-0.0019531212747097015,-0.0053710900247097015,0.9970702528953552,0.9970866323943847,0.06103515625,0.0762939453125,-0.1811981201171875,0.20586115496569857
1781788019.914221,0.001953125,-0.02587890625,0.9853515028953552,0.9856932163427408,-0.0591278076171875,-0.0438690185546875,0.1850128173828125,0.1991239087063444
1781788019.922518,0.0029296912252902985,-0.015136715024709702,0.9814452528953552,0.9815663439947615,0.0,-0.1068115234375,0.0019073486328125,0.10682855197861059
1781788019.930816,0.0034179724752902985,-0.0058593712747097015,0.9848632216453552,0.9848865823622762,-0.1811981201171875,-0.3528594970703125,0.0019073486328125,0.3966689065020394
1781788019.941103,-0.014648430049419403,-0.0078125,0.9892577528953552,0.9893970453375786,0.18310546875,-0.1068115234375,-0.1201629638671875,0.24367078632971956
1781788019.951389,0.0,-0.021484375,0.9809569716453552,0.9811922128659435,-0.1220703125,0.0762939453125,-0.1811981201171875,0.2314188540702704
1781788019.961674,-0.0185546875,-0.015625,0.9785155653953552,0.9788161874295982,0.1239776611328125,0.1964569091796875,-0.1811981201171875,0.2946159132810059
1781788019.969747,-0.0068359375,-0.01611328125,1.00048828125,1.0006413787130355,-0.0591278076171875,-0.1087188720703125,0.1239776611328125,0.17517520154924499
1781788019.977817,-0.010742180049419403,-0.02099609375,0.9931640028953552,0.9934439929015113,-0.1811981201171875,-0.1697540283203125,-0.0591278076171875,0.2552357469058582
1781788019.985887,-0.00830078125,-0.0029296875,0.9794921278953552,0.9795316812881444,-0.0591278076171875,-0.2269744873046875,0.1239776611328125,0.2652997851126219
1781788019.993957,-0.00341796875,-0.02001953125,0.9887694716453552,0.9889780241237318,-0.1220703125,0.0762939453125,0.3681182861328125,0.3952632032842845
1781788020.004529,-0.0068359337747097015,-0.015624996274709702,0.9814452528953552,0.9815934264908178,0.0,-0.1068115234375,0.0019073486328125,0.10682855197861059
1781788020.015101,-0.015136711299419403,-0.021484375,0.9829100966453552,0.9832613876713985,0.18310546875,-0.0457763671875,0.0629425048828125,0.19895941143852666
1781788020.025673,-0.0078124962747097015,-0.009277347475290298,0.9946288466453552,0.9947027932268458,-0.1811981201171875,0.1354217529296875,0.0019073486328125,0.22621991043972925
1781788020.036597,-0.010253898799419403,-0.01123046875,0.9902343153953552,0.9903510818166663,-0.06103515625,0.0762939453125,-0.0591278076171875,0.1142022505182091
1781788020.047525,-0.011230465024709702,-0.0053710900247097015,0.9882811903953552,0.9883595920726348,-0.1811981201171875,-0.0438690185546875,-0.1811981201171875,0.259980784399457
1781788020.058452,0.00048828125,-0.0126953125,0.9863280653953552,0.9864098853745312,0.18310546875,-0.0457763671875,-0.2422332763671875,0.3070831298828125
1781788020.066273,0.00634765625,-0.01806640625,0.9951171278953552,0.9953013543672886,0.0,0.1373291015625,-0.0591278076171875,0.14951715543568428
1781788020.074099,0.0014648474752902985,-0.009277347475290298,0.9946288466453552,0.9946731913213368,0.1239776611328125,-0.0438690185546875,0.1239776611328125,0.18073575105351042
1781788020.081923,-0.00390625,-0.0146484375,0.9814452528953552,0.9815623362482292,0.0,-0.0457763671875,-0.1201629638671875,0.12858698875948466
1781788020.100384,-0.0053710900247097015,-0.008789066225290298,0.9868163466453552,0.9868701020396007,0.1239776611328125,-0.1697540283203125,0.1850128173828125,0.28002970054417775
1781788020.11102,-0.0229492150247097,-0.013183597475290298,0.9960936903953552,0.9964452387151431,0.244140625,-0.1068115234375,-0.2422332763671875,0.3601254038442893
1781788020.121655,0.005859375,-0.0107421875,0.9907225966453552,0.9907981582398057,-0.244140625,-0.1068115234375,-0.0591278076171875,0.27296418070517126
1781788020.129667,0.00146484375,-0.02001953125,0.9887694716453552,0.9889732025977835,-0.0591278076171875,0.0133514404296875,0.0019073486328125,0.06064648855432375
1781788020.137678,-0.0029296837747097015,-0.0185546912252903,0.9848632216453552,0.985042346786753,0.1239776611328125,0.0133514404296875,0.0629425048828125,0.1396799210424779
1781788020.145689,-0.0019531212747097015,-0.0185546912252903,0.9912108778953552,0.9913864512425316,0.0,0.1373291015625,-0.0591278076171875,0.14951715543568428
1781788020.1537,-0.0024414025247097015,-0.015136715024709702,1.0009765625,1.0010939812337019,0.0629425048828125,0.1354217529296875,-0.1811981201171875,0.23480538499249737
1781788020.16199,-0.0029296837747097015,-0.013671878725290298,0.9863280653953552,0.9864271670536264,-0.0591278076171875,0.1964569091796875,0.0019073486328125,0.20517078928750607
1781788020.17028,-0.004882805049419403,-0.017578125,1.00341796875,1.0035838043103535,-0.1220703125,0.0762939453125,-0.1201629638671875,0.18751284001513444
1781788020.17857,-0.010253902524709702,-0.0029296912252902985,0.9868163466453552,0.9868739674417132,-0.1811981201171875,0.0133514404296875,0.2460479736328125,0.30586046659279686
1781788020.18686,-0.0053710900247097015,-0.0175781287252903,0.9887694716453552,0.9889402951014643,-0.0591278076171875,0.1354217529296875,0.0019073486328125,0.14777952083753537
1781788020.19712,-0.00927734375,-0.01708984375,0.9946288466453552,0.9948189154039667,0.2460479736328125,0.1354217529296875,0.0019073486328125,0.28085991966489204
1781788020.207381,-0.00830078125,-0.00830078125,0.9907225966453552,0.990792142400431,-0.1811981201171875,0.1964569091796875,0.3070831298828125,0.4070971930105426
1781788020.217643,-0.014648430049419403,-0.017578125,0.9882811903953552,0.9885460425648815,0.0,0.1983642578125,-0.1811981201171875,0.26866547510148503
1781788020.228335,-0.0048828087747097015,-0.0292968712747097,0.9785155653953552,0.9789662201572682,-0.06103515625,0.0762939453125,0.0019073486328125,0.0977225376697502
1781788020.239026,-0.00048827752470970154,-0.0200195275247097,0.9892577528953552,0.9894604194008073,-0.1220703125,-0.2288818359375,-0.1201629638671875,0.2858796843102275
1781788020.249717,-0.0068359337747097015,-0.014648433774709702,0.9941405653953552,0.9942719800774941,-0.0591278076171875,0.1354217529296875,0.1850128173828125,0.23678025972637665
1781788020.257705,-0.00390625,-0.01513671875,0.9936522841453552,0.9937752466382229,-0.0591278076171875,-0.1087188720703125,-0.1811981201171875,0.21942800530437956
1781788020.265695,-0.009765621274709702,-0.0180664099752903,0.9853515028953552,0.9855654959394691,-0.1811981201171875,0.1354217529296875,-0.0591278076171875,0.23381169246675235
1781788020.273685,-0.011230465024709702,-0.012207034975290298,0.9916991591453552,0.9918378684528857,-0.0591278076171875,-0.2269744873046875,0.2460479736328125,0.3399310530823186
1781788020.289667,-0.01318359375,-0.0263671875,0.9833983778953552,0.9838401320174133,-0.1220703125,-0.0457763671875,-0.0591278076171875,0.14315283657807001
1781788020.297661,-0.0087890625,-0.02294921875,0.9804686903953552,0.9807766142738351,0.1239776611328125,-0.1697540283203125,0.0019073486328125,0.21021543370966614
1781788020.305655,-0.00341796875,-0.0078125,0.9892577528953552,0.9892945058627354,0.3070831298828125,-0.0438690185546875,-0.1201629638671875,0.3326615056373713
1781788020.313649,-0.001953125,-0.01123046875,0.9897460341453552,0.9898116741239563,-0.1201629638671875,-0.1697540283203125,-0.1811981201171875,0.27584112592273685
1781788020.324331,-0.00439453125,-0.0029296875,1.00341796875,1.0034318686309156,0.0,-0.0457763671875,0.1850128173828125,0.19059175844933787
1781788020.335013,0.0009765625,-0.0126953125,0.9926757216453552,0.9927573787073637,0.18310546875,-0.0457763671875,-0.0591278076171875,0.19778570755405253
1781788020.345695,-0.0073242150247097015,-0.0180664099752903,0.9970702528953552,0.9972608126783741,-0.1220703125,0.0762939453125,0.0019073486328125,0.14396376371851874
1781788020.353721,0.0039062537252902985,-0.0170898474752903,1.00927734375,1.0094295806602611,-0.2422332763671875,0.1354217529296875,0.0019073486328125,0.27752414187767277
1781788020.361748,0.00048828125,-0.00830078125,0.9951171278953552,0.9951518676155113,0.06103515625,-0.1068115234375,0.1850128173828125,0.2221795094814719
1781788020.369777,-0.0048828087747097015,-0.013183597475290298,0.9912108778953552,0.9913105736962567,0.0,-0.0457763671875,0.1239776611328125,0.13215875397735602
1781788020.377805,-0.00830078125,-0.021484375,0.9853515028953552,0.985620649944306,0.06103515625,0.0762939453125,-0.1201629638671875,0.15487154120481808
1781788020.388431,-0.0087890625,-0.0087890625,0.9907225966453552,0.9908005645653282,0.06103515625,0.0762939453125,0.2460479736328125,0.26473696704204697
1781788020.399057,0.00048828125,-0.0068359375,0.9892577528953552,0.9892814918533808,0.1239776611328125,0.1354217529296875,0.0019073486328125,0.18361140924604577
1781788020.409683,0.00244140625,-0.01123046875,0.9931640028953552,0.9932304971857979,-0.30517578125,-0.0457763671875,-0.0591278076171875,0.31420348643522056
1781788020.420351,-0.00927734375,-0.0166015625,0.9902343153953552,0.9904169224983007,0.0629425048828125,0.1354217529296875,-0.0591278076171875,0.160614157909841
1781788020.431019,-0.0024414025247097015,-0.009277347475290298,0.9873046278953552,0.9873512332934267,0.18310546875,-0.1068115234375,-0.0591278076171875,0.2200736509871456
1781788020.441687,-0.010253898799419403,-0.01708984375,0.9887694716453552,0.9889703095936819,-0.1220703125,0.0152587890625,0.0019073486328125,0.12303507555290327
1781788020.449675,-0.009765617549419403,-0.02490234375,0.9877929091453552,0.9881550107995246,0.1239776611328125,-0.2269744873046875,0.0629425048828125,0.2661759517088482
1781788020.457663,-0.0063476525247097015,-0.012695316225290298,0.9916991591453552,0.9918007289754526,0.06103515625,-0.0457763671875,-0.0591278076171875,0.09652390235046383
1781788020.465651,-0.00390625,-0.01123046875,0.9804686903953552,0.9805407870471223,0.0,-0.3509521484375,0.0019073486328125,0.35095733141181723
1781788020.473639,-0.015136715024709702,-0.0200195275247097,0.9907225966453552,0.9910404457577738,-0.2422332763671875,0.1964569091796875,0.0629425048828125,0.3181729659555335
1781788020.484415,-0.011230465024709702,-0.0175781287252903,0.9873046278953552,0.9875249577695441,0.06103515625,0.0762939453125,-0.1811981201171875,0.20586115496569857
1781788020.495191,-0.011230465024709702,-0.0209960900247097,0.9892577528953552,0.989544269249519,-0.2422332763671875,0.0133514404296875,-0.0591278076171875,0.2497024604899697
1781788020.505967,-0.00830078125,-0.01318359375,0.9887694716453552,0.9888921974469008,0.1239776611328125,-0.0438690185546875,0.0629425048828125,0.1457968112471493
1781788020.514001,-0.0009765587747097015,-0.0278320349752903,0.9931640028953552,0.9935543832549033,-0.0591278076171875,-0.1697540283203125,-0.0591278076171875,0.18923167123450485
1781788020.522035,0.0009765625,-0.00830078125,0.9907225966453552,0.9907578514184947,0.06103515625,0.1983642578125,0.1850128173828125,0.2780349108869097
1781788020.530068,0.0,-0.0185546875,0.9907225966453552,0.9908963315765872,-0.1220703125,-0.1068115234375,0.2460479736328125,0.29470233806622653
1781788020.538103,0.00048828125,-0.00634765625,1.001953125,1.0019733508710265,0.1239776611328125,0.0133514404296875,0.1239776611328125,0.17583851080315843
1781788020.546199,0.00048828125,-0.00390625,0.9965819716453552,0.9965897467946302,0.244140625,-0.2288818359375,-0.0591278076171875,0.33983472046147145
1781788020.554295,-0.00439453125,-0.01806640625,0.9926757216453552,0.9928498352136762,-0.0591278076171875,-0.1087188720703125,0.1239776611328125,0.17517520154924499
1781788020.562391,0.0058593787252902985,-0.0043945349752902985,0.9892577528953552,0.9892848659108574,-0.1220703125,0.0152587890625,0.0629425048828125,0.13818737553924526
1781788020.570487,-0.00927734375,-0.01708984375,0.9770507216453552,0.9772442092610037,-0.179290771484375,0.2593994140625,-0.1811981201171875,0.36368392250611437
1781788020.580898,-0.00927734375,-0.02001953125,0.9912108778953552,0.9914564313153685,-0.5474090576171875,-0.1087188720703125,0.0019073486328125,0.5581040292672912
1781788020.591309,0.00732421875,-0.005859375,0.9936522841453552,0.9936965523956346,-0.2422332763671875,-0.0438690185546875,0.2460479736328125,0.34805323773432556
1781788020.60172,0.00244140625,-0.01708984375,0.9916991591453552,0.9918494066507685,-0.1220703125,0.0762939453125,-0.0591278076171875,0.15562141536051372
1781788020.612359,0.00732421875,-0.02099609375,0.9926757216453552,0.9929247546904969,-0.0591278076171875,-0.0438690185546875,0.0019073486328125,0.0736493475963891
1781788020.622998,-0.005371086299419403,-0.025390625,0.9882811903953552,0.9886218911672888,-0.1220703125,0.0762939453125,-0.1201629638671875,0.18751284001513444
1781788020.633637,-0.00439453125,-0.01708984375,0.9877929091453552,0.9879505078809113,0.244140625,-0.1068115234375,0.0629425048828125,0.2738158235664132
1781788020.641659,-0.0029296875,-0.01220703125,0.9936522841453552,0.9937315817000423,-0.179290771484375,0.2593994140625,0.0629425048828125,0.3215509223689983
1781788020.649682,-0.0087890625,-0.0146484375,0.9873046278953552,0.9874524052350099,0.0,0.0152587890625,-0.1201629638671875,0.12112790152975027
1781788020.657705,0.007812503725290298,-0.0175781287252903,0.9853515028953552,0.9855392483722176,0.125885009765625,0.0762939453125,0.0019073486328125,0.14721222691694238
1781788020.665727,-0.00244140625,-0.01611328125,0.9951171278953552,0.9952505697199173,0.18310546875,0.2593994140625,-0.1811981201171875,0.3655795774330512
1781788020.676402,-0.0009765587747097015,-0.0180664099752903,0.9931640028953552,0.9933287902218283,-0.0591278076171875,-0.1697540283203125,0.1239776611328125,0.21836434742088984
1781788020.687076,0.0039062537252902985,-0.0229492224752903,0.9960936903953552,0.9963656786922281,0.06103515625,-0.0457763671875,-0.0591278076171875,0.09652390235046383
1781788020.69775,-0.0161132775247097,-0.0053710900247097015,0.9833983778953552,0.983545045215448,-0.179290771484375,-0.2288818359375,-0.0591278076171875,0.29669542159460127
1781788020.70838,-0.0024414025247097015,-0.013183597475290298,0.9804686903953552,0.9805603604746936,-0.0591278076171875,-0.5321502685546875,0.1239776611328125,0.5495911811668776
1781788020.719011,-0.00341796875,-0.025390625,0.9799804091453552,0.9803152394291157,0.0,-0.1068115234375,0.0629425048828125,0.1239776611328125
1781788020.729642,0.0029296912252902985,-0.0205078087747097,0.9882811903953552,0.9884982876063448,0.0629425048828125,0.0133514404296875,0.0629425048828125,0.09000988169858487
1781788020.74049,-0.004882805049419403,-0.0166015625,0.9975585341453552,0.9977086161344012,0.3070831298828125,0.1964569091796875,-0.1201629638671875,0.3838417691033732
1781788020.751338,0.0048828125,-0.017578125,0.9980468153953552,0.9982135433148741,0.0,-0.1068115234375,-0.0591278076171875,0.12208521275181015
1781788020.762186,-0.0058593712747097015,-0.0239257849752903,0.9882811903953552,0.9885881279419043,0.2460479736328125,0.0133514404296875,0.0019073486328125,0.24641733759857032
1781788020.770056,-0.013671875,-0.0107421875,0.9990233778953552,0.9991746715863781,0.1239776611328125,-0.1697540283203125,0.0019073486328125,0.21021543370966614
1781788020.777926,-0.0161132775247097,-0.0234375037252903,0.9921874403953552,0.9925950187119357,-0.06103515625,0.0762939453125,-0.1811981201171875,0.20586115496569857
1781788020.785796,-0.005371086299419403,-0.01123046875,0.9965819716453552,0.9966597203684536,0.0629425048828125,0.1354217529296875,0.1239776611328125,0.19409088218521417
1781788020.793666,-0.001953125,-0.01611328125,0.9926757216453552,0.9928084109605609,0.18310546875,-0.0457763671875,-0.0591278076171875,0.19778570755405253
1781788020.804351,-0.0058593712747097015,-0.0190429724752903,0.9970702528953552,0.9972692997587147,0.0,-0.1678466796875,-0.0591278076171875,0.17795675181271814
1781788020.815036,-0.0014648400247097015,-0.011718753725290298,0.9838866591453552,0.9839575361718514,0.1239776611328125,-0.1697540283203125,0.3681182861328125,0.4239079654551152
1781788020.825721,-0.0078125,-0.015625,0.9956054091453552,0.9957586587626241,-0.1811981201171875,0.1964569091796875,-0.0591278076171875,0.2737228041871079
1781788020.833719,-0.0073242150247097015,-0.0175781287252903,0.9848632216453552,0.985047308551665,0.0,0.0762939453125,-0.0591278076171875,0.09652390235046383
1781788020.841717,-0.00341796875,-0.009765625,0.9858397841453552,0.9858940764330503,-0.30517578125,-0.1068115234375,0.1239776611328125,0.34628228291460417
1781788020.849716,-0.00927734375,-0.0048828125,0.9975585341453552,0.9976136226070671,-0.1220703125,0.1983642578125,-0.1811981201171875,0.2950971004692427
1781788020.857714,-0.00927734375,-0.0205078125,1.00634765625,1.006599346671981,-0.1201629638671875,0.1354217529296875,-0.0591278076171875,0.1904580969281996
1781788020.868358,-0.009765617549419403,-0.02099609375,0.9970702528953552,0.9973391060455254,0.3662109375,-0.0457763671875,-0.3643035888671875,0.5185778932802926
1781788020.879002,-0.0126953125,-0.01611328125,0.9892577528953552,0.9894704191918432,-0.2422332763671875,-0.0438690185546875,0.0019073486328125,0.24618100850256674
1781788020.889646,0.003906257450580597,-0.00634765625,0.9853515028953552,0.9853796912080508,-0.1811981201171875,0.0133514404296875,0.0019073486328125,0.18169936068780565
1781788020.900331,-0.010253902524709702,-0.0229492224752903,0.9980468153953552,0.9983632881121064,-0.1811981201171875,-0.2918243408203125,0.1850128173828125,0.39015887433856805
1781788020.911019,-0.0053710900247097015,-0.013183597475290298,0.9892577528953552,0.9893601758277981,0.2460479736328125,-0.0438690185546875,0.1850128173828125,0.3109563292709937
1781788020.921706,-0.0126953125,-0.0126953125,0.9892577528953552,0.9894206605799745,0.06103515625,0.0762939453125,0.1239776611328125,0.1578496653457686
1781788020.932373,-0.010253902524709702,-0.0341796837747097,0.9887694716453552,0.9894131904102352,0.064849853515625,0.087738037109375,-0.3604888916015625,0.37663736886417304
1781788020.943039,-0.00244140625,-0.015625,0.9926757216453552,0.992801686860777,-0.118255615234375,0.087738037109375,0.0095367431640625,0.14755779600022462
1781788020.953707,0.013183597475290298,-0.0229492224752903,0.9785155653953552,0.9788734268410817,0.0019073486328125,0.0247955322265625,-0.1735687255859375,0.17534126410726047
1781788020.961716,0.00048828125,-0.00927734375,0.9824218153953552,0.9824657403137985,0.0019073486328125,0.0247955322265625,0.0705718994140625,0.07482545946477138
1781788020.969726,-0.01318359375,-0.01708984375,0.9868163466453552,0.9870523653332939,0.186920166015625,-0.156402587890625,0.4329681396484375,0.49685242065710256
1781788020.977736,-0.0078125,-0.021484375,0.9931640028953552,0.9934270734042413,0.064849853515625,-0.156402587890625,0.1926422119140625,0.25647279545991863
1781788020.985746,-0.0014648400247097015,-0.0175781287252903,0.9887694716453552,0.9889267942692299,0.064849853515625,0.148773193359375,0.0095367431640625,0.16257280225647
1781788020.996397,-0.014648430049419403,-0.0126953125,0.9916991591453552,0.9918885873483926,-0.179290771484375,-0.217437744140625,0.1277923583984375,0.3094434361583082
1781788021.00705,-0.020019523799419403,-0.01513671875,0.9853515028953552,0.9856710840061239,0.1239776611328125,0.0247955322265625,0.1277923583984375,0.17976697623144158
1781788021.017702,-0.0078125,-0.01708984375,0.9907225966453552,0.9909007828331576,-0.118255615234375,0.209808349609375,0.2536773681640625,0.34979442708384534
1781788021.025702,-0.0024414025247097015,-0.0229492224752903,0.9990233778953552,0.9992899163105539,0.064849853515625,0.087738037109375,-0.0553131103515625,0.12232336994036837
1781788021.033705,-0.01220703125,-0.01171875,0.9819335341453552,0.9820793278512121,0.064849853515625,0.209808349609375,-0.0553131103515625,0.2264610060111274
1781788021.041708,-0.0029296837747097015,-0.0185546912252903,0.9936522841453552,0.9938298251716776,0.064849853515625,-0.278472900390625,0.0095367431640625,0.2860832207997216
1781788021.049711,-0.0039062462747097015,-0.0288085974752903,0.9970702528953552,0.9974940016146762,-0.118255615234375,0.209808349609375,0.0095367431640625,0.24102880236695273
1781788021.060395,-0.0126953125,-0.0205078125,0.9916991591453552,0.9919924211316397,0.003814697265625,-0.217437744140625,0.0095367431640625,0.2176802103140512
1781788021.071079,-0.00341796875,-0.0244140625,0.9824218153953552,0.9827310681579347,0.186920166015625,0.087738037109375,-0.0553131103515625,0.21376775200174372
1781788021.081763,0.0,-0.01904296875,0.9985350966453552,0.9987166634693557,0.064849853515625,-0.461578369140625,-0.1125335693359375,0.47950380455946684
1781788021.092407,-0.00439453125,-0.01806640625,0.9941405653953552,0.9943144224561433,-0.057220458984375,0.209808349609375,-0.0553131103515625,0.22439533121024688
1781788021.103051,-0.00830078125,-0.0224609375,0.9985350966453552,0.998822174320979,0.1239776611328125,-0.1544952392578125,0.0705718994140625,0.21028464613518452
1781788021.113697,-0.011230465024709702,-0.0249023400247097,0.9912108778953552,0.991587239904517,-0.0553131103515625,0.0247955322265625,0.3147125244140625,0.3204970071907607
1781788021.12436,-0.0014648400247097015,-0.0166015662252903,0.9921874403953552,0.992327402945075,-0.057220458984375,-0.034332275390625,-0.0553131103515625,0.08667425359727297
1781788021.135025,-0.0019531212747097015,-0.0249023400247097,0.9819335341453552,0.9822511932803174,0.003814697265625,0.087738037109375,0.0095367431640625,0.08833722058799294
1781788021.145689,-0.00439453125,-0.0185546875,0.9956054091453552,0.9957879890080117,-0.179290771484375,-0.034332275390625,-0.1125335693359375,0.21444740637379214
1781788021.153691,-0.010742183774709702,-0.0048828087747097015,1.00048828125,1.0005578630206047,-0.118255615234375,-0.095367431640625,0.0705718994140625,0.16751038934674584
1781788021.161693,-0.015624996274709702,-0.0288085974752903,0.9956054091453552,0.9961446714792828,-0.118255615234375,-0.034332275390625,0.0095367431640625,0.12350726755189571
1781788021.169695,-0.00390625,-0.01513671875,1.0029296875,1.0030515126913606,-0.118255615234375,-0.400543212890625,0.0705718994140625,0.42355595724073297
1781788021.177696,-0.00927734375,-0.0224609375,0.9887694716453552,0.9890680618027606,0.064849853515625,-0.156402587890625,0.2536773681640625,0.30499095087974004
1781788021.188362,-0.0058593712747097015,-0.0175781287252903,0.9868163466453552,0.9869902860959188,0.247955322265625,-0.156402587890625,0.0095367431640625,0.2933164857434916
1781788021.199027,-0.013671875,-0.02197265625,0.9999999403953552,1.000334743263179,-0.240325927734375,0.026702880859375,-0.0553131103515625,0.24805067136442535
1781788021.209692,-0.0078124962747097015,-0.014160159975290298,0.9921874403953552,0.9923192339700238,-0.1811981201171875,-0.0972747802734375,-0.3604888916015625,0.41502696608698975
1781788021.21769,0.00146484375,-0.02099609375,0.9746093153953552,0.9748365500817938,0.247955322265625,-0.217437744140625,0.2536773681640625,0.41606877019966204
1781788021.22569,-0.015136711299419403,-0.01611328125,0.9809569716453552,0.9812060630067619,0.064849853515625,-0.156402587890625,0.1277923583984375,0.21212769707163984
1781788021.23369,-0.00341796875,-0.02783203125,0.9877929091453552,0.9881908397833492,0.0019073486328125,0.0247955322265625,0.1926422119140625,0.1942407738049562
1781788021.24169,-0.008300777524709702,-0.014160159975290298,0.9887694716453552,0.9889056987882492,0.186920166015625,0.148773193359375,0.1277923583984375,0.27093080000378233
1781788021.252514,-0.0029296875,-0.01708984375,0.9902343153953552,0.9903861091588244,0.0019073486328125,-0.0972747802734375,0.1277923583984375,0.160614157909841
1781788021.263338,-0.0058593712747097015,-0.0229492224752903,0.9887694716453552,0.9890531164208474,0.064849853515625,0.087738037109375,-0.2346038818359375,0.2587323868967598
1781788021.274162,-0.0078124962747097015,-0.0346679650247097,0.9921874403953552,0.9928236599594529,-0.118255615234375,-0.034332275390625,-0.0553131103515625,0.13499124358536146
1781788021.282076,-0.010253898799419403,-0.02099609375,0.9936522841453552,0.993926979300104,-0.118255615234375,-0.034332275390625,-0.1735687255859375,0.21281258931154598
1781788021.289992,-0.00390625,-0.01220703125,0.9799804091453552,0.9800642186661539,-0.118255615234375,-0.156402587890625,-0.0553131103515625,0.20372947800971108
1781788021.297908,0.005859375,-0.009765625,0.9824218153953552,0.9824878233707208,0.064849853515625,-0.095367431640625,0.0705718994140625,0.13520666960485292
1781788021.313791,-0.010742183774709702,-0.015136715024709702,0.9980468153953552,0.9982193949101565,-0.057220458984375,-0.156402587890625,0.1277923583984375,0.20992102631776055
1781788021.321756,0.007812503725290298,-0.015136715024709702,0.9960936903953552,0.9962393263677332,0.003814697265625,0.148773193359375,0.0095367431640625,0.1491273430587149
1781788021.32972,-0.0078125,-0.01611328125,0.9902343153953552,0.9903962198915136,-0.1201629638671875,0.0247955322265625,-0.0553131103515625,0.13458639039854528
1781788021.337686,0.004394538700580597,-0.0205078125,0.9970702528953552,0.9972908159372238,0.1239776611328125,0.2079010009765625,0.2536773681640625,0.35063584212921595
1781788021.348348,-0.0063476525247097015,-0.0200195275247097,0.9951171278953552,0.9953387224485882,0.003814697265625,-0.034332275390625,0.0095367431640625,0.035835827308761475
1781788021.35901,-0.0014648400247097015,-0.0283203162252903,0.9809569716453552,0.9813667847889619,-0.118255615234375,-0.034332275390625,-0.1125335693359375,0.16681396792668327
1781788021.369672,0.009277347475290298,-0.0195312462747097,0.9951171278953552,0.9953520166192066,-0.240325927734375,-0.156402587890625,0.4329681396484375,0.5193069718296699
1781788021.380342,-0.0063476525247097015,-0.0200195275247097,0.9882811903953552,0.9885043173725381,0.064849853515625,0.087738037109375,0.1277923583984375,0.1680308112276995
1781788021.391014,-0.004882805049419403,-0.0107421875,0.9863280653953552,0.9863986460675926,0.064849853515625,0.087738037109375,-0.2346038818359375,0.2587323868967598
1781788021.401685,-0.0063476525247097015,0.0039062537252902985,0.9912108778953552,0.9912388995438091,-0.057220458984375,0.148773193359375,0.1926422119140625,0.2500373288128616
1781788021.409708,-0.005371086299419403,-0.02099609375,0.9975585341453552,0.997793923396522,0.003814697265625,-0.156402587890625,0.0095367431640625,0.15673950007668883
1781788021.417732,-0.00732421875,-0.03125,0.9902343153953552,0.9907543621235314,0.064849853515625,-0.095367431640625,0.0705718994140625,0.13520666960485292
1781788021.425756,0.009277351200580597,-0.015625,0.9995116591453552,0.9996768310998307,0.3070831298828125,0.0858306884765625,-0.0553131103515625,0.3236147337803845
1781788021.43378,-0.00732421875,-0.02099609375,0.9951171278953552,0.995365550119029,0.1239776611328125,-0.2193450927734375,0.0705718994140625,0.2616545875207598
1781788021.444432,-0.00439453125,-0.017578125,0.9902343153953552,0.9904000715720546,0.003814697265625,-0.034332275390625,0.2536773681640625,0.2560184840345935
1781788021.455084,0.001953125,-0.021484375,0.9873046278953552,0.9875402884591555,-0.118255615234375,0.209808349609375,-0.0553131103515625,0.24711024721171398
1781788021.465736,0.0034179724752902985,-0.014648433774709702,0.9804686903953552,0.9805840667650463,-0.240325927734375,0.087738037109375,0.1277923583984375,0.2859814706623994
1781788021.476403,0.001953125,-0.01513671875,0.9907225966453552,0.9908401477814156,-0.118255615234375,0.148773193359375,0.1926422119140625,0.27060834319722865
1781788021.487072,-0.00927734375,-0.01708984375,0.9858397841453552,0.9860315470968541,0.003814697265625,-0.034332275390625,0.0705718994140625,0.0785725781404342
1781788021.497743,-0.010253902524709702,-0.0239257849752903,0.9902343153953552,0.9905763903355348,0.064849853515625,0.087738037109375,-0.0553131103515625,0.12232336994036837
1781788021.505718,-0.0058593712747097015,-0.0175781287252903,0.9912108778953552,0.9913840463207477,0.064849853515625,-0.034332275390625,0.1926422119140625,0.20614371308783175
1781788021.513694,-0.0161132775247097,-0.0278320349752903,0.9853515028953552,0.9858761809383516,-0.0553131103515625,0.0247955322265625,0.0095367431640625,0.06136210610254445
1781788021.521669,0.0034179724752902985,-0.0297851525247097,1.00390625,1.004353820441693,0.0019073486328125,0.0247955322265625,0.0095367431640625,0.026634674155748255
1781788021.529644,-0.0019531212747097015,-0.0273437537252903,0.9931640028953552,0.9935422649276819,0.064849853515625,0.026702880859375,0.1277923583984375,0.14577185672214885
1781788021.54035,-0.013671875,-0.00732421875,0.9877929091453552,0.9879146702545506,0.003814697265625,-0.034332275390625,-0.0553131103515625,0.06521347426330093
1781788021.551056,-0.00439453125,-0.017578125,0.9824218153953552,0.982588889489459,-0.057220458984375,-0.156402587890625,-0.1735687255859375,0.2405453240593001
1781788021.561762,0.01513671875,-0.01611328125,0.9814452528953552,0.981694220477021,0.247955322265625,-0.156402587890625,-0.0553131103515625,0.29833395970874443
1781788021.569741,-0.010253898799419403,-0.01611328125,0.9956054091453552,0.9957885874987323,-0.118255615234375,0.148773193359375,0.2536773681640625,0.31697012590377005
1781788021.577718,-0.0014648400247097015,-0.0039062537252902985,0.9848632216453552,0.9848720576420739,-0.0553131103515625,0.0247955322265625,0.0705718994140625,0.09303091734510192
1781788021.585696,-0.0019531212747097015,-0.0185546912252903,0.9951171278953552,0.9952920121652139,0.186920166015625,0.087738037109375,0.0095367431640625,0.20670767061067707
1781788021.593674,0.0029296912252902985,-0.015136715024709702,0.9946288466453552,0.9947483329020885,-0.1811981201171875,-0.0972747802734375,-0.1735687255859375,0.26911195460769616
1781788021.604748,-0.0073242150247097015,-0.0239257849752903,0.9873046278953552,0.9876216459636746,0.1239776611328125,-0.0972747802734375,-0.1125335693359375,0.1936405111661666
1781788021.615823,-0.00439453125,-0.01611328125,0.9916991591453552,0.9918397914921308,-0.240325927734375,-0.034332275390625,-0.1125335693359375,0.2675800084131324
1781788021.626897,0.00537109375,-0.02294921875,0.9858397841453552,0.9861214911424795,-0.1811981201171875,0.0858306884765625,0.2536773681640625,0.3233448204889151
1781788021.637166,-0.0063476525247097015,-0.015624996274709702,0.9951171278953552,0.9952600320679315,0.064849853515625,0.087738037109375,-0.1125335693359375,0.15673950007668883
1781788021.647434,0.00146484375,-0.01318359375,0.9853515028953552,0.9854407831876617,0.1239776611328125,-0.2193450927734375,0.0095367431640625,0.2521382153778512
1781788021.657702,-0.0019531212747097015,-0.0180664099752903,0.9912108778953552,0.9913774328227316,-0.057220458984375,-0.278472900390625,0.3147125244140625,0.4241053055567937
1781788021.66835,-0.00830078125,-0.01220703125,0.9892577528953552,0.989367887211257,0.0019073486328125,-0.0972747802734375,0.1277923583984375,0.160614157909841
1781788021.678998,0.00537109375,-0.01416015625,0.9838866591453552,0.9840032097088425,-0.179290771484375,-0.034332275390625,0.0095367431640625,0.18279725201199656
1781788021.689648,0.004394538700580597,-0.015625,0.9960936903953552,0.9962259244974649,-0.057220458984375,0.087738037109375,-0.0553131103515625,0.11845541042498961
1781788021.69767,0.003906257450580597,-0.01171875,0.9916991591453552,0.9917760887410209,0.247955322265625,-0.034332275390625,0.1926422119140625,0.31586637805326834
1781788021.70569,-0.0087890625,-0.01708984375,0.9999999403953552,1.0001845785502506,-0.1201629638671875,0.0247955322265625,-0.2346038818359375,0.26475070854718413
1781788021.71371,-0.0063476525247097015,-0.011718753725290298,0.9819335341453552,0.9820239749418728,0.064849853515625,-0.034332275390625,0.1277923583984375,0.14736042718291242
1781788021.72173,-0.010742180049419403,-0.0068359375,0.9980468153953552,0.9981280329669777,-0.118255615234375,0.148773193359375,0.0705718994140625,0.20272702479865648
1781788021.732383,-0.00390625,-0.01806640625,0.9819335341453552,0.9821074886706852,0.003814697265625,-0.156402587890625,-0.0553131103515625,0.1659393310546875
1781788021.743038,-0.00830078125,-0.01708984375,0.9916991591453552,0.9918811360129621,-0.240325927734375,-0.278472900390625,-0.1125335693359375,0.3846654546756717
1781788021.753692,-0.00341796875,-0.0361328125,0.9833983778953552,0.984067900247108,0.0019073486328125,0.2079010009765625,0.1277923583984375,0.24404374823153827
1781788021.764354,0.0009765625,-0.02197265625,0.9790038466453552,0.9792508785001928,0.064849853515625,-0.095367431640625,-0.1125335693359375,0.16113427551645726
1781788021.775018,0.0043945349752902985,-0.0229492224752903,0.9804686903953552,0.9807470783007474,0.003814697265625,0.087738037109375,-0.0553131103515625,0.10378851211862786
1781788021.785681,-0.009765617549419403,-0.0205078125,0.9848632216453552,0.98512512048436,-0.057220458984375,-0.217437744140625,0.0095367431640625,0.22504289140855735
1781788021.796339,-0.0166015587747097,-0.0268554724752903,0.9921874403953552,0.9926896519224464,0.064849853515625,0.209808349609375,-0.0553131103515625,0.2264610060111274
1781788021.806998,-0.00927734375,-0.009765625,0.9936522841453552,0.9937435777533247,0.1239776611328125,0.0858306884765625,-0.2956390380859375,0.3318731811772407
1781788021.817657,-0.00732421875,-0.025390625,0.9838866591453552,0.9842414775157552,0.064849853515625,0.026702880859375,-0.1125335693359375,0.13259845992572555
1781788021.825658,0.0043945349752902985,-0.013671878725290298,0.9907225966453552,0.9908266728894833,0.1239776611328125,0.1506805419921875,0.1277923583984375,0.23325088008420583
1781788021.833659,-0.010742183774709702,-0.0278320349752903,0.9824218153953552,0.9828746817615259,0.064849853515625,0.026702880859375,-0.1125335693359375,0.13259845992572555
1781788021.84166,-0.00927734375,-0.01806640625,0.9902343153953552,0.9904425594290431,0.064849853515625,0.148773193359375,0.0705718994140625,0.17697276499578277
1781788021.849661,-0.0009765587747097015,-0.015136715024709702,0.9819335341453552,0.9820506806107143,0.064849853515625,-0.095367431640625,0.0095367431640625,0.11572121667570125
1781788021.860346,0.0048828125,-0.0185546875,0.9941405653953552,0.9943256921405226,0.0019073486328125,-0.0972747802734375,0.1926422119140625,0.21581715100333246
1781788021.871031,-0.0087890625,-0.01318359375,0.9887694716453552,0.9888964166289758,0.1239776611328125,0.0247955322265625,0.0095367431640625,0.12679206737228588
1781788021.881716,-0.01220703125,-0.0205078125,0.9848632216453552,0.9851523472718022,0.3070831298828125,0.0858306884765625,0.1277923583984375,0.34350814052656703
1781788021.889711,-0.012207027524709702,-0.0185546912252903,0.9838866591453552,0.9841373106084654,0.064849853515625,-0.095367431640625,-0.0553131103515625,0.1279061792701644
1781788021.897705,-0.0068359337747097015,-0.014160159975290298,0.9916991591453552,0.9918238061121051,0.064849853515625,0.087738037109375,-0.1125335693359375,0.15673950007668883
1781788021.905699,-0.010253902524709702,-0.013183597475290298,0.9995116591453552,0.9996511924300783,0.1239776611328125,-0.1544952392578125,0.1277923583984375,0.2357331675397544
1781788021.913693,-0.00390625,-0.02001953125,0.9907225966453552,0.9909325425700013,-0.057220458984375,0.148773193359375,0.2536773681640625,0.29959948449116836
1781788021.924351,-0.011230465024709702,-0.0229492224752903,0.9946288466453552,0.9949569501922991,-0.179290771484375,-0.034332275390625,-0.0553131103515625,0.1907443997860074
1781788021.935009,-0.009765621274709702,-0.0185546912252903,0.9892577528953552,0.9894799369309691,-0.057220458984375,-0.095367431640625,0.0095367431640625,0.11162471686095835
1781788021.945667,0.0024414099752902985,-0.0234375037252903,0.9897460341453552,0.9900265093268963,-0.057220458984375,0.087738037109375,-0.2346038818359375,0.2569263035476888
1781788021.956342,-0.0063476525247097015,-0.012695316225290298,0.9843749403953552,0.9844772658751413,0.1239776611328125,0.0247955322265625,-0.1125335693359375,0.16926040028857087
1781788021.967018,0.0,-0.01806640625,0.9887694716453552,0.9889345090007856,-0.179290771484375,-0.034332275390625,-0.0553131103515625,0.1907443997860074
1781788021.977693,-0.00439453125,-0.017578125,0.9897460341453552,0.9899118720825009,-0.240325927734375,-0.156402587890625,-0.0553131103515625,0.2920237339961203
1781788021.988466,-0.0009765587747097015,-0.0234375037252903,0.9750975966453552,0.9753797174595448,-0.057220458984375,0.209808349609375,-0.1735687255859375,0.27824418591179717
1781788021.999241,-0.0004882737994194031,-0.01611328125,0.9877929091453552,0.9879244442778955,0.003814697265625,0.270843505859375,0.0705718994140625,0.2799127534935381
1781788022.010015,-0.0078125,-0.00732421875,0.9926757216453552,0.9927334827035273,0.003814697265625,-0.034332275390625,-0.1125335693359375,0.11771601962440088
1781788022.017938,-0.010253902524709702,-0.0185546912252903,1.00048828125,1.0007128559192349,-0.118255615234375,0.087738037109375,0.0705718994140625,0.16328731327685922
1781788022.025859,-0.010742183774709702,-0.010742183774709702,0.9814452528953552,0.9815628219606359,0.0019073486328125,-0.2803802490234375,0.0705718994140625,0.2891316568765179
1781788022.03378,-0.00341796875,-0.0205078125,0.9965819716453552,0.9967988157559452,-0.118255615234375,-0.217437744140625,-0.1735687255859375,0.3023072371163994
1781788022.041701,0.0073242224752902985,-0.0244140587747097,0.9843749403953552,0.9847048866432428,0.064849853515625,0.026702880859375,-0.0553131103515625,0.08932014064001538
1781788022.049816,-0.0063476525247097015,-0.011230465024709702,0.9921874403953552,0.9922713000563567,0.0019073486328125,-0.0972747802734375,0.1277923583984375,0.160614157909841
1781788022.05793,0.0029296912252902985,-0.0234375037252903,0.9833983778953552,0.9836819960326428,0.186920166015625,-0.095367431640625,0.2536773681640625,0.32922075056059785
1781788022.066046,-0.012695308774709702,-0.009277347475290298,0.9916991591453552,0.9918238060717575,0.003814697265625,-0.034332275390625,0.0705718994140625,0.0785725781404342
1781788022.074161,-0.0058593712747097015,-0.013671878725290298,0.9897460341453552,0.9898578001945899,0.125885009765625,-0.034332275390625,-0.0553131103515625,0.14172254934890688
1781788022.084669,-0.0029296837747097015,-0.0229492224752903,0.9956054091453552,0.9958741790902756,0.1239776611328125,-0.1544952392578125,-0.0553131103515625,0.2056666710725278
1781788022.095177,0.0024414099752902985,-0.0043945349752902985,0.9775390028953552,0.9775519293633264,0.370025634765625,-0.034332275390625,-0.1125335693359375,0.38828015625922435
1781788022.105685,-0.00244140625,-0.01220703125,0.9804686903953552,0.9805477168001561,0.1239776611328125,-0.2193450927734375,0.2536773681640625,0.3575401198500606
1781788022.113849,0.00048828125,-0.01220703125,0.9912108778953552,0.9912861617558264,-0.0553131103515625,0.0247955322265625,0.0705718994140625,0.09303091734510192
1781788022.122013,-0.01806640625,-0.01220703125,0.9824218153953552,0.9826637420864952,0.064849853515625,-0.217437744140625,0.0705718994140625,0.23762379734544786
1781788022.130177,0.0,-0.02490234375,0.9897460341453552,0.9900592602620825,-0.1811981201171875,-0.1544952392578125,-0.1125335693359375,0.2633730090856269
1781788022.138341,0.0029296912252902985,-0.0244140587747097,0.9941405653953552,0.994444615411601,0.308990478515625,0.148773193359375,-0.1735687255859375,0.3843626950904411
1781788022.148792,-0.0004882737994194031,-0.02685546875,0.9975585341453552,0.997920078793545,-0.057220458984375,-0.034332275390625,0.1926422119140625,0.20387228323394727
1781788022.159242,0.00634765625,-0.015625,0.9882811903953552,0.9884250829749964,0.1239776611328125,-0.0972747802734375,0.0705718994140625,0.1726650987435405
1781788022.169694,-0.009765617549419403,-0.02490234375,0.9780272841453552,0.9783930000480912,-0.057220458984375,0.087738037109375,0.0705718994140625,0.12630335335650103
1781788022.180355,-0.009765617549419403,-0.00634765625,0.9936522841453552,0.9937205451299029,0.064849853515625,-0.034332275390625,0.0705718994140625,0.10180668750825896
1781788022.191018,-0.00341796875,-0.017578125,1.001953125,1.0021131361708404,-0.057220458984375,-0.095367431640625,-0.0553131103515625,0.12421218990451764
1781788022.201681,-0.0024414025247097015,-0.0039062537252902985,0.9897460341453552,0.9897567536374342,0.1239776611328125,0.0858306884765625,-0.0553131103515625,0.160614157909841
1781788022.209687,-0.00048827752470970154,0.00048827752470970154,0.9946288466453552,0.9946290863477459,0.186920166015625,-0.095367431640625,-0.0553131103515625,0.217010680976311
1781788022.217695,-0.0019531212747097015,-0.0190429724752903,0.9902343153953552,0.9904193298143551,0.064849853515625,-0.217437744140625,0.0705718994140625,0.23762379734544786
1781788022.225705,-0.0014648400247097015,-0.014648433774709702,0.9882811903953552,0.9883908304196323,-0.240325927734375,-0.278472900390625,-0.0553131103515625,0.37197210644095224
1781788022.233714,-0.01416015625,-0.0244140625,0.9921874403953552,0.9925887735366872,0.003814697265625,-0.156402587890625,-0.0553131103515625,0.1659393310546875
1781788022.244382,-0.00341796875,-0.021484375,0.9863280653953552,0.9865679467051728,0.1239776611328125,0.1506805419921875,0.0095367431640625,0.1953612952076208
1781788022.25505,-0.0019531212747097015,-0.0048828087747097015,0.9882811903953552,0.9882951825206396,-0.057220458984375,-0.034332275390625,0.0705718994140625,0.09712506909541332
1781788022.265718,0.0009765625,-0.0107421875,0.9833983778953552,0.9834575323387469,0.1239776611328125,-0.2803802490234375,-0.1735687255859375,0.3522919911152307
1781788022.27638,0.0,-0.0126953125,0.9877929091453552,0.9878744871274471,0.0019073486328125,-0.0972747802734375,-0.1125335693359375,0.14876096626312593
1781788022.287043,-0.0087890625,-0.0224609375,0.9951171278953552,0.995409382899171,0.186920166015625,-0.156402587890625,0.1277923583984375,0.27519412207972066
1781788022.297706,0.0019531287252902985,-0.013671878725290298,0.9858397841453552,0.9859365167106131,-0.057220458984375,-0.217437744140625,-0.0553131103515625,0.23154458248922727
1781788022.305701,-0.0068359337747097015,-0.0170898474752903,0.9946288466453552,0.994799143272837,-0.118255615234375,-0.034332275390625,-0.2346038818359375,0.2649567456028413
1781788022.313695,-0.00732421875,-0.01611328125,0.9907225966453552,0.9908806918679235,0.186920166015625,-0.095367431640625,0.1926422119140625,0.28485982042432845
1781788022.321691,-0.0029296875,-0.0224609375,0.9931640028953552,0.9934222734715342,0.064849853515625,-0.095367431640625,-0.0553131103515625,0.1279061792701644
1781788022.329685,-0.0009765587747097015,-0.0253906212747097,0.9931640028953552,0.9934889903581626,0.064849853515625,0.209808349609375,0.0095367431640625,0.2198090001273493
1781788022.340356,-0.00048827752470970154,-0.013183597475290298,0.9941405653953552,0.9942280972804621,-0.057220458984375,-0.217437744140625,0.1277923583984375,0.2586198762051771
1781788022.351026,-0.00927734375,-0.0087890625,0.9907225966453552,0.9908050162521381,0.064849853515625,-0.095367431640625,0.0095367431640625,0.11572121667570125
1781788022.361696,-0.01220703125,-0.02197265625,0.9951171278953552,0.9954345319835554,-0.3643035888671875,0.0247955322265625,0.1277923583984375,0.38686277947735676
1781788022.372385,-0.0078125,-0.02587890625,0.9892577528953552,0.9896270280305172,-0.118255615234375,-0.034332275390625,0.3147125244140625,0.33794536347023635
1781788022.383075,-0.0068359337747097015,-0.0175781287252903,0.9985350966453552,0.998713201991745,0.125885009765625,-0.034332275390625,-0.2956390380859375,0.3231534955057234
1781788022.393767,0.0039062537252902985,-0.013183597475290298,0.9902343153953552,0.9903297761084762,0.0019073486328125,0.2079010009765625,0.0095367431640625,0.20812835860603193
1781788022.401731,-0.00048827752470970154,-0.009277347475290298,0.9868163466453552,0.9868600759974051,0.186920166015625,0.270843505859375,-0.1125335693359375,0.34779183049202345
1781788022.409698,-0.00927734375,-0.01611328125,0.9941405653953552,0.9943144224561433,-0.179290771484375,0.148773193359375,-0.0553131103515625,0.23945392871818263
1781788022.417665,-0.00341796875,-0.01953125,0.9926757216453552,0.9928737284171967,-0.057220458984375,-0.217437744140625,-0.1125335693359375,0.25143022437812185
1781788022.425632,-0.011230465024709702,-0.0161132775247097,1.00146484375,1.0016574236356817,-0.1811981201171875,-0.1544952392578125,0.1277923583984375,0.27024511938676365
1781788022.436349,-0.001953125,-0.01611328125,0.9853515028953552,0.9854851783705539,-0.057220458984375,-0.034332275390625,0.0095367431640625,0.06740797823742788
1781788022.447066,-0.0073242150247097015,-0.0224609412252903,0.9931640028953552,0.9934449530062445,0.064849853515625,-0.217437744140625,-0.0553131103515625,0.23354703221134293
1781788022.457783,-0.0009765550494194031,-0.0166015625,0.9902343153953552,0.9903739520624084,-0.179290771484375,-0.034332275390625,0.0705718994140625,0.1957147895787864
1781788022.468425,-0.005371086299419403,-0.0107421875,0.9873046278953552,0.9873776741571113,0.064849853515625,-0.034332275390625,0.3147125244140625,0.3231534955057234
1781788022.479067,0.0029296912252902985,-0.0185546912252903,0.9853515028953552,0.9855305393113278,-0.179290771484375,-0.217437744140625,0.0705718994140625,0.29052494953675634
1781788022.489709,-0.0063476525247097015,-0.0205078087747097,0.9848632216453552,0.9850971669145042,0.064849853515625,-0.156402587890625,0.0705718994140625,0.18343300135687485
1781788022.497706,-0.01220703125,-0.01220703125,0.9946288466453552,0.9947786516622411,0.1850128173828125,-0.2803802490234375,-0.0553131103515625,0.3404443666961386
1781788022.505705,0.0029296912252902985,-0.007812503725290298,0.9946288466453552,0.9946638431571758,-0.240325927734375,0.026702880859375,0.0705718994140625,0.25189281127989055
1781788022.513704,-0.011230465024709702,-0.011230465024709702,0.9755858778953552,0.9757151489231851,0.064849853515625,0.026702880859375,0.3147125244140625,0.3224321949964983
1781788022.521703,-0.0078125,-0.015625,0.9912108778953552,0.9913648068392032,-0.1201629638671875,0.0247955322265625,-0.2956390380859375,0.3200881084078631
1781788022.532362,-0.0058593712747097015,-0.009765621274709702,0.9785155653953552,0.9785818367983373,0.1239776611328125,-0.2803802490234375,-0.2346038818359375,0.3860343584124318
1781788022.543023,-0.0068359337747097015,-0.0224609412252903,0.9931640028953552,0.9934414731218056,0.064849853515625,-0.278472900390625,0.2536773681640625,0.38223666343197676
1781788022.553683,0.00146484375,-0.029296875,0.9858397841453552,0.9862760935233795,0.064849853515625,-0.095367431640625,0.2536773681640625,0.2786622644660963
1781788022.564353,-0.011230465024709702,-0.0322265662252903,0.9804686903953552,0.9810624484511306,0.064849853515625,-0.034332275390625,0.1277923583984375,0.14736042718291242
1781788022.575027,-0.010253902524709702,-0.014160159975290298,0.9995116591453552,0.9996645484436331,0.1850128173828125,0.2079010009765625,0.1277923583984375,0.30624084585178585
1781788022.5857,-0.00341796875,-0.00537109375,0.9951171278953552,0.9951374927059818,0.003814697265625,-0.217437744140625,0.1926422119140625,0.29052494953675634
1781788022.5937,0.007812503725290298,-0.009277347475290298,0.9946288466453552,0.9947027932853635,0.003814697265625,0.087738037109375,0.0705718994140625,0.11266280689714324
1781788022.601701,0.011230472475290298,-0.0190429724752903,0.9907225966453552,0.9909692335367573,0.1239776611328125,-0.0972747802734375,-0.1735687255859375,0.23443324388561984
1781788022.609702,-0.00830078125,-0.0107421875,0.9882811903953552,0.9883744274569763,-0.1201629638671875,-0.4634857177734375,0.0095367431640625,0.47890405921800544
1781788022.617703,-0.0058593712747097015,-0.0288085974752903,0.9863280653953552,0.9867660918914737,0.064849853515625,-0.034332275390625,-0.1735687255859375,0.18844179774143052
1781788022.628372,-0.01318359375,-0.01513671875,0.9936522841453552,0.9938550141675412,0.1239776611328125,0.2079010009765625,-0.1735687255859375,0.29785800168628274
1781788022.639043,0.0009765625,-0.0126953125,0.9965819716453552,0.9966633086666393,0.247955322265625,0.026702880859375,-0.1735687255859375,0.3038436903863011
1781788022.649713,-0.00390625,-0.01806640625,0.9960936903953552,0.9962651724662919,0.003814697265625,-0.034332275390625,0.2536773681640625,0.2560184840345935
1781788022.660357,-0.00390625,-0.01123046875,0.9970702528953552,0.9971411491991566,-0.118255615234375,-0.339508056640625,-0.1125335693359375,0.37671463375589836
1781788022.671002,-0.010253898799419403,-0.025390625,0.9931640028953552,0.9935414248664242,0.186920166015625,-0.156402587890625,0.0705718994140625,0.2537347255483609
1781788022.681647,-0.00439453125,-0.00927734375,0.9902343153953552,0.9902875241052321,0.1239776611328125,-0.1544952392578125,-0.1125335693359375,0.22782239495005197
1781788022.690044,-0.01220703125,-0.01611328125,0.9902343153953552,0.9904406336732595,0.186920166015625,-0.217437744140625,0.0095367431640625,0.2868959227846398
1781788022.698442,-0.0063476525247097015,-0.0161132775247097,0.9790038466453552,0.9791570160865748,-0.057220458984375,-0.095367431640625,-0.1735687255859375,0.20614371308783175
1781788022.706842,0.0034179724752902985,-0.009765621274709702,0.9941405653953552,0.994194404359288,-0.118255615234375,0.148773193359375,0.0095367431640625,0.19028610844458357
1781788022.715241,-0.00439453125,-0.01611328125,1.00390625,1.0040451725528146,0.003814697265625,0.087738037109375,0.0095367431640625,0.08833722058799294
1781788022.725386,-0.004882805049419403,-0.015625,0.9838866591453552,0.9840228353317615,-0.057220458984375,-0.095367431640625,0.0705718994140625,0.13171758018966329
1781788022.735533,-0.00927734375,-0.01171875,0.9790038466453552,0.9791179346508879,0.1850128173828125,0.0247955322265625,0.0095367431640625,0.18691043439172067
1781788022.745679,0.0024414099752902985,-0.0034179724752902985,0.9921874403953552,0.9921963313260113,0.186920166015625,-0.217437744140625,-0.2346038818359375,0.37048252646078095
1781788022.75635,-0.0068359337747097015,-0.0268554724752903,0.9809569716453552,0.9813483207363579,0.003814697265625,-0.217437744140625,-0.0553131103515625,0.22439533121024688
1781788022.76702,-0.01416015625,-0.009765625,0.9838866591453552,0.9840370092130039,0.0019073486328125,0.0247955322265625,0.1926422119140625,0.1942407738049562
1781788022.777692,0.0009765625,-0.01953125,0.9843749403953552,0.9845691680523203,-0.057220458984375,-0.217437744140625,-0.0553131103515625,0.23154458248922727
1781788022.785693,0.0009765625,-0.0166015625,1.00244140625,1.0025793427535974,0.064849853515625,-0.034332275390625,0.0705718994140625,0.10180668750825896
1781788022.793695,-0.0126953125,-0.025390625,0.9838866591453552,0.9842961001861034,0.064849853515625,0.209808349609375,0.0705718994140625,0.23066304440398835
1781788022.801697,-0.0068359337747097015,-0.0195312462747097,1.00439453125,1.004607671669156,-0.118255615234375,-0.217437744140625,0.0705718994140625,0.25737901254440504
1781788022.809699,0.00537109375,-0.017578125,0.9936522841453552,0.9938222682722845,-0.240325927734375,0.087738037109375,0.0095367431640625,0.2560184840345935
1781788022.820596,-0.00927734375,-0.01416015625,0.9804686903953552,0.9806148234539711,0.0019073486328125,0.0247955322265625,-0.1735687255859375,0.17534126410726047
1781788022.831495,-0.0087890625,-0.0146484375,0.9902343153953552,0.9903816555890603,0.064849853515625,-0.034332275390625,0.0705718994140625,0.10180668750825896
1781788022.842393,-0.00390625,-0.02197265625,0.9809569716453552,0.981210801322208,0.064849853515625,-0.217437744140625,0.0705718994140625,0.23762379734544786
1781788022.852828,0.00048828125,-0.02978515625,0.9985350966453552,0.9989793457244073,0.1239776611328125,-0.1544952392578125,-0.0553131103515625,0.2056666710725278
1781788022.863264,-0.00830078125,-0.017578125,0.9995116591453552,0.9997006803115505,0.064849853515625,-0.156402587890625,-0.0553131103515625,0.17812022113349968
1781788022.8737,-0.009765617549419403,-0.0126953125,0.9931640028953552,0.9932931465044543,0.125885009765625,-0.034332275390625,-0.0553131103515625,0.14172254934890688
1781788022.881702,-0.011230465024709702,-0.013183597475290298,0.9892577528953552,0.989409335033094,0.003814697265625,0.087738037109375,0.2536773681640625,0.2684487328889443
1781788022.889703,-0.0078124962747097015,-0.0190429724752903,0.9921874403953552,0.992400920382999,-0.1201629638671875,0.0247955322265625,0.0705718994140625,0.1415427472202446
1781788022.897704,-0.01318359375,-0.0166015625,0.9868163466453552,0.987044031960121,-0.057220458984375,-0.156402587890625,0.0095367431640625,0.16681396792668327
1781788022.905705,-0.00927734375,-0.017578125,0.9970702528953552,0.9972683434233631,0.003814697265625,0.270843505859375,-0.1125335693359375,0.2933164857434916
1781788022.916369,-0.0068359337747097015,-0.0219726599752903,0.9931640028953552,0.9934305533977134,0.064849853515625,-0.095367431640625,0.2536773681640625,0.2786622644660963
1781788022.927032,-0.0014648400247097015,-0.0170898474752903,0.9843749403953552,0.9845243683735745,-0.1201629638671875,0.0247955322265625,0.0705718994140625,0.1415427472202446
1781788022.937696,-0.0053710900247097015,-0.0195312462747097,0.9970702528953552,0.9972759935935009,-0.118255615234375,0.148773193359375,0.0095367431640625,0.19028610844458357
1781788022.94841,-0.011230465024709702,-0.014160159975290298,0.9926757216453552,0.992840229754679,-0.240325927734375,-0.034332275390625,0.0705718994140625,0.2528154458528875
1781788022.959124,-0.0029296875,-0.02685546875,0.9848632216453552,0.9852336599103271,0.064849853515625,-0.095367431640625,-0.2346038818359375,0.2614181169911868
1781788022.969838,-0.0019531212747097015,-0.0175781287252903,0.9916991591453552,0.9918568583932871,0.003814697265625,-0.034332275390625,0.1926422119140625,0.1957147895787864
1781788022.977795,-0.00341796875,-0.0126953125,0.9999999403953552,1.000086363400963,0.1239776611328125,0.0858306884765625,0.1277923583984375,0.19765691085655948
1781788022.985753,-0.014648433774709702,-0.014648433774709702,0.9877929091453552,0.9880101136030683,-0.240325927734375,-0.034332275390625,-0.1125335693359375,0.2675800084131324
1781788022.993711,-0.0068359337747097015,-0.0185546912252903,0.9907225966453552,0.9909199110224566,0.003814697265625,-0.156402587890625,0.0095367431640625,0.15673950007668883
1781788023.001669,-0.01708984375,-0.02099609375,0.9882811903953552,0.9886519154896827,-0.057220458984375,0.087738037109375,0.1926422119140625,0.21927874017635904
1781788023.009906,-0.0087890625,-0.01953125,0.9970702528953552,0.997300258976703,0.1239776611328125,0.0858306884765625,0.0705718994140625,0.16648651756593313
1781788023.018143,-0.0019531212747097015,-0.0190429724752903,0.9814452528953552,0.9816319238463245,-0.057220458984375,-0.095367431640625,0.2536773681640625,0.27698616402765885
1781788023.02638,-0.00341796875,-0.01123046875,0.9892577528953552,0.9893274016230867,0.064849853515625,0.270843505859375,0.1926422119140625,0.3386336220435559
1781788023.034616,0.0024414099752902985,-0.0224609412252903,0.9912108778953552,0.9914683347548091,0.064849853515625,0.026702880859375,0.1926422119140625,0.20501114398571255
1781788023.044963,-0.011718746274709702,-0.009765621274709702,0.9848632216453552,0.9849813509517833,-0.118255615234375,0.209808349609375,0.0705718994140625,0.25096678482854823
1781788023.055309,0.0029296912252902985,-0.015624996274709702,0.9985350966453552,0.9986616358065474,0.064849853515625,0.026702880859375,0.0705718994140625,0.0994934185466383
1781788023.065655,-0.019531242549419403,-0.01806640625,0.9926757216453552,0.9930322012978436,-0.057220458984375,-0.095367431640625,0.1926422119140625,0.22244134003205068
1781788023.076356,-0.012207027524709702,-0.0283203162252903,0.9882811903953552,0.9887622379123051,-0.240325927734375,0.209808349609375,-0.0553131103515625,0.32378331532671956
1781788023.087058,0.0,-0.009765625,0.9951171278953552,0.9951650444335057,0.1239776611328125,-0.1544952392578125,-0.0553131103515625,0.2056666710725278
1781788023.097759,-0.015624992549419403,-0.02099609375,0.9882811903953552,0.9886276789743389,0.0019073486328125,0.0247955322265625,0.0095367431640625,0.026634674155748255
1781788023.108414,0.004394538700580597,-0.0166015625,0.9843749403953552,0.9845247315970236,-0.118255615234375,-0.034332275390625,-0.0553131103515625,0.13499124358536146
1781788023.119069,0.0009765625,-0.013671875,0.9965819716453552,0.9966762262885955,-0.118255615234375,-0.034332275390625,0.0095367431640625,0.12350726755189571
1781788023.129724,-0.00732421875,-0.0166015625,0.9868163466453552,0.9869831599699284,0.186920166015625,-0.095367431640625,-0.2956390380859375,0.3625417718296976
1781788023.137716,-0.00439453125,-0.01904296875,0.9946288466453552,0.9948208326843534,-0.1811981201171875,-0.1544952392578125,-0.1125335693359375,0.2633730090856269
1781788023.145708,0.00048828125,-0.01806640625,0.9960936903953552,0.9962576340981317,0.186920166015625,0.087738037109375,0.2536773681640625,0.3270922174827157
1781788023.1537,-0.0053710900247097015,-0.009765621274709702,1.00244140625,1.002503361057414,-0.057220458984375,-0.034332275390625,0.0095367431640625,0.06740797823742788
1781788023.161692,-0.00341796875,-0.02587890625,0.9980468153953552,0.9983881239377211,-0.18310546875,0.110626220703125,-0.0743865966796875,0.2264931326967779
1781788023.172377,-0.011718746274709702,-0.014160159975290298,0.9829100966453552,0.9830819382086919,-0.06103515625,-0.133514404296875,0.0476837158203125,0.1543538895125213
1781788023.183062,-0.004882805049419403,-0.01171875,0.9941405653953552,0.9942216225024024,-0.06103515625,0.049591064453125,-0.1354217529296875,0.15660017604908763
1781788023.193747,-0.0078125,-0.01708984375,0.9887694716453552,0.9889480097424153,-0.06103515625,-0.072479248046875,0.1087188720703125,0.1442162433297419
1781788023.203327,0.00244140625,-0.0107421875,0.9887694716453552,0.9888308364500966,0.2422332763671875,0.1125335693359375,-0.0743865966796875,0.2772618440619895
1781788023.212908,-0.017578125,-0.02099609375,0.9931640028953552,0.9935414249433184,-0.1220703125,0.049591064453125,-0.0133514404296875,0.13243374127838098
1781788023.222487,0.001953125,-0.02734375,0.9863280653953552,0.9867089479415256,0.18310546875,0.232696533203125,0.1087188720703125,0.31542841088771834
1781788023.232068,-0.00830078125,-0.009765625,0.9858397841453552,0.9859230955834037,0.0591278076171875,-0.0705718994140625,-0.0743865966796875,0.11836323916702426
1781788023.241648,-0.0053710900247097015,-0.007812503725290298,0.9921874403953552,0.9922327351487643,0.18310546875,-0.194549560546875,-0.0743865966796875,0.27732744177366564
1781788023.252321,0.0073242224752902985,-0.0332031287252903,0.9936522841453552,0.9942338526620875,0.18310546875,-0.072479248046875,-0.0743865966796875,0.21050942935931435
1781788023.262999,-0.010253898799419403,-0.02734375,0.9951171278953552,0.9955455395587647,0.0591278076171875,-0.1964569091796875,-0.0743865966796875,0.21823102566692393
1781788023.273675,0.0068359375,-0.015625,0.9809569716453552,0.9811052190698663,-0.1220703125,0.110626220703125,-0.0743865966796875,0.18075587864988146
1781788023.281821,-0.0063476525247097015,-0.0175781287252903,0.9877929091453552,0.9879696931889669,-0.0629425048828125,0.1697540283203125,-0.3185272216796875,0.3663847431360606
1781788023.289966,-0.0068359337747097015,-0.0234375037252903,0.9750975966453552,0.9754031830761026,-0.18310546875,0.232696533203125,0.0476837158203125,0.29991503130944036
1781788023.298111,-0.010253902524709702,-0.013671878725290298,0.9965819716453552,0.9967284931180651,-0.06103515625,-0.133514404296875,-0.0133514404296875,0.147409794161578
1781788023.306256,0.0029296912252902985,-0.013183597475290298,0.9926757216453552,0.9927675854283281,0.18310546875,-0.194549560546875,-0.1354217529296875,0.29952661878652576
1781788023.316069,-0.0063476525247097015,-0.0170898474752903,0.9858397841453552,0.9860083344389456,-0.4291534423828125,0.1125335693359375,0.1697540283203125,0.4750293795834924
1781788023.325881,-0.009765621274709702,-0.008789066225290298,0.9853515028953552,0.9854390895951555,-0.18310546875,-0.072479248046875,-0.0133514404296875,0.1973806349294306
1781788023.335695,-0.01806640625,-0.0078125,0.9853515028953552,0.985548078202771,-0.3662109375,-0.072479248046875,-0.1964569091796875,0.4218518807668224
1781788023.345508,0.01708984375,-0.01123046875,0.9897460341453552,0.9899572709436518,-0.18310546875,-0.072479248046875,-0.3185272216796875,0.3744869090296461
1781788023.355321,-0.00390625,-0.0087890625,0.9916991591453552,0.9917457984071806,0.0591278076171875,-0.0133514404296875,-0.0133514404296875,0.06206947363003914
1781788023.364601,-0.00244140625,-0.0263671875,0.9975585341453552,0.9979099248365895,0.0,-0.011444091796875,0.1697540283203125,0.17013934691313695
1781788023.373884,0.00537109375,-0.01513671875,0.9902343153953552,0.9903645633245849,0.1220703125,0.171661376953125,-0.2574920654296875,0.3326724414353209
1781788023.383167,-0.0019531212747097015,-0.015136715024709702,0.9863280653953552,0.9864461401470417,0.0,0.049591064453125,-0.0133514404296875,0.051356933661789936
1781788023.39245,-0.0063476525247097015,-0.0229492224752903,0.9926757216453552,0.9929612519373158,0.06103515625,-0.255584716796875,-0.0133514404296875,0.2631104306563087
1781788023.401733,0.0048828125,-0.0166015625,0.9990233778953552,0.9991732398922608,0.2422332763671875,-0.1354217529296875,-0.1354217529296875,0.308796150417522
1781788023.409727,-0.00341796875,-0.01611328125,0.9897460341453552,0.9898830902937358,0.0591278076171875,0.0476837158203125,0.0476837158203125,0.08968595844656943
1781788023.417721,-0.0073242150247097015,-0.0185546912252903,0.9887694716453552,0.9889706713295541,-0.1220703125,0.232696533203125,0.0476837158203125,0.2670628662188606
1781788023.425715,-0.01416015625,-0.02001953125,0.9833983778953552,0.9837040516861308,0.2422332763671875,-0.1354217529296875,-0.0743865966796875,0.2873140739882369
1781788023.433708,-0.0024414025247097015,-0.007812503725290298,0.9775390028953552,0.9775732698076347,0.18310546875,0.110626220703125,-0.0133514404296875,0.21434559560383143
1781788023.444404,-0.0004882737994194031,-0.02197265625,0.9853515028953552,0.98559658090525,0.18310546875,-0.011444091796875,-0.0133514404296875,0.1839479298191747
1781788023.455099,-0.0078125,-0.02490234375,0.9877929091453552,0.9881376388126996,0.0,-0.011444091796875,-0.1964569091796875,0.19678994995042629
1781788023.465794,0.0034179724752902985,-0.0161132775247097,0.9980468153953552,0.9981827317526788,0.0591278076171875,0.0476837158203125,-0.1964569091796875,0.2106303671185222
1781788023.476436,0.00244140625,-0.00244140625,0.9980468153953552,0.9980527875066355,0.0,-0.255584716796875,-0.1354217529296875,0.28924487657811354
1781788023.487079,0.0078125,-0.02685546875,0.9843749403953552,0.9847721942847449,-0.2460479736328125,-0.0133514404296875,-0.2574920654296875,0.35639869535340213
1781788023.49772,0.005859375,-0.02978515625,0.9848632216453552,0.9853309358575401,-0.1220703125,0.232696533203125,0.0476837158203125,0.2670628662188606
1781788023.505985,-0.010253902524709702,-0.0190429724752903,0.9755858778953552,0.9758255901883962,-0.18310546875,0.110626220703125,0.1087188720703125,0.23996992840240364
1781788023.514251,-0.0234375,-0.0146484375,0.9863280653953552,0.9867152303040556,0.0,0.110626220703125,-0.0133514404296875,0.1114289983289988
1781788023.522519,0.0024414099752902985,-0.0195312462747097,1.00244140625,1.0026346308741725,0.18310546875,0.171661376953125,0.1087188720703125,0.27352337042351804
1781788023.530786,-0.0039062462747097015,-0.0190429724752903,0.9863280653953552,0.9865196126520737,0.0,0.171661376953125,0.0476837158203125,0.17816106502789883
1781788023.538507,0.0039062537252902985,-0.0244140587747097,0.9916991591453552,0.9920073222177475,-0.18310546875,0.110626220703125,-0.1964569091796875,0.29044980729490893
1781788023.546228,-0.0009765587747097015,-0.015136715024709702,0.9970702528953552,0.9971856211446228,-0.1220703125,-0.072479248046875,-0.0743865966796875,0.1602740414317758
1781788023.553949,0.0068359375,-0.01123046875,0.9936522841453552,0.9937392591908254,-0.244140625,0.049591064453125,-0.3185272216796875,0.40438040184950286
1781788023.56167,-0.00439453125,-0.009765625,1.0009765625,1.001033844588116,0.0,0.049591064453125,-0.0743865966796875,0.08940156284529087
1781788023.572361,-0.0073242150247097015,-0.0292968712747097,0.9902343153953552,0.9906946806048385,0.0,-0.072479248046875,-0.1354217529296875,0.15359782734137145
1781788023.583051,0.0014648474752902985,-0.0234375037252903,0.9848632216453552,0.9851431508713172,-0.06103515625,-0.133514404296875,-0.0133514404296875,0.147409794161578
1781788023.593743,-0.011230465024709702,-0.012695316225290298,0.9819335341453552,0.9820798133949801,0.1201629638671875,0.2918243408203125,-0.1354217529296875,0.3434234047747856
1781788023.604404,-0.0048828087747097015,-0.008300784975290298,0.9951171278953552,0.9951637267723523,-0.06103515625,-0.133514404296875,-0.0743865966796875,0.16457445797813766
1781788023.615067,-0.00390625,-0.01318359375,0.9941405653953552,0.9942356509891527,0.18310546875,-0.011444091796875,0.1697540283203125,0.2499500151113938
1781788023.62573,-0.0014648400247097015,-0.0170898474752903,0.9975585341453552,0.9977059875981784,0.0,-0.133514404296875,0.0476837158203125,0.14177387950247294
1781788023.636397,-0.013671875,-0.01513671875,0.9863280653953552,0.9865389465231853,-0.06103515625,0.232696533203125,-0.1964569091796875,0.3105934384813223
1781788023.647067,0.0029296912252902985,-0.014160159975290298,0.9941405653953552,0.9942457226389249,0.2422332763671875,-0.1354217529296875,-0.0133514404296875,0.2778385723899384
1781788023.657737,-0.0053710900247097015,-0.015136715024709702,0.9887694716453552,0.9888999124318031,0.18310546875,-0.011444091796875,0.1087188720703125,0.21325658973980968
1781788023.665727,-0.0068359375,-0.02587890625,0.9990233778953552,0.9993818876743994,-0.244140625,0.049591064453125,-0.1354217529296875,0.2835541740400482
1781788023.673716,-0.0019531212747097015,-0.013671878725290298,0.9902343153953552,0.9903306187011995,0.18310546875,-0.072479248046875,-0.1354217529296875,0.23899770971736733
1781788023.681705,-0.010253898799419403,-0.01708984375,0.9785155653953552,0.9787185074989538,-0.06103515625,-0.133514404296875,-0.1354217529296875,0.19972590623091596
1781788023.689694,-0.00830078125,-0.01611328125,0.9926757216453552,0.9928411902948672,-0.18310546875,-0.194549560546875,-0.0133514404296875,0.2674984208489592
1781788023.700359,-0.00927734375,-0.017578125,0.9833983778953552,0.9835992218545047,0.0,-0.255584716796875,-0.0743865966796875,0.26618961892929877
1781788023.711024,-0.010253902524709702,-0.0234375037252903,0.9892577528953552,0.9895884805116857,0.3662109375,0.232696533203125,0.0476837158203125,0.4364995579193801
1781788023.721689,-0.010742183774709702,-0.009765621274709702,0.9931640028953552,0.993270103505716,-0.18310546875,-0.011444091796875,0.2918243408203125,0.34470280796422653
1781788023.732391,0.00048828125,-0.01708984375,0.9921874403953552,0.9923347308525814,-0.06103515625,-0.072479248046875,0.1087188720703125,0.1442162433297419
1781788023.743093,-0.00244140625,-0.0205078125,0.9887694716453552,0.9889851358315996,0.0591278076171875,-0.0705718994140625,0.0476837158203125,0.10368330326024539
1781788023.753795,-0.011718746274709702,-0.0273437537252903,0.9907225966453552,0.9911691446901258,0.06103515625,0.232696533203125,-0.2574920654296875,0.3523849182675976
1781788023.761879,-0.01220703125,-0.0107421875,0.9819335341453552,0.9820681604060948,-0.18310546875,0.049591064453125,-0.0133514404296875,0.1901713630421224
1781788023.769963,-0.01318359375,-0.01806640625,0.9897460341453552,0.9899986940826809,0.0,0.110626220703125,-0.0743865966796875,0.13330988887791864
1781788023.778046,-0.013671875,-0.0068359375,0.9990233778953552,0.9991403103613452,-0.18310546875,-0.255584716796875,-0.1354217529296875,0.3423305585437055
1781788023.786129,-0.010253898799419403,-0.01123046875,0.9985350966453552,0.9986508925052249,0.0,-0.133514404296875,0.1087188720703125,0.17217981675849922
1781788023.796655,-0.00390625,-0.02001953125,0.9833983778953552,0.9836098871339939,-0.18310546875,-0.011444091796875,0.2307891845703125,0.2948257580976301
1781788023.807181,-0.00732421875,-0.00732421875,0.9892577528953552,0.9893119781060792,-0.0629425048828125,-0.0133514404296875,0.0476837158203125,0.0800859328278237
1781788023.817707,0.0209960974752903,-0.009277347475290298,0.9916991591453552,0.9919647813985,0.0591278076171875,-0.3795623779296875,-0.1964569091796875,0.4314614855785972
1781788023.828372,-0.0087890625,-0.01220703125,0.9916991591453552,0.9918132291319631,0.0591278076171875,-0.0705718994140625,-0.0133514404296875,0.09303091734510192
1781788023.839037,-0.011718746274709702,-0.0273437537252903,1.0048828125,1.0053230708284528,0.2422332763671875,0.1697540283203125,0.1697540283203125,0.3410422560937708
1781788023.849702,-0.010742183774709702,-0.013671878725290298,0.9897460341453552,0.9898987457748329,-0.1201629638671875,-0.0133514404296875,0.2307891845703125,0.2605399135670469
1781788023.857795,-0.0053710900247097015,-0.0273437537252903,0.9853515028953552,0.9857454609248668,0.0591278076171875,0.0476837158203125,0.2918243408203125,0.30154813924688273
1781788023.865891,-0.005859367549419403,-0.0263671875,0.9931640028953552,0.9935312261886209,-0.30517578125,-0.133514404296875,-0.3795623779296875,0.5050009429257891
1781788023.873986,0.0009765625,-0.0078125,0.9960936903953552,0.996124805873242,-0.06103515625,-0.133514404296875,0.2307891845703125,0.27352337042351804
1781788023.882082,0.00537109375,-0.02197265625,0.9848632216453552,0.985122942388624,-0.0629425048828125,-0.0133514404296875,-0.0133514404296875,0.06571362753659139
1781788023.892639,-0.015624992549419403,-0.01611328125,0.9946288466453552,0.9948820637662941,0.0591278076171875,0.1697540283203125,-0.0133514404296875,0.1802520144856531
1781788023.903197,-0.00244140625,-0.02099609375,0.9809569716453552,0.9811846801886293,-0.1220703125,0.171661376953125,-0.0133514404296875,0.21106172199818238
1781788023.913754,-0.0126953125,-0.01708984375,0.9804686903953552,0.9806997943124364,0.0,-0.011444091796875,-0.1354217529296875,0.13590444585665556
1781788023.921753,-0.0073242150247097015,-0.012695316225290298,0.9892577528953552,0.989366320855605,-0.1220703125,-0.133514404296875,-0.0743865966796875,0.19560322879283856
1781788023.929752,-0.00390625,-0.0146484375,0.9824218153953552,0.9825387823770415,-0.1220703125,0.049591064453125,0.1697540283203125,0.2148880289788501
1781788023.937751,-0.0019531212747097015,-0.013183597475290298,0.9770507216453552,0.9771416144002943,0.1220703125,0.049591064453125,-0.2574920654296875,0.28924487657811354
1781788023.94575,-0.010253902524709702,-0.0185546912252903,0.9814452528953552,0.981674183990941,0.1201629638671875,-0.0133514404296875,0.0476837158203125,0.1299659016870457
1781788023.956428,-0.004882805049419403,-0.0068359375,0.9824218153953552,0.9824577320126092,0.18310546875,-0.011444091796875,-0.0743865966796875,0.19796955747992928
1781788023.967106,-0.005859367549419403,-0.0166015625,0.9985350966453552,0.9986902839709964,0.1220703125,0.110626220703125,-0.1354217529296875,0.21325658973980968
1781788023.977783,-0.01171875,-0.01611328125,0.9999999403953552,1.0001984041803496,-0.06103515625,0.232696533203125,0.0476837158203125,0.2452482489593907
1781788023.988552,-0.004882805049419403,-0.00732421875,0.9882811903953552,0.9883203920059066,0.1220703125,0.110626220703125,0.0476837158203125,0.1715023575795286
1781788023.999322,0.0009765625,-0.01953125,0.9921874403953552,0.9923801389987436,0.2422332763671875,-0.0133514404296875,-0.0743865966796875,0.25374906286864635
1781788024.010092,-0.00439453125,-0.009765625,0.9946288466453552,0.994686494286324,-0.18310546875,-0.011444091796875,-0.1354217529296875,0.22802989078136632
1781788024.02081,0.0039062537252902985,-0.0219726599752903,0.9916991591453552,0.9919502401099365,-0.06103515625,-0.438690185546875,0.1087188720703125,0.45606377003425136
1781788024.031528,0.0048828125,-0.02490234375,0.9936522841453552,0.993976272538452,0.1220703125,-0.072479248046875,0.1087188720703125,0.178813298542164
1781788024.042246,-0.005371086299419403,-0.01171875,0.9838866591453552,0.9839711051213885,-0.1220703125,0.171661376953125,-0.1964569091796875,0.2880349053426104
1781788024.050132,0.00244140625,-0.0263671875,0.9907225966453552,0.9910764110525752,0.244140625,-0.072479248046875,0.1697540283203125,0.3060626019359512
1781788024.058016,-0.0048828087747097015,-0.009765621274709702,0.9970702528953552,0.9971300308331,0.18310546875,0.171661376953125,0.0476837158203125,0.2554779399048623
1781788024.0659,-0.00341796875,-0.01806640625,0.9936522841453552,0.9938223882225877,0.18310546875,-0.255584716796875,-0.0133514404296875,0.3146894041874361
1781788024.073784,-0.0126953125,-0.0205078125,0.9951171278953552,0.995409382899171,-0.18310546875,0.171661376953125,0.0476837158203125,0.2554779399048623
1781788024.084447,-0.009765617549419403,-0.02978515625,0.9931640028953552,0.9936585225650125,0.2422332763671875,-0.0133514404296875,0.1087188720703125,0.26584772762875125
1781788024.09511,0.00146484375,-0.009765625,0.9931640028953552,0.9932130938756183,0.0591278076171875,0.0476837158203125,-0.0133514404296875,0.07712389609968463
1781788024.105772,-0.004882805049419403,-0.01025390625,0.9912108778953552,0.991275939805166,0.18310546875,0.110626220703125,-0.1354217529296875,0.25318930577684967
1781788024.116724,-0.009765621274709702,-0.013671878725290298,0.9892577528953552,0.9894004190874025,0.0591278076171875,-0.0705718994140625,-0.0133514404296875,0.09303091734510192
1781788024.127676,-0.0009765550494194031,-0.0166015625,0.9931640028953552,0.9933032277126311,0.18310546875,-0.194549560546875,-0.0133514404296875,0.2674984208489592
1781788024.138627,-0.005859367549419403,-0.01171875,0.9956054091453552,0.9956916149135393,0.0591278076171875,-0.0705718994140625,0.1087188720703125,0.14246502646181156
1781788024.149129,0.007812503725290298,-0.0170898474752903,0.9941405653953552,0.994318139161598,-0.0629425048828125,0.1697540283203125,0.0476837158203125,0.18722159545930767
1781788024.159629,-0.010742180049419403,-0.01611328125,1.00048828125,1.0006756883143684,0.0,-0.072479248046875,-0.1354217529296875,0.15359782734137145
1781788024.170129,-0.00830078125,-0.021484375,0.9907225966453552,0.9909902849383622,0.0591278076171875,0.0476837158203125,0.1087188720703125,0.13262589314416862
1781788024.178014,-0.0063476525247097015,-0.0219726599752903,0.9931640028953552,0.9934273134588606,0.0,-0.011444091796875,0.2307891845703125,0.231072748180492
1781788024.1859,-0.010742183774709702,-0.014160159975290298,0.9873046278953552,0.9874645983053576,-0.06103515625,-0.072479248046875,0.0476837158203125,0.10607671021640268
1781788024.193788,-0.0068359337747097015,-0.0073242224752902985,0.9833983778953552,0.9834494109371644,0.18310546875,0.110626220703125,0.1697540283203125,0.2730974249680637
1781788024.201674,-0.0009765587747097015,-0.0336914025247097,0.9980468153953552,0.9986157969869758,-0.18310546875,-0.072479248046875,0.0476837158203125,0.2026193249372576
1781788024.212516,-0.01171875,-0.02099609375,0.9838866591453552,0.9841804321863596,-0.2460479736328125,0.1697540283203125,0.0476837158203125,0.3027041000948269
1781788024.223357,-0.012695308774709702,-0.013671878725290298,0.9926757216453552,0.992851035894555,0.1220703125,0.110626220703125,-0.0743865966796875,0.18075587864988146
1781788024.234198,-0.010742183774709702,-0.0195312462747097,0.9926757216453552,0.9929259551635358,0.0591278076171875,0.1125335693359375,-0.2574920654296875,0.2871620894553246
1781788024.242087,0.0039062537252902985,-0.012207034975290298,0.9902343153953552,0.9903172571997128,0.0591278076171875,-0.1354217529296875,-0.0133514404296875,0.14836916715312504
1781788024.249977,-0.00244140625,-0.02197265625,0.9907225966453552,0.9909692334229522,0.0,-0.133514404296875,0.1087188720703125,0.17217981675849922
1781788024.257866,-0.00341796875,-0.01123046875,0.9833983778953552,0.9834684415810894,-0.1220703125,-0.072479248046875,-0.0743865966796875,0.1602740414317758
1781788024.265757,-0.00830078125,-0.015625,0.9785155653953552,0.9786755107365015,0.30517578125,0.110626220703125,0.0476837158203125,0.3280916867630704
1781788024.276393,0.0019531287252902985,-0.009277347475290298,0.9921874403953552,0.9922327351817624,0.2422332763671875,0.1125335693359375,-0.0743865966796875,0.2772618440619895
1781788024.287029,-0.017578125,-0.0205078125,0.9946288466453552,0.9949955293523285,0.3662109375,-0.072479248046875,0.0476837158203125,0.3763474842436198
1781788024.297664,-0.00390625,-0.0087890625,0.9897460341453552,0.9897927654388822,0.2422332763671875,-0.3185272216796875,0.1087188720703125,0.4146761920761837
1781788024.305674,-0.0024414025247097015,-0.0239257849752903,1.001953125,1.00224172150746,-0.1201629638671875,-0.0133514404296875,0.0476837158203125,0.1299659016870457
1781788024.313685,-0.0009765587747097015,-0.010253902524709702,0.9877929091453552,0.9878466113430114,-0.06103515625,-0.072479248046875,0.1087188720703125,0.1442162433297419
1781788024.321697,-0.005859367549419403,-0.02099609375,0.9892577528953552,0.9894978877210429,-0.0629425048828125,-0.0133514404296875,-0.0133514404296875,0.06571362753659139
1781788024.32971,-0.013671875,-0.0224609375,0.9833983778953552,0.9837498582091946,0.0591278076171875,-0.1354217529296875,-0.1354217529296875,0.20043502679600136
1781788024.340371,-0.014648430049419403,-0.017578125,0.9863280653953552,0.9865934418837237,-0.0629425048828125,-0.1964569091796875,0.1087188720703125,0.2331884843417441
1781788024.351032,-0.00927734375,-0.0146484375,0.9907225966453552,0.9908743156081715,0.0591278076171875,0.0476837158203125,0.2307891845703125,0.24296806807207655
1781788024.361693,-0.004882805049419403,-0.017578125,0.9833983778953552,0.9835675888879636,0.0591278076171875,0.0476837158203125,-0.3185272216796875,0.32745904375819007
1781788024.372369,0.0034179724752902985,-0.0195312462747097,0.9809569716453552,0.9811573433127387,0.1220703125,-0.072479248046875,-0.3185272216796875,0.34873197952334234
1781788024.383045,0.0034179724752902985,-0.0205078087747097,0.9843749403953552,0.9845944728846191,-0.1220703125,0.049591064453125,0.1697540283203125,0.2148880289788501
1781788024.393721,-0.0073242150247097015,-0.0185546912252903,0.9936522841453552,0.993852495332922,-0.06103515625,-0.133514404296875,0.1087188720703125,0.18267780269494235
1781788024.404385,0.0029296912252902985,-0.0224609412252903,0.9790038466453552,0.9792658519104012,0.30517578125,0.049591064453125,-0.0743865966796875,0.3180014102181441
1781788024.415049,0.0024414099752902985,-0.0185546912252903,1.00537109375,1.0055452616353002,-0.06103515625,-0.072479248046875,-0.0743865966796875,0.12046533717833044
1781788024.425713,0.0034179724752902985,-0.0170898474752903,0.9799804091453552,0.9801353721457401,0.30517578125,-0.072479248046875,0.0476837158203125,0.317268396808476
1781788024.433696,-0.0068359337747097015,-0.014648433774709702,0.9956054091453552,0.9957366305013161,-0.1220703125,0.171661376953125,0.0476837158203125,0.2159688085944886
1781788024.441679,-0.01171875,-0.02099609375,0.9946288466453552,0.994919447811425,0.2422332763671875,0.1697540283203125,0.1087188720703125,0.3151399426521441
1781788024.449662,-0.0019531212747097015,-0.012695316225290298,0.9785155653953552,0.9785998658582401,0.1201629638671875,-0.3795623779296875,-0.0133514404296875,0.3983528556274367
1781788024.457644,-0.0058593712747097015,-0.0205078087747097,0.9892577528953552,0.989487647278147,0.0591278076171875,0.1125335693359375,-0.0743865966796875,0.14728634568991072
1781788024.468326,0.01171875,-0.01171875,0.9877929091453552,0.9879319255702637,-0.1201629638671875,-0.0133514404296875,0.2307891845703125,0.2605399135670469
1781788024.479007,0.0029296912252902985,-0.013183597475290298,0.9868163466453552,0.986908755832854,0.1220703125,0.110626220703125,0.1087188720703125,0.1973806349294306
1781788024.489687,0.0073242224752902985,-0.013671878725290298,0.9804686903953552,0.9805913610410453,-0.1201629638671875,-0.1964569091796875,0.0476837158203125,0.23517693722857969
1781788024.500346,0.0014648474752902985,-0.008789066225290298,0.9863280653953552,0.986368311560029,-0.18310546875,0.171661376953125,-0.0133514404296875,0.2513433945524481
1781788024.511007,0.00244140625,-0.0166015625,0.9956054091453552,0.9957468067040984,0.0591278076171875,0.1125335693359375,-0.3185272216796875,0.3429569839091809
1781788024.521667,-0.00390625,-0.02587890625,0.9804686903953552,0.9808179389791674,0.244140625,-0.072479248046875,-0.0133514404296875,0.25502185618957945
1781788024.532361,-0.0078124962747097015,-0.0185546912252903,0.9921874403953552,0.992391670935823,-0.18310546875,-0.255584716796875,-0.0743865966796875,0.3230859419904904
1781788024.543054,-0.0009765587747097015,-0.0073242224752902985,0.9965819716453552,0.9966093638484698,0.30517578125,0.049591064453125,-0.1354217529296875,0.337536045929455
1781788024.553747,-0.00244140625,-0.01708984375,0.9770507216453552,0.9772032213882568,0.0591278076171875,0.0476837158203125,0.0476837158203125,0.08968595844656943
1781788024.561888,-0.019531242549419403,-0.0146484375,0.9819335341453552,0.9822369936201258,-0.18310546875,0.049591064453125,-0.2574920654296875,0.31982659382702633
1781788024.570028,0.0,-0.01806640625,0.9790038466453552,0.9791705299799378,-0.06103515625,0.049591064453125,0.2918243408203125,0.3022350242233117
1781788024.578167,-0.012695308774709702,-0.0195312462747097,0.9809569716453552,0.9812335199459682,0.0,0.049591064453125,-0.2574920654296875,0.26222402146416807
1781788024.586308,-0.0019531212747097015,-0.0219726599752903,0.9868163466453552,0.9870628726051798,0.0591278076171875,0.1697540283203125,-0.0133514404296875,0.1802520144856531
1781788024.594148,-0.0014648400247097015,-0.0205078087747097,0.9819335341453552,0.9821487572950574,0.0,0.110626220703125,-0.2574920654296875,0.2802504673792766
1781788024.601988,-0.00439453125,-0.01513671875,0.9931640028953552,0.9932890660862773,-0.1220703125,-0.072479248046875,0.0476837158203125,0.14976027292216187
1781788024.609828,-0.011230465024709702,-0.0043945349752902985,0.9868163466453552,0.9868900330273916,-0.0629425048828125,-0.1964569091796875,-0.2574920654296875,0.32993823640888503
1781788024.617668,-0.0019531212747097015,-0.015624996274709702,0.9985350966453552,0.9986592484045033,0.18310546875,-0.011444091796875,-0.3185272216796875,0.3675842364332199
1781788024.629677,0.00244140625,-0.0107421875,0.9990233778953552,0.9990841128945092,0.1220703125,0.049591064453125,0.1087188720703125,0.17082221170469206
1781788024.641686,-0.00390625,-0.00830078125,0.9814452528953552,0.9814881283995496,-0.18310546875,-0.133514404296875,-0.0133514404296875,0.22700654132084855
1781788024.653697,-0.0073242150247097015,-0.015136715024709702,0.9921874403953552,0.992329925551857,0.1220703125,0.232696533203125,0.1087188720703125,0.2843741037838039
1781788024.665706,-0.004882805049419403,-0.01171875,0.9975585341453552,0.9976393135462049,0.0591278076171875,0.0476837158203125,-0.0743865966796875,0.10631650931832719
1781788024.676351,0.01025390625,-0.00439453125,0.9999999403953552,1.0000621657122146,0.0591278076171875,0.1125335693359375,0.1087188720703125,0.16727132152686056
1781788024.686994,-0.0058593712747097015,-0.0244140587747097,0.9833983778953552,0.9837188359205112,0.0591278076171875,0.0476837158203125,0.1087188720703125,0.13262589314416862
1781788024.697637,0.00146484375,-0.017578125,0.9951171278953552,0.9952734470869944,0.1220703125,0.232696533203125,-0.0743865966796875,0.2730974249680637
1781788024.705647,-0.0068359375,-0.01123046875,0.9892577528953552,0.9893451142717673,0.0591278076171875,-0.1354217529296875,0.2918243408203125,0.3271033394745067
1781788024.713659,0.0014648474752902985,-0.0234375037252903,0.9926757216453552,0.9929534484068856,0.18310546875,-0.133514404296875,-0.2574920654296875,0.3430100182212658
1781788024.721671,0.007812503725290298,-0.0073242224752902985,0.9887694716453552,0.9888274609390458,-0.06103515625,-0.316619873046875,0.0476837158203125,0.32595578083708454
1781788024.729683,-0.00341796875,-0.01708984375,0.9897460341453552,0.9898994683179874,0.18310546875,0.110626220703125,0.0476837158203125,0.21917917361749056
1781788024.740368,-0.012695308774709702,-0.007812503725290298,0.9882811903953552,0.9883936044757692,-0.1201629638671875,-0.0133514404296875,-0.2574920654296875,0.28446364021811466
1781788024.751053,-0.00048827752470970154,-0.0200195275247097,0.9931640028953552,0.9933658724480013,0.1220703125,0.049591064453125,0.0476837158203125,0.1401219883596931
1781788024.761738,-0.0014648400247097015,-0.013671878725290298,0.9926757216453552,0.9927709475847406,-0.06103515625,0.049591064453125,0.0476837158203125,0.0919690204715057
1781788024.769737,0.0009765625,-0.0126953125,0.9897460341453552,0.989827932895535,0.18310546875,-0.194549560546875,0.0476837158203125,0.27138695795776874
1781788024.777737,-0.009765617549419403,-0.02099609375,0.9829100966453552,0.9831828219239095,0.30517578125,-0.133514404296875,-0.1964569091796875,0.3867216968062863
1781788024.785737,-0.0014648400247097015,-0.015624996274709702,0.9960936903953552,0.9962173087787225,0.3662109375,0.110626220703125,0.0476837158203125,0.38551569125797946
1781788024.793737,0.0034179724752902985,-0.0224609412252903,0.9951171278953552,0.9953764487103703,-0.18310546875,-0.194549560546875,-0.1964569091796875,0.33162096037430355
1781788024.804399,-0.009765617549419403,-0.01611328125,0.9785155653953552,0.9786969484164926,0.0591278076171875,0.1125335693359375,-0.0133514404296875,0.12782082311833579
1781788024.81506,-0.00341796875,-0.015625,0.9897460341453552,0.9898752624658496,-0.4291534423828125,-0.0705718994140625,-0.0133514404296875,0.4351222024414222
1781788024.825723,0.00048828125,-0.0146484375,0.9780272841453552,0.9781370986076082,0.1201629638671875,0.2918243408203125,-0.2574920654296875,0.40731160987603016
1781788024.833748,0.0034179724752902985,-0.010253902524709702,0.9916991591453552,0.9917580588542917,0.0591278076171875,0.0476837158203125,0.0476837158203125,0.08968595844656943
1781788024.841773,-0.009765621274709702,-0.0180664099752903,0.9926757216453552,0.9928881361323657,-0.0629425048828125,-0.0133514404296875,-0.2574920654296875,0.2654094641148217
1781788024.849798,-0.00244140625,-0.02587890625,0.9999999403953552,1.0003377224937025,-0.06103515625,-0.072479248046875,0.2307891845703125,0.24948382594976395
1781788024.857823,-0.00244140625,-0.01171875,0.9892577528953552,0.9893301730108143,0.244140625,-0.072479248046875,-0.0743865966796875,0.26531349746746313
1781788024.868441,-0.010742183774709702,-0.009765621274709702,0.9873046278953552,0.9874113581151052,-0.244140625,-0.133514404296875,-0.1964569091796875,0.34062597977044556
1781788024.879059,-0.001953125,-0.02099609375,0.9873046278953552,0.9875297863424729,-0.1220703125,0.049591064453125,-0.3185272216796875,0.34470280796422653
1781788024.889677,-0.015136711299419403,-0.01123046875,0.9868163466453552,0.9869963249494866,0.0,-0.133514404296875,-0.0133514404296875,0.13418031568116423
1781788024.897687,-0.011718746274709702,-0.0068359412252902985,0.9892577528953552,0.9893507774142871,0.1220703125,0.049591064453125,-0.0133514404296875,0.13243374127838098
1781788024.905699,-0.0073242150247097015,-0.0185546912252903,0.9858397841453552,0.9860415816262287,0.0591278076171875,-0.0133514404296875,-0.0133514404296875,0.06206947363003914
1781788024.91371,-0.00048827752470970154,-0.0195312462747097,0.9853515028953552,0.985545175146284,0.1201629638671875,-0.0133514404296875,0.1087188720703125,0.1625951782530327
1781788024.921721,-0.015136711299419403,-0.01123046875,0.9873046278953552,0.9874845172056586,0.0591278076171875,-0.0705718994140625,-0.1354217529296875,0.16375451684479733
1781788024.932374,-0.012207027524709702,-0.013671878725290298,0.9926757216453552,0.9928449124274117,0.0,-0.194549560546875,-0.1964569091796875,0.276486615722024
1781788024.943027,0.011718753725290298,-0.013671878725290298,0.9853515028953552,0.9855160240781924,-0.1220703125,-0.133514404296875,-0.0133514404296875,0.18139878254868344
1781788024.95368,-0.0087890625,-0.01123046875,0.9902343153953552,0.9903369984174485,-0.18310546875,0.110626220703125,-0.0743865966796875,0.2264931326967779
1781788024.964383,-0.0078125,-0.00537109375,1.00390625,1.003951016032846,-0.2460479736328125,-0.1964569091796875,-0.0133514404296875,0.3151399426521441
1781788024.975089,0.0034179724752902985,-0.007812503725290298,0.9848632216453552,0.9849001386434909,0.244140625,-0.072479248046875,0.2918243408203125,0.38732329140918054
1781788024.985795,-0.0048828087747097015,-0.014648433774709702,0.9985350966453552,0.9986544736124359,0.0,0.171661376953125,-0.0743865966796875,0.1870855261719339
1781788024.99377,-0.0058593712747097015,-0.0229492224752903,0.9838866591453552,0.9841717111806068,-0.06103515625,-0.133514404296875,0.1697540283203125,0.22442775359608438
1781788025.001744,-0.0024414025247097015,-0.015136715024709702,0.9946288466453552,0.9947470146560363,0.0591278076171875,-0.0133514404296875,-0.1964569091796875,0.20559590404382722
1781788025.009717,0.00634765625,-0.0166015625,0.9770507216453552,0.9772123706160392,0.18310546875,0.049591064453125,-0.0133514404296875,0.1901713630421224
1781788025.017692,-0.0009765550494194031,-0.03662109375,0.9892577528953552,0.9899358362190847,0.2422332763671875,-0.1354217529296875,0.1087188720703125,0.29805335846182396
1781788025.028383,-0.01416015625,-0.01513671875,0.9853515028953552,0.9855694874222093,0.18310546875,0.049591064453125,0.2307891845703125,0.29874827878061655
1781788025.039073,-0.00341796875,-0.01806640625,0.9912108778953552,0.991381400876195,0.18310546875,-0.011444091796875,0.0476837158203125,0.18955821448210797
1781788025.049765,0.0029296912252902985,-0.0175781287252903,0.9926757216453552,0.9928356671898352,0.0,0.110626220703125,0.1697540283203125,0.2026193249372576
1781788025.060534,0.0009765625,-0.01806640625,0.9975585341453552,0.99772259559225,0.0,0.110626220703125,0.2307891845703125,0.25593321086112736
1781788025.071305,-0.0058593712747097015,-0.0239257849752903,0.9951171278953552,0.9954219575883985,-0.0629425048828125,-0.1964569091796875,0.2307891845703125,0.30954922677982677
1781788025.082076,0.00244140625,-0.01220703125,0.9970702528953552,0.9971479635867606,0.0591278076171875,0.0476837158203125,0.2918243408203125,0.30154813924688273
1781788025.089998,-0.00927734375,-0.01953125,0.9936522841453552,0.9938875190990678,0.1220703125,0.110626220703125,-0.0743865966796875,0.18075587864988146
1781788025.097919,0.0039062537252902985,-0.0219726599752903,0.9941405653953552,0.9943910299118515,0.1220703125,-0.133514404296875,0.2307891845703125,0.29324205882380994
1781788025.10584,-0.0034179650247097015,-0.009277347475290298,0.9960936903953552,0.9961427566902874,0.0591278076171875,0.1697540283203125,0.0476837158203125,0.1859738275108111
1781788025.11376,0.00048828125,-0.01806640625,0.9877929091453552,0.9879582302968143,0.30517578125,-0.316619873046875,-0.1354217529296875,0.460129821502928
1781788025.124414,-0.0058593712747097015,-0.0180664099752903,0.9902343153953552,0.9904164410931585,0.2422332763671875,0.1697540283203125,-0.0133514404296875,0.2960939906045092
1781788025.135067,-0.0009765587747097015,-0.0034179724752902985,0.9892577528953552,0.9892641395837868,0.244140625,0.049591064453125,-0.0743865966796875,0.25999477728325837
1781788025.14572,-0.004882805049419403,-0.01513671875,0.9970702528953552,0.9971970974930056,0.18310546875,-0.194549560546875,-0.0133514404296875,0.2674984208489592
1781788025.154449,-0.00439453125,-0.0146484375,0.9902343153953552,0.9903524059710294,-0.06103515625,-0.133514404296875,-0.0133514404296875,0.147409794161578
1781788025.163178,0.0073242224752902985,-0.013671878725290298,0.9960936903953552,0.9962144370305945,0.1201629638671875,-0.0133514404296875,0.1697540283203125,0.20840784288953226
1781788025.171906,0.005859375,-0.0146484375,0.9965819716453552,0.9967068451681896,0.06103515625,-0.255584716796875,-0.0133514404296875,0.2631104306563087
1781788025.180636,-0.0009765550494194031,-0.0263671875,0.9819335341453552,0.9822879657796955,-0.06103515625,0.049591064453125,-0.1964569091796875,0.2116125732003935
1781788025.190333,0.008789066225290298,-0.0195312462747097,0.9863280653953552,0.9865605758658208,-0.18310546875,0.049591064453125,-0.0133514404296875,0.1901713630421224
1781788025.20003,-0.0063476525247097015,-0.015136715024709702,0.9873046278953552,0.9874410570246204,0.1201629638671875,-0.0133514404296875,-0.1354217529296875,0.18153911427966102
1781788025.209727,-0.0034179650247097015,-0.009277347475290298,0.9882811903953552,0.9883306445468276,-0.18310546875,-0.316619873046875,0.1087188720703125,0.38156984922634735
1781788025.220392,0.0,-0.0107421875,0.9882811903953552,0.9883395701283773,-0.06103515625,0.110626220703125,-0.1964569091796875,0.23357818427660237
1781788025.23106,-0.00439453125,-0.01904296875,0.9985350966453552,0.998726331782771,0.18310546875,0.049591064453125,-0.1964569091796875,0.2730974249680637
1781788025.241728,-0.001953125,-0.01171875,0.9843749403953552,0.9844466298775101,-0.244140625,0.049591064453125,-0.1354217529296875,0.2835541740400482
1781788025.249723,-0.010253902524709702,-0.0175781287252903,0.9956054091453552,0.9958133679791406,-0.18310546875,0.049591064453125,0.1087188720703125,0.21864738622721333
1781788025.257719,0.008789066225290298,-0.012695316225290298,0.9931640028953552,0.9932840255366527,-0.06103515625,0.232696533203125,0.2918243408203125,0.37819890634218506
1781788025.265715,-0.0019531212747097015,-0.0073242224752902985,0.9853515028953552,0.9853806590225508,0.30517578125,-0.072479248046875,-0.1964569091796875,0.37010919472964227
1781788025.27371,-0.001953125,-0.00634765625,0.9892577528953552,0.9892800458417735,0.0591278076171875,-0.0705718994140625,-0.0133514404296875,0.09303091734510192
1781788025.28455,0.0034179724752902985,-0.009277347475290298,0.9907225966453552,0.9907719289603104,0.0,-0.011444091796875,-0.0133514404296875,0.017584885515771653
1781788025.295389,-0.0009765587747097015,-0.008789066225290298,0.9902343153953552,0.9902738008948135,-0.0629425048828125,-0.0133514404296875,0.1087188720703125,0.1263321535742637
1781788025.306228,-0.001953125,-0.01171875,0.9819335341453552,0.9820054018578592,0.0591278076171875,0.2918243408203125,-0.0133514404296875,0.29805335846182396
1781788025.316858,-0.0068359337747097015,-0.012695316225290298,0.9941405653953552,0.9942451231005506,-0.18310546875,0.171661376953125,-0.0133514404296875,0.2513433945524481
1781788025.327487,0.00146484375,-0.0166015625,0.9882811903953552,0.9884217060212274,-0.0629425048828125,-0.1964569091796875,-0.1964569091796875,0.2848725912575565
1781788025.338118,-0.004882805049419403,-0.0126953125,0.9843749403953552,0.9844689106431865,0.0,-0.133514404296875,0.0476837158203125,0.14177387950247294
1781788025.34866,-0.015624992549419403,-0.01611328125,1.0029296875,1.0031808093726966,0.1220703125,-0.133514404296875,-0.1354217529296875,0.22597855764462782
1781788025.359206,-0.0073242150247097015,-0.0175781287252903,1.00390625,1.0040868456086225,0.18310546875,0.049591064453125,0.1697540283203125,0.25456495534681256
1781788025.36975,-0.00390625,-0.02001953125,0.9931640028953552,0.9933734328376501,0.0,-0.316619873046875,0.1087188720703125,0.3347654957615259
