timestamp,accel_x,accel_y,accel_z,accel_rms,gyro_x,gyro_y,gyro_z,gyro_rms
1785429647.909566,0.0400390625,-0.37109375,0.8847655653953552,0.96027277558218,-8.4686279296875,-3.70025634765625,6.4792633056640625,11.286735977862614
1785429647.918901,0.0537109375,-0.37646484375,0.8803710341453552,0.9589910328824786,-9.265899658203125,-3.51715087890625,6.3571929931640625,11.77459763784793
1785429647.928238,0.05419921875,-0.380859375,0.8803710341453552,0.9607520890430908,-9.996414184570312,-3.6983489990234375,5.8689117431640625,12.167588377205453
1785429647.937574,0.056640625,-0.3955078125,0.8808593153953552,0.9672371599911264,-10.242462158203125,-3.76129150390625,6.0520172119140625,12.477269620108576
1785429647.94691,0.0522460974752903,-0.41162109375,0.8769530653953552,0.970158883084443,-11.095046997070312,-3.7631988525390625,5.5027008056640625,12.943780345308946
1785429647.955101,0.0419921912252903,-0.41650390625,0.8911132216453552,0.9845413256113601,-11.461257934570312,-4.0035247802734375,5.6858062744140625,13.405858312662444
1785429647.963292,0.04345703125,-0.423828125,0.8969725966453552,0.9930149204512438,-11.7645263671875,-4.37164306640625,5.3806304931640625,13.655274740856543
1785429647.971483,0.0571289099752903,-0.4404296875,0.8959960341453552,1.0000254572712222,-12.010574340820312,-4.4345855712890625,5.0144195556640625,13.750049042300999
1785429647.979674,0.0517578125,-0.4443359375,0.9052733778953552,1.0097688771371673,-12.010574340820312,-4.9228668212890625,5.0144195556640625,13.915204533773341
1785429647.987864,0.0566406287252903,-0.45068359375,0.9311522841453552,1.0360349602049748,-11.949539184570312,-5.5332183837890625,4.7092437744140625,13.985169621178722
1785429647.996056,0.0463867224752903,-0.4716796576976776,0.9321288466453552,1.0457043627413047,-11.219024658203125,-5.40924072265625,4.8313140869140625,13.359191415779128
1785429648.005429,0.0693359375,-0.47265625,0.9370116591453552,1.0517614997077036,-9.937286376953125,-5.71441650390625,4.2819976806640625,12.236818240658259
1785429648.014802,0.07666015625,-0.4755859375,0.9526366591453552,1.0675089544597047,-8.714675903320312,-5.7773590087890625,4.6482086181640625,11.442434031897344
1785429648.024175,0.080078125,-0.48046875,0.9594725966453552,1.0760345670764757,-6.7615509033203125,-5.7773590087890625,4.0378570556640625,9.767330102776496
1785429648.033547,0.08935546875,-0.47705078125,0.9414061903953552,1.0591541261787463,-5.0506591796875,-5.53131103515625,3.3664703369140625,8.212044961294671
1785429648.042921,0.072265625,-0.4765624701976776,0.9428710341453552,1.0589333763688273,-3.4046173095703125,-5.4111480712890625,2.7561187744140625,6.961905857789144
1785429648.051116,0.095703125,-0.46142578125,0.9287108778953552,1.0414301390194638,-2.2449493408203125,-5.2890777587890625,2.3288726806640625,6.199821694541715
1785429648.059313,0.103515625,-0.47509765625,0.9169921278953552,1.037934405545666,-0.537872314453125,-4.49371337890625,1.4133453369140625,4.741340696447884
1785429648.067509,0.10302734375,-0.451171875,0.9077147841453552,1.018880181231947,0.621795654296875,-3.70025634765625,0.3147125244140625,3.7653115205910814
1785429648.075705,0.0986328125,-0.470703125,0.8906249403953552,1.012177182137918,1.6632080078125,-3.70025634765625,-0.3566741943359375,4.072514505379592
1785429648.086101,0.08056640625,-0.45263671875,0.8886718153953552,1.0005541167047802,2.086639404296875,-3.57818603515625,-1.2722015380859375,4.333125437748121
1785429648.096497,0.09716796875,-0.4462890625,0.8749999403953552,0.9870361883690005,2.3345947265625,-3.51715087890625,-1.8825531005859375,4.622195259701841
1785429648.106893,0.08740234375,-0.44189453125,0.8784179091453552,0.9871818320598024,2.7599334716796875,-3.5152435302734375,-2.2487640380859375,5.0031099872195215
1785429648.117556,0.09130859375,-0.44580078125,0.8784179091453552,0.989289451557536,2.8209686279296875,-3.3359527587890625,-2.9811859130859375,5.289037176747569
1785429648.128222,0.09326171875,-0.43994140625,0.8696288466453552,0.9790303979117106,2.5768280029296875,-3.4580230712890625,-3.1032562255859375,5.313018475394935
1785429648.138888,0.1005859375,-0.439453125,0.8676757216453552,0.9778025045109097,2.574920654296875,-3.70025634765625,-3.5915374755859375,5.763788238028287
1785429648.149568,0.08837890625,-0.42041015625,0.8735350966453552,0.9734572900848325,1.8463134765625,-3.57818603515625,-3.8967132568359375,5.603272522546485
1785429648.160247,0.10400390625,-0.4267578125,0.8745116591453552,0.9786264277170353,1.598358154296875,-3.70025634765625,-3.8967132568359375,5.606337488394596
1785429648.170926,0.09765625,-0.4306640625,0.8798827528953552,0.9844805415729532,1.4171600341796875,-3.6411285400390625,-4.0187835693359375,5.605067438017821
1785429648.178933,0.107421875,-0.42578125,0.8955077528953552,0.9973781968620362,1.3561248779296875,-3.8242340087890625,-4.1408538818359375,5.797457314136468
1785429648.186942,0.1025390625,-0.41259765625,0.8886718153953552,0.9851338390084102,0.926971435546875,-3.27301025390625,-4.4460296630859375,5.598129324116704
1785429648.194951,0.10791015625,-0.42822265625,0.8842772841453552,0.9884156819897134,0.926971435546875,-3.08990478515625,-4.8732757568359375,5.84427961564265
1785429648.20296,0.10546875,-0.41796875,0.8833007216453552,0.9828742025622254,0.9899139404296875,-3.0269622802734375,-5.1174163818359375,6.027468845273115
1785429648.213641,0.109375,-0.40771484375,0.8969725966453552,0.9913395601769346,0.5016326904296875,-2.6035308837890625,-5.4225921630859375,6.036100909205562
1785429648.224322,0.11181640625,-0.41455078125,0.9018554091453552,0.9988485560616216,0.560760498046875,-1.99127197265625,-6.1550140380859375,6.493366939754064
1785429648.235003,0.115234375,-0.41552734375,0.8950194716453552,0.9934796370383754,0.3814697265625,-2.11334228515625,-6.3381195068359375,6.6920470447724245
1785429648.245641,0.1171875,-0.4091796875,0.8925780653953552,0.9888662850172225,0.1964569091796875,-1.3217926025390625,-7.2536468505859375,7.37571173747366
1785429648.256279,0.10595703125,-0.39697265625,0.8852538466453552,0.9759552014728403,-0.415802001953125,-1.13677978515625,-7.9250335693359375,8.016939357377579
1785429648.266919,0.13134765625,-0.4150390625,0.8930663466453552,0.9935175538025127,-0.537872314453125,-0.64849853515625,-8.291244506835938,8.333942191357705
1785429648.27758,0.11474609375,-0.38720703125,0.8852538466453552,0.973021235164331,-0.6580352783203125,-0.3452301025390625,-9.023666381835938,9.05421168417711
1785429648.288241,0.1162109375,-0.3974609375,0.8945311903953552,0.9857313170550782,-0.904083251953125,-0.58746337890625,-9.450912475585938,9.512214588054876
1785429648.298902,0.1201171875,-0.3837890625,0.8872069716453552,0.9740936267955259,-1.392364501953125,-0.09918212890625,-9.939193725585938,10.036736915737126
1785429648.307424,0.11767578125,-0.3818359375,0.8823241591453552,0.9685774075781759,-2.2449493408203125,-0.5283355712890625,-10.610580444335938,10.858331058890363
1785429648.315948,0.10498046875,-0.384765625,0.8823241591453552,0.9682775463740593,-3.0384063720703125,-0.2231597900390625,-11.098861694335938,11.50940678244215
1785429648.324474,0.119140625,-0.38330078125,0.8964843153953552,0.9822413680873605,-4.0760040283203125,0.2651214599609375,-11.587142944335938,12.286007481679691
1785429648.332999,0.12451171875,-0.3798828125,0.8891600966453552,0.9748947619129804,-4.016876220703125,1.06048583984375,-11.831283569335938,12.539505400413441
1785429648.340486,0.1123046875,-0.392578125,0.8862304091453552,0.9757736751711085,-4.8084259033203125,1.1196136474609375,-12.075424194335938,13.04570288870846
1785429648.347973,0.111328125,-0.39990234375,0.8935546278953552,0.9852693585948796,-5.176544189453125,1.18255615234375,-12.319564819335938,13.41516776401349
1785429648.35546,0.11865234375,-0.38037109375,0.8989257216453552,0.9832741228536233,-5.2337646484375,1.36566162109375,-12.624740600585938,13.734678710863443
1785429648.362947,0.119140625,-0.3837890625,0.8955077528953552,0.9815409662951965,-5.115509033203125,1.67083740234375,-12.929916381835938,14.005101496780483
1785429648.373598,0.12060546875,-0.38623046875,0.8925780653953552,0.9800077841059055,-4.9915313720703125,1.9130706787109375,-12.807846069335938,13.878621898297745
1785429648.384248,0.1123046875,-0.39306640625,0.8813475966453552,0.9715385368935741,-5.7239532470703125,2.0389556884765625,-13.296127319335938,14.618754487513947
1785429648.3949,0.126953125,-0.3876953125,0.8774413466453552,0.9676404642658102,-6.153106689453125,2.22015380859375,-13.540267944335938,15.037574966397258
1785429648.40557,0.10400390625,-0.39990234375,0.8710936903953552,0.9641280591802113,-6.5155029296875,2.03704833984375,-13.296127319335938,14.946181654777853
1785429648.416238,0.115234375,-0.3955078125,0.8681640028953552,0.9609443932161018,-7.556915283203125,2.03704833984375,-13.723373413085938,15.798338911776868
1785429648.426906,0.0986328125,-0.41162109375,0.8798827528953552,0.9763984920944497,-8.470535278320312,2.5844573974609375,-13.662338256835938,16.281550128435633
1785429648.43768,0.1015625,-0.408203125,0.8696288466453552,0.9660222893824688,-9.449005126953125,2.15911865234375,-13.113021850585938,16.306343345398727
1785429648.448452,0.09130859375,-0.4150390625,0.8837890028953552,0.9806516630956416,-10.179519653320312,2.8896331787109375,-12.624740600585938,16.472907318136787
1785429648.459224,0.0869140625,-0.419921875,0.8881835341453552,0.9862851644888019,-10.242462158203125,2.46429443359375,-12.319564819335938,16.209640818213213
1785429648.467143,0.08837890625,-0.4189453125,0.8999022841453552,0.9965691782037495,-10.850906372070312,2.7675628662109375,-11.404037475585938,15.982917257448163
1785429648.475064,0.08740234375,-0.4248046875,0.9072265028953552,1.0055635831565808,-10.911941528320312,2.8896331787109375,-10.244369506835938,15.243607001545877
1785429648.482985,0.09375,-0.42333984375,0.9038085341453552,1.00243481194552,-10.913848876953125,3.01361083984375,-9.756088256835938,14.945742058464907
1785429648.490906,0.0947265625,-0.42529296875,0.9140624403953552,1.012599316537774,-10.667800903320312,3.2558441162109375,-9.023666381835938,14.346743602386681
1785429648.501596,0.083984375,-0.4345703125,0.9252929091453552,1.0257054642855146,-10.240554809570312,3.5610198974609375,-7.9250335693359375,13.42966800010439
1785429648.512286,0.07861328125,-0.43017578125,0.9121093153953552,1.011520960728903,-9.449005126953125,3.74603271484375,-7.1926116943359375,12.451912382255353
1785429648.522975,0.09814453125,-0.4326171875,0.9067382216453552,1.009437557517687,-8.777618408203125,3.62396240234375,-6.2770843505859375,11.383385979487752
1785429648.533612,0.0830078125,-0.44091796875,0.9116210341453552,1.0160471750853441,-7.4920654296875,3.31878662109375,-5.1174163818359375,9.660918148092977
1785429648.544248,0.0869140625,-0.4404296875,0.9067382216453552,1.011783853638801,-7.0667266845703125,3.5610198974609375,-4.4460296630859375,9.076710225052405
1785429648.554883,0.0908203125,-0.4306640625,0.8872069716453552,0.9903817821566205,-6.763458251953125,3.31878662109375,-4.3849945068359375,8.717045886494176
1785429648.565568,0.07763671875,-0.439453125,0.8764647841453552,0.9835329313335148,-6.824493408203125,3.68499755859375,-3.5915374755859375,8.547049708758456
1785429648.576254,0.1025390625,-0.4296875,0.8857421278953552,0.9897902424873771,-6.397247314453125,3.50189208984375,-3.5305023193359375,8.102621059757416
1785429648.586939,0.08642578125,-0.42626953125,0.8876952528953552,0.9885231362743698,-6.641387939453125,3.31878662109375,-2.5539398193359375,7.851432162316247
1785429648.594954,0.08203125,-0.43798828125,0.8828124403953552,0.9888987134209924,-6.458282470703125,2.95257568359375,-2.1877288818359375,7.430563457717017
1785429648.602968,0.0947265625,-0.43505859375,0.8725585341453552,0.9795955783631758,-6.9446563720703125,2.7675628662109375,-1.8215179443359375,7.6945164868303655
1785429648.610982,0.078125,-0.431640625,0.8701171278953552,0.9744336616888051,-7.0037841796875,2.83050537109375,-1.6384124755859375,7.729757365634908
1785429648.618996,0.0791015625,-0.43994140625,0.8774413466453552,0.9847379422597584,-7.129669189453125,2.46429443359375,-1.8215179443359375,7.760338744411621
1785429648.629627,0.0849609375,-0.447265625,0.8618163466453552,0.9746754924346188,-7.3719024658203125,1.9130706787109375,-1.9435882568359375,7.860173070576861
1785429648.640258,0.0869140625,-0.4428710639476776,0.8623046278953552,0.973271855563567,-7.923126220703125,2.03704833984375,-1.3942718505859375,8.298764308099724
1785429648.650889,0.0869140625,-0.44970703125,0.8706054091453552,0.9837399283596726,-8.411407470703125,1.48773193359375,-1.8215179443359375,8.734016805913116
1785429648.661565,0.08984375,-0.4521484375,0.8544921278953552,0.97091034889061,-8.289337158203125,1.12152099609375,-1.3332366943359375,8.47044508571834
1785429648.672243,0.0791015625,-0.4619140625,0.8735350966453552,0.9913048085207725,-8.653640747070312,0.7572174072265625,-1.1501312255859375,8.762515518801115
1785429648.682921,0.07275390625,-0.4716796576976776,0.8730468153953552,0.9949801868541924,-8.409500122070312,0.6313323974609375,-1.1501312255859375,8.511232268905143
1785429648.693591,0.072265625,-0.470703125,0.8720702528953552,0.9936248177387554,-8.228302001953125,-0.46539306640625,-0.7839202880859375,8.278651796015916
1785429648.704261,0.07568359375,-0.47412109375,0.8740233778953552,0.9972139604965518,-7.740020751953125,-0.46539306640625,-0.0514984130859375,7.754170750858818
1785429648.714931,0.0849609375,-0.4931640625,0.8808593153953552,1.0130855279595878,-7.3719024658203125,-0.7724761962890625,0.1926422119140625,7.414767458336907
1785429648.722948,0.080078125,-0.46435546875,0.8881835341453552,1.0054394550585735,-7.129669189453125,-1.13677978515625,0.6809234619140625,7.251765839570532
1785429648.730967,0.0830078125,-0.4912109076976776,0.8906249403953552,1.0204857849237496,-6.275177001953125,-0.95367431640625,1.1081695556640625,6.44324303993843
1785429648.738986,0.0810546875,-0.47705078125,0.8833007216453552,1.007158118229786,-6.275177001953125,-1.56402587890625,1.9016265869140625,6.7409351748691595
1785429648.747005,0.09765625,-0.4760741889476776,0.8916015028953552,1.0154489728743181,-5.4187774658203125,-1.5621185302734375,2.3288726806640625,6.101394225047999
1785429648.757635,0.07763671875,-0.482421875,0.8803710341453552,1.0068820602925372,-5.115509033203125,-2.41851806640625,2.8171539306640625,6.320919124254966
1785429648.768264,0.0869140625,-0.4721679389476776,0.8930663466453552,1.0139349665243986,-4.3792724609375,-1.93023681640625,3.5495758056640625,5.95846707255242
1785429648.778893,0.0869140625,-0.490234375,0.8706054091453552,1.002914540289972,-4.016876220703125,-2.23541259765625,3.9157867431640625,6.038687760776335
1785429648.787137,0.095703125,-0.482421875,0.8764647841453552,1.005027597362503,-3.5877227783203125,-2.2983551025390625,4.0988922119140625,5.9122845226135325
1785429648.795381,0.09814453125,-0.4775390625,0.8872069716453552,1.012330042902898,-2.979278564453125,-2.54058837890625,4.0378570556640625,5.624498171181089
1785429648.803625,0.10546875,-0.4638671875,0.8710936903953552,0.9925223636333449,-2.490997314453125,-2.54058837890625,4.2819976806640625,5.56732979702645
1785429648.811869,0.09716796875,-0.47314453125,0.8681640028953552,0.9934868381242248,-2.307891845703125,-2.72369384765625,4.5871734619140625,5.812661465878787
1785429648.823635,0.10498046875,-0.466796875,0.8740233778953552,0.9964121067291095,-1.4514923095703125,-2.9697418212890625,4.6482086181640625,5.703686506798011
1785429648.835402,0.1064453125,-0.4526366889476776,0.8710936903953552,0.9874283742030803,-1.087188720703125,-3.15093994140625,3.9157867431640625,5.142352345640343
1785429648.847168,0.10107421875,-0.4716796576976776,0.8720702528953552,0.996596319061379,-0.6580352783203125,-3.2749176025390625,3.9768218994140625,5.193573735934974
1785429648.858936,0.10205078125,-0.4624023139476776,0.8564452528953552,0.9786361597166185,-0.6580352783203125,-3.2100677490234375,3.7326812744140625,4.966936166007762
1785429648.869612,0.10302734375,-0.4609375,0.8623046278953552,0.9831822230676152,-0.7781982421875,-3.88336181640625,3.7937164306640625,5.484375612369766
1785429648.88029,0.10546875,-0.44921875,0.8598632216453552,0.9758513731693235,-0.9021759033203125,-3.6411285400390625,3.5495758056640625,5.164419309639226
1785429648.890968,0.08642578125,-0.4599609375,0.8657225966453552,0.9841285962885786,-1.2664794921875,-4.18853759765625,3.7937164306640625,5.7913816889756085
1785429648.898957,0.1083984375,-0.45068359375,0.8525390028953552,0.9704064480338447,-2.002716064453125,-4.06646728515625,3.4885406494140625,5.7198726977686265
1785429648.906948,0.103515625,-0.4453125,0.8510741591453552,0.9660983033006342,-2.490997314453125,-4.18853759765625,3.7937164306640625,6.17585614986968
1785429648.914937,0.0966796875,-0.4482421875,0.8583983778953552,0.9731987442466518,-2.552032470703125,-4.18853759765625,3.7937164306640625,6.20072586837973
1785429648.922928,0.10595703125,-0.4633788764476776,0.8681640028953552,0.9897755359335327,-2.3059844970703125,-4.2514801025390625,3.9157867431640625,6.2230244560787
1785429648.933598,0.10791015625,-0.46337890625,0.8657225966453552,0.9878462567230399,-2.6111602783203125,-4.3125152587890625,4.5261383056640625,6.7750921630901715
1785429648.944268,0.10986328125,-0.47119140625,0.8706054091453552,0.9960145884092364,-2.368927001953125,-4.00543212890625,4.4040679931640625,6.407114527481869
1785429648.954938,0.107421875,-0.4711913764476776,0.8808593153953552,1.004725786464121,-2.1839141845703125,-3.8242340087890625,4.5261383056640625,6.315075207908915
1785429648.965586,0.125,-0.4672851264476776,0.8764647841453552,1.0010848651568889,-1.9378662109375,-3.70025634765625,4.8313140869140625,6.386612427279261
1785429648.976232,0.11474609375,-0.47021484375,0.8886718153953552,1.011931944743221,-1.6345977783203125,-3.5152435302734375,4.7092437744140625,6.099657687188402
1785429648.986878,0.1123046875,-0.47412109375,0.8842772841453552,1.0096283819448888,-1.1463165283203125,-3.2100677490234375,4.7092437744140625,5.813394315137959
1785429648.994899,0.123046875,-0.4736328125,0.8891600966453552,1.014925737179969,-0.720977783203125,-2.90679931640625,4.5871734619140625,5.478270858530179
1785429649.00292,0.11572265625,-0.4829101264476776,0.8749999403953552,1.006090860254253,-0.5359649658203125,-2.4814605712890625,4.2209625244140625,4.925589268702471
1785429649.010941,0.11767578125,-0.45654296875,0.8647460341453552,0.9849186643464429,-0.232696533203125,-2.23541259765625,4.4040679931640625,4.9443940019720465
1785429649.018962,0.11328125,-0.47412109375,0.8720702528953552,0.9990645520311626,-0.720977783203125,-2.60162353515625,4.0378570556640625,4.8572156205512895
1785429649.02961,0.11962890625,-0.45703125,0.8740233778953552,0.9935318333071873,-0.720977783203125,-2.23541259765625,3.9768218994140625,4.618656824802209
1785429649.040257,0.1220703125,-0.47021484375,0.8574218153953552,0.9854822829419874,-0.537872314453125,-1.74713134765625,3.6716461181640625,4.101555776732475
1785429649.050906,0.11279296875,-0.45263671875,0.8808593153953552,0.9967524198510777,-0.598907470703125,-1.93023681640625,3.5495758056640625,4.084604353671213
1785429649.061565,0.11279296875,-0.46533203125,0.8764647841453552,0.9987225194986111,-0.3528594970703125,-1.6880035400390625,3.3054351806640625,3.7282391969170625
1785429649.072223,0.12451171875,-0.4638671875,0.8647460341453552,0.9891721990206555,-0.2918243408203125,-1.6269683837890625,3.4275054931640625,3.805257083747986
1785429649.082883,0.12060546875,-0.4731445014476776,0.8662108778953552,0.9943503825748853,-0.354766845703125,-1.56402587890625,3.0002593994140625,3.4019983727907697
1785429649.09358,0.123046875,-0.47021484375,0.8706054091453552,0.9970939329688321,-0.1697540283203125,-1.4438629150390625,2.6950836181640625,3.0621940265849203
1785429649.104278,0.10986328125,-0.46533203125,0.8710936903953552,0.9936840832582892,0.1354217529296875,-1.3217926025390625,2.6950836181640625,3.004821200036673
1785429649.114975,0.10888671875,-0.453125,0.8666991591453552,0.9840457385754015,0.072479248046875,-1.86920166015625,2.5730133056640625,3.1811264606822265
1785429649.122952,0.111328125,-0.4619140326976776,0.8745116591453552,0.9952533180051242,-0.2918243408203125,-1.6269683837890625,2.3288726806640625,2.855842350426196
1785429649.130929,0.11328125,-0.451171875,0.8383788466453552,0.9587845393491565,-0.2918243408203125,-2.1762847900390625,2.7561187744140625,3.5238569255757604
1785429649.138906,0.0859375,-0.46240234375,0.8627929091453552,0.9826559853189968,-0.598907470703125,-1.99127197265625,2.7561187744140625,3.452541806586562
1785429649.146883,0.099609375,-0.45458984375,0.8544921278953552,0.9730008994156543,-0.9632110595703125,-1.6269683837890625,3.1223297119140625,3.6501704750640225
1785429649.157558,0.1044921875,-0.46337890625,0.8549804091453552,0.9780747047277832,-1.087188720703125,-1.19781494140625,3.1833648681640625,3.5707914853910685
1785429649.168235,0.109375,-0.46875,0.8579100966453552,0.9837170259027963,-1.7547607421875,-0.58746337890625,3.1223297119140625,3.629496013743468
1785429649.178911,0.10302734375,-0.4677734375,0.845703125,0.9719261278644137,-1.7566680908203125,-0.1621246337890625,3.2444000244140625,3.693006728480939
1785429649.186982,0.1083984375,-0.482421875,0.8623046278953552,0.9940072223181802,-2.4280548095703125,0.0209808349609375,3.4275054931640625,4.200438579408465
1785429649.195051,0.1015625,-0.4672851264476776,0.8569335341453552,0.9813283918996335,-2.4280548095703125,-0.0400543212890625,3.0002593994140625,3.8598718852707905
1785429649.203122,0.1064453125,-0.4677734076976776,0.8662108778953552,0.9901837458202202,-2.9163360595703125,0.5092620849609375,3.1833648681640625,4.347203212111214
1785429649.211192,0.10595703125,-0.4726562201976776,0.8598632216453552,0.9869121312970057,-2.4261474609375,0.38909912109375,3.1833648681640625,4.021368114474303
1785429649.221753,0.10595703125,-0.47998046875,0.8730468153953552,1.0019076228499086,-2.3059844970703125,0.4482269287109375,2.6340484619140625,3.5294026661833446
1785429649.232314,0.109375,-0.48095703125,0.8725585341453552,1.0023177899467337,-2.796173095703125,0.20599365234375,2.8171539306640625,3.9745910022285176
1785429649.242875,0.1025390625,-0.48486328125,0.8793944716453552,1.0094262219713281,-2.4280548095703125,-0.2231597900390625,2.2678375244140625,3.3299155375637244
1785429649.253567,0.10546875,-0.46923828125,0.8701171278953552,0.9941891359665316,-1.6345977783203125,0.0209808349609375,2.3899078369140625,2.8955154223848667
1785429649.264259,0.107421875,-0.4873046875,0.8647460341453552,0.9983942213665442,-1.7547607421875,0.02288818359375,2.4509429931640625,3.0144370431327077
1785429649.274951,0.0947265625,-0.4833984375,0.8632811903953552,0.993932384375783,-1.5125274658203125,-0.3452301025390625,2.0847320556640625,2.59865944334252
1785429649.282946,0.0966796875,-0.47998046875,0.8745116591453552,1.002246902882583,-0.7190704345703125,-0.5283355712890625,2.1457672119140625,2.3239013949580407
1785429649.290941,0.09521484375,-0.4912109375,0.8730468153953552,1.0062627854899222,-0.598907470703125,-0.58746337890625,2.2678375244140625,2.4180344119057664
1785429649.298936,0.10205078125,-0.482421875,0.8779296278953552,1.0069288251752095,-0.4749298095703125,-0.6504058837890625,1.9016265869140625,2.0651319119476
1785429649.306931,0.09765625,-0.4873046875,0.8696288466453552,1.001627142474317,-0.2899169921875,-0.95367431640625,2.2068023681640625,2.4214712999055945
1785429649.31774,0.10107421875,-0.4819335639476776,0.8544921278953552,0.9862214530166971,0.0133514404296875,-1.0738372802734375,2.1457672119140625,2.399504468258405
1785429649.328551,0.1005859375,-0.46875,0.8662108778953552,0.9900330187963409,0.072479248046875,-0.83160400390625,2.3288726806640625,2.473957643827752
1785429649.33936,0.10546875,-0.4873046875,0.8603515625,0.9943813789398043,0.3814697265625,-1.44195556640625,2.2068023681640625,2.663593756545497
1785429649.347476,0.09228515625,-0.47802734375,0.8706054091453552,0.9974870775453278,0.3185272216796875,-1.1997222900390625,2.4509429931640625,2.747346851037846
1785429649.355589,0.09228515625,-0.46484375,0.8662108778953552,0.98737913030527,0.4405975341796875,-1.3217926025390625,2.5730133056640625,2.9260313296983878
1785429649.363702,0.09375,-0.47412109375,0.8627929091453552,0.988934516593592,0.560760498046875,-1.13677978515625,2.3899078369140625,2.705250466232826
1785429649.371815,0.10888671875,-0.47119140625,0.8520507216453552,0.9797285803223078,0.6866455078125,-1.44195556640625,2.5730133056640625,3.0283849458107803
1785429649.382638,0.09375,-0.47607421875,0.8569335341453552,0.9847694177833061,0.3185272216796875,-1.6269683837890625,2.2068023681640625,2.7601562283564114
1785429649.393461,0.10107421875,-0.4721679389476776,0.8627929091453552,0.9887214796582129,0.255584716796875,-1.62506103515625,2.3899078369140625,2.901345616155803
1785429649.404284,0.09716796875,-0.47314453125,0.8735350966453552,0.9981838140713329,0.3795623779296875,-1.3217926025390625,2.7561187744140625,3.080161356413703
1785429649.41487,0.1025390625,-0.46630859375,0.8715819716453552,0.9937872494858677,0.3185272216796875,-1.1386871337890625,2.6950836181640625,2.94305006557891
1785429649.425459,0.095703125,-0.4697265625,0.8740233778953552,0.996854551456951,0.1964569091796875,-1.3790130615234375,2.6340484619140625,2.979678445860982
1785429649.436048,0.0966796875,-0.47021484375,0.8691405653953552,0.9929019506848057,0.255584716796875,-1.86920166015625,2.8171539306640625,3.3905153978188918
1785429649.446378,0.0986328125,-0.462890625,0.8618163466453552,0.9832210218255597,0.3814697265625,-1.62506103515625,2.8171539306640625,3.2745532198030847
1785429649.456707,0.109375,-0.4736328125,0.8632811903953552,0.990729703497418,0.6237030029296875,-1.9931793212890625,3.1833648681640625,3.8073062822078074
1785429649.467038,0.09033203125,-0.4658203125,0.8598632216453552,0.9820963289543841,-0.171661376953125,-2.23541259765625,3.3664703369140625,4.044707608643669
1785429649.475203,0.09619140625,-0.4721679389476776,0.8686522841453552,0.9933539852224852,-0.6580352783203125,-2.4814605712890625,3.4275054931640625,4.282341754232858
1785429649.483366,0.1015625,-0.4658203125,0.8466796278953552,0.9716840521676091,-0.6580352783203125,-2.2983551025390625,3.2444000244140625,4.030084133526173
1785429649.491529,0.1123046875,-0.46728515625,0.8579100966453552,0.9833501380546515,-0.904083251953125,-2.11334228515625,3.6716461181640625,4.3318087859138945
1785429649.499691,0.1083984375,-0.4765625,0.8691405653953552,0.9971295603252615,-1.392364501953125,-2.29644775390625,3.1833648681640625,4.164872516246017
1785429649.510103,0.109375,-0.4638671875,0.8608397841453552,0.9839617839284115,-1.209259033203125,-2.35748291015625,3.3054351806640625,4.2362642522196134
1785429649.520516,0.09716796875,-0.4580078125,0.8637694716453552,0.982502147890035,-1.514434814453125,-2.23541259765625,3.4885406494140625,4.411405462163076
1785429649.530928,0.10791015625,-0.47412109375,0.8632811903953552,0.9908026176040399,-1.4495849609375,-2.23541259765625,3.6716461181640625,4.536446986107704
1785429649.541595,0.10546875,-0.46923828125,0.8647460341453552,0.9894917510455236,-1.5125274658203125,-2.1762847900390625,3.8547515869140625,4.6779337980600655
1785429649.552264,0.09619140625,-0.4726562201976776,0.8671874403953552,0.9923057723843774,-1.575469970703125,-2.54058837890625,3.8547515869140625,4.878094375515635
1785429649.562933,0.09912109375,-0.46240234375,0.8559569716453552,0.9779075907466803,-1.7547607421875,-2.11334228515625,4.2209625244140625,5.036062500511664
1785429649.573607,0.09228515625,-0.46484375,0.8623046278953552,0.9839540300582627,-1.392364501953125,-1.99127197265625,4.4040679931640625,5.029876525700966
1785429649.584282,0.091796875,-0.4809570014476776,0.8588866591453552,0.9886519087925622,-1.3294219970703125,-1.6269683837890625,4.7092437744140625,5.156681674778968
1785429649.594957,0.10546875,-0.4638671875,0.8637694716453552,0.986100463954976,-1.087188720703125,-1.86920166015625,4.8923492431640625,5.348922814721012
1785429649.60296,0.10595703125,-0.47021484375,0.8520507216453552,0.9789378550298895,-1.4514923095703125,-1.6269683837890625,4.8313140869140625,5.300514300801877
1785429649.610963,0.11962890625,-0.47216796875,0.8603515625,0.9886649973677958,-1.6345977783203125,-1.3790130615234375,4.8923492431640625,5.339350900421317
1785429649.618965,0.10302734375,-0.4765625,0.8593749403953552,0.9880545218488457,-1.8177032470703125,-1.8672943115234375,4.8313140869140625,5.489301316804536
1785429649.626969,0.12060546875,-0.4711913764476776,0.8505859375,0.979828265260713,-1.880645751953125,-1.62506103515625,4.6482086181640625,5.271005138519323
1785429649.637628,0.1162109375,-0.47900390625,0.8598632216453552,0.9911177952875818,-2.1228790283203125,-1.9321441650390625,4.5871734619140625,5.411280515096712
1785429649.648287,0.10498046875,-0.47802734375,0.8525390028953552,0.9830329555256309,-2.1209716796875,-1.74713134765625,4.5261383056640625,5.294989780348883
1785429649.658946,0.10888671875,-0.47509765625,0.8676757216453552,0.9952061386603143,-2.4890899658203125,-1.8100738525390625,4.2819976806640625,5.273276054485047
1785429649.669914,0.12158203125,-0.4931640625,0.8769530653953552,1.0134296530942293,-2.857208251953125,-1.31988525390625,3.9768218994140625,5.071572586305698
1785429649.680883,0.115234375,-0.48193359375,0.8549804091453552,0.9881955525040526,-2.7942657470703125,-1.3217926025390625,3.7326812744140625,4.846438511498809
1785429649.691852,0.11181640625,-0.48291015625,0.8588866591453552,0.9916609405305495,-2.857208251953125,-1.25885009765625,3.7326812744140625,4.866338670885902
1785429649.699615,0.1162109375,-0.47509765625,0.8749999403953552,1.0024208999520847,-2.6111602783203125,-1.0738372802734375,3.4885406494140625,4.487894870225588
1785429649.707381,0.10888671875,-0.49755859375,0.8657225966453552,1.0044383933706416,-2.368927001953125,-1.25885009765625,3.0612945556640625,4.070386107667208
1785429649.715147,0.10693359375,-0.4951171875,0.8642577528953552,1.001757099435751,-2.3059844970703125,-1.1386871337890625,3.1223297119140625,4.0451348209035904
1785429649.722914,0.09716796875,-0.4965820014476776,0.8627929091453552,1.0002234262325032,-2.490997314453125,-0.95367431640625,2.8171539306640625,3.8795513389361904
1785429649.733584,0.11376953125,-0.48486328125,0.8603515625,0.9941029719508703,-2.0008087158203125,-0.8335113525390625,2.4509429931640625,3.2718646438772554
1785429649.744254,0.11474609375,-0.4892578125,0.8574218153953552,0.993837030221271,-1.6956329345703125,-0.7114410400390625,2.0847320556640625,2.77982502078183
1785429649.754924,0.11767578125,-0.4775390625,0.8618163466453552,0.9922794772902057,-1.4514923095703125,-0.4024505615234375,1.8405914306640625,2.378355144600207
1785429649.765599,0.119140625,-0.5029296875,0.8608397841453552,1.0040806207977824,-1.0242462158203125,-0.3452301025390625,1.2912750244140625,1.683940415512645
1785429649.776274,0.119140625,-0.4794921875,0.8720702528953552,1.0023042314506583,-1.026153564453125,-0.28228759765625,0.7419586181640625,1.2973742778004795
1785429649.786949,0.126953125,-0.48828125,0.8583983778953552,0.9956824042947656,-0.7190704345703125,-0.0400543212890625,0.6809234619140625,0.9911222929145006
1785429649.795039,0.10498046875,-0.48486328125,0.8632811903953552,0.9956745020406558,-0.720977783203125,0.08392333984375,-0.1735687255859375,0.7463097167694847
1785429649.803132,0.1171875,-0.490234375,0.8642577528953552,1.0005019320459203,-0.7801055908203125,-0.0400543212890625,-0.6008148193359375,0.9854681773739381
1785429649.811224,0.125,-0.474609375,0.8579100966453552,0.9883768475454762,-0.5359649658203125,0.2651214599609375,-0.8449554443359375,1.0351316515456037
1785429649.819316,0.10888671875,-0.48583984375,0.8564452528953552,0.9906538964250607,-0.843048095703125,0.38909912109375,-1.3332366943359375,1.6246994493839197
1785429649.829848,0.10986328125,-0.4873046875,0.8549804091453552,0.9902157840838774,-0.7190704345703125,0.6313323974609375,-1.8825531005859375,2.1117881196944546
1785429649.84038,0.1083984375,-0.47998046875,0.8579100966453552,0.989010215093835,-0.8411407470703125,0.4482269287109375,-1.3332366943359375,1.6388853587507155
1785429649.850911,0.09716796875,-0.48876953125,0.8701171278953552,1.002716851900978,-0.9632110595703125,0.5741119384765625,-1.4553070068359375,1.8371985595807698
1785429649.86174,0.0966796875,-0.4697265625,0.85546875,0.9807225844854021,-1.4514923095703125,0.8144378662109375,-1.0890960693359375,1.989037257293833
1785429649.872566,0.103515625,-0.484375,0.85546875,0.9885147482312558,-1.6956329345703125,0.6313323974609375,-1.0280609130859375,2.081023999356662
1785429649.883394,0.1005859375,-0.47998046875,0.8720702528953552,1.0005025273277386,-1.392364501953125,1.30462646484375,-1.0280609130859375,2.167403598798564
1785429649.891305,0.10791015625,-0.4814452826976776,0.865234375,0.9960244403303499,-1.2073516845703125,1.1196136474609375,-0.5397796630859375,1.7327997271747027
1785429649.899214,0.095703125,-0.47509765625,0.8642577528953552,0.9908674656828418,-0.7781982421875,1.36566162109375,-0.8449554443359375,1.7845374387737192
1785429649.907123,0.1005859375,-0.47802734375,0.8642577528953552,0.9927583470488492,-0.904083251953125,1.24359130859375,-0.9670257568359375,1.8163217456321363
1785429649.915031,0.12744140625,-0.47802734375,0.8530272841453552,0.9861069926210131,-1.0242462158203125,1.1196136474609375,-0.8449554443359375,1.7368260514847065
1785429649.92566,0.1025390625,-0.478515625,0.8603515625,0.9897960768783188,-0.4749298095703125,1.3027191162109375,-1.3942718505859375,1.9663746878701003
1785429649.936287,0.10546875,-0.4716796875,0.8544921278953552,0.9817139000043711,-0.6580352783203125,1.4247894287109375,-1.2722015380859375,2.0202802026423847
1785429649.946916,0.10400390625,-0.47216796875,0.8496093153953552,0.9775455958855955,-1.209259033203125,1.36566162109375,-1.3332366943359375,2.2593935371766434
1785429649.955072,0.099609375,-0.48095703125,0.8627929091453552,0.9928007340691329,-1.3294219970703125,0.7572174072265625,-1.1501312255859375,1.9140383706104604
1785429649.963228,0.10546875,-0.4858398139476776,0.8583983778953552,0.9919736676024488,-1.4495849609375,0.87738037109375,-0.9059906005859375,1.9214348396203416
1785429649.971383,0.09619140625,-0.484375,0.8574218153953552,0.989466571834147,-1.2683868408203125,1.2454986572265625,-0.8449554443359375,1.968253486223826
1785429649.979538,0.103515625,-0.4833984375,0.8588866591453552,0.9909973901350354,-1.2683868408203125,0.9365081787109375,-0.7839202880859375,1.76079066468202
1785429649.990013,0.1083984375,-0.48388671875,0.8662108778953552,0.9981071399500782,-1.087188720703125,1.12152099609375,-1.0280609130859375,1.8699459618176955
1785429650.000488,0.099609375,-0.49072265625,0.8745116591453552,1.007720891381194,-0.7190704345703125,1.4247894287109375,-1.4553070068359375,2.1598624239023545
1785429650.010963,0.10498046875,-0.47021484375,0.8623046278953552,0.9877713143190349,-0.720977783203125,1.24359130859375,-1.4553070068359375,2.0455431530105113
1785429650.02159,0.0986328125,-0.47265625,0.8618163466453552,0.9878561523374088,-0.537872314453125,1.18255615234375,-1.8825531005859375,2.287302309846021
1785429650.03222,0.10302734375,-0.48876953125,0.8759765028953552,1.0083873868029596,-0.537872314453125,1.06048583984375,-2.0656585693359375,2.3834601251615806
1785429650.04285,0.09716796875,-0.48291015625,0.8647460341453552,0.9952032640272641,-0.4749298095703125,0.8144378662109375,-2.0656585693359375,2.2706414703796174
1785429650.050866,0.10595703125,-0.50244140625,0.8598632216453552,1.0015183568582855,-0.415802001953125,0.87738037109375,-2.5539398193359375,2.732269426904769
1785429650.058885,0.09912109375,-0.50146484375,0.8603515625,1.0007481160809646,-0.1697540283203125,0.9975433349609375,-2.7980804443359375,2.9754265758427243
1785429650.066904,0.0888671875,-0.490234375,0.8681640028953552,1.0009674596954123,0.1354217529296875,0.9365081787109375,-2.4318695068359375,2.609478093074838
1785429650.074923,0.07666015625,-0.4736328125,0.8530272841453552,0.9787034117286683,0.1354217529296875,0.8144378662109375,-2.3708343505859375,2.510478760516212
1785429650.085702,0.07373046875,-0.48388671875,0.8657225966453552,0.9945140285320829,-0.1697540283203125,0.9975433349609375,-1.7604827880859375,2.0305685859883678
1785429650.096481,0.0888671875,-0.48486328125,0.8627929091453552,0.993680724674773,0.3814697265625,0.69427490234375,-1.5163421630859375,1.710798161052388
1785429650.10726,0.08984375,-0.498046875,0.8676757216453552,1.0044818301214393,0.6847381591796875,0.8144378662109375,-1.0280609130859375,1.4795555500115916
1785429650.117805,0.0908203125,-0.4809570014476776,0.8579100966453552,0.987713369520825,0.6866455078125,0.69427490234375,-0.7839202880859375,1.252210330374354
1785429650.128351,0.09033203125,-0.4907226264476776,0.8632811903953552,0.9971073090033387,0.743865966796875,0.57220458984375,-0.0514984130859375,0.9398972048832115
1785429650.138899,0.09521484375,-0.486328125,0.8481444716453552,0.9823084833283948,0.804901123046875,0.69427490234375,-0.3566741943359375,1.1212046819433703
1785429650.149567,0.08447265625,-0.49365234375,0.8574218153953552,0.9929755463553297,0.560760498046875,0.63323974609375,0.3757476806640625,0.9255437492237083
1785429650.160234,0.08740234375,-0.48291015625,0.8422850966453552,0.9748259191944313,0.072479248046875,0.51116943359375,0.3757476806640625,0.6385403282193052
1785429650.170901,0.08203125,-0.50244140625,0.8603515625,0.9996906040306828,0.133514404296875,0.02288818359375,0.8640289306640625,0.8745833054246198
1785429650.179161,0.08740234375,-0.4907226264476776,0.85546875,0.9900882021452748,0.255584716796875,-0.28228759765625,1.1692047119140625,1.2296542170922367
1785429650.187423,0.080078125,-0.4990234375,0.8657225966453552,1.0024532466006624,0.5016326904296875,-0.5855560302734375,1.1692047119140625,1.4005537758541653
1785429650.195685,0.08740234375,-0.48486328125,0.8613280653953552,0.9922789967721856,0.8678436279296875,-0.7114410400390625,1.9626617431640625,2.2608277320640378
1785429650.203947,0.09423828125,-0.4833984375,0.8593749403953552,0.9904949223544338,1.4171600341796875,-1.0166168212890625,1.9016265869140625,2.580317034758031
1785429650.214535,0.09619140625,-0.4853515625,0.8569335341453552,0.9895221108193554,1.3561248779296875,-1.3217926025390625,2.2068023681640625,2.907952382829078
1785429650.225122,0.08935546875,-0.49560546875,0.8632811903953552,0.9994316355513573,1.4781951904296875,-1.2607574462890625,1.9016265869140625,2.7185941284864876
1785429650.235711,0.1005859375,-0.48388671875,0.8632811903953552,0.9947453448475227,1.3561248779296875,-1.0166168212890625,2.2068023681640625,2.7825458016000746
1785429650.243718,0.11181640625,-0.48291015625,0.8559569716453552,0.9891245952984649,0.926971435546875,-0.16021728515625,2.2068023681640625,2.3989419152862346
1785429650.251727,0.1123046875,-0.4794921875,0.8408203125,0.974424906609332,0.804901123046875,0.20599365234375,1.7185211181640625,1.9088253027094695
1785429650.259736,0.12744140625,-0.4716796576976776,0.8491210341453552,0.9796578699427946,0.4405975341796875,-0.0400543212890625,1.2302398681640625,1.3073716644472138
1785429650.267745,0.115234375,-0.4765625,0.865234375,0.9944955008794817,-0.2899169921875,-0.09918212890625,0.7419586181640625,0.8027400252393971
1785429650.278126,0.10546875,-0.4833984375,0.8530272841453552,0.9861304447690501,-0.1697540283203125,0.2651214599609375,0.2536773681640625,0.4042994258979819
1785429650.288507,0.1025390625,-0.4794921875,0.8510741591453552,0.9822190395104788,-0.232696533203125,0.02288818359375,-0.0514984130859375,0.2394235411636544
1785429650.298888,0.10693359375,-0.4765624701976776,0.8623046278953552,0.9910175844872529,-0.6580352783203125,-0.0400543212890625,-0.9670257568359375,1.1703647254390985
1785429650.306893,0.09326171875,-0.48388671875,0.865234375,0.9957281900440935,-0.4138946533203125,-0.0400543212890625,-1.1501312255859375,1.2229942635878877
1785429650.314898,0.11083984375,-0.49365234375,0.8701171278953552,1.0065197085548074,-0.049591064453125,-0.40435791015625,-1.6384124755859375,1.6883009309169867
1785429650.322902,0.08837890625,-0.498046875,0.8686522841453552,1.0051956583263553,0.133514404296875,-0.46539306640625,-1.5163421630859375,1.5917632857827515
1785429650.330908,0.087890625,-0.48193359375,0.8730468153953552,1.0010971444468575,1.1119842529296875,-1.1386871337890625,-1.2722015380859375,2.0375510106322663
1785429650.338923,0.0986328125,-0.48388671875,0.8715819716453552,1.0017634059904097,1.415252685546875,-0.77056884765625,-1.0890960693359375,1.9449541797093606
1785429650.34694,0.083984375,-0.4794921875,0.8657225966453552,0.9931977383482365,1.6002655029296875,-0.8335113525390625,-0.7228851318359375,1.943747352025917
1785429650.354955,0.09130859375,-0.4833984375,0.8706054091453552,0.9999825433992312,2.025604248046875,-0.83160400390625,0.0095367431640625,2.189686904214534
1785429650.362972,0.0927734375,-0.4892578125,0.8559569716453552,0.9902739293277083,2.3345947265625,-0.95367431640625,0.0705718994140625,2.522857037577292
1785429650.373756,0.09765625,-0.48876953125,0.8535155653953552,0.9883932507937112,2.1514892578125,-0.77056884765625,0.4367828369140625,2.3266846847141878
1785429650.38454,0.10400390625,-0.470703125,0.8535155653953552,0.980238269387692,2.1495819091796875,-0.9555816650390625,1.1692047119140625,2.626952295187993
1785429650.395324,0.08837890625,-0.4873046875,0.8471679091453552,0.9813104278540669,1.9664764404296875,-1.1386871337890625,1.0471343994140625,2.5020248659551756
1785429650.403309,0.109375,-0.48388671875,0.8476561903953552,0.9821559266853753,1.6613006591796875,-1.0166168212890625,1.2912750244140625,2.3368399239559134
1785429650.411294,0.1201171875,-0.46826171875,0.8540038466453552,0.981335694889714,1.415252685546875,-0.95367431640625,1.2302398681640625,2.103788249549108
1785429650.419279,0.12060546875,-0.4609375,0.8662108778953552,0.9886001936996064,1.110076904296875,-0.89263916015625,0.9250640869140625,1.6984754836605493
1785429650.427263,0.11083984375,-0.4794921875,0.8593749403953552,0.9903148575153157,0.9288787841796875,-1.0166168212890625,0.8029937744140625,1.5940905114750399
1785429650.437828,0.1162109375,-0.46875,0.8598632216453552,0.9862029732428098,0.3185272216796875,-0.7114410400390625,0.2536773681640625,0.8197317558332659
1785429650.448392,0.11767578125,-0.47998046875,0.8603515625,0.9921862985198188,0.438690185546875,-0.64849853515625,-0.1735687255859375,0.8019510779944623
1785429650.458956,0.11962890625,-0.46240234375,0.8544921278953552,0.9789197103701593,-0.232696533203125,-0.09918212890625,-0.3566741943359375,0.4372656539957365
1785429650.467118,0.1162109375,-0.4677734076976776,0.8579100966453552,0.9840359123882468,-0.1697540283203125,-0.4673004150390625,-1.2111663818359375,1.3092402806651686
1785429650.475282,0.12451171875,-0.46728515625,0.8642577528953552,0.9903534968875481,-0.171661376953125,-0.28228759765625,-1.3332366943359375,1.3735625210567584
1785429650.483445,0.1259765625,-0.48486328125,0.8574218153953552,0.99304313366525,-0.232696533203125,-0.16021728515625,-1.8215179443359375,1.843297283827384
1785429650.49161,0.10498046875,-0.4736328125,0.8671874403953552,0.9936614094726018,-0.4138946533203125,-0.0400543212890625,-2.1877288818359375,2.2268971222578267
1785429650.50203,0.10546875,-0.4711913764476776,0.8823241591453552,1.0058036052216046,-0.2918243408203125,0.2651214599609375,-2.0046234130859375,2.043028600563228
1785429650.51245,0.1083984375,-0.4697265625,0.8549804091453552,0.9815216578317907,-0.049591064453125,-0.16021728515625,-2.0046234130859375,2.0116271723231285
1785429650.52287,0.09814453125,-0.4760741889476776,0.8559569716453552,0.984348169960588,0.255584716796875,-0.28228759765625,-1.8215179443359375,1.8608969495349534
1785429650.533546,0.1103515625,-0.48046875,0.8662108778953552,0.9966689380416126,0.1964569091796875,-0.4024505615234375,-1.5773773193359375,1.6397197867899242
1785429650.544225,0.0908203125,-0.46435546875,0.8618163466453552,0.9831590643765519,0.1983642578125,-0.09918212890625,-1.2111663818359375,1.2313039746388525
1785429650.554904,0.11572265625,-0.4682616889476776,0.85546875,0.9820832575358618,-0.2307891845703125,-0.2231597900390625,-1.2111663818359375,1.252991597774887
1785429650.565592,0.08642578125,-0.4599609375,0.845703125,0.9665646669133511,-0.4138946533203125,-0.0400543212890625,-0.9059906005859375,0.9968611242550974
1785429650.576282,0.09521484375,-0.47216796875,0.8579100966453552,0.9838791547288115,-0.6580352783203125,-0.4673004150390625,-0.7839202880859375,1.1251271588058438
1785429650.586972,0.0869140625,-0.48388671875,0.85546875,0.9866748162740641,-1.4495849609375,-0.28228759765625,-0.2956390380859375,1.5061159608765484
1785429650.594955,0.09814453125,-0.482421875,0.8544921278953552,0.9861642921582234,-1.2683868408203125,-0.1621246337890625,0.1316070556640625,1.2854610036667522
1785429650.602939,0.10205078125,-0.4853515625,0.8632811903953552,0.9956078117739677,-1.9378662109375,-0.28228759765625,0.7419586181640625,2.094161963734354
1785429650.610922,0.1005859375,-0.4931640625,0.8515624403953552,0.9891849742370488,-2.002716064453125,-0.46539306640625,1.2302398681640625,2.39602847944217
1785429650.618905,0.09521484375,-0.47998046875,0.8574218153953552,0.987228082242231,-2.368927001953125,-0.28228759765625,1.7185211181640625,2.9402068399942576
1785429650.629609,0.0947265625,-0.49951171875,0.8535155653953552,0.9934656004028516,-2.1228790283203125,-0.2841949462890625,1.7795562744140625,2.784636900959422
1785429650.640313,0.10693359375,-0.4863280951976776,0.8520507216453552,0.9868841076373973,-2.185821533203125,-0.16021728515625,2.2068023681640625,3.110218970685475
1785429650.651017,0.10302734375,-0.48388671875,0.8432616591453552,0.9776764372364711,-2.3670196533203125,-0.2231597900390625,1.9626617431640625,3.0829569327473076
1785429650.661649,0.10302734375,-0.4873046875,0.8510741591453552,0.9861073554053974,-1.9397735595703125,-0.3452301025390625,1.8405914306640625,2.696234800743658
1785429650.672282,0.0966796875,-0.4960937201976776,0.8647460341453552,1.0016195109744963,-2.3059844970703125,-0.0400543212890625,1.8405914306640625,2.9507534061687584
1785429650.682914,0.09521484375,-0.4956054389476776,0.8662108778953552,1.0025028192324943,-2.1228790283203125,-0.8907318115234375,1.8405914306640625,2.9475066316424123
1785429650.691045,0.09423828125,-0.49169921875,0.8647460341453552,0.9992170329525184,-1.9397735595703125,-0.6504058837890625,1.9016265869140625,2.7931940412606386
1785429650.699172,0.10546875,-0.50244140625,0.8701171278953552,1.0102845342763107,-1.5125274658203125,-0.7114410400390625,2.3288726806640625,2.8666244349506433
1785429650.707301,0.10693359375,-0.4912109076976776,0.8706054091453552,1.0053241903717516,-1.026153564453125,-0.77056884765625,2.2678375244140625,2.6057349297191834
1785429650.715429,0.107421875,-0.4960937201976776,0.8740233778953552,1.0107251374907493,-0.7781982421875,-0.77056884765625,2.3899078369140625,2.6288834744174663
1785429650.726271,0.103515625,-0.50634765625,0.8588866591453552,1.0023920025952313,-0.1697540283203125,-0.7114410400390625,2.4509429931640625,2.5577502495988247
1785429650.737115,0.107421875,-0.50390625,0.8569335341453552,0.9998980197802307,0.072479248046875,-0.83160400390625,2.4509429931640625,2.589196789826984
1785429650.747957,0.103515625,-0.50244140625,0.8627929091453552,1.0037800831881072,0.0133514404296875,-0.5283355712890625,2.0236968994140625,2.091570194267689
1785429650.758261,0.1005859375,-0.4873046875,0.8613280653953552,0.9947207776657386,0.4405975341796875,-0.8335113525390625,1.9626617431640625,2.177362735057371
1785429650.768567,0.103515625,-0.4912109375,0.8627929091453552,0.9982060277368969,0.6237030029296875,-0.8335113525390625,2.0236968994140625,2.275762674659442
1785429650.778872,0.1142578125,-0.48779296875,0.8540038466453552,0.9901108009532504,0.438690185546875,-0.64849853515625,1.5354156494140625,1.7235140398211326
1785429650.786877,0.10498046875,-0.4956054389476776,0.8637694716453552,1.0013707355819752,0.5016326904296875,-1.3790130615234375,1.2912750244140625,1.9546620087973032
1785429650.794879,0.09912109375,-0.4873046875,0.8520507216453552,0.9865501923075377,0.3185272216796875,-1.0166168212890625,1.2302398681640625,1.6274088255565005
1785429650.802883,0.10986328125,-0.5009765625,0.8530272841453552,0.9953406473352395,0.072479248046875,-1.07574462890625,1.4133453369140625,1.7776458560114865
1785429650.810886,0.11376953125,-0.482421875,0.8657225966453552,0.9975720455494614,0.133514404296875,-0.95367431640625,1.2912750244140625,1.6108109717167982
1785429650.821581,0.10986328125,-0.50244140625,0.8666991591453552,1.0078118573150248,-0.110626220703125,-0.83160400390625,0.9860992431640625,1.294679534629593
1785429650.832276,0.11474609375,-0.4956054389476776,0.8608397841453552,0.9999182722166976,0.3185272216796875,-0.6504058837890625,0.8640289306640625,1.127401169789572
1785429650.842971,0.10888671875,-0.48828125,0.8520507216453552,0.9880613993462525,-0.1697540283203125,-0.6504058837890625,0.8029937744140625,1.0472073555634276
1785429650.85362,0.111328125,-0.48974609375,0.8447265028953552,0.9827553370260657,0.3185272216796875,-0.4673004150390625,0.6198883056640625,0.8391011740819596
1785429650.864271,0.103515625,-0.4873046875,0.8574218153953552,0.9916418267673465,0.0133514404296875,-0.4673004150390625,0.1316070556640625,0.48566280067325646
1785429650.874922,0.12646484375,-0.494140625,0.8496093153953552,0.9909613023658728,-0.2307891845703125,-0.2231597900390625,0.0705718994140625,0.32870097747316906
1785429650.883151,0.09765625,-0.48681640625,0.8471679091453552,0.9819472607242918,-0.0476837158203125,-0.5283355712890625,-0.7228851318359375,0.8966466006589403
1785429650.891379,0.10400390625,-0.501953125,0.8569335341453552,0.9985533707095345,-0.110626220703125,-0.40435791015625,-0.7839202880859375,0.8889738456702344
1785429650.899606,0.10107421875,-0.4829101264476776,0.8666991591453552,0.9972891358000952,0.072479248046875,-0.28228759765625,-1.0890960693359375,1.1274173040320814
1785429650.907835,0.09716796875,-0.4833984375,0.8535155653953552,0.9856999969060543,-0.1697540283203125,-0.3452301025390625,-0.9670257568359375,1.0407396736044143
1785429650.918553,0.107421875,-0.4814452826976776,0.865234375,0.9959716578005636,0.072479248046875,-0.52642822265625,-0.5397796630859375,0.7574575893656535
1785429650.929271,0.09033203125,-0.486328125,0.8618163466453552,0.9936812046028212,0.3814697265625,-0.28228759765625,-0.6008148193359375,0.7656264671547612
1785429650.939989,0.10498046875,-0.482421875,0.8588866591453552,0.9906755561511321,0.1354217529296875,-0.0400543212890625,-0.4787445068359375,0.49913896125834717
1785429650.947715,0.1015625,-0.4736328125,0.8500975966453552,0.9784216403499665,0.2574920654296875,-0.0400543212890625,-0.3566741943359375,0.44172728387361815
1785429650.95544,0.09814453125,-0.4990234375,0.8525390028953552,0.992713197074767,0.3185272216796875,0.0209808349609375,0.0705718994140625,0.32692534220146874
1785429650.963165,0.10205078125,-0.4858398139476776,0.8525390028953552,0.9865482442477184,0.1964569091796875,-0.0400543212890625,0.1926422119140625,0.2780479951905893
1785429650.97089,0.09619140625,-0.4819335639476776,0.8618163466453552,0.9920887873778284,-0.110626220703125,0.02288818359375,0.5588531494140625,0.5701568839059072
1785429650.981601,0.1064453125,-0.46533203125,0.8593749403953552,0.9830512662318247,-0.1697540283203125,-0.1621246337890625,0.4367828369140625,0.4958629585227229
1785429650.992311,0.0986328125,-0.4833984375,0.8500975966453552,0.9828877885604799,-0.6580352783203125,-0.2231597900390625,0.4367828369140625,0.8207252683005843
1785429651.003023,0.11767578125,-0.4863280951976776,0.8461913466453552,0.9830576792889006,-0.7190704345703125,0.1430511474609375,0.4367828369140625,0.8534079723588979
1785429651.01368,0.09228515625,-0.46044921875,0.865234375,0.9844595252183875,-0.6580352783203125,0.0209808349609375,0.4367828369140625,0.7900821916563148
1785429651.024339,0.10009765625,-0.4755859375,0.8618163466453552,0.989408378820214,-0.720977783203125,0.51116943359375,0.0705718994140625,0.8866135272484602
1785429651.034997,0.1044921875,-0.482421875,0.8525390028953552,0.9851254915922424,-0.8411407470703125,0.3261566162109375,-0.5397796630859375,1.0513125031889141
1785429651.042978,0.1123046875,-0.47900390625,0.8627929091453552,0.9932113013396175,-0.7781982421875,0.20599365234375,-0.3566741943359375,0.8804784891494072
1785429651.050961,0.10009765625,-0.47607421875,0.8686522841453552,0.9956018246749596,-0.598907470703125,0.08392333984375,-0.6008148193359375,0.8524738896694838
1785429651.058944,0.10546875,-0.47509765625,0.8637694716453552,0.9914328723354404,-0.4749298095703125,0.1430511474609375,-0.6618499755859375,0.8270836384498791
1785429651.066926,0.10986328125,-0.47265625,0.8510741591453552,0.9796943888764764,-0.6580352783203125,0.2040863037109375,-0.6008148193359375,0.9141335208874901
1785429651.077619,0.10595703125,-0.4853515625,0.8623046278953552,0.9951694845513762,-0.2918243408203125,0.1430511474609375,-0.7228851318359375,0.7925831126857054
1785429651.08831,0.1064453125,-0.4858398139476776,0.8466796278953552,0.9819558654353839,-0.1697540283203125,0.2651214599609375,-1.1501312255859375,1.1924376942761425
1785429651.099003,0.12646484375,-0.4726562201976776,0.8623046278953552,0.9914466856498207,-0.415802001953125,0.20599365234375,-1.2111663818359375,1.2970153021933475
1785429651.106983,0.1240234375,-0.48583984375,0.8510741591453552,0.9878002789983986,-0.5359649658203125,0.1430511474609375,-2.1877288818359375,2.2569625020801256
1785429651.114964,0.11767578125,-0.4775390625,0.8510741591453552,0.9829640736421399,-0.7801055908203125,0.2651214599609375,-3.1032562255859375,3.210771452937566
1785429651.122945,0.10888671875,-0.47705078125,0.8491210341453552,0.9800205589881543,-1.3294219970703125,0.1430511474609375,-3.6525726318359375,3.8896160874720294
1785429651.130926,0.1171875,-0.4760741889476776,0.8330077528953552,0.9665823606512837,-1.7547607421875,0.57220458984375,-4.2629241943359375,4.645333792271055
1785429651.141602,0.1044921875,-0.4833984375,0.85546875,0.9881393873601735,-1.880645751953125,0.20599365234375,-4.4460296630859375,4.831815558792089
1785429651.152277,0.119140625,-0.4814453125,0.8471679091453552,0.9816707919355278,-2.3670196533203125,0.4482269287109375,-4.9343109130859375,5.491002969023531
1785429651.162954,0.11083984375,-0.4736328125,0.8598632216453552,0.9879161259831292,-2.552032470703125,0.75531005859375,-5.3005218505859375,5.931179891444447
1785429651.170938,0.111328125,-0.4721679389476776,0.8544921278953552,0.9825951916334852,-3.162384033203125,0.75531005859375,-5.6056976318359375,6.480355854244579
1785429651.178922,0.115234375,-0.4765625,0.8520507216453552,0.9830469011416807,-3.2825469970703125,0.6313323974609375,-5.4225921630859375,6.3701021303602445
1785429651.186906,0.115234375,-0.4960937201976776,0.8510741591453552,0.9918241602049154,-3.528594970703125,0.75531005859375,-5.7888031005859375,6.8214160618773025
1785429651.19489,0.12548828125,-0.4716796576976776,0.8515624403953552,0.9815231011590967,-3.467559814453125,1.18255615234375,-5.8498382568359375,6.902392176006631
1785429651.205786,0.11767578125,-0.4858398139476776,0.8491210341453552,0.9853397611674815,-4.0760040283203125,1.1806488037109375,-6.3381195068359375,7.627548709744286
1785429651.216682,0.1162109375,-0.4775390326976776,0.8491210341453552,0.9810988942876961,-4.1370391845703125,1.4247894287109375,-6.5212249755859375,7.853119973172602
1785429651.227578,0.1162109375,-0.4755859375,0.8408203125,0.9729675040077035,-4.4422149658203125,1.4858245849609375,-7.0095062255859375,8.430547196140967
1785429651.235435,0.12841796875,-0.49462890625,0.8427733778953552,0.9856043303907986,-5.2356719970703125,1.8520355224609375,-7.0705413818359375,8.990820444743507
1785429651.243291,0.12158203125,-0.48486328125,0.8476561903953552,0.9840709369466001,-5.4187774658203125,1.6078948974609375,-7.1926116943359375,9.147794171867938
1785429651.251147,0.123046875,-0.4931640625,0.8535155653953552,0.9933982818391234,-5.0525665283203125,2.1572113037109375,-7.3146820068359375,9.148035963696822
1785429651.259003,0.10546875,-0.490234375,0.8671874403953552,1.0017322279120557,-4.9304962158203125,2.2220611572265625,-7.1926116943359375,8.998945032956449
1785429651.269637,0.1201171875,-0.48291015625,0.8520507216453552,0.9867222456186342,-4.7473907470703125,2.2792816162109375,-7.0705413818359375,8.816200940519698
1785429651.280271,0.1064453125,-0.49853515625,0.8540038466453552,0.9945805531255364,-4.3792724609375,2.34222412109375,-7.0095062255859375,8.590530754679072
1785429651.290905,0.10791015625,-0.4863280951976776,0.8574218153953552,0.9916308726115618,-4.627227783203125,2.22015380859375,-6.6432952880859375,8.394861057585471
1785429651.301571,0.10400390625,-0.4931640625,0.8325194716453552,0.9731989908160736,-4.688262939453125,2.34222412109375,-6.3991546630859375,8.271336265983722
1785429651.312236,0.11474609375,-0.48486328125,0.845703125,0.9815665250863876,-4.9304962158203125,2.9506683349609375,-6.0939788818359375,8.37572773969056
1785429651.322901,0.11767578125,-0.4921875,0.83154296875,0.9734268506295742,-5.176544189453125,3.13568115234375,-6.4601898193359375,8.8522967944131
1785429651.33356,0.1171875,-0.4921875,0.8442382216453552,0.9842355511763492,-5.5389404296875,3.80706787109375,-6.2770843505859375,9.196489265100674
1785429651.344219,0.109375,-0.5,0.8491210341453552,0.9914481435017555,-5.6018829345703125,3.3779144287109375,-6.0939788818359375,8.940244790417431
1785429651.354878,0.10546875,-0.4970703125,0.8632811903953552,1.0017269919922451,-5.664825439453125,3.50189208984375,-5.9108734130859375,8.904601056415258
1785429651.365567,0.0849609375,-0.51513671875,0.8598632216453552,1.0059567385547574,-4.6253204345703125,2.8896331787109375,-4.9953460693359375,7.395745491996786
1785429651.376259,0.08984375,-0.5166015625,0.8574218153953552,1.005047881101876,-3.8928985595703125,2.8896331787109375,-4.6291351318359375,6.703247807698102
1785429651.38695,0.08642578125,-0.5078125,0.8686522841453552,1.0099008572983121,-3.0994415283203125,2.7675628662109375,-3.4084320068359375,5.374323283086896
1785429651.394929,0.078125,-0.5126953125,0.8530272841453552,0.9983063390467243,-2.7332305908203125,2.8896331787109375,-2.5539398193359375,4.726852861142677
1785429651.402908,0.08349609375,-0.5126953125,0.8544921278953552,0.9999924388544713,-1.880645751953125,2.83050537109375,-2.0656585693359375,3.9768749571995463
1785429651.410887,0.07763671875,-0.509765625,0.8515624403953552,0.9955134566754987,-1.4514923095703125,2.4623870849609375,-1.2111663818359375,3.104368548580168
1785429651.418866,0.08837890625,-0.51708984375,0.8564452528953552,1.0043362030646583,-1.331329345703125,2.34222412109375,-0.2956390380859375,2.7103236155492723
1785429651.426876,0.0947265625,-0.513671875,0.8642577528953552,1.0098382941089186,-0.6580352783203125,2.0389556884765625,0.3147125244140625,2.1655010275010484
1785429651.434886,0.099609375,-0.49951171875,0.8486327528953552,0.9897532692763479,-0.4749298095703125,1.7910003662109375,0.6198883056640625,1.9538429177611152
1785429651.442896,0.0927734375,-0.5126953125,0.845703125,0.9933162486337394,-0.415802001953125,1.67083740234375,1.4133453369140625,2.227584784306932
1785429651.450906,0.0830078125,-0.50537109375,0.8408203125,0.9845146201284692,-0.537872314453125,1.18255615234375,1.8405914306640625,2.2528920290895424
1785429651.461606,0.08740234375,-0.501953125,0.8515624403953552,0.9923480736527641,-0.110626220703125,1.06048583984375,2.5119781494140625,2.728901354089198
1785429651.472306,0.08740234375,-0.50927734375,0.845703125,0.9910682913829977,-0.110626220703125,0.51116943359375,2.8171539306640625,2.8652903202997755
1785429651.483006,0.07763671875,-0.51416015625,0.8486327528953552,0.9952716592267862,0.072479248046875,0.08392333984375,3.6716461181640625,3.6733202399732585
1785429651.493633,0.09033203125,-0.509765625,0.8510741591453552,0.9961666992358081,0.560760498046875,-0.28228759765625,4.5871734619140625,4.629935096051451
1785429651.50426,0.0869140625,-0.51171875,0.8540038466453552,0.9993661508410617,0.6237030029296875,-0.8335113525390625,4.7702789306640625,4.882551350166476
1785429651.514887,0.10205078125,-0.5048828125,0.84130859375,0.9864690396709104,0.6847381591796875,-0.7114410400390625,4.9533843994140625,5.050844652971151
1785429651.525567,0.09765625,-0.505859375,0.8588866591453552,1.0015571594758448,0.9899139404296875,-1.1386871337890625,5.1364898681640625,5.3535097052182365
1785429651.536247,0.0859375,-0.498046875,0.8403319716453552,0.9806088752264512,0.8678436279296875,-1.0166168212890625,5.1975250244140625,5.366649672121
1785429651.546929,0.10205078125,-0.5029296875,0.8359375,0.980889461880814,0.9899139404296875,-1.5048980712890625,5.2585601806640625,5.558516257787884
1785429651.557567,0.1005859375,-0.4960937201976776,0.8535155653953552,0.9923282372352802,1.110076904296875,-1.74713134765625,5.9299468994140625,6.280844601587189
1785429651.568207,0.0849609375,-0.48681640625,0.8574218153953552,0.9896366726283493,1.049041748046875,-2.23541259765625,6.0520172119140625,6.536395826769487
1785429651.578847,0.0908203125,-0.5,0.8569335341453552,0.9962848042128548,0.9899139404296875,-2.6035308837890625,5.9909820556640625,6.606827428016361
1785429651.586864,0.0869140625,-0.48876953125,0.8447265028953552,0.9798023135471845,1.1730194091796875,-3.0269622802734375,6.4182281494140625,7.192504971040444
1785429651.594882,0.08203125,-0.4970702826976776,0.8417968153953552,0.9810351014757186,1.1730194091796875,-3.1528472900390625,6.7234039306640625,7.518017091194186
1785429651.602901,0.0849609375,-0.49755859375,0.8466796278953552,0.9857227335353353,1.049041748046875,-3.45611572265625,7.0896148681640625,7.956623873002287
1785429651.610921,0.08984375,-0.48388671875,0.8471679091453552,0.9797508470434803,1.1730194091796875,-3.7631988525390625,7.6389312744140625,8.595982268088088
1785429651.618943,0.08349609375,-0.4907226264476776,0.8559569716453552,0.9901730308827358,1.3580322265625,-3.57818603515625,8.005142211914062,8.872990964919207
1785429651.626966,0.0908203125,-0.4858398139476776,0.8442382216453552,0.97827748050654,1.232147216796875,-3.51715087890625,8.554458618164062,9.330985977844607
1785429651.63499,0.10107421875,-0.4907226264476776,0.8544921278953552,0.9905460566973965,0.926971435546875,-3.57818603515625,8.859634399414062,9.599781926470413
1785429651.643013,0.095703125,-0.5,0.845703125,0.9871032690501694,0.5016326904296875,-3.3969879150390625,9.531021118164062,10.130721879802964
1785429651.653666,0.0966796875,-0.48876953125,0.8461913466453552,0.9819788245124852,0.072479248046875,-3.63922119140625,9.347915649414062,10.031585672760718
1785429651.664319,0.09521484375,-0.49462890625,0.8520507216453552,0.989805058395227,-0.232696533203125,-3.39508056640625,9.531021118164062,10.120330196384081
1785429651.674972,0.10693359375,-0.494140625,0.8417968153953552,0.9819529668764397,-0.3528594970703125,-3.1528472900390625,9.592056274414062,10.103093557445934
1785429651.685746,0.1103515625,-0.5029296875,0.8549804091453552,0.998051721073311,-0.4749298095703125,-3.4580230712890625,9.592056274414062,10.20740052398808
1785429651.696521,0.0986328125,-0.505859375,0.8535155653953552,0.9970511317626612,-0.598907470703125,-3.45611572265625,9.225845336914062,9.870139220270133
1785429651.707295,0.1005859375,-0.5029296875,0.8583983778953552,0.9999517871202485,-0.049591064453125,-3.51715087890625,9.042739868164062,9.702780730385925
1785429651.717845,0.1103515625,-0.50439453125,0.8447265028953552,0.9900273608314647,0.0133514404296875,-3.8242340087890625,8.981704711914062,9.76196514780501
1785429651.728394,0.10546875,-0.50146484375,0.8569335341453552,0.99846168113084,0.255584716796875,-3.88336181640625,8.920669555664062,9.732634168915107
1785429651.738943,0.109375,-0.49755859375,0.8583983778953552,0.9981859646442914,0.5016326904296875,-3.5800933837890625,8.554458618164062,9.286951396590775
1785429651.747118,0.1064453125,-0.49853515625,0.8510741591453552,0.9920660920197847,0.743865966796875,-3.39508056640625,8.066177368164062,8.783115959819167
1785429651.755296,0.11328125,-0.51708984375,0.8403319716453552,0.993162811768711,0.743865966796875,-3.39508056640625,7.8220367431640625,8.559449014998377
1785429651.763474,0.1103515625,-0.51220703125,0.8476561903953552,0.9965212126812437,1.049041748046875,-3.15093994140625,7.8220367431640625,8.497833248240584
1785429651.771652,0.10888671875,-0.50927734375,0.83544921875,0.9844770832717147,0.8068084716796875,-3.0918121337890625,7.4558258056640625,8.111694066286374
1785429651.782295,0.1064453125,-0.4912109076976776,0.8432616591453552,0.9816868065625494,1.110076904296875,-3.39508056640625,6.9065093994140625,7.775520231472458
1785429651.792939,0.1083984375,-0.5029296875,0.8476561903953552,0.9915692154039756,1.1730194091796875,-3.5152435302734375,6.4792633056640625,7.464165364966556
1785429651.803583,0.107421875,-0.48974609375,0.8540038466453552,0.9903096816940461,0.9899139404296875,-3.2749176025390625,6.5402984619140625,7.381091984509656
1785429651.814208,0.0986328125,-0.50390625,0.8520507216453552,0.9948067011973196,1.1730194091796875,-3.1528472900390625,6.3571929931640625,7.192379531208929
1785429651.824832,0.10986328125,-0.49755859375,0.84130859375,0.9835825561177347,1.110076904296875,-3.21197509765625,6.1130523681640625,6.994173576437281
1785429651.835458,0.10400390625,-0.49755859375,0.8369140028953552,0.9791866088606722,1.1119842529296875,-2.8476715087890625,6.1740875244140625,6.889491908686586
1785429651.843662,0.10546875,-0.4912109076976776,0.8520507216453552,0.9891421764964374,0.926971435546875,-3.08990478515625,6.2351226806640625,7.020223818838167
1785429651.851864,0.09716796875,-0.4951171875,0.8574218153953552,0.9948642183859955,1.049041748046875,-3.15093994140625,6.2961578369140625,7.118322457632053
1785429651.860065,0.0888671875,-0.498046875,0.8447265028953552,0.9846374619144055,1.1730194091796875,-2.8476715087890625,6.6013336181640625,7.28442263289166
1785429651.868268,0.0966796875,-0.5029296875,0.8564452528953552,0.9978896250342191,1.9054412841796875,-3.1528472900390625,7.2116851806640625,8.098120502114837
1785429651.878485,0.09814453125,-0.4970703125,0.8369140028953552,0.9783334262026707,1.7833709716796875,-2.9697418212890625,7.3947906494140625,8.16594803169875
1785429651.888704,0.09033203125,-0.501953125,0.8525390028953552,0.9934483212652901,1.781463623046875,-2.90679931640625,7.6389312744140625,8.365187739753388
1785429651.898922,0.09814453125,-0.49462890625,0.8603515625,0.9972436587958556,2.1514892578125,-2.72369384765625,8.249282836914062,8.949753154453369
1785429651.907101,0.0908203125,-0.51318359375,0.85546875,1.0017147858963276,2.025604248046875,-3.15093994140625,8.554458618164062,9.338643227682283
1785429651.91528,0.0849609375,-0.48876953125,0.8559569716453552,0.989331265495795,2.3326873779296875,-2.9697418212890625,8.737564086914062,9.518709106869279
1785429651.923459,0.10400390625,-0.50048828125,0.845703125,0.9881898136585924,2.3345947265625,-2.72369384765625,8.920669555664062,9.614945971476159
1785429651.931638,0.10546875,-0.50048828125,0.8378905653953552,0.9816683637938475,2.1495819091796875,-2.6035308837890625,8.981704711914062,9.595316304277588
1785429651.942071,0.099609375,-0.4931640625,0.84130859375,0.9802718857781229,1.9664764404296875,-3.0269622802734375,9.103775024414062,9.793275750846009
1785429651.952506,0.09716796875,-0.498046875,0.8359375,0.9778976468703239,1.537322998046875,-3.15093994140625,9.164810180664062,9.812519052836366
1785429651.96294,0.09765625,-0.49462890625,0.8427733778953552,0.9820699896398836,1.598358154296875,-2.90679931640625,8.615493774414062,9.232061743307105
1785429651.973621,0.10693359375,-0.49951171875,0.8603515625,1.0005756152021,1.2950897216796875,-2.7866363525390625,8.188247680664062,8.745856140389744
1785429651.984304,0.107421875,-0.4931640625,0.8525390028953552,0.990743661714687,1.6613006591796875,-2.6645660400390625,7.8220367431640625,8.428765679109189
1785429651.994987,0.10498046875,-0.49658203125,0.8505859375,0.9905104995163351,1.1730194091796875,-2.6645660400390625,7.4558258056640625,8.0040755344042
1785429652.005652,0.11279296875,-0.5078125,0.8603515625,1.0053857966233062,1.232147216796875,-2.54058837890625,7.0285797119140625,7.5745434741391335
1785429652.016316,0.11376953125,-0.494140625,0.8657225966453552,1.0032916215431142,1.3580322265625,-2.11334228515625,6.8454742431640625,7.291843714482253
1785429652.02698,0.10595703125,-0.4965820014476776,0.8403319716453552,0.9818240164115283,1.4781951904296875,-1.9931793212890625,6.6013336181640625,7.052335100243523
1785429652.034977,0.12646484375,-0.4892578125,0.8452147841453552,0.984761186854395,1.415252685546875,-1.56402587890625,5.6858062744140625,6.064446397157982
1785429652.042977,0.11669921875,-0.5,0.8422850966453552,0.9864395022948623,1.6002655029296875,-1.5048980712890625,4.9533843994140625,5.418633120372236
1785429652.050976,0.109375,-0.50048828125,0.8437499403953552,0.9870994743240139,0.9899139404296875,-1.1997222900390625,4.5261383056640625,4.785936809515265
1785429652.058975,0.1171875,-0.4965820014476776,0.8525390028953552,0.9935538967644573,1.293182373046875,-1.07574462890625,3.6716461181640625,4.038630011972998
1785429652.07022,0.11669921875,-0.50244140625,0.8559569716453552,0.9993640035940985,1.415252685546875,-0.58746337890625,3.3664703369140625,3.6988073638439016
1785429652.081465,0.11376953125,-0.49267578125,0.8613280653953552,0.9987787382142493,1.537322998046875,-0.52642822265625,2.4509429931640625,2.940681932762002
1785429652.09271,0.1044921875,-0.509765625,0.8637694716453552,1.0084033467946603,1.415252685546875,-0.58746337890625,1.9626617431640625,2.4899988963016404
1785429652.102777,0.1005859375,-0.4951171875,0.8637694716453552,1.0006779003891113,1.537322998046875,-0.40435791015625,1.5964508056640625,2.2528920290895424
1785429652.112842,0.1142578125,-0.49169921875,0.8569335341453552,0.9945642520116507,1.720428466796875,-0.34332275390625,1.1692047119140625,2.1082657045725672
1785429652.122907,0.109375,-0.49951171875,0.8603515625,1.000839477083998,1.7833709716796875,-0.3452301025390625,0.6198883056640625,1.9193377393851105
1785429652.133559,0.09619140625,-0.4853515625,0.8500975966453552,0.9836080772745581,1.9664764404296875,-0.2841949462890625,0.3757476806640625,2.0221233092434496
1785429652.144212,0.0927734375,-0.48486328125,0.8447265028953552,0.9783977600668858,1.7223358154296875,-0.2231597900390625,0.1926422119140625,1.747384323728832
1785429652.154865,0.0947265625,-0.48828125,0.8530272841453552,0.9874448076935892,1.537322998046875,0.20599365234375,0.0705718994140625,1.5526673108289033
1785429652.163003,0.09228515625,-0.4921875,0.8593749403953552,0.9946307723974044,1.1730194091796875,0.1430511474609375,0.3757476806640625,1.2400098727939937
1785429652.171139,0.08740234375,-0.4907226264476776,0.8461913466453552,0.9820833268812682,1.415252685546875,0.08392333984375,0.2536773681640625,1.4402553586211082
1785429652.179275,0.10498046875,-0.4990234375,0.8540038466453552,0.9946697241186894,1.1119842529296875,0.3261566162109375,0.3757476806640625,1.2182255278010663
1785429652.187411,0.08251953125,-0.48291015625,0.8588866591453552,0.98878611706728,1.049041748046875,0.57220458984375,0.6809234619140625,1.375341209579837
1785429652.197906,0.095703125,-0.49755859375,0.8632811903953552,1.000988539414745,0.9288787841796875,0.4482269287109375,0.3757476806640625,1.097683695262527
1785429652.208401,0.091796875,-0.4809570014476776,0.8383788466453552,0.9708889709970461,0.9899139404296875,0.3261566162109375,0.8029937744140625,1.3157152995625392
1785429652.218896,0.08984375,-0.47412109375,0.8500975966453552,0.9775114499457118,0.9288787841796875,0.1430511474609375,0.9250640869140625,1.3187202096681363
1785429652.22689,0.0751953125,-0.4921875,0.8505859375,0.9855959147901215,0.9899139404296875,0.5092620849609375,0.8029937744140625,1.3726166552914671
1785429652.234883,0.09033203125,-0.49169921875,0.8442382216453552,0.98115552919811,0.9899139404296875,0.3910064697265625,0.8029937744140625,1.33327216672846
1785429652.242876,0.0986328125,-0.50244140625,0.8481444716453552,0.9907193564267918,1.110076904296875,0.20599365234375,0.8029937744140625,1.385461338329942
1785429652.250869,0.08203125,-0.49267578125,0.8369140028953552,0.9746197205316477,0.743865966796875,0.32806396484375,0.8640289306640625,1.1863846486751817
1785429652.261578,0.0830078125,-0.48974609375,0.8671874403953552,0.999377601339387,0.6866455078125,-0.09918212890625,0.8640289306640625,1.108090763934952
1785429652.272287,0.0830078125,-0.4814452826976776,0.8540038466453552,0.9838711436224488,0.6866455078125,-0.09918212890625,0.9250640869140625,1.1563142795069212
1785429652.282996,0.07470703125,-0.49755859375,0.8666991591453552,1.0021542432160488,0.8068084716796875,-0.3452301025390625,0.8640289306640625,1.2315314558295813
1785429652.293617,0.0888671875,-0.48046875,0.8540038466453552,0.9839055680428819,0.743865966796875,-0.58746337890625,0.9250640869140625,1.3244596494468022
1785429652.304238,0.0849609375,-0.498046875,0.8535155653953552,0.9918456890919561,0.9288787841796875,-0.7114410400390625,0.9250640869140625,1.4915454113265025
1785429652.314858,0.08740234375,-0.4721679389476776,0.8422850966453552,0.9695493366992556,1.1119842529296875,-0.7114410400390625,0.7419586181640625,1.5143183031593401
1785429652.325536,0.09521484375,-0.48046875,0.8471679091453552,0.9785752666415661,0.5016326904296875,-0.8907318115234375,0.9860992431640625,1.420362711963493
1785429652.336218,0.0986328125,-0.47509765625,0.8530272841453552,0.9813774819977804,0.2574920654296875,-1.0166168212890625,1.0471343994140625,1.481992704274678
1785429652.346899,0.09375,-0.4921875,0.8398436903953552,0.9779442836650456,0.072479248046875,-0.64849853515625,0.6809234619140625,0.9431120572245242
1785429652.354909,0.0908203125,-0.48486328125,0.8408203125,0.9748433354030338,-0.2918243408203125,-0.3452301025390625,0.8029937744140625,0.92149024484369
1785429652.362919,0.1171875,-0.4677734375,0.8549804091453552,0.9815988992501853,-0.7801055908203125,-0.2231597900390625,0.3147125244140625,0.87029247827524
1785429652.370929,0.099609375,-0.4833984375,0.8447265028953552,0.9783450013462268,-0.904083251953125,0.14495849609375,0.2536773681640625,0.9501219391059995
1785429652.378939,0.10400390625,-0.482421875,0.8583983778953552,0.9901492075274066,-1.1463165283203125,0.2040863037109375,-0.1735687255859375,1.177208097561452
1785429652.38958,0.10498046875,-0.4858398139476776,0.8530272841453552,0.9872774539773935,-1.3294219970703125,0.5741119384765625,-0.4787445068359375,1.5251766019124864
1785429652.400221,0.09375,-0.4931640625,0.8657225966453552,1.0007374627662744,-1.5125274658203125,0.3261566162109375,-0.9670257568359375,1.82462497175258
1785429652.410861,0.0869140625,-0.4892578125,0.8540038466453552,0.9880535569682457,-1.514434814453125,0.02288818359375,-1.2111663818359375,1.9393196437579465
1785429652.421578,0.09521484375,-0.49853515625,0.8613280653953552,0.9997445697403183,-1.209259033203125,0.51116943359375,-1.3942718505859375,1.9150967580151783
1785429652.432295,0.08642578125,-0.48876953125,0.8720702528953552,1.0034299160021025,-0.598907470703125,0.38909912109375,-1.3332366943359375,1.5124841710324646
1785429652.443011,0.08447265625,-0.50439453125,0.8583983778953552,0.9991983026317723,-0.110626220703125,0.08392333984375,-0.9670257568359375,0.976944267633371
1785429652.451172,0.0947265625,-0.49365234375,0.8530272841453552,0.9901117642111598,-0.171661376953125,-0.09918212890625,-1.1501312255859375,1.167093209259496
1785429652.459334,0.09814453125,-0.49365234375,0.8769530653953552,1.0111239609516038,0.0133514404296875,0.0209808349609375,-0.8449554443359375,0.8453213349431962
1785429652.467496,0.08349609375,-0.49658203125,0.8422850966453552,0.9813304720952877,0.1964569091796875,-0.1621246337890625,-0.4177093505859375,0.4892451487880071
1785429652.475658,0.083984375,-0.47509765625,0.845703125,0.9736451786216319,0.3795623779296875,-0.0400543212890625,-0.3566741943359375,0.5223872397931983
1785429652.486098,0.08935546875,-0.486328125,0.8530272841453552,0.985979204881091,0.316619873046875,-0.58746337890625,-0.1735687255859375,0.6895559934230824
1785429652.496538,0.08056640625,-0.5048828125,0.8574218153953552,0.998283411506881,0.3795623779296875,-0.2231597900390625,0.2536773681640625,0.5081536162899588
1785429652.506978,0.087890625,-0.48974609375,0.845703125,0.9812185148788419,0.255584716796875,-0.16021728515625,0.4978179931640625,0.5820789295627119
1785429652.517641,0.0908203125,-0.4873046875,0.8417968153953552,0.9769012570530514,0.255584716796875,-0.16021728515625,0.9860992431640625,1.0312055291219664
1785429652.528303,0.0869140625,-0.4873046576976776,0.845703125,0.9799151286253673,-0.1697540283203125,0.2651214599609375,0.8640289306640625,0.9195932860168542
1785429652.538965,0.0888671875,-0.46875,0.8505859375,0.9752540061886001,0.0133514404296875,-0.3452301025390625,1.0471343994140625,1.102657034211875
1785429652.546947,0.095703125,-0.4956054389476776,0.8520507216453552,0.9903404826147705,-0.1697540283203125,-0.0400543212890625,1.0471343994140625,1.061560751545172
1785429652.55493,0.09326171875,-0.486328125,0.8632811903953552,0.9952221897850958,-0.4749298095703125,0.3261566162109375,1.0471343994140625,1.195168152501108
1785429652.562912,0.0859375,-0.498046875,0.8671874403953552,1.003718088101915,-0.2899169921875,0.20599365234375,1.1081695556640625,1.163840629667847
1785429652.570894,0.10302734375,-0.4907226264476776,0.8574218153953552,0.9932751377054367,-0.2918243408203125,0.3261566162109375,0.5588531494140625,0.7098284488546477
1785429652.579247,0.09765625,-0.4960937201976776,0.8520507216453552,0.99077553191427,-0.110626220703125,0.38909912109375,0.8640289306640625,0.9540347371911929
1785429652.5876,0.095703125,-0.4814452826976776,0.8632811903953552,0.9930775710170047,0.0743865966796875,0.2651214599609375,0.4367828369140625,0.5163351633581641
1785429652.595953,0.0986328125,-0.486328125,0.865234375,0.9974337073456644,0.3185272216796875,0.2651214599609375,0.1926422119140625,0.45701203626812975
1785429652.604306,0.08935546875,-0.490234375,0.8583983778953552,0.9925532315198767,0.6847381591796875,-0.0400543212890625,0.2536773681640625,0.7313158704755147
1785429652.614688,0.0947265625,-0.474609375,0.8486327528953552,0.9769364000628219,0.7457733154296875,-0.2231597900390625,-0.1125335693359375,0.7865379419486087
1785429652.625072,0.09228515625,-0.484375,0.8505859375,0.9831745154151631,0.560760498046875,-0.34332275390625,-0.1735687255859375,0.6800359931805648
1785429652.635455,0.08837890625,-0.47509765625,0.8515624403953552,0.9791257344878044,0.8068084716796875,0.0209808349609375,-0.2346038818359375,0.8404874102461392
1785429652.643564,0.10009765625,-0.486328125,0.8471679091453552,0.9819511455456792,0.0133514404296875,0.0858306884765625,-0.1125335693359375,0.14215826487895267
1785429652.65167,0.09033203125,-0.484375,0.8466796278953552,0.9796149288305932,-0.110626220703125,0.08392333984375,0.0095367431640625,0.139184184258713
1785429652.659778,0.08154296875,-0.4755859375,0.8374022841453552,0.9664749480416839,-0.598907470703125,0.02288818359375,-0.1125335693359375,0.6098178675963193
1785429652.667885,0.08935546875,-0.48681640625,0.8471679091453552,0.9811565010106238,-1.087188720703125,0.14495849609375,-0.1735687255859375,1.110458636111848
1785429652.678356,0.091796875,-0.4819335639476776,0.8564452528953552,0.987008154741421,-1.3904571533203125,-0.2231597900390625,0.3757476806640625,1.4575176522547943
1785429652.688827,0.083984375,-0.4794921875,0.8422850966453552,0.9728362231889555,-1.331329345703125,0.20599365234375,0.3757476806640625,1.3985912666181821
1785429652.699297,0.09375,-0.49462890625,0.8564452528953552,0.9934512009178208,-1.1463165283203125,0.0209808349609375,0.4367828369140625,1.2268907959385336
1785429652.710361,0.08935546875,-0.49658203125,0.8598632216453552,0.9969668367073388,-1.026153564453125,0.20599365234375,0.3147125244140625,1.0929174239936168
1785429652.721427,0.08056640625,-0.49365234375,0.8583983778953552,0.9934945180922163,-1.3294219970703125,-0.0400543212890625,0.2536773681640625,1.3540012563018509
1785429652.732492,0.0869140625,-0.4970702826976776,0.8574218153953552,0.9948894861828974,-1.026153564453125,0.08392333984375,0.3757476806640625,1.0960020913916202
1785429652.742646,0.09326171875,-0.49658203125,0.8437499403953552,0.9834660257791041,-0.720977783203125,-0.09918212890625,-0.0514984130859375,0.729587654169969
1785429652.7528,0.09423828125,-0.5,0.8496093153953552,0.990311487593433,-1.0242462158203125,-0.3452301025390625,0.3147125244140625,1.125747799173702
1785429652.762953,0.08349609375,-0.50439453125,0.8632811903953552,1.003314434520324,-1.087188720703125,-0.16021728515625,0.2536773681640625,1.1278302620543492
1785429652.773623,0.08251953125,-0.4873046875,0.84130859375,0.9757435530992736,-0.7781982421875,0.02288818359375,0.1316070556640625,0.7895801353836732
1785429652.784295,0.09130859375,-0.509765625,0.84130859375,0.987926313872571,-0.720977783203125,0.08392333984375,0.1926422119140625,0.7509747749786037
1785429652.794966,0.09033203125,-0.4858398139476776,0.8588866591453552,0.9909018588863049,-1.087188720703125,0.02288818359375,0.4367828369140625,1.1718713367921476
1785429652.80297,0.0947265625,-0.5,0.8574218153953552,0.997068348288588,-1.0242462158203125,0.3261566162109375,0.2536773681640625,1.104450386409025
1785429652.810975,0.0869140625,-0.4951171875,0.8632811903953552,0.9989742225445988,-0.904083251953125,0.20599365234375,0.5588531494140625,1.0826434103055687
1785429652.81898,0.091796875,-0.50830078125,0.8608397841453552,1.0039130861018537,-0.8411407470703125,0.3261566162109375,0.9250640869140625,1.2921452935248112
1785429652.826985,0.0888671875,-0.4970703125,0.8588866591453552,0.9963245283746042,-0.7781982421875,0.38909912109375,0.5588531494140625,1.0340732434357154
1785429652.837642,0.07958984375,-0.5009765625,0.8588866591453552,0.9974960414258973,-0.537872314453125,0.38909912109375,0.5588531494140625,0.8677681690988133
1785429652.848299,0.08447265625,-0.50244140625,0.8671874403953552,1.0057818118995074,-0.1697540283203125,0.5092620849609375,0.8029937744140625,0.9659002552321212
1785429652.858956,0.09033203125,-0.49853515625,0.8515624403953552,0.9908863546235036,0.072479248046875,0.32806396484375,0.9250640869140625,0.984186349897513
1785429652.869593,0.08642578125,-0.50146484375,0.8515624403953552,0.9920156223941121,0.438690185546875,0.32806396484375,0.9860992431640625,1.128036684373735
1785429652.880232,0.08349609375,-0.4833984375,0.8603515625,0.9903789467396515,0.6237030029296875,0.1430511474609375,1.1081695556640625,1.2796518396634635
1785429652.890871,0.0869140625,-0.4931640625,0.8520507216453552,0.9883093033348054,0.8068084716796875,0.0209808349609375,1.5354156494140625,1.7346127296533305
1785429652.90155,0.07861328125,-0.49169921875,0.8500975966453552,0.985197489608282,0.926971435546875,0.02288818359375,1.1081695556640625,1.4449358724070565
1785429652.912228,0.0849609375,-0.48876953125,0.8623046278953552,0.994828270039091,0.8068084716796875,-0.0400543212890625,1.3523101806640625,1.575210171169457
1785429652.922906,0.08447265625,-0.498046875,0.8447265028953552,0.9842505697458411,0.9288787841796875,-0.2231597900390625,1.2912750244140625,1.606240105421649
1785429652.933579,0.08544921875,-0.478515625,0.8320311903953552,0.9636154181751337,1.3561248779296875,-0.5283355712890625,1.4743804931640625,2.0717169205882966
1785429652.944257,0.09423828125,-0.4853515625,0.8491210341453552,0.9825749454887516,0.8068084716796875,0.0209808349609375,1.7185211181640625,1.8986034180380142
1785429652.954933,0.0908203125,-0.484375,0.8505859375,0.983038100411348,0.3185272216796875,-0.1621246337890625,1.4743804931640625,1.5170833287775998
1785429652.962943,0.08935546875,-0.48828125,0.8403319716453552,0.9759922138349593,0.5016326904296875,0.2040863037109375,1.4743804931640625,1.5706955192184207
1785429652.970952,0.09521484375,-0.4775390625,0.8491210341453552,0.9788339763779113,-0.232696533203125,0.32806396484375,1.2912750244140625,1.3524662030044565
1785429652.978961,0.1005859375,-0.478515625,0.8505859375,0.9811173075961144,-0.4749298095703125,0.2651214599609375,1.1692047119140625,1.289529903070246
1785429652.98697,0.08740234375,-0.4833984375,0.8437499403953552,0.9763335398251972,-0.1697540283203125,0.1430511474609375,1.2302398681640625,1.2501080729845697
1785429652.997638,0.10205078125,-0.4956054389476776,0.8549804091453552,0.993494143460652,-0.8411407470703125,0.3261566162109375,0.9860992431640625,1.3365207114178623
1785429653.008306,0.0810546875,-0.4916991889476776,0.8627929091453552,0.996368184382175,-0.4749298095703125,0.2040863037109375,1.1692047119140625,1.2783775661919807
1785429653.018974,0.0908203125,-0.49267578125,0.8540038466453552,0.9901011689105104,-0.1697540283203125,0.1430511474609375,0.6809234619140625,0.7161960778347617
1785429653.026975,0.10400390625,-0.4990234375,0.8813475966453552,1.0181428140502289,-0.537872314453125,0.51116943359375,0.7419586181640625,1.0493347452379729
1785429653.034977,0.0986328125,-0.49462890625,0.8642577528953552,1.0006636048340423,-0.2918243408203125,0.6313323974609375,0.3757476806640625,0.7905241055802203
1785429653.042979,0.091796875,-0.4951171875,0.845703125,0.9842669715338626,-0.415802001953125,0.57220458984375,0.1926422119140625,0.7330896393195195
1785429653.058969,0.09423828125,-0.4892578125,0.8671874403953552,1.000134049777672,-0.2918243408203125,0.7572174072265625,-0.3566741943359375,0.8864288626885509
1785429653.066956,0.09375,-0.49658203125,0.8535155653953552,0.9919030177555308,-0.2899169921875,0.57220458984375,0.0095367431640625,0.6415301274823174
1785429653.074943,0.08349609375,-0.50390625,0.8671874403953552,1.0064328905794062,-0.1697540283203125,0.6313323974609375,-0.1125335693359375,0.6633708091574688
1785429653.08293,0.087890625,-0.4809570014476776,0.85546875,0.9853279562820668,-0.2899169921875,0.57220458984375,-0.1735687255859375,0.6645269426432818
1785429653.093593,0.0888671875,-0.48583984375,0.8544921278953552,0.986962272543544,-0.232696533203125,0.69427490234375,-0.2346038818359375,0.768898106358487
1785429653.104255,0.08349609375,-0.49658203125,0.8505859375,0.9884643385093054,0.1354217529296875,0.5092620849609375,-0.1125335693359375,0.5388420237628063
1785429653.114919,0.095703125,-0.4892578125,0.8559569716453552,0.9905526904386955,-0.415802001953125,0.75531005859375,-0.0514984130859375,0.8637341465934356
1785429653.125812,0.0849609375,-0.505859375,0.8642577528953552,1.005014194733586,-0.1697540283203125,0.9975433349609375,-0.2346038818359375,1.0387242736301359
1785429653.136703,0.09423828125,-0.5,0.8491210341453552,0.9898926124994729,-0.0476837158203125,1.1196136474609375,-0.1125335693359375,1.1262647382221922
1785429653.147595,0.0908203125,-0.4956054389476776,0.8447265028953552,0.9835832171051591,-0.110626220703125,1.42669677734375,-0.2956390380859375,1.4611996085513015
1785429653.15543,0.09033203125,-0.5068359375,0.8632811903953552,1.0051352929340789,-0.4730224609375,1.36566162109375,-0.9670257568359375,1.738942416028747
1785429653.163265,0.0986328125,-0.49951171875,0.8491210341453552,0.9900741989862764,0.0133514404296875,1.1806488037109375,-0.9059906005859375,1.4882636953899275
1785429653.1711,0.09130859375,-0.50048828125,0.8637694716453552,1.0024587169094186,-0.110626220703125,1.18255615234375,-0.9059906005859375,1.4938193272625637
1785429653.178935,0.08740234375,-0.51513671875,0.8471679091453552,0.9953383721042923,0.072479248046875,0.75531005859375,-1.0890960693359375,1.327357063586631
1785429653.186954,0.0908203125,-0.49658203125,0.8627929091453552,0.9996267538408917,-0.598907470703125,1.18255615234375,-1.3332366943359375,1.8800663007016234
1785429653.194973,0.08544921875,-0.498046875,0.8525390028953552,0.9910474308225906,0.3795623779296875,0.6313323974609375,-1.2722015380859375,1.470083313398135
1785429653.202992,0.0810546875,-0.498046875,0.8691405653953552,1.0050004350639585,1.049041748046875,0.93841552734375,-1.0890960693359375,1.779674840904394
1785429653.21101,0.09130859375,-0.50244140625,0.8745116591453552,1.0126970267499762,1.049041748046875,0.63323974609375,-1.2111663818359375,1.7229060246187764
1785429653.221684,0.07470703125,-0.50634765625,0.8598632216453552,1.0006667024770965,1.2950897216796875,0.5092620849609375,-1.0890960693359375,1.7671263414431129
1785429653.232357,0.08203125,-0.5,0.8647460341453552,1.0022548725482368,1.4171600341796875,0.9365081787109375,-1.2111663818359375,2.086220059283825
1785429653.24303,0.08447265625,-0.5009765625,0.8632811903953552,1.0016823645840376,1.8463134765625,0.69427490234375,-1.0890960693359375,2.253224654135428
1785429653.253655,0.08154296875,-0.49951171875,0.8535155653953552,0.9922953357208203,2.391815185546875,0.99945068359375,-0.9059906005859375,2.745997181189142
1785429653.26428,0.06787109375,-0.4931640625,0.8481444716453552,0.9834461463094479,2.208709716796875,1.36566162109375,-0.7228851318359375,2.6955506283931676
1785429653.274904,0.0859375,-0.51123046875,0.8452147841453552,0.9915290603015496,2.513885498046875,0.69427490234375,-0.3566741943359375,2.63227172195805
1785429653.285583,0.07373046875,-0.4990234375,0.8598632216453552,0.9969078859828227,2.2716522216796875,0.5092620849609375,-0.2346038818359375,2.339827059595113
1785429653.296264,0.091796875,-0.4912109076976776,0.8544921278953552,0.9898846492072064,2.3326873779296875,0.7572174072265625,-0.0514984130859375,2.4530513022580203
1785429653.306945,0.07666015625,-0.5009765625,0.8540038466453552,0.9930643815058792,2.086639404296875,0.57220458984375,-0.1735687255859375,2.170623919223272
1785429653.314939,0.08837890625,-0.490234375,0.8437499403953552,0.9798237267073872,2.269744873046875,0.38909912109375,-0.2956390380859375,2.321754154857676
1785429653.322933,0.095703125,-0.4755859375,0.8520507216453552,0.9804751421320635,2.0885467529296875,0.4482269287109375,-0.2956390380859375,2.1564640872583896
1785429653.330929,0.0732421875,-0.46533203125,0.8427733778953552,0.9654870707711126,2.513885498046875,0.20599365234375,-0.1735687255859375,2.5282760499197527
1785429653.338923,0.0908203125,-0.4814452826976776,0.8657225966453552,0.9947429334942877,1.6632080078125,0.20599365234375,0.0095367431640625,1.6759430812314957
1785429653.349563,0.0791015625,-0.4716796875,0.8427733778953552,0.9690230912001975,1.6002655029296875,-0.2231597900390625,0.5588531494140625,1.709668627064058
1785429653.360202,0.09326171875,-0.48779296875,0.8598632216453552,0.9929775871007723,0.743865966796875,0.20599365234375,0.1316070556640625,0.7830008802454381
1785429653.370841,0.08544921875,-0.4970703125,0.8442382216453552,0.9834219030714869,0.8697509765625,0.08392333984375,0.2536773681640625,0.9098692737534317
1785429653.378869,0.09033203125,-0.48974609375,0.8491210341453552,0.984386937561248,0.3795623779296875,0.4482269287109375,-0.1125335693359375,0.5980290817249317
1785429653.386897,0.0869140625,-0.4951171875,0.8759765028953552,1.0099653049698987,-0.3528594970703125,0.7572174072265625,-0.2346038818359375,0.8677136669732258
1785429653.394925,0.0888671875,-0.4814453125,0.8579100966453552,0.9877736075986367,0.3185272216796875,0.4482269287109375,-0.1125335693359375,0.5612760237174815
1785429653.402953,0.0888671875,-0.49853515625,0.8666991591453552,1.00379385906402,-0.049591064453125,0.99945068359375,-0.4177093505859375,1.0843625058883832
1785429653.413736,0.0869140625,-0.4868163764476776,0.8583983778953552,0.990652317319895,0.9899139404296875,0.2651214599609375,-0.6008148193359375,1.1879383170529205
1785429653.424519,0.09521484375,-0.4907226264476776,0.8764647841453552,1.0089921111807605,1.232147216796875,0.51116943359375,-0.8449554443359375,1.5790600547837887
1785429653.435302,0.09033203125,-0.48388671875,0.8564452528953552,0.987828276402018,1.7833709716796875,0.2651214599609375,-0.9059906005859375,2.0178008770717786
1785429653.445864,0.0830078125,-0.48828125,0.8696288466453552,1.0007812982641755,1.9054412841796875,0.6313323974609375,-0.6008148193359375,2.095296048455632
1785429653.456426,0.08349609375,-0.47021484375,0.8471679091453552,0.9725055594905658,2.574920654296875,0.08392333984375,-0.7839202880859375,2.692914874437719
1785429653.46699,0.09765625,-0.4965820014476776,0.8525390028953552,0.9914399521825062,2.3326873779296875,0.5092620849609375,-0.7228851318359375,2.494662539936154
1785429653.477823,0.083984375,-0.50439453125,0.8715819716453552,1.0105059879566536,1.2950897216796875,0.5092620849609375,-0.7839202880859375,1.5972276845997475
1785429653.488656,0.0859375,-0.50390625,0.8510741591453552,0.9927910087527414,1.4781951904296875,0.3261566162109375,-0.9059906005859375,1.764159326041074
1785429653.499489,0.07666015625,-0.4916991889476776,0.8569335341453552,0.9909490168070844,1.1119842529296875,0.8144378662109375,-0.8449554443359375,1.6167151015546188
1785429653.507589,0.0859375,-0.4853515625,0.8481444716453552,0.9809691319863333,0.560760498046875,0.75531005859375,-0.7839202880859375,1.2245311914587609
1785429653.515692,0.072265625,-0.4970702826976776,0.8476561903953552,0.9853031024072524,0.9899139404296875,0.3910064697265625,-0.7228851318359375,1.2866151649403643
1785429653.523795,0.1044921875,-0.4970703125,0.865234375,1.0033085450144554,0.9899139404296875,1.0623931884765625,-0.7839202880859375,1.6501939020767127
1785429653.531898,0.11865234375,-0.48193359375,0.8583983778953552,0.9915574328477071,1.598358154296875,0.69427490234375,-1.0890960693359375,2.0549687777858634
1785429653.542238,0.12744140625,-0.50439453125,0.8593749403953552,1.0045797346957608,1.4781951904296875,1.7337799072265625,-0.9670257568359375,2.4751146644339785
1785429653.552577,0.130859375,-0.49462890625,0.8295897841453552,0.9746800197407347,1.3580322265625,2.52532958984375,-1.3942718505859375,3.1883436231151494
1785429653.562918,0.1396484375,-0.4975585639476776,0.82080078125,0.9699382109982455,1.049041748046875,3.50189208984375,-2.1877288818359375,4.260269294126204
1785429653.573588,0.150390625,-0.525390625,0.8310546875,0.9946378951867377,0.560760498046875,8.56781005859375,-3.9577484130859375,9.454395487686892
1785429653.584259,0.142578125,-0.51220703125,0.8486327528953552,1.0014300344393527,0.255584716796875,10.39886474609375,-4.9953460693359375,11.539289142206359
1785429653.59493,0.13427734375,-0.5107421875,0.9570311903953552,1.0930675580797335,1.293182373046875,11.37542724609375,-6.3381195068359375,13.086039300111604
1785429653.602925,0.125,-0.55322265625,0.9243163466453552,1.0844542480271457,4.833221435546875,11.68060302734375,-7.3757171630859375,14.635495215306594
1785429653.61092,0.11865234375,-0.525390625,0.8339843153953552,0.9927958127634897,6.298065185546875,12.29095458984375,-8.047103881835938,15.984025484716225
1785429653.618915,0.080078125,-0.50830078125,0.796875,0.9485736428701126,5.0792694091796875,11.922836303710938,-7.9860687255859375,15.222690200680622
1785429653.62691,0.06005859375,-0.53173828125,0.8920897841453552,1.0402772790974713,4.2247772216796875,9.786605834960938,-8.230209350585938,13.467098510673605
1785429653.637579,0.07958984375,-0.52099609375,0.9184569716453552,1.0589309145052217,5.0792694091796875,8.752822875976562,-8.230209350585938,13.044049677294218
1785429653.64825,0.0859375,-0.51904296875,0.9199218153953552,1.0597391206119313,7.0934295654296875,9.481430053710938,-7.8029632568359375,14.180990601881685
1785429653.65892,0.0732421875,-0.50048828125,0.8793944716453552,1.0144888242158105,7.5206756591796875,9.847640991210938,-6.8874359130859375,14.176507641842601
1785429653.669577,0.05078125,-0.4931640625,0.8828124403953552,1.012495596439742,7.762908935546875,7.89642333984375,-6.0329437255859375,12.610022470230152
1785429653.680232,0.0546875,-0.482421875,0.8749999403953552,1.0006730154384302,8.251190185546875,7.89642333984375,-5.6667327880859375,12.749411811203778
1785429653.690887,0.06103515625,-0.4833984375,0.8789061903953552,1.0049255849022751,8.680343627929688,8.199691772460938,-4.2018890380859375,12.658561614602581
1785429653.701591,0.0278320349752903,-0.46044921875,0.8642577528953552,0.9796578834767166,9.227752685546875,8.20159912109375,-3.3473968505859375,12.791509427900055
1785429653.712296,0.03076171875,-0.455078125,0.8510741591453552,0.9655928787842954,9.227752685546875,6.98089599609375,-2.3708343505859375,11.811231267391793
1785429653.723,0.03515625,-0.4580078125,0.8486327528953552,0.9649791021114638,9.105682373046875,5.82122802734375,-0.9670257568359375,10.85058920241353
1785429653.730983,0.03369140625,-0.42822265625,0.8530272841453552,0.9550734535507249,8.497238159179688,5.3920745849609375,0.9250640869140625,10.106100545141
1785429653.738966,0.0244140625,-0.421875,0.8476561903953552,0.9471512968836185,8.0718994140625,4.78363037109375,2.2068023681640625,9.638913650932224
1785429653.746951,0.04052734375,-0.41455078125,0.8500975966453552,0.9466576676120175,7.762908935546875,4.60052490234375,2.9392242431640625,9.490343706646343
1785429653.754935,0.0283203162252903,-0.40283203125,0.8764647841453552,0.9650213487581845,7.762908935546875,4.23431396484375,3.6106109619140625,9.551370656233496
1785429653.76561,0.0424804724752903,-0.39404296875,0.8549804091453552,0.9423725122187067,7.8258514404296875,4.4155120849609375,4.2819976806640625,9.95370292289879
1785429653.776287,0.0219726599752903,-0.3818359375,0.8530272841453552,0.9348459918346413,7.762908935546875,4.60052490234375,4.5871734619140625,10.12273406192058
1785429653.786963,0.0234375037252903,-0.38525390625,0.8579100966453552,0.9407335556829041,7.640838623046875,4.35638427734375,5.5027008056640625,10.374980240558948
1785429653.797616,0.03515625,-0.38623046875,0.8710936903953552,0.9535272174151644,7.0323944091796875,3.3779144287109375,5.8689117431640625,9.762632947263986
1785429653.808268,0.0166015625,-0.37109375,0.8837890028953552,0.9586809609068442,6.359100341796875,2.83050537109375,6.2351226806640625,9.344874138037554
1785429653.81892,0.0405273474752903,-0.37353515625,0.8867186903953552,0.9630373901072319,5.809783935546875,1.67083740234375,6.6013336181640625,8.951139175608454
1785429653.827032,0.03466796875,-0.39892578125,0.8925780653953552,0.9782838288697656,3.9196014404296875,-0.3452301025390625,7.4558258056640625,8.430409107506218
1785429653.835145,0.0366210974752903,-0.392578125,0.8793944716453552,0.9637392415841661,2.574920654296875,-1.62506103515625,7.7610015869140625,8.336917018658058
1785429653.843258,0.03076171875,-0.39111328125,0.8779296278953552,0.9616009118376878,1.6002655029296875,-2.7866363525390625,7.6389312744140625,8.28730733449534
1785429653.851371,0.0400390625,-0.37548828125,0.8862304091453552,0.9633270026195164,0.6847381591796875,-3.5800933837890625,7.8830718994140625,8.684973088882812
1785429653.861893,0.0263671875,-0.39501953125,0.865234375,0.9515073212158015,-0.232696533203125,-4.43267822265625,8.371353149414062,9.475354212607593
1785429653.872415,0.0458984412252903,-0.39697265625,0.8759765028953552,0.9628233432680516,-1.087188720703125,-5.10406494140625,8.615493774414062,10.07274496934594
1785429653.882936,0.04541015625,-0.39599609375,0.8671874403953552,0.9544050740306005,-2.063751220703125,-5.10406494140625,8.554458618164062,10.17296958989495
1785429653.893597,0.0585937462747097,-0.3935546875,0.8647460341453552,0.9518950691782406,-2.6111602783203125,-4.5566558837890625,8.432388305664062,9.934105061848669
1785429653.904258,0.0512695349752903,-0.40380859375,0.8374022841453552,0.931092117405573,-3.8318634033203125,-3.6411285400390625,8.249282836914062,9.797533440116316
1785429653.914919,0.07470703125,-0.40283203125,0.8437499403953552,0.9379598860486279,-5.5408477783203125,-2.9697418212890625,7.7610015869140625,9.987667706712765
1785429653.922925,0.06689453125,-0.421875,0.8466796278953552,0.9483247261508974,-7.4939727783203125,-1.5048980712890625,6.3571929931640625,9.941742752631937
1785429653.930929,0.072265625,-0.43505859375,0.8403319716453552,0.9490290422962504,-8.533477783203125,-0.77056884765625,5.4416656494140625,10.150159824624073
1785429653.938933,0.0751953125,-0.4384765625,0.845703125,0.9555782576631568,-9.204864501953125,-0.40435791015625,4.6482086181640625,10.319829416070663
1785429653.946937,0.078125,-0.4462890625,0.8574218153953552,0.9697678136791278,-9.508132934570312,0.6923675537109375,3.5495758056640625,10.172681707939555
1785429653.957601,0.0859375,-0.46533203125,0.84130859375,0.9652560816338344,-9.998321533203125,0.87738037109375,2.1457672119140625,10.26355429296398
1785429653.968265,0.072265625,-0.4716796576976776,0.8496093153953552,0.9744434354281438,-10.547637939453125,0.87738037109375,0.8640289306640625,10.619275324163889
1785429653.978929,0.08837890625,-0.4921875,0.8476561903953552,0.9841648151309632,-11.524200439453125,0.87738037109375,-0.4177093505859375,11.565097197422904
1785429653.989588,0.07177734375,-0.4956054389476776,0.8447265028953552,0.9820079444098925,-11.827468872070312,0.8144378662109375,-1.6994476318359375,11.97666277437347
1785429654.000245,0.05859375,-0.4921875,0.8574218153953552,0.9903807006455544,-12.254714965820312,0.3261566162109375,-2.4929046630859375,12.509955663032308
1785429654.010901,0.06494140625,-0.49755859375,0.8642577528953552,0.9993614981076338,-12.437820434570312,0.0209808349609375,-3.2863616943359375,12.864679962752632
1785429654.018908,0.04638671875,-0.52685546875,0.8784179091453552,1.0253518594782336,-12.195587158203125,-1.31988525390625,-3.8356781005859375,12.852504413853461
1785429654.026915,0.05224609375,-0.53759765625,0.8959960341453552,1.0462073348633298,-11.5814208984375,-1.74713134765625,-4.2629241943359375,12.464120532929016
1785429654.034922,0.0546875,-0.54443359375,0.8999022841453552,1.0531964591992407,-10.425567626953125,-1.80816650390625,-3.8356781005859375,11.254970143955786
1785429654.042929,0.0478515662252903,-0.5634765625,0.9082030653953552,1.0698730844686903,-8.958816528320312,-2.2983551025390625,-3.8356781005859375,10.012754678747857
1785429654.053579,0.05078125,-0.5517578125,0.9184569716453552,1.0726502821378012,-6.8836212158203125,-2.0503997802734375,-3.4694671630859375,7.976564592452597
1785429654.064229,0.0512695349752903,-0.55322265625,0.9199218153953552,1.074681356982233,-4.8675537109375,-2.23541259765625,-3.3473968505859375,6.316265849846279
1785429654.074879,0.0532226525247097,-0.5556640625,0.9135741591453552,1.0706133500727109,-2.857208251953125,-1.86920166015625,-2.7980804443359375,4.414386482211895
1785429654.08554,0.0507812537252903,-0.5390625,0.9194335341453552,1.0670169344238076,-0.7190704345703125,-1.9931793212890625,-2.7370452880859375,3.4613932174372937
1785429654.096202,0.0541992150247097,-0.54443359375,0.8994140028953552,1.0527540270723645,0.8068084716796875,-2.0503997802734375,-2.1266937255859375,3.062336586883628
1785429654.106863,0.05322265625,-0.5322265625,0.8828124403953552,1.032209072758845,2.452850341796875,-2.23541259765625,-1.5773773193359375,3.6744609793231904
1785429654.11754,0.0522460974752903,-0.52001953125,0.8740233778953552,1.0183647837049719,4.711151123046875,-2.23541259765625,-0.8449554443359375,5.282609590804438
1785429654.128217,0.0419921912252903,-0.5244140625,0.85546875,1.0042909116875536,4.8961639404296875,-2.6035308837890625,-0.5397796630859375,5.5715488402318245
1785429654.138894,0.04541015625,-0.517578125,0.8442382216453552,0.9913058925760893,5.2623748779296875,-2.4204254150390625,-0.0514984130859375,5.792555621846275
1785429654.146989,0.0498046912252903,-0.5048828125,0.8417968153953552,0.9828575888885014,5.4473876953125,-2.72369384765625,0.3757476806640625,6.101944542383761
1785429654.155082,0.05078125,-0.5068359375,0.8325194716453552,0.9759867179228044,5.1403045654296875,-2.8476715087890625,0.6198883056640625,5.908995308751338
1785429654.163175,0.03955078125,-0.49267578125,0.8452147841453552,0.9791229346030368,5.0792694091796875,-3.1528472900390625,0.8029937744140625,6.031933584438987
1785429654.171268,0.0576171912252903,-0.490234375,0.8330077528953552,0.9682723787964322,4.6520233154296875,-3.3359527587890625,0.9860992431640625,5.808811707530424
1785429654.181827,0.05517578125,-0.4921875,0.8330077528953552,0.9691206418070802,3.9196014404296875,-3.2749176025390625,1.3523101806640625,5.283663840552912
1785429654.192385,0.0654296875,-0.48779296875,0.8471679091453552,0.9797532805017797,3.7364959716796875,-3.2749176025390625,1.3523101806640625,5.149294153039463
1785429654.202945,0.060546875,-0.4814453125,0.8442382216453552,0.9737523750355632,3.6144256591796875,-4.0683746337890625,1.8405914306640625,5.744869173552065
1785429654.210933,0.06884765625,-0.47607421875,0.8583983778953552,0.9839890429790964,2.9430389404296875,-4.4345855712890625,1.6574859619140625,5.574431550204274
1785429654.218924,0.06884765625,-0.46923828125,0.8593749403953552,0.9815548138240129,2.758026123046875,-4.37164306640625,2.1457672119140625,5.596631855249393
1785429654.226915,0.07958984375,-0.44970703125,0.8579100966453552,0.9718954116106736,2.880096435546875,-4.24957275390625,2.0847320556640625,5.540751917628642
1785429654.234905,0.07177734375,-0.46435546875,0.8579100966453552,0.978155264955355,2.880096435546875,-4.18853759765625,2.5119781494140625,5.669994436343258
1785429654.242931,0.08447265625,-0.46435546875,0.8544921278953552,0.9761754082372158,2.9430389404296875,-4.6176910400390625,2.3899078369140625,5.974630383135495
1785429654.250956,0.0859375,-0.46044921875,0.865234375,0.9838847801624823,3.002166748046875,-4.61578369140625,2.5730133056640625,6.0777349185411635
1785429654.258981,0.08203125,-0.4526366889476776,0.8540038466453552,0.9700163236993192,2.2106170654296875,-4.3125152587890625,2.5119781494140625,5.458447571461244
1785429654.267006,0.0859375,-0.45556640625,0.8476561903953552,0.9661506205169859,2.208709716796875,-4.43267822265625,2.6950836181640625,5.638307418683394
1785429654.278979,0.09375,-0.455078125,0.8520507216453552,0.9705027535302959,2.086639404296875,-4.00543212890625,2.5119781494140625,5.167938154232553
1785429654.290954,0.091796875,-0.46337890625,0.8632811903953552,0.9840737221913983,1.537322998046875,-3.08990478515625,2.5730133056640625,4.304796284701476
1785429654.302929,0.087890625,-0.46533203125,0.8740233778953552,0.9940701818170328,0.743865966796875,-2.72369384765625,1.9626617431640625,3.4385877726762994
1785429654.314903,0.107421875,-0.46142578125,0.8710936903953552,0.9915933784960888,0.560760498046875,-2.23541259765625,1.7185211181640625,2.8748628926447783
1785429654.325565,0.0927734375,-0.46337890625,0.8696288466453552,0.9897379715766913,0.255584716796875,-1.44195556640625,1.3523101806640625,1.99331438254927
1785429654.336229,0.09912109375,-0.47412109375,0.8706054091453552,0.996277863448769,-0.110626220703125,-0.95367431640625,0.8640289306640625,1.2916186958636315
1785429654.346893,0.09619140625,-0.45654296875,0.8793944716453552,0.9954993248173649,0.0133514404296875,-0.6504058837890625,0.6198883056640625,0.898592002038768
1785429654.354905,0.09619140625,-0.46875,0.8735350966453552,0.996013511056734,0.255584716796875,-0.83160400390625,0.1926422119140625,0.8910666577670762
1785429654.362918,0.09814453125,-0.4658203125,0.8857421278953552,1.005564532827442,0.1983642578125,-0.58746337890625,-0.3566741943359375,0.715316769856993
1785429654.370931,0.09375,-0.45751953125,0.8715819716453552,0.9888216812309611,0.4405975341796875,-0.5283355712890625,-0.4177093505859375,0.8048265431641073
1785429654.378943,0.08544921875,-0.45751953125,0.8735350966453552,0.989792531559728,0.743865966796875,-0.16021728515625,-0.2956390380859375,0.8163385301833224
1785429654.389606,0.08447265625,-0.455078125,0.8686522841453552,0.9842705523677874,0.743865966796875,0.14495849609375,-0.6008148193359375,0.9671235646400549
1785429654.400268,0.09130859375,-0.45947265625,0.865234375,0.9839120411986397,0.6847381591796875,0.1430511474609375,-0.6618499755859375,0.9630033061260922
1785429654.41093,0.08544921875,-0.44921875,0.8793944716453552,0.9911779310986304,0.9899139404296875,0.1430511474609375,-0.6618499755859375,1.1993492528992662
1785429654.418954,0.08349609375,-0.462890625,0.8618163466453552,0.9818180807713548,0.560760498046875,0.57220458984375,-0.2956390380859375,0.8539747476643627
1785429654.426979,0.08935546875,-0.45947265625,0.8295897841453552,0.9525327981730077,0.6237030029296875,0.9365081787109375,-0.6618499755859375,1.3054111976075176
1785429654.435004,0.08544921875,-0.45947265625,0.8515624403953552,0.9713780318282419,0.1983642578125,1.06048583984375,-0.2346038818359375,1.1040912900023703
1785429654.443029,0.0869140625,-0.4526366889476776,0.8530272841453552,0.9695821646143101,-0.1697540283203125,1.4247894287109375,-0.3566741943359375,1.478532322001316
1785429654.453739,0.0849609375,-0.4599609375,0.8417968153953552,0.963018329699139,-0.8411407470703125,1.4247894287109375,-0.3566741943359375,1.69255994087466
1785429654.464451,0.07568359375,-0.45654296875,0.8535155653953552,0.9709007719896671,-1.880645751953125,1.79290771484375,-0.7228851318359375,2.6970186191635817
1785429654.475162,0.08447265625,-0.46826171875,0.8530272841453552,0.9767600597879887,-2.4890899658203125,1.9741058349609375,-0.4787445068359375,3.212765009831838
1785429654.483104,0.0771484375,-0.4814452826976776,0.8481444716453552,0.9783100154977035,-2.6721954345703125,2.2792816162109375,-0.6618499755859375,3.574045119569515
1785429654.491046,0.08544921875,-0.474609375,0.8647460341453552,0.9901218770398904,-2.979278564453125,2.52532958984375,-0.6008148193359375,3.951502087698291
1785429654.498987,0.08251953125,-0.482421875,0.8701171278953552,0.9983206673074024,-3.2825469970703125,2.7103424072265625,-0.7228851318359375,4.3178274243206465
1785429654.50693,0.07861328125,-0.47119140625,0.8920897841453552,1.0119414865935927,-3.2825469970703125,2.9506683349609375,-1.0890960693359375,4.546172968460336
1785429654.517938,0.06787109375,-0.47900390625,0.8872069716453552,1.0105381923043295,-2.9163360595703125,2.9506683349609375,-1.1501312255859375,4.305143606357291
1785429654.528946,0.0620117224752903,-0.48046875,0.9008788466453552,1.0228774950031798,-2.0008087158203125,2.7675628662109375,-1.2722015380859375,3.6443293606973084
1785429654.539954,0.06298828125,-0.4858398139476776,0.9018554091453552,1.0263289079999058,-1.514434814453125,2.03704833984375,-1.3332366943359375,2.8671586683006693
1785429654.550277,0.0615234412252903,-0.4819335639476776,0.8974608778953552,1.0205298237838096,0.3795623779296875,1.7910003662109375,-1.4553070068359375,2.33873221952688
1785429654.5606,0.064453125,-0.47705078125,0.9082030653953552,1.0278932148851947,1.1730194091796875,1.7910003662109375,-1.3332366943359375,2.5221373731824746
1785429654.570923,0.05859375,-0.47314453125,0.9038085341453552,1.021845801177859,2.025604248046875,2.22015380859375,-1.3942718505859375,3.3130272405845402
1785429654.581788,0.0546875,-0.48779296875,0.8950194716453552,1.0207803669950355,2.8209686279296875,2.4013519287109375,-1.3942718505859375,3.958326550276465
1785429654.592654,0.07275390625,-0.4809570014476776,0.8759765028953552,1.0019718567609328,2.880096435546875,2.46429443359375,-1.4553070068359375,4.060248886169015
1785429654.603519,0.06005859375,-0.46484375,0.8686522841453552,0.9870377588259899,3.3702850341796875,2.5844573974609375,-1.2111663818359375,4.416465244445573
1785429654.61415,0.04443359375,-0.470703125,0.8613280653953552,0.9825588086094446,3.002166748046875,2.22015380859375,-1.6384124755859375,4.077558528954222
1785429654.624781,0.044921875,-0.45458984375,0.8583983778953552,0.9723773321440304,2.7599334716796875,1.9130706787109375,-1.7604827880859375,3.791618630214312
1785429654.635412,0.05712890625,-0.4580078125,0.8452147841453552,0.9630279848364927,2.1495819091796875,1.6078948974609375,-1.8825531005859375,3.278724532814435
1785429654.64346,0.04833984375,-0.45458984375,0.8442382216453552,0.9600660609673356,1.537322998046875,1.36566162109375,-1.5773773193359375,2.5916235975171373
1785429654.651508,0.0625,-0.46484375,0.8427733778953552,0.9644962044524642,1.049041748046875,1.18255615234375,-1.6994476318359375,2.321001916402499
1785429654.659556,0.0556640625,-0.46044921875,0.8432616591453552,0.9623939924407605,0.560760498046875,0.69427490234375,-1.6384124755859375,1.86570775212782
1785429654.667604,0.0424804724752903,-0.45654296875,0.8535155653953552,0.9688781622211021,0.5016326904296875,0.5092620849609375,-1.3942718505859375,1.566836692391017
1785429654.678063,0.0537109375,-0.455078125,0.8549804091453552,0.9700373522102144,-0.720977783203125,0.57220458984375,-1.2722015380859375,1.5702623379610718
1785429654.688522,0.0458984375,-0.46435546875,0.845703125,0.965891527842407,-0.9632110595703125,0.1430511474609375,-1.0280609130859375,1.4160326327749466
1785429654.698981,0.0566406287252903,-0.4619140326976776,0.8471679091453552,0.966574467235267,-1.7566680908203125,-0.1621246337890625,-1.0890960693359375,2.07323356774641
1785429654.706979,0.04541015625,-0.45556640625,0.8471679091453552,0.9629622521573222,-2.185821533203125,-0.16021728515625,-0.5397796630859375,2.2571768734767925
1785429654.714978,0.06005859375,-0.4775390625,0.8579100966453552,0.9836972729568021,-2.7332305908203125,-0.3452301025390625,0.0705718994140625,2.7558508086037596
1785429654.722976,0.0615234412252903,-0.4765624701976776,0.8642577528953552,0.9888571106387631,-2.9163360595703125,-0.5283355712890625,0.0095367431640625,2.96382277434222
1785429654.730975,0.068359375,-0.47705078125,0.8588866591453552,0.9848536669472757,-2.979278564453125,-0.58746337890625,0.0705718994140625,3.0374651239401467
1785429654.741607,0.0703125,-0.49951171875,0.8696288466453552,1.0053408057681534,-3.5266876220703125,-0.7114410400390625,0.4367828369140625,3.6241486150182243
1785429654.752238,0.0771484375,-0.4833984375,0.8588866591453552,0.9885910297205829,-3.467559814453125,-0.77056884765625,0.4978179931640625,3.5868607681517783
1785429654.762869,0.06298828125,-0.4956054389476776,0.8759765028953552,1.0084280382427522,-3.223419189453125,-0.95367431640625,0.2536773681640625,3.3710945076971983
1785429654.773556,0.06396484375,-0.5,0.865234375,1.0013600875397435,-3.0994415283203125,-0.8907318115234375,0.6198883056640625,3.283930946142967
1785429654.784243,0.0595703125,-0.48193359375,0.8696288466453552,0.9960235648988776,-2.7942657470703125,-0.6504058837890625,0.5588531494140625,2.9228865392840446
1785429654.79493,0.07275390625,-0.49365234375,0.8803710341453552,1.0119480842052442,-2.4280548095703125,-0.8335113525390625,0.3757476806640625,2.5944898636559452
1785429654.805591,0.0703125,-0.4921875,0.8867186903953552,1.0165935366256043,-1.087188720703125,-0.46539306640625,-0.0514984130859375,1.1837322785298539
1785429654.816253,0.07568359375,-0.4794921875,0.8803710341453552,1.0053327419310545,-0.1697540283203125,-0.5855560302734375,-0.2346038818359375,0.6532467191598063
1785429654.826915,0.07373046875,-0.4912109375,0.8872069716453552,1.016789347740153,0.438690185546875,-0.46539306640625,-0.3566741943359375,0.7322952041761259
1785429654.835029,0.07763671875,-0.4921875,0.8886718153953552,1.0188295199554207,1.1749267578125,-0.28228759765625,-0.6618499755859375,1.3777461900500527
1785429654.843144,0.06982421875,-0.4833984375,0.8901366591453552,1.0153288840843362,1.8463134765625,-0.28228759765625,-0.7228851318359375,2.002778733499111
1785429654.851259,0.0771484375,-0.4873046576976776,0.8725585341453552,1.002385208556288,2.391815185546875,-0.46539306640625,-1.0280609130859375,2.644670079440295
1785429654.859374,0.08251953125,-0.4819335639476776,0.8759765028953552,1.0031970228832452,2.9430389404296875,-0.3452301025390625,-1.2111663818359375,3.2011850982213113
1785429654.867254,0.08544921875,-0.4809570014476776,0.8608397841453552,0.9897809556633975,2.880096435546875,-0.46539306640625,-1.6994476318359375,3.376339502725045
1785429654.875134,0.07080078125,-0.46630859375,0.8613280653953552,0.9820094151628171,3.185272216796875,-0.16021728515625,-1.8825531005859375,3.703462548762529
1785429654.883014,0.08984375,-0.474609375,0.8730468153953552,0.9977658543585888,3.1261444091796875,-0.4024505615234375,-1.5773773193359375,3.524608422090513
1785429654.890893,0.07763671875,-0.4760741889476776,0.8632811903953552,0.9889026783111052,3.2482147216796875,-0.5283355712890625,-1.5163421630859375,3.6234418595553772
1785429654.90154,0.06005859375,-0.46630859375,0.8740233778953552,0.9924553412602186,3.063201904296875,-0.46539306640625,-1.4553070068359375,3.423114823796127
1785429654.912186,0.07275390625,-0.46142578125,0.85546875,0.9746967039563482,3.185272216796875,-0.58746337890625,-1.3942718505859375,3.526338938614716
1785429654.922832,0.07080078125,-0.470703125,0.8437499403953552,0.9687559777506106,2.5768280029296875,-0.3452301025390625,-1.0890960693359375,2.8187508986472576
1785429654.930852,0.08740234375,-0.462890625,0.8432616591453552,0.9659177636789071,1.7833709716796875,-0.7114410400390625,-1.0280609130859375,2.1779507839013963
1785429654.938872,0.07421875,-0.4638671875,0.85546875,0.975965149335408,1.4171600341796875,-0.3452301025390625,-0.9670257568359375,1.7500471995233222
1785429654.946892,0.08447265625,-0.46484375,0.8691405653953552,0.9892525784569636,1.110076904296875,-0.09918212890625,-0.1735687255859375,1.1279334779361927
1785429654.954911,0.07421875,-0.4560546875,0.8530272841453552,0.9701287792549429,1.049041748046875,0.08392333984375,-0.4787445068359375,1.1561695459323247
1785429654.965593,0.076171875,-0.45361328125,0.8544921278953552,0.9704246287592557,0.926971435546875,0.02288818359375,-0.3566741943359375,0.9934869864136346
1785429654.976274,0.07568359375,-0.45166015625,0.8691405653953552,0.9824104160290887,0.5016326904296875,0.4482269287109375,-0.4177093505859375,0.7918483676161063
1785429654.986954,0.095703125,-0.462890625,0.8691405653953552,0.9893594600868857,0.743865966796875,0.69427490234375,-0.2346038818359375,1.0442189415805307
1785429654.994948,0.08203125,-0.4711913764476776,0.8769530653953552,0.9988979518056536,0.9899139404296875,0.8144378662109375,-0.5397796630859375,1.3908992530217363
1785429655.00294,0.08154296875,-0.4697265625,0.8876952528953552,1.0076185594179865,1.6613006591796875,1.1806488037109375,-0.6008148193359375,2.1248129153006876
1785429655.010932,0.08984375,-0.4765625,0.8852538466453552,1.0093850052485973,1.7833709716796875,1.4858245849609375,-0.9059906005859375,2.491767583113273
1785429655.018924,0.07861328125,-0.4794921875,0.8857421278953552,1.0102632938947245,2.391815185546875,1.36566162109375,-1.0280609130859375,2.93985047003349
1785429655.029719,0.07373046875,-0.47265625,0.8925780653953552,1.0126873730382304,2.9430389404296875,1.5506744384765625,-1.2722015380859375,3.5615398597430192
1785429655.040514,0.07177734375,-0.4711913764476776,0.8818358778953552,1.00240102546732,3.3092498779296875,1.6078948974609375,-1.0890960693359375,3.8370028673564422
1785429655.051309,0.0654296875,-0.47216796875,0.8828124403953552,1.0032853231442447,3.551483154296875,1.36566162109375,-1.4553070068359375,4.073816729153223
1785429655.061826,0.0673828125,-0.45751953125,0.8881835341453552,1.0013663441630956,3.6144256591796875,1.6078948974609375,-1.3332366943359375,4.174556135703682
1785429655.072345,0.06689453125,-0.46435546875,0.8666991591453552,0.9855294577700127,3.551483154296875,1.48773193359375,-1.5773773193359375,4.1610693468199385
1785429655.082864,0.06201171875,-0.4541015625,0.8720702528953552,0.9851701418091391,3.4942626953125,1.36566162109375,-1.2111663818359375,3.9423124497774835
1785429655.093556,0.05419921875,-0.4541015625,0.8618163466453552,0.9756398924414678,3.063201904296875,1.36566162109375,-1.2111663818359375,3.56583252190929
