timestamp,accel_x,accel_y,accel_z,accel_rms,gyro_x,gyro_y,gyro_z,gyro_rms
1785409457.396182,-0.0878906175494194,-0.00537109375,0.9853515028953552,0.98927811739643,-0.1697540283203125,-0.2574920654296875,0.4253387451171875,0.5253871353469589
1785409457.406822,-0.0908203125,0.0009765587747097015,0.9951171278953552,0.999253411833224,-0.110626220703125,-0.3204345703125,0.3643035888671875,0.497627952812064
1785409457.417462,-0.0883788987994194,0.00927734375,0.9892577528953552,0.9932410586175047,-0.2307891845703125,-0.5016326904296875,0.3032684326171875,0.6299767821471217
1785409457.425465,-0.080078125,0.011718746274709702,0.9868163466453552,0.9901294547301643,-0.1697540283203125,-0.3185272216796875,0.6694793701171875,0.7605778382877458
1785409457.43347,-0.0698242112994194,-0.0009765625,0.9843749403953552,0.986848720643778,-0.110626220703125,-0.3204345703125,0.3643035888671875,0.497627952812064
1785409457.441475,-0.0751953125,0.011230465024709702,0.9877929091453552,0.9907145349314745,-0.2307891845703125,-0.0133514404296875,0.3643035888671875,0.4314614855785972
1785409457.44948,-0.0776367112994194,-0.00244140625,0.9799804091453552,0.9830539261477799,-0.5359649658203125,0.2918243408203125,0.2384185791015625,0.6551818902738282
1785409457.460157,-0.07958984375,0.0019531212747097015,0.9916991591453552,0.9948897326641117,-0.2307891845703125,0.2918243408203125,0.1811981201171875,0.41383312137121453
1785409457.470834,-0.0937499925494194,0.00927734375,0.9794921278953552,0.9840121741213584,-0.3528594970703125,0.0476837158203125,0.4863739013671875,0.602779506418628
1785409457.481511,-0.0869140550494194,0.00537109375,0.9868163466453552,0.9906509999084898,0.072479248046875,0.1678466796875,0.3643035888671875,0.4076062488984577
1785409457.489529,-0.064453125,0.014648433774709702,0.9892577528953552,0.9914634050724642,-0.1697540283203125,-0.0743865966796875,0.4253387451171875,0.4639642701700463
1785409457.497548,-0.0791015625,0.00048827752470970154,0.9960936903953552,0.9992296711218699,-0.1697540283203125,-0.0133514404296875,0.6084442138671875,0.6318220101270458
1785409457.505567,-0.0810546875,0.014648433774709702,0.9858397841453552,0.9892747439319045,-0.2307891845703125,0.4749298095703125,-0.0019073486328125,0.5280394016661353
1785409457.513586,-0.07666015625,0.00048827752470970154,0.9995116591453552,1.0024472927484598,0.0133514404296875,1.0242462158203125,-0.1239776611328125,1.031808621811109
1785409457.524247,-0.0883788987994194,-0.0009765625,0.9892577528953552,0.9931982103743855,0.255584716796875,0.7171630859375,-0.0019073486328125,0.7613475403981705
1785409457.534908,-0.076171875,0.00341796875,0.9873046278953552,0.9902445482379478,0.072479248046875,0.7171630859375,-0.0019073486328125,0.7208188199593887
1785409457.545569,-0.0849609300494194,0.0078125,0.9946288466453552,0.9982814920503044,0.1354217529296875,0.7190704345703125,0.0553131103515625,0.7337989378681681
1785409457.556222,-0.0878906175494194,0.0068359375,0.9956054091453552,0.9995006860498958,-0.2918243408203125,0.5359649658203125,0.4253387451171875,0.7438635214740957
1785409457.566877,-0.0849609375,0.010742183774709702,0.9833983778953552,0.9871201168350002,0.072479248046875,0.1678466796875,0.5435943603515625,0.5735159787534982
1785409457.577532,-0.0859375,0.0209960900247097,0.9951171278953552,0.9990416347346474,-0.2918243408203125,0.1087188720703125,0.5435943603515625,0.6264791039176608
1785409457.58818,-0.08349609375,0.00048827752470970154,0.9873046278953552,0.9908290792816064,0.0133514404296875,0.1087188720703125,0.4253387451171875,0.43921646394875985
1785409457.598831,-0.08154296875,0.011718746274709702,0.9990233778953552,1.002414232913849,-0.049591064453125,-0.3204345703125,0.4253387451171875,0.5348370178127299
1785409457.609482,-0.0883788987994194,-0.0087890625,0.9819335341453552,0.9859419571414001,-0.110626220703125,-0.011444091796875,0.7915496826171875,0.7993247325058084
1785409457.617497,-0.09521484375,-0.0043945349752902985,0.9892577528953552,0.9938390614538923,-0.1697540283203125,-0.0133514404296875,0.4863739013671875,0.5153195736857465
1785409457.62551,-0.0942382737994194,0.01220703125,0.9975585341453552,1.0020742951033434,-0.110626220703125,0.2288818359375,0.3643035888671875,0.4442321019362401
1785409457.633523,-0.0869140550494194,0.001953125,0.9853515028953552,0.9891791808972398,-0.2918243408203125,-0.1964569091796875,0.4253387451171875,0.5519690309768381
1785409457.641536,-0.0810546875,-3.725290298461914e-09,0.9892577528953552,0.9925728003674543,-0.1697540283203125,-0.1354217529296875,0.4863739013671875,0.5326490901415879
1785409457.652202,-0.0917968675494194,-0.00634765625,0.9990233778953552,1.0032520457059628,-0.415802001953125,-0.011444091796875,0.3643035888671875,0.552937046079203
1785409457.662868,-0.0830078050494194,0.00439453125,0.9858397841453552,0.9893380047323515,-0.2307891845703125,-0.0133514404296875,0.3643035888671875,0.4314614855785972
1785409457.673534,-0.0834960862994194,-0.00244140625,0.9912108778953552,0.9947243645100277,-0.415802001953125,0.0457763671875,0.1201629638671875,0.4352308795414893
1785409457.681536,-0.0893554612994194,0.00439453125,0.9931640028953552,0.9971852621334033,-0.4749298095703125,0.3528594970703125,0.0553131103515625,0.5942454786264438
1785409457.689538,-0.0820312425494194,0.00146484375,0.9873046278953552,0.9907076757474929,-0.2307891845703125,0.1087188720703125,-0.3070831298828125,0.39922861810934224
1785409457.69754,-0.0839843675494194,-0.0078125,0.9858397841453552,0.9894415036537969,-0.4749298095703125,0.4138946533203125,-0.1850128173828125,0.6565796605603625
1785409457.705542,-0.0937499925494194,0.00439453125,0.9819335341453552,0.9864085555626081,-0.2918243408203125,0.4138946533203125,-0.4329681396484375,0.6662819522491814
1785409457.716204,-0.0791015625,0.010253902524709702,0.9902343153953552,0.9934415931968198,-0.5359649658203125,0.5359649658203125,-0.3681182861328125,0.8426315694055716
1785409457.726866,-0.0883788987994194,-0.0107421875,0.9990233778953552,1.0029825192528177,-0.415802001953125,0.476837158203125,-0.2498626708984375,0.6802178581748347
1785409457.737528,-0.0961913987994194,0.01416015625,0.9833983778953552,0.9881931313641221,-0.110626220703125,0.5950927734375,-0.3070831298828125,0.6787294146883694
1785409457.748283,-0.103515625,0.0058593712747097015,0.9882811903953552,0.9937049502443549,-0.415802001953125,0.3509521484375,-0.5512237548828125,0.7745362117217184
1785409457.75904,-0.0874023362994194,0.0078125,0.9902343153953552,0.9941147835805253,-0.049591064453125,0.3509521484375,-0.4901885986328125,0.604906229424108
1785409457.769797,-0.1015624925494194,-0.005859375,0.9833983778953552,0.9886463684328474,-0.4138946533203125,0.5970001220703125,-0.6122589111328125,0.950041527545321
1785409457.780366,-0.0874023362994194,0.01806640625,0.9882811903953552,0.9923030155726864,-0.110626220703125,-0.011444091796875,-0.6122589111328125,0.62227815501241
1785409457.790936,-0.0795898362994194,-0.001953125,0.9858397841453552,0.9890492590074543,-0.2307891845703125,0.1087188720703125,-0.6122589111328125,0.663283058068279
1785409457.801506,-0.0859375,0.0019531212747097015,0.9819335341453552,0.9856888627087917,-0.4749298095703125,0.0476837158203125,-0.5512237548828125,0.7291636913067138
1785409457.809525,-0.0932617112994194,0.01806640625,0.9809569716453552,0.9855459005286931,-0.4749298095703125,-0.3185272216796875,-0.4329681396484375,0.7172721414638261
1785409457.817545,-0.0859375,-0.0053710900247097015,0.9838866591453552,0.9876472348761535,-0.5359649658203125,-0.0133514404296875,-0.4901885986328125,0.7264444698515619
1785409457.825565,-0.0830078050494194,-0.00634765625,0.9946288466453552,0.9981067733554663,-0.4138946533203125,-0.3795623779296875,-0.5512237548828125,0.7869078794458012
1785409457.833585,-0.0781249925494194,-0.00634765625,0.9765624403953552,0.9797030198951346,-0.4749298095703125,-0.5016326904296875,-0.1239776611328125,0.7018291391686317
1785409457.844237,-0.0830078050494194,0.00341796875,0.9868163466453552,0.9903072655575057,-0.415802001953125,-0.3204345703125,0.0553131103515625,0.5278533497633099
1785409457.854889,-0.1025390550494194,0.00244140625,0.9877929091453552,0.9931037456543749,-0.4138946533203125,-0.1964569091796875,0.2384185791015625,0.5164760595345981
1785409457.865541,-0.10009765625,0.011230465024709702,0.9833983778953552,0.9885433899321923,-0.3528594970703125,-0.2574920654296875,-0.0629425048828125,0.4413317882873193
1785409457.876216,-0.08056640625,0.010253902524709702,0.9946288466453552,0.9979391919912234,-0.4749298095703125,-0.5016326904296875,0.3643035888671875,0.7809678514431517
1785409457.88689,-0.0791015550494194,0.013671875,1.00146484375,1.0046769677087575,-0.1697540283203125,-0.2574920654296875,0.2384185791015625,0.3898230531292729
1785409457.897564,-0.080078125,0.0019531212747097015,0.9858397841453552,0.9890886718540406,-0.4749298095703125,-0.5626678466796875,0.3032684326171875,0.7963197673847706
1785409457.905556,-0.0781249925494194,0.00244140625,0.9829100966453552,0.9860130491087357,-0.415802001953125,-0.2593994140625,0.5435943603515625,0.7318976632359331
1785409457.913551,-0.07177734375,0.00390625,0.9887694716453552,0.9913789961072925,-0.6580352783203125,-0.4405975341796875,0.6694793701171875,1.0369856516132796
1785409457.921546,-0.0751953125,0.0063476525247097015,0.9892577528953552,0.9921318104859428,-0.537872314453125,-0.3204345703125,0.3643035888671875,0.7243631998990774
1785409457.929541,-0.0722656175494194,0.0029296875,0.9946288466453552,0.9972549549276334,-0.5359649658203125,-0.2574920654296875,0.5435943603515625,0.8056397687254767
1785409457.940215,-0.07958984375,0.015624996274709702,0.9882811903953552,0.9916039506909976,-0.4749298095703125,-0.0743865966796875,0.3032684326171875,0.5683866923197317
1785409457.950889,-0.0830078050494194,0.00732421875,0.9873046278953552,0.9908150019771633,-0.7781982421875,-0.1373291015625,0.0553131103515625,0.7921561250513957
1785409457.961563,-0.076171875,0.0024414025247097015,0.9824218153953552,0.9853734004690855,-0.2918243408203125,-0.1354217529296875,0.4863739013671875,0.5831466959461383
1785409457.969632,-0.09130859375,-0.0009765625,0.9902343153953552,0.9944356250423789,-0.5970001220703125,0.1087188720703125,0.1201629638671875,0.6186017109429588
1785409457.9777,-0.0751953125,-0.008789066225290298,0.9877929091453552,0.9906898677512197,-0.2918243408203125,0.1087188720703125,0.6694793701171875,0.7383656723141705
1785409457.985768,-0.0830078050494194,-0.01416015625,0.9868163466453552,0.9904025988105204,-0.5359649658203125,-0.0133514404296875,0.2384185791015625,0.5867538874256601
1785409457.993836,-0.08984375,0.009765621274709702,0.9863280653953552,0.9904596505458906,-0.0476837158203125,0.2307891845703125,0.5435943603515625,0.5924797153279482
1785409458.004401,-0.07568359375,-0.0029296912252902985,0.9941405653953552,0.9970215911494531,-0.0476837158203125,-0.0133514404296875,0.3032684326171875,0.30728446094468465
1785409458.014966,-0.083984375,0.010742183774709702,0.9902343153953552,0.9938474576829676,0.255584716796875,0.0457763671875,0.4253387451171875,0.4983292800457218
1785409458.025531,-0.0795898362994194,-0.00048828125,0.9892577528953552,0.9924543728173679,0.2574920654296875,0.4138946533203125,0.4863739013671875,0.6886004064314273
1785409458.036186,-0.083984375,-0.008300784975290298,0.9819335341453552,0.9855535215068404,0.0133514404296875,0.2918243408203125,0.4253387451171875,0.5159968555666025
1785409458.046841,-0.08349609375,-3.725290298461914e-09,1.0009765625,1.0044529239072506,-0.0476837158203125,0.1087188720703125,0.3643035888671875,0.38315875921109527
1785409458.057496,-0.0869140550494194,0.00634765625,0.9916991591453552,0.9955207521466372,-0.415802001953125,0.2288818359375,0.6084442138671875,0.7716751654931024
1785409458.065517,-0.08642578125,0.0024414025247097015,0.9843749403953552,0.9881646620828533,-0.2918243408203125,0.1087188720703125,1.0967254638671875,1.1400824453232092
1785409458.073539,-0.0922851487994194,0.01220703125,0.9833983778953552,0.9877944775853352,-0.232696533203125,0.1678466796875,1.2149810791015625,1.24839865708902
1785409458.081561,-0.0859375,-0.00146484375,0.9936522841453552,0.9973626529305896,-0.232696533203125,0.3509521484375,1.0318756103515625,1.1144874886224878
1785409458.089583,-0.09033203125,-0.008300784975290298,0.9799804091453552,0.9841698944845116,-0.3528594970703125,0.2307891845703125,1.1577606201171875,1.232145740519959
1785409458.100479,-0.08642578125,-3.725290298461914e-09,0.9960936903953552,0.9998360144094184,-0.1697540283203125,0.2918243408203125,0.9746551513671875,1.0314700868725077
1785409458.111375,-0.0932617112994194,-0.00341796875,0.9809569716453552,0.9853862235309049,-0.2918243408203125,0.5359649658203125,1.0967254638671875,1.2550803295314115
1785409458.122271,-0.08349609375,0.015136715024709702,0.9926757216453552,0.996296043431557,-0.2307891845703125,0.5970001220703125,1.0967254638671875,1.2698344524233447
1785409458.13268,-0.0795898362994194,0.01318359375,0.9980468153953552,1.0013020497867482,-0.4749298095703125,0.5970001220703125,0.6694793701171875,1.0149729537199341
1785409458.143088,-0.0742187425494194,-0.00048828125,0.9926757216453552,0.9954465071053907,-0.1697540283203125,0.8411407470703125,0.4253387451171875,0.9577302514856888
1785409458.153496,-0.07958984375,0.0053710900247097015,0.9902343153953552,0.9934421931963182,-0.2918243408203125,1.2683868408203125,0.3643035888671875,1.3515486409015605
1785409458.161569,-0.07861328125,0.0009765587747097015,0.9858397841453552,0.9889697071496643,-0.171661376953125,1.1444091796875,0.1201629638671875,1.1634341995900785
1785409458.169643,-0.0893554612994194,0.00439453125,0.9873046278953552,0.9913496550826681,-0.3528594970703125,0.7801055908203125,0.1811981201171875,0.8751613086944746
1785409458.177717,-0.0966796800494194,-0.00439453125,0.9965819716453552,1.0012701426927244,-0.4749298095703125,0.4138946533203125,0.1201629638671875,0.6413316193288633
1785409458.185791,-0.10498046875,0.0048828087747097015,0.9882811903953552,0.9938533352209271,-0.7801055908203125,0.4138946533203125,0.1811981201171875,0.9015022327261609
1785409458.196485,-0.0952148362994194,0.00830078125,0.9941405653953552,0.9987243021902902,-0.5359649658203125,-0.0133514404296875,-0.0629425048828125,0.5398133607731834
1785409458.207179,-0.10009765625,-0.0043945349752902985,0.9985350966453552,1.0035492972230817,-0.5970001220703125,0.1087188720703125,-0.1850128173828125,0.6343963126407143
1785409458.217873,-0.09326171875,-0.014160159975290298,0.9892577528953552,0.9937450175866531,-0.7801055908203125,-0.4405975341796875,-0.0629425048828125,0.8981384519522881
1785409458.228411,-0.08935546875,0.00048827752470970154,0.9799804091453552,0.9840458528540076,-0.4749298095703125,-0.5626678466796875,0.0553131103515625,0.7383853803281953
1785409458.23895,-0.0834960862994194,-0.00146484375,0.9726561903953552,0.9762345040557302,-0.537872314453125,-0.6256103515625,-0.0019073486328125,0.8250445906835117
1785409458.249489,-0.0976562425494194,-0.00927734375,0.9956054091453552,1.0004263798678126,-0.415802001953125,-0.7476806640625,-0.0629425048828125,0.8578341559777685
1785409458.257501,-0.0825195237994194,-0.00537109375,0.9887694716453552,0.992221441269029,-0.2899169921875,-0.8087158203125,0.1811981201171875,0.8780124709346498
1785409458.265513,-0.08349609375,0.0009765587747097015,0.9970702528953552,1.0005606631021213,0.0133514404296875,-0.9288787841796875,0.3032684326171875,0.9772235153140594
1785409458.273525,-0.0830078050494194,-0.00830078125,0.9863280653953552,0.9898496104232334,0.0133514404296875,-1.1119842529296875,0.4253387451171875,1.1906302061610088
1785409458.281537,-0.08056640625,0.0078124962747097015,0.9873046278953552,0.9906171859894559,0.1964569091796875,-0.8678436279296875,0.6084442138671875,1.077938885601154
1785409458.292214,-0.08935546875,0.0014648400247097015,0.9809569716453552,0.9850193529933594,0.072479248046875,-0.9307861328125,0.4863739013671875,1.052699215523897
1785409458.302891,-0.0776367112994194,0.00146484375,0.9960936903953552,0.9991157314115513,0.1354217529296875,-0.8678436279296875,0.4863739013671875,1.0040175225741081
1785409458.313568,-0.08544921875,0.011718746274709702,0.9868163466453552,0.9905783159375751,0.1964569091796875,-0.6237030029296875,0.4253387451171875,0.7800729460286452
1785409458.324198,-0.0751953125,0.009765621274709702,0.9868163466453552,0.9897253176449209,0.1354217529296875,-0.3795623779296875,-0.0629425048828125,0.40788283713232054
1785409458.334831,-0.0869140550494194,0.00390625,0.9965819716453552,1.0003723996406235,-0.415802001953125,-0.2593994140625,-0.0629425048828125,0.49410638506815285
1785409458.345464,-0.08984375,-0.010253902524709702,0.9838866591453552,0.9880334002326324,-0.110626220703125,-0.3204345703125,0.1201629638671875,0.3596604126725098
1785409458.356152,-0.0810546875,-0.011718753725290298,0.9848632216453552,0.9882624939277341,-0.110626220703125,-0.5645751953125,-0.0629425048828125,0.5787443915841664
1785409458.36684,-0.08447265625,0.009765621274709702,0.9858397841453552,0.989500417896108,-0.2918243408203125,-0.0743865966796875,-0.0629425048828125,0.30766307965324546
1785409458.377528,-0.0727538987994194,-0.0009765625,0.9848632216453552,0.9875472894066899,-0.415802001953125,-0.4425048828125,-0.0019073486328125,0.607211259875785
1785409458.385522,-0.06640625,0.0029296837747097015,0.9853515028953552,0.9875909868686619,-0.3528594970703125,-0.0133514404296875,0.0553131103515625,0.35741799872281965
1785409458.393516,-0.06640625,-0.0039062537252902985,0.9853515028953552,0.9875943666887556,-0.232696533203125,0.1678466796875,-0.3070831298828125,0.4202621004867029
1785409458.40151,-0.07470703125,-3.725290298461914e-09,0.9882811903953552,0.9911008282750292,0.0152587890625,0.6561279296875,-0.2498626708984375,0.702259243490721
1785409458.409504,-0.0883788987994194,0.00439453125,0.9819335341453552,0.9859125758083689,0.072479248046875,0.7171630859375,-0.6732940673828125,0.986357457720947
1785409458.420218,-0.0732421800494194,-0.01806640625,0.9838866591453552,0.9867744271196888,0.1983642578125,0.8392333984375,-0.5512237548828125,1.0234787265876935
1785409458.430932,-0.0771484225988388,-3.725290298461914e-09,0.9931640028953552,0.9961559194004793,-0.2918243408203125,0.7801055908203125,-0.9784698486328125,1.2849628101263624
1785409458.441646,-0.08154296875,0.00390625,0.9868163466453552,0.9901873643650033,0.3185272216796875,0.5359649658203125,-0.8563995361328125,1.0593102477679737
1785409458.45228,-0.08837890625,0.0058593712747097015,0.9790038466453552,0.9830023881192168,-0.110626220703125,0.0457763671875,-0.1239776611328125,0.1723487654725262
1785409458.462916,-0.0810546875,-0.00634765625,0.9814452528953552,0.9848070570098585,-0.1697540283203125,0.2918243408203125,-0.4329681396484375,0.5490348677240929
1785409458.473552,-0.0922851487994194,0.00537109375,0.9941405653953552,0.9984291968395149,0.0133514404296875,0.1697540283203125,-0.6122589111328125,0.6354963928725781
1785409458.481545,-0.0810546875,0.00048827752470970154,0.9887694716453552,0.992086270864837,-0.110626220703125,0.293731689453125,-0.0629425048828125,0.3201222032552045
1785409458.48954,-0.07861328125,0.00048827752470970154,0.9863280653953552,0.9894560823959682,0.1964569091796875,0.1087188720703125,-0.1239776611328125,0.25648697972536433
1785409458.497535,-0.0883788987994194,0.00146484375,0.9916991591453552,0.995630552850712,-0.1697540283203125,-0.0133514404296875,-0.2498626708984375,0.30236740135309204
1785409458.50553,-0.09130859375,-0.0166015625,0.9965819716453552,1.0008938492060921,-0.110626220703125,-0.011444091796875,-0.0629425048828125,0.1277923583984375
1785409458.516193,-0.08544921875,0.00048827752470970154,0.9936522841453552,0.9973197427040178,0.1964569091796875,0.2307891845703125,0.0553131103515625,0.30808846952755287
1785409458.526856,-0.08642578125,0.0175781212747097,0.9790038466453552,0.9829684317202784,0.0133514404296875,0.0476837158203125,-0.1850128173828125,0.19152477727935294
1785409458.537519,-0.0986328125,-0.0039062537252902985,0.9936522841453552,0.9985432150423477,0.2574920654296875,-0.1964569091796875,0.0553131103515625,0.328568137682957
1785409458.54817,-0.095703125,0.0078124962747097015,0.9956054091453552,1.0002251016407748,0.255584716796875,0.0457763671875,-0.3681182861328125,0.4504776307857948
1785409458.55882,-0.07568359375,-0.0009765587747097015,0.9951171278953552,0.9979915121185432,-0.049591064453125,-0.1373291015625,-0.0629425048828125,0.15899784504980033
1785409458.56947,-0.0751953125,-0.009277347475290298,0.9853515028953552,0.9882600813835826,0.255584716796875,0.1678466796875,-0.2498626708984375,0.394876448589629
1785409458.577485,-0.0839843675494194,-0.00048828125,0.9877929091453552,0.9913568700367689,0.3814697265625,0.1678466796875,-0.3681182861328125,0.5560600082285597
1785409458.585499,-0.0678710862994194,0.00146484375,0.9882811903953552,0.9906100854584187,0.072479248046875,0.3509521484375,-0.3070831298828125,0.4719329407330683
1785409458.593513,-0.076171875,-0.0073242224752902985,0.9902343153953552,0.9931866884742219,0.5016326904296875,0.0476837158203125,-0.6122589111328125,0.792950229915911
1785409458.601527,-0.0849609375,-0.0200195275247097,0.9799804091453552,0.9838601245562751,0.1354217529296875,0.2918243408203125,-0.6122589111328125,0.6916368059345139
1785409458.612199,-0.0849609300494194,-0.00146484375,0.9824218153953552,0.9860898177989567,0.2574920654296875,0.2918243408203125,-0.7381439208984375,0.8344579423876167
1785409458.622871,-0.0874023362994194,-0.015625,0.9985350966453552,1.0024747619008398,0.1964569091796875,-0.0133514404296875,-0.4901885986328125,0.5282598227724535
1785409458.633543,-0.08642578125,0.01806640625,0.9995116591453552,1.0034038904982199,0.255584716796875,0.2288818359375,-0.6732940673828125,0.7556688054003227
1785409458.641522,-0.08642578125,-0.007812503725290298,0.9916991591453552,0.9954886604722,0.1964569091796875,0.4138946533203125,-0.6122589111328125,0.7646993366501078
1785409458.649501,-0.0932617112994194,0.00830078125,0.9843749403953552,0.9888178159004902,0.2574920654296875,0.1087188720703125,-0.4901885986328125,0.5642754815983838
1785409458.65748,-0.1010742112994194,0.00830078125,0.9824218153953552,0.9876424061996657,0.072479248046875,0.0457763671875,-0.7381439208984375,0.7431050835175628
1785409458.665459,-0.076171875,0.008789066225290298,0.9941405653953552,0.9970932082762999,0.255584716796875,0.1678466796875,-0.3681182861328125,0.47854689208855616
1785409458.67614,-0.0849609375,0.0058593712747097015,0.9863280653953552,0.9899978513709805,0.255584716796875,0.3509521484375,-0.4901885986328125,0.6548097587716881
1785409458.686821,-0.0908203125,0.009277347475290298,0.9765624403953552,0.9808203700625853,0.133514404296875,0.1678466796875,-0.2498626708984375,0.3292870455170815
1785409458.697502,-0.0800781175494194,0.0126953125,0.9853515028953552,0.9886815767110594,0.0133514404296875,-0.0133514404296875,-0.3070831298828125,0.30766307965324546
1785409458.705494,-0.0830078050494194,0.0068359375,0.9985350966453552,1.0020026771287467,-0.110626220703125,-0.3204345703125,0.1201629638671875,0.3596604126725098
1785409458.713485,-0.0751953125,0.0053710900247097015,0.9882811903953552,0.9911523066205751,-0.2918243408203125,-0.2574920654296875,0.1201629638671875,0.40731160987603016
1785409458.721476,-0.08935546875,-0.0034179724752902985,0.9853515028953552,0.9894006602936494,-0.2918243408203125,-0.1964569091796875,-0.3070831298828125,0.46696553589988865
1785409458.729467,-0.08154296875,0.01318359375,0.9951171278953552,0.9985395140541156,-0.6580352783203125,-0.3185272216796875,0.1201629638671875,0.740884037046567
1785409458.740145,-0.08447265625,0.011230465024709702,0.9833983778953552,0.9870836452124094,-0.720977783203125,-0.3204345703125,0.2384185791015625,0.8242152004086414
1785409458.750823,-0.078125,0.0053710900247097015,0.9970702528953552,1.000140716820319,-0.598907470703125,-0.499725341796875,0.1811981201171875,0.8007798289367813
1785409458.761501,-0.0747070237994194,-0.00634765625,0.9926757216453552,0.995503149411875,-0.7801055908203125,-0.3795623779296875,-0.0019073486328125,0.8675459466492567
1785409458.769513,-0.09326171875,0.0009765587747097015,0.9873046278953552,0.9917001210622244,-0.7781982421875,-0.3204345703125,0.0553131103515625,0.8434040302084378
1785409458.777524,-0.0966796800494194,-0.00048828125,0.9902343153953552,0.9949428115924779,-0.4749298095703125,-0.0743865966796875,0.3643035888671875,0.6031656444506704
1785409458.785535,-0.0810546875,-0.0019531287252902985,0.9824218153953552,0.9857617868644765,-0.4730224609375,0.1678466796875,0.2384185791015625,0.5556673242996163
1785409458.793546,-0.0820312425494194,0.00634765625,0.9956054091453552,0.9989992733798959,-0.7190704345703125,-0.0133514404296875,0.1201629638671875,0.7291636913067138
1785409458.804201,-0.08984375,0.009765621274709702,0.9848632216453552,0.9890009262496227,-0.4138946533203125,-0.0743865966796875,0.0553131103515625,0.42414819342948085
1785409458.814856,-0.0732421800494194,0.00732421875,0.9873046278953552,0.9900446905984978,-0.110626220703125,-0.011444091796875,0.2384185791015625,0.263082775576281
1785409458.825511,-0.08642578125,-0.0039062537252902985,0.9877929091453552,0.9915742563422485,0.0133514404296875,0.0476837158203125,0.2384185791015625,0.24350650212425096
1785409458.833514,-0.0791015550494194,0.00390625,0.9868163466453552,0.9899893013597595,0.3185272216796875,0.3528594970703125,0.0553131103515625,0.4785696979547063
1785409458.841519,-0.0859375,0.013671878725290298,0.9951171278953552,0.9989145470984141,0.3185272216796875,0.5359649658203125,-0.0019073486328125,0.6234754794829999
1785409458.849524,-0.0688476487994194,0.00244140625,0.9843749403953552,0.9867826419673407,0.0133514404296875,0.1087188720703125,0.3643035888671875,0.38041445683267777
1785409458.857529,-0.0810546875,0.0043945349752902985,0.9897460341453552,0.9930691750375854,0.133514404296875,0.3509521484375,0.0553131103515625,0.3795432081126081
1785409458.868253,-0.0839843675494194,0.00244140625,0.9946288466453552,0.9981712663847938,0.4405975341796875,0.1087188720703125,0.3032684326171875,0.5458183969889138
1785409458.878977,-0.0771484300494194,-0.00390625,0.9941405653953552,0.9971372036047743,0.255584716796875,0.2288818359375,0.4253387451171875,0.5464645371660665
1785409458.889701,-0.0888671875,0.0053710900247097015,0.9985350966453552,1.002496167002529,0.133514404296875,0.1678466796875,-0.0019073486328125,0.21448133255757879
1785409458.900316,-0.08154296875,0.0063476525247097015,0.9877929091453552,0.9911732340025037,-0.2307891845703125,-0.0133514404296875,0.3032684326171875,0.38133141871377824
1785409458.910933,-0.087890625,0.00048827752470970154,0.9775390028953552,0.9814822986480587,-0.110626220703125,0.5950927734375,0.1811981201171875,0.63182776801799
1785409458.92155,-0.08984375,0.0166015587747097,0.9877929091453552,0.992009245181544,-0.232696533203125,0.5340576171875,0.1201629638671875,0.5948145533912989
1785409458.932245,-0.08154296875,0.0029296875,0.9926757216453552,0.9960235575354319,-0.6580352783203125,0.1697540283203125,0.6084442138671875,0.9121574529835977
1785409458.942941,-0.0869140475988388,0.009765621274709702,0.9838866591453552,0.9877663575325405,-0.4730224609375,0.1678466796875,0.4863739013671875,0.69891510812446
1785409458.953637,-0.0888671800494194,-0.00048828125,0.9902343153953552,0.994214068244371,-0.6580352783203125,0.1697540283203125,0.4253387451171875,0.80171061221798
1785409458.964414,-0.08935546875,-0.008789066225290298,1.001953125,1.0059680472946992,-0.5359649658203125,0.1087188720703125,0.6694793701171875,0.8644540848093182
1785409458.975194,-0.095703125,0.0019531212747097015,0.9877929091453552,0.9924201399484612,-0.2918243408203125,-0.2574920654296875,0.6694793701171875,0.7743811959667942
1785409458.985974,-0.0825195237994194,-0.013671875,0.9814452528953552,0.9850031352259374,-0.4138946533203125,-0.1964569091796875,0.6694793701171875,0.811237775392692
1785409458.993881,-0.080078125,0.0009765587747097015,0.9936522841453552,0.9968742757027277,-0.1087188720703125,-0.3795623779296875,0.4253387451171875,0.5803451042110579
1785409459.001789,-0.0791015625,0.0063476525247097015,0.9843749403953552,0.9875684144204264,-0.415802001953125,-0.011444091796875,0.3643035888671875,0.552937046079203
1785409459.009697,-0.09326171875,-3.725290298461914e-09,0.9902343153953552,0.9946163821145879,-0.17547607421875,0.35858154296875,0.4558563232421875,0.6059517827525219
1785409459.017605,-0.076171875,0.009277347475290298,0.9887694716453552,0.9917425531734674,-0.41961669921875,0.41961669921875,0.1506805419921875,0.6122589111328125
1785409459.028315,-0.0830078050494194,-0.0048828125,0.9902343153953552,0.9937193451591553,-0.17547607421875,0.72479248046875,-0.0324249267578125,0.7464364462179731
1785409459.039025,-0.08642578125,-0.0043945349752902985,0.9833983778953552,0.9871986108425892,-0.66375732421875,0.66375732421875,-0.1544952392578125,0.951323472779579
1785409459.049735,-0.0869140550494194,0.00927734375,0.9853515028953552,0.9892207571267014,-0.35858154296875,0.54168701171875,0.2727508544921875,0.7045555835055579
1785409459.058016,-0.0810546875,0.0073242150247097015,0.9951171278953552,0.9984395849134546,-0.72479248046875,0.29754638671875,-0.0934600830078125,0.7890454860838217
1785409459.066298,-0.0737304612994194,-0.00048828125,0.9921874403953552,0.9949232815751629,-0.72479248046875,0.11444091796875,0.1506805419921875,0.7490830989847741
1785409459.07458,-0.0820312425494194,0.00439453125,0.9902343153953552,0.9936359675684132,-0.90789794921875,0.17547607421875,0.3948211669921875,1.0054622283924488
1785409459.082862,-0.0825195237994194,0.00634765625,0.9799804091453552,0.9834690472285587,-0.84686279296875,-0.06866455078125,0.1506805419921875,0.8628997835113196
1785409459.093078,-0.09326171875,0.0058593712747097015,1.001953125,1.0063012198706731,-0.72479248046875,0.11444091796875,0.1506805419921875,0.7490830989847741
1785409459.103294,-0.0947265625,0.0053710900247097015,0.9936522841453552,0.9981717447605907,-0.7877349853515625,-0.0705718994140625,-0.1544952392578125,0.8058384323715665
1785409459.11351,-0.1040038987994194,0.01220703125,0.9985350966453552,1.00401103669729,-0.54168701171875,-0.43487548828125,-0.0934600830078125,0.7009110472010496
1785409459.124166,-0.0825195237994194,0.005859375,0.9887694716453552,0.992224204573396,-0.2384185791015625,-0.4367828369140625,0.4558563232421875,0.6748538011476192
1785409459.134825,-0.0883788987994194,-0.001953125,0.9951171278953552,0.9990359066024426,-0.60272216796875,-0.67901611328125,-0.1544952392578125,0.9209808210868748
1785409459.145484,-0.0839843675494194,0.00341796875,0.9848632216453552,0.9884435349845332,-0.05340576171875,-0.86212158203125,0.2727508544921875,0.9058139026395232
1785409459.153624,-0.0986328050494194,0.00390625,0.9975585341453552,1.0024304055979194,0.12969970703125,-0.61798095703125,0.0286102294921875,0.6320925743028843
1785409459.161762,-0.0825195237994194,-0.0009765625,0.9887694716453552,0.9922073843407104,0.31280517578125,-0.43487548828125,0.4558563232421875,0.7033980066386882
1785409459.1699,-0.0888671800494194,0.0029296875,0.9843749403953552,0.9883825079578972,0.25177001953125,-0.55694580078125,0.3337860107421875,0.6964121399787755
1785409459.178038,-0.08349609375,0.00048827752470970154,0.9902343153953552,0.9937483763372686,0.25177001953125,-0.49591064453125,0.3337860107421875,0.6486359618933794
1785409459.188633,-0.0908203125,-0.0009765587747097015,0.9892577528953552,0.9934184337393814,0.19073486328125,-0.86212158203125,0.4558563232421875,0.9936993497607152
1785409459.199228,-0.0673828050494194,0.01220703125,0.9873046278953552,0.9896766554243119,0.00762939453125,-0.31280517578125,0.4558563232421875,0.552910727962786
1785409459.209823,-0.0859375,0.010742183774709702,0.9916991591453552,0.995473691600187,-0.23651123046875,-0.31280517578125,0.3337860107421875,0.5149735343690631
1785409459.217763,-0.0996093675494194,0.00244140625,0.9946288466453552,0.9996071874227107,-0.1163482666015625,-0.1316070556640625,0.5168914794921875,0.5459250294805821
1785409459.225706,-0.08642578125,-0.0166015625,0.9946288466453552,0.9985146819757754,-0.0553131103515625,-0.1316070556640625,0.5779266357421875,0.5952975336565832
1785409459.233649,-0.083984375,0.010253902524709702,0.9877929091453552,0.9914097786077011,0.00762939453125,-0.31280517578125,0.8220672607421875,0.8796021071146976
1785409459.241592,-0.0849609375,-0.0024414099752902985,0.9902343153953552,0.9938754050533971,-0.2994537353515625,-0.8640289306640625,0.8220672607421875,1.2296394243129367
1785409459.252235,-0.068359375,0.00048827752470970154,0.9907225966453552,0.9930782980556201,0.0095367431640625,-0.1316070556640625,0.2117156982421875,0.24946924350091323
1785409459.262878,-0.0722656175494194,-0.00048828125,0.9926757216453552,0.9953027912361668,-0.35858154296875,0.41961669921875,0.5168914794921875,0.7561981875095384
1785409459.273521,-0.0722656175494194,-0.01220703125,0.9887694716453552,0.9914819207376261,0.00762939453125,0.72479248046875,0.1506805419921875,0.7403289627861497
1785409459.284177,-0.0859375,0.0029296837747097015,0.9794921278953552,0.9832592056839543,-0.17547607421875,0.72479248046875,0.0896453857421875,0.7511007173156827
1785409459.294835,-0.0844726487994194,-0.00244140625,0.9755858778953552,0.9792391914177652,-0.0553131103515625,0.8449554443359375,-0.0324249267578125,0.8473845756000963
1785409459.305493,-0.0859375,0.010253902524709702,0.9877929091453552,0.991577141618886,-0.05340576171875,0.78582763671875,-0.0324249267578125,0.7883074437622577
1785409459.313502,-0.0786132737994194,0.0068359375,0.9868163466453552,0.9899663018837824,-0.2994537353515625,0.4177093505859375,-0.0934600830078125,0.5223872397931983
1785409459.321511,-0.08642578125,-0.00048827752470970154,0.9853515028953552,0.9891345906082495,-0.2994537353515625,0.1125335693359375,0.2117156982421875,0.3836142342584108
1785409459.32952,-0.08447265625,-3.725290298461914e-09,0.9868163466453552,0.9904252276978897,-0.1163482666015625,-0.1316070556640625,0.0286102294921875,0.17797719368881942
1785409459.337529,-0.0786132737994194,0.00830078125,0.9999999403953552,1.0031195494942449,-0.23651123046875,-0.00762939453125,0.1506805419921875,0.28053590774411574
1785409459.348194,-0.08349609375,0.0058593712747097015,0.9926757216453552,0.9961982825960756,-0.17547607421875,0.05340576171875,0.0896453857421875,0.2041575940121987
1785409459.358859,-0.0966796800494194,-0.01171875,0.9829100966453552,0.9877229103971428,0.1277923583984375,0.3566741943359375,0.2727508544921875,0.4668408683871232
1785409459.369524,-0.0786132737994194,-0.00341796875,0.9897460341453552,0.9928690454608287,-0.05340576171875,0.23651123046875,0.5779266357421875,0.6267287561799643
1785409459.37751,-0.095703125,-0.00048827752470970154,0.9936522841453552,0.9982505639051693,0.00762939453125,0.29754638671875,0.6389617919921875,0.7048859705911055
1785409459.385496,-0.0810546875,0.00048827752470970154,0.9829100966453552,0.9862466014481598,0.00762939453125,0.23651123046875,0.3948211669921875,0.46030372983914486
1785409459.393482,-0.0874023362994194,0.00634765625,0.9990233778953552,1.0028594969944247,0.1926422119140625,0.0514984130859375,0.6389617919921875,0.6693543754898297
1785409459.401468,-0.0971679612994194,-0.00439453125,0.9785155653953552,0.9833380071618224,0.00762939453125,0.29754638671875,0.6389617919921875,0.7048859705911055
1785409459.41215,-0.0839843675494194,0.0068359375,0.9912108778953552,0.9947859611455424,0.12969970703125,0.29754638671875,0.1506805419921875,0.3578554065379415
1785409459.422832,-0.080078125,0.0068359337747097015,0.9926757216453552,0.995923854739013,0.06866455078125,0.17547607421875,0.3337860107421875,0.38330115330429
1785409459.433514,-0.0859375,-0.0024414099752902985,0.9863280653953552,0.9900678092814964,0.1926422119140625,0.3566741943359375,-0.1544952392578125,0.4338159536827356
1785409459.444222,-0.0825195237994194,-0.005859375,0.9887694716453552,0.992224204573396,-0.05340576171875,0.60272216796875,0.0896453857421875,0.611688223141966
1785409459.454932,-0.0800781175494194,-0.001953125,0.9941405653953552,0.9973624132541394,0.3719329833984375,0.2346038818359375,-0.2765655517578125,0.5194820785467543
1785409459.465642,-0.09326171875,-3.725290298461914e-09,0.9916991591453552,0.9960747815469523,0.12969970703125,0.78582763671875,-0.1544952392578125,0.81130503978978
1785409459.473617,-0.07568359375,0.0014648400247097015,0.9833983778953552,0.9863075188633761,0.00762939453125,0.41961669921875,-0.5817413330078125,0.717327930903195
1785409459.481592,-0.083984375,0.0063476525247097015,0.9804686903953552,0.9840795297039249,0.0667572021484375,0.3566741943359375,-0.5207061767578125,0.6346715114589717
1785409459.489567,-0.0966796800494194,-0.00390625,0.9916991591453552,0.9964082705262562,-0.05340576171875,0.17547607421875,-0.5817413330078125,0.6099729555789263
1785409459.497542,-0.0927734300494194,0.00732421875,0.9965819716453552,1.0009176687979766,-0.17547607421875,0.05340576171875,-0.8869171142578125,0.9056853733893409
1785409459.508201,-0.0922851487994194,-0.01171875,0.9926757216453552,0.9970250579271417,-0.11444091796875,0.11444091796875,-0.8258819580078125,0.8415904324396033
1785409459.51886,-0.0942382737994194,-0.0107421875,0.9912108778953552,0.9957385456529542,-0.1163482666015625,0.0514984130859375,-0.9479522705078125,0.9564530897291696
1785409459.529519,-0.09033203125,0.0043945349752902985,0.9892577528953552,0.99338315340606,-0.17547607421875,-0.06866455078125,-1.0089874267578125,1.0264318294521888
1785409459.540159,-0.0791015550494194,-0.00048828125,0.9829100966453552,0.9860880044484858,-0.2384185791015625,-0.4367828369140625,-0.8869171142578125,1.0169781871047727
1785409459.5508,-0.0922851487994194,-0.00048828125,0.9824218153953552,0.9867468826767154,-0.54168701171875,-0.19073486328125,-0.6427764892578125,0.8619548838995607
1785409459.561441,-0.0888671875,-0.0039062537252902985,0.9877929091453552,0.9917900318062137,-0.17547607421875,-0.19073486328125,-1.0700225830078125,1.1009632004934826
1785409459.569474,-0.0961913987994194,0.00439453125,0.9926757216453552,0.9973350417247069,-0.17547607421875,-0.55694580078125,-0.7648468017578125,0.9622739255483579
1785409459.577509,-0.09521484375,-0.0053710900247097015,0.9829100966453552,0.9875256822816164,-0.2994537353515625,-0.6771087646484375,-0.7038116455078125,1.0215183068022577
1785409459.585544,-0.0922851487994194,0.00634765625,0.9824218153953552,0.9867671786158599,-0.17547607421875,-0.55694580078125,-0.6427764892578125,0.8684135493955002
1785409459.593579,-0.0825195237994194,0.00439453125,0.9951171278953552,0.9985423786418336,0.12969970703125,-0.80108642578125,-0.7038116455078125,1.0742031036667996
1785409459.604207,-0.095703125,0.0053710900247097015,0.9780272841453552,0.9827132365423591,-0.1163482666015625,-0.9822845458984375,-1.1310577392578125,1.5025682872292632
1785409459.614835,-0.0937499925494194,-0.00048828125,0.9902343153953552,0.9946624044911435,0.43487548828125,-0.80108642578125,-0.7648468017578125,1.1898936011417107
1785409459.625463,-0.0839843675494194,-0.0029296875,0.9814452528953552,0.9850364163280215,0.12969970703125,-1.04522705078125,-0.7038116455078125,1.2667566593633035
1785409459.636146,-0.0747070237994194,-0.00244140625,0.9936522841453552,0.9964597140159387,-0.1163482666015625,-0.9250640869140625,-0.6427764892578125,1.1324496011663985
1785409459.646831,-0.0927734300494194,0.00146484375,0.9882811903953552,0.9926272041303354,-0.05340576171875,-0.80108642578125,-0.8869171142578125,1.1963334002355464
1785409459.657516,-0.0810546875,0.008789066225290298,0.9990233778953552,1.0023446610983076,0.3719329833984375,-0.9250640869140625,-0.8869171142578125,1.3344285955423827
1785409459.665506,-0.08056640625,-0.0009765587747097015,0.9892577528953552,0.9925335264597606,0.4329681396484375,-0.6198883056640625,-0.8258819580078125,1.1197338657076106
1785409459.673497,-0.0820312425494194,-0.0029296875,0.9819335341453552,0.9853583984024477,0.43487548828125,-0.92315673828125,-0.6427764892578125,1.2060251526749062
1785409459.681488,-0.0756835862994194,0.00341796875,0.9731444716453552,0.9760890586618801,0.43487548828125,-0.49591064453125,-0.7038116455078125,0.964569795307561
1785409459.689479,-0.0883788987994194,0.00244140625,0.9848632216453552,0.9888237232020395,0.31280517578125,-0.55694580078125,-0.5817413330078125,0.8639784033950809
1785409459.700235,-0.0698242112994194,-0.01123046875,0.9892577528953552,0.9917824587960297,0.12969970703125,-0.49591064453125,-0.6427764892578125,0.822138064138859
1785409459.710991,-0.0693359300494194,0.001953125,0.9848632216453552,0.9873028163855058,0.31280517578125,-0.31280517578125,-0.6427764892578125,0.7802921062869188
1785409459.721747,-0.0834960862994194,0.00732421875,0.9936522841453552,0.9971810780369329,0.12969970703125,-0.37384033203125,-0.7648468017578125,0.8611441447379073
1785409459.729675,-0.080078125,0.0161132775247097,0.9936522841453552,0.9970040148381478,0.25177001953125,-0.37384033203125,-0.5817413330078125,0.7359128447837474
1785409459.737602,-0.0844726487994194,0.00390625,0.9960936903953552,0.9996767113570718,0.4329681396484375,-0.1316070556640625,-0.8869171142578125,0.9956926205484292
1785409459.745529,-0.0703125,0.010742183774709702,0.9824218153953552,0.9849933327354075,0.3719329833984375,0.0514984130859375,-1.1310577392578125,1.1917541022480376
1785409459.753456,-0.0859375,0.0009765587747097015,0.9916991591453552,0.9954162093430542,-0.05340576171875,0.17547607421875,-0.7038116455078125,0.7273203285763425
1785409459.764117,-0.08349609375,0.0009765587747097015,0.9721679091453552,0.9757474032302627,0.0667572021484375,-0.2536773681640625,-0.8869171142578125,0.9248949663181968
1785409459.774778,-0.0927734300494194,-0.00341796875,0.9785155653953552,0.9829096110805419,-0.17547607421875,-0.06866455078125,-0.6427764892578125,0.6698270585007848
1785409459.785439,-0.08642578125,-0.0009765625,0.9921874403953552,0.9959449212769127,-0.1163482666015625,-0.1316070556640625,-0.5817413330078125,0.6076843874672596
1785409459.796378,-0.08544921875,0.0048828087747097015,0.9926757216453552,0.9963586197502596,-0.05340576171875,0.23651123046875,-0.2155303955078125,0.32441191240513373
1785409459.807317,-0.0771484300494194,0.0078125,0.9877929091453552,0.9908318458614378,-0.05340576171875,0.05340576171875,-0.0324249267578125,0.08219322748724077
1785409459.818256,-0.0795898362994194,0.01318359375,0.9848632216453552,0.9881618868060038,-0.2994537353515625,-0.0057220458984375,-0.0324249267578125,0.30125845598176487
1785409459.826074,-0.0712890625,0.012207027524709702,0.9882811903953552,0.9909242419289066,0.19073486328125,0.48065185546875,-0.1544952392578125,0.5396987800521676
1785409459.833893,-0.0727538987994194,0.00927734375,0.9887694716453552,0.9914858884297884,0.25177001953125,0.29754638671875,0.0286102294921875,0.39082034263296167
1785409459.841712,-0.08056640625,0.011718746274709702,0.9833983778953552,0.9867627093062987,0.31280517578125,0.54168701171875,0.0286102294921875,0.626171256040968
1785409459.849531,-0.08056640625,0.0029296837747097015,0.9843749403953552,0.9876707711284256,0.12969970703125,1.02996826171875,-0.0324249267578125,1.038608689558866
1785409459.860526,-0.0712890625,0.0029296837747097015,0.9902343153953552,0.9928014468490951,-0.17547607421875,0.90789794921875,-0.2155303955078125,0.9494861190173295
1785409459.871521,-0.080078125,-0.0039062537252902985,0.9868163466453552,0.9900678092576123,-0.17547607421875,0.90789794921875,-0.5817413330078125,1.0924712890271042
1785409459.882516,-0.0859375,0.009277347475290298,0.9785155653953552,0.9823258292457849,-0.2384185791015625,0.5397796630859375,-0.4596710205078125,0.7479992985535949
1785409459.892855,-0.0883788987994194,0.00439453125,0.9873046278953552,0.9912621095963928,-0.1163482666015625,0.6008148193359375,-0.3376007080078125,0.6989203132848836
1785409459.903194,-0.0917968675494194,0.01171875,0.9760741591453552,0.9804513033010667,-0.41961669921875,0.11444091796875,0.0286102294921875,0.4358823731241775
1785409459.913533,-0.08984375,0.0048828087747097015,0.9838866591453552,0.9879922566902036,-0.54168701171875,0.05340576171875,-0.2765655517578125,0.6105452468643519
1785409459.921643,-0.0927734300494194,-0.0029296875,0.9809569716453552,0.9853385573555966,-0.66375732421875,-0.31280517578125,-0.4596710205078125,0.8658627550277627
1785409459.929754,-0.0830078050494194,-0.0009765625,0.9794921278953552,0.9830036001879188,-0.4215240478515625,-0.1316070556640625,-0.2765655517578125,0.5210484089188194
1785409459.937865,-0.08447265625,-0.009277347475290298,0.9858397841453552,0.9894957194621251,-0.23651123046875,-0.49591064453125,0.0896453857421875,0.5566877263620131
1785409459.945976,-0.0961913913488388,-0.014160159975290298,0.9780272841453552,0.9828482397770729,-0.23651123046875,-0.86212158203125,-0.0324249267578125,0.894562776006892
1785409459.956489,-0.080078125,0.009765621274709702,0.9897460341453552,0.99302824006614,-0.2384185791015625,-0.4367828369140625,0.2117156982421875,0.5407829531019644
1785409459.967002,-0.0722656175494194,-0.00732421875,0.9975585341453552,1.0001994764577347,0.06866455078125,-0.67901611328125,0.2727508544921875,0.734963081559737
1785409459.977515,-0.0903320237994194,0.0087890625,0.9902343153953552,0.9943847955041527,0.19073486328125,-0.80108642578125,0.0286102294921875,0.8239768169514788
1785409459.985524,-0.0893554612994194,-0.0009765625,0.9912108778953552,0.9952308056910363,-0.17547607421875,-0.74005126953125,0.5168914794921875,0.9195893299346516
1785409459.993535,-0.0874023362994194,-0.00439453125,0.9951171278953552,0.9989577461165235,0.00762939453125,-0.67901611328125,0.5779266357421875,0.89169517552624
1785409460.001546,-0.08154296875,0.0043945349752902985,0.9863280653953552,0.9897027939117665,-0.05340576171875,-0.55694580078125,0.4558563232421875,0.721696465165594
1785409460.009557,-0.08154296875,0.00048827752470970154,0.9819335341453552,0.9853136351673472,0.31280517578125,-0.74005126953125,0.4558563232421875,0.9237575152442546
1785409460.020193,-0.0771484300494194,0.019531242549419403,0.9882811903953552,0.991480237313823,-0.05340576171875,-0.19073486328125,0.5168914794921875,0.553542017400034
1785409460.030829,-0.0830078050494194,-0.0087890625,0.9926757216453552,0.9961790158715842,-0.2384185791015625,0.0514984130859375,0.2727508544921875,0.365907821776737
1785409460.041465,-0.0712890625,-0.007812503725290298,0.9755858778953552,0.9782182633724631,-0.41961669921875,-0.19073486328125,0.1506805419921875,0.48493565353479157
1785409460.052152,-0.0722656100988388,0.0048828087747097015,1.00732421875,1.0099248694357346,-0.35858154296875,0.29754638671875,0.3337860107421875,0.5731733386807321
1785409460.062841,-0.087890625,-3.725290298461914e-09,1.0029296875,1.0067734204038852,0.1277923583984375,0.3566741943359375,0.4558563232421875,0.5927498251455757
1785409460.07353,-0.07177734375,0.02294921875,0.9785155653953552,0.9814129433821589,-0.17547607421875,0.41961669921875,0.0286102294921875,0.4557286167425289
1785409460.081525,-0.0629882737994194,-0.00537109375,0.9946288466453552,0.9966357980041513,-0.05340576171875,0.11444091796875,-0.1544952392578125,0.19954367452670305
1785409460.089521,-0.07177734375,-0.0053710900247097015,0.9892577528953552,0.9918728433359928,-0.35858154296875,0.96893310546875,-0.3986358642578125,1.107394526852891
1785409460.097517,-0.0566406212747097,-0.0043945349752902985,0.9853515028953552,0.9869878703277813,-0.4787445068359375,1.8215179443359375,-1.1310577392578125,2.1969104519525593
1785409460.105513,-0.0683593675494194,-0.00244140625,0.9760741591453552,0.9784680514700244,-0.54168701171875,2.37274169921875,-1.4362335205078125,2.825967925385307
1785409460.116226,-0.07666015625,0.0014648400247097015,0.9995116591453552,1.0024482440904734,-0.23651123046875,2.55584716796875,-1.7414093017578125,3.1017412310507715
1785409460.126939,-0.07958984375,-0.014648433774709702,0.9936522841453552,0.9969423160983203,-0.23651123046875,2.61688232421875,-2.2296905517578125,3.446089177247801
1785409460.137652,-0.0776367112994194,-0.00390625,0.9956054091453552,0.9986354932856844,0.25177001953125,3.04412841796875,-1.9855499267578125,3.6431462336101257
1785409460.14828,-0.08544921875,0.0014648400247097015,0.9926757216453552,0.9963477320119769,0.12969970703125,2.79998779296875,-1.9245147705078125,3.4000751104469358
1785409460.158908,-0.076171875,-0.00146484375,0.9843749403953552,0.9873187548034256,0.06866455078125,3.10516357421875,-2.0465850830078125,3.719578759104188
1785409460.169536,-0.09521484375,0.011230465024709702,0.9746093153953552,0.9793136920672615,0.1277923583984375,3.4694671630859375,-1.8634796142578125,3.9403159207544594
1785409460.177518,-0.0874023362994194,-0.00927734375,0.9863280653953552,0.9902364818992464,0.12969970703125,3.59344482421875,-1.7414093017578125,3.9952689615290167
1785409460.185499,-0.08984375,-3.725290298461914e-09,0.9946288466453552,0.9986783476140514,0.0667572021484375,3.3473968505859375,-1.8024444580078125,3.802410843603623
1785409460.19348,-0.0966796800494194,0.01806640625,0.9877929091453552,0.9926772823667781,-0.2384185791015625,3.4694671630859375,-1.4972686767578125,3.786272481609384
1785409460.201461,-0.1005859375,-3.725290298461914e-09,0.9868163466453552,0.9919294495221118,-0.35858154296875,3.22723388671875,-1.1920928955078125,3.459003433658871
1785409460.212153,-0.109375,0.00048827752470970154,0.9882811903953552,0.9943152620417739,-0.11444091796875,3.22723388671875,-1.0700225830078125,3.4019235164003985
1785409460.222845,-0.10546875,0.0029296837747097015,0.9960936903953552,1.0016660522943863,-0.23651123046875,2.86102294921875,-0.6427764892578125,2.94186190927392
1785409460.233537,-0.0947265625,-0.008300784975290298,0.9873046278953552,0.9918732040628269,-0.17547607421875,2.49481201171875,-0.1544952392578125,2.505742924841395
1785409460.244208,-0.10888671875,-0.0039062537252902985,0.9921874403953552,0.9981520391286062,-0.41961669921875,1.27410888671875,0.3948211669921875,1.3983259217306974
1785409460.25488,-0.10400390625,0.0014648400247097015,1.0009765625,1.0063662538787124,-0.6046295166015625,1.1539459228515625,0.2727508544921875,1.3310000277377163
1785409460.265552,-0.1142578050494194,0.0029296875,0.9790038466453552,0.9856530631160038,-0.17547607421875,0.23651123046875,0.6389617919921875,0.7035634913687135
1785409460.273566,-0.0961913913488388,0.015624996274709702,0.9912108778953552,0.9959899240134364,-0.2994537353515625,0.1773834228515625,0.6999969482421875,0.7817500533206989
1785409460.281579,-0.1020507737994194,-0.009765625,0.9877929091453552,0.993098464011774,-0.48065185546875,-0.06866455078125,0.3948211669921875,0.6257993133622118
1785409460.289592,-0.1005859375,-0.009277347475290298,0.9912108778953552,0.9963446213319024,-0.35858154296875,-0.67901611328125,0.3948211669921875,0.8634392618815163
1785409460.297605,-0.1005859375,-0.010253902524709702,0.9804686903953552,0.985668060852802,-0.35858154296875,-1.04522705078125,0.3337860107421875,1.1543367843094592
1785409460.308327,-0.0908203125,-0.0029296912252902985,0.9926757216453552,0.996825963043399,-0.4215240478515625,-1.4133453369140625,0.5168914794921875,1.562819364438998
1785409460.319049,-0.0932617112994194,0.01611328125,0.9877929091453552,0.9923165906025061,-0.1163482666015625,-1.5964508056640625,0.2727508544921875,1.6237564850287254
1785409460.329771,-0.09912109375,-0.0034179724752902985,0.9868163466453552,0.9917878683309874,-0.17547607421875,-1.65557861328125,0.3337860107421875,1.6979827732767712
1785409460.340343,-0.09375,0.0053710900247097015,0.9902343153953552,0.9946767869486859,-0.17547607421875,-1.65557861328125,0.0896453857421875,1.6672638341193504
1785409460.350914,-0.0893554612994194,-0.01513671875,0.9790038466453552,0.9831897326889407,-0.05340576171875,-1.71661376953125,0.0286102294921875,1.7176826116488002
1785409460.361485,-0.0693359300494194,-0.00537109375,0.9814452528953552,0.9839060444344861,-0.17547607421875,-1.47247314453125,0.1506805419921875,1.4905279734792067
1785409460.369496,-0.0825195237994194,-0.0078125,0.9829100966453552,0.9863988873937939,0.0095367431640625,-1.5964508056640625,-0.0324249267578125,1.5968085358773798
1785409460.377509,-0.0966796800494194,0.00146484375,0.9887694716453552,0.9934858702364644,0.00762939453125,-1.53350830078125,0.1506805419921875,1.5409122434327562
1785409460.385522,-0.08984375,-0.0024414099752902985,0.9882811903953552,0.9923595977194911,0.0667572021484375,-1.7795562744140625,0.0286102294921875,1.7810377882225692
1785409460.393535,-0.0830078050494194,0.001953125,0.9897460341453552,0.9932226953220746,0.4329681396484375,-1.2912750244140625,-0.0324249267578125,1.362315666246783
1785409460.404371,-0.07568359375,0.0024414025247097015,0.9931640028953552,0.9960465367924974,0.37384033203125,-1.16729736328125,0.0896453857421875,1.2289735649563254
1785409460.415207,-0.0878906175494194,-0.00537109375,0.9980468153953552,1.0019236772439803,0.00762939453125,-1.16729736328125,-0.0934600830078125,1.1710576967426067
1785409460.426043,-0.0952148362994194,-0.00634765625,0.9819335341453552,0.986559487953251,0.3719329833984375,-1.4133453369140625,0.0896453857421875,1.4642115559922524
1785409460.436509,-0.08056640625,-3.725290298461914e-09,0.9838866591453552,0.9871797728176203,0.3719329833984375,-0.7419586181640625,0.0896453857421875,0.8347892131505132
1785409460.446973,-0.0698242112994194,0.00341796875,0.9941405653953552,0.9965954880283968,0.25177001953125,-0.67901611328125,-0.1544952392578125,0.7404861941884332
1785409460.457437,-0.0917968675494194,-0.001953125,0.9902343153953552,0.9944820154108666,0.49591064453125,-0.74005126953125,0.0896453857421875,0.8953432548911507
1785409460.465464,-0.0878906175494194,-0.0048828125,0.9892577528953552,0.9931664030638049,0.12969970703125,-0.12969970703125,-0.2155303955078125,0.2830148041988939
1785409460.473489,-0.08447265625,0.0063476525247097015,0.9931640028953552,0.9967701134131332,0.1926422119140625,0.0514984130859375,-0.0934600830078125,0.2202223773310506
1785409460.481514,-0.0776367112994194,-0.01220703125,0.9829100966453552,0.9860470215160682,0.4329681396484375,0.0514984130859375,-0.4596710205078125,0.6335699989706682
1785409460.489539,-0.0776367112994194,0.00537109375,0.9775390028953552,0.9806318421156361,0.25177001953125,0.11444091796875,-0.3376007080078125,0.436416205574074
1785409460.497603,-0.1020507737994194,-0.00390625,0.9921874403953552,0.9974294642231145,0.0667572021484375,0.2346038818359375,0.0286102294921875,0.2455891908101281
1785409460.505667,-0.08447265625,0.00048827752470970154,0.9951171278953552,0.9986961331153599,0.06866455078125,-0.00762939453125,-0.4596710205078125,0.46483381470112317
1785409460.513731,-0.08349609375,-0.0039062537252902985,0.9936522841453552,0.9971618315383701,0.25177001953125,0.48065185546875,-0.6427764892578125,0.8411753467874085
1785409460.521795,-0.06982421875,0.00048827752470970154,0.9882811903953552,0.990744856776077,0.06866455078125,0.29754638671875,-0.3376007080078125,0.45521743247677926
1785409460.532401,-0.08642578125,-0.00048827752470970154,0.9809569716453552,0.9847569417370158,-0.17547607421875,0.35858154296875,-0.6427764892578125,0.7566598910499172
1785409460.543007,-0.0869140550494194,0.0068359375,0.9853515028953552,0.9892008730610646,0.0667572021484375,0.3566741943359375,-0.8258819580078125,0.9020831522130849
1785409460.553613,-0.0874023362994194,0.0029296875,0.9848632216453552,0.9887382448399133,-0.11444091796875,0.48065185546875,-0.6427764892578125,0.8107308708897676
1785409460.561603,-0.0976562425494194,0.005859375,0.9829100966453552,0.9877668409455964,-0.11444091796875,-0.00762939453125,-0.7038116455078125,0.7130959007867443
1785409460.569593,-0.0947265625,-0.012695316225290298,0.9838866591453552,0.9885177038077441,0.00762939453125,0.17547607421875,-0.7038116455078125,0.7253970586075963
1785409460.577583,-0.09521484375,0.010742183774709702,0.9887694716453552,0.9934013937177768,0.00762939453125,0.29754638671875,-0.8869171142578125,0.9355287421953977
1785409460.585573,-0.0810546875,-0.0073242224752902985,0.9882811903953552,0.99162655162609,-0.17547607421875,0.11444091796875,-0.6427764892578125,0.676054873121519
1785409460.596203,-0.08642578125,-0.001953125,0.9941405653953552,0.9978921254958047,0.06866455078125,-0.00762939453125,-0.1544952392578125,0.1692389055395746
1785409460.606833,-0.1088867112994194,0.001953125,1.001953125,1.0078542530009655,0.2498626708984375,-0.1316070556640625,-0.0934600830078125,0.2974669032428511
1785409460.617463,-0.08642578125,-0.0048828087747097015,0.9902343153953552,0.9940106925343968,0.43487548828125,-0.37384033203125,-0.1544952392578125,0.5939209232839163
1785409460.625468,-0.076171875,0.012695308774709702,0.9853515028953552,0.98837285963549,0.25177001953125,-0.00762939453125,-0.1544952392578125,0.2954913354888908
1785409460.633476,-0.0854492112994194,-0.00146484375,0.9824218153953552,0.9861320078182282,0.49591064453125,-0.25177001953125,-0.0934600830078125,0.563959481886769
1785409460.641484,-0.09375,0.0053710900247097015,0.9912108778953552,0.9956489921484049,0.25177001953125,-0.37384033203125,-0.2155303955078125,0.49959792631250516
1785409460.649492,-0.09521484375,0.0029296837747097015,0.9887694716453552,0.9933476317861696,0.31280517578125,-0.55694580078125,0.0286102294921875,0.6394171160009733
1785409460.65909,-0.0883788987994194,0.01123046875,0.9912108778953552,0.995206489950414,-0.0553131103515625,-0.6198883056640625,0.2727508544921875,0.6794954601040721
1785409460.668688,-0.08056640625,-0.0019531287252902985,0.9897460341453552,0.9930216375458877,0.49591064453125,-0.80108642578125,-0.2155303955078125,0.9664989292896977
1785409460.678286,-0.07421875,-0.008300784975290298,0.9833983778953552,0.9862300418918419,0.31280517578125,-0.61798095703125,-0.2765655517578125,0.7458123394446499
1785409460.687884,-0.08447265625,-0.007812503725290298,0.9848632216453552,0.9885101062801819,0.19073486328125,-0.55694580078125,-0.0324249267578125,0.5895929010376859
1785409460.697482,-0.080078125,-0.009277347475290298,0.9931640028953552,0.9964302845291375,0.49591064453125,-0.67901611328125,-0.1544952392578125,0.8549029350799445
1785409460.707139,-0.0893554612994194,-0.00146484375,0.9882811903953552,0.9923135872900785,0.19073486328125,-0.49591064453125,-0.4596710205078125,0.7025699983097846
1785409460.716793,-0.0893554612994194,-0.00634765625,0.9873046278953552,0.9913602369812328,0.31280517578125,-0.43487548828125,-0.5207061767578125,0.7470600316019674
1785409460.726447,-0.0971679612994194,-0.00341796875,0.9916991591453552,0.9964539715727295,0.12969970703125,-0.49591064453125,-0.6427764892578125,0.822138064138859
1785409460.736101,-0.0839843675494194,-0.00537109375,0.9999999403953552,1.0035348042950285,-0.05340576171875,0.23651123046875,-0.8869171142578125,0.9194627263168462
1785409460.745755,-0.0878906175494194,0.0009765625,0.9931640028953552,0.9970458620217326,0.00762939453125,0.41961669921875,-1.1310577392578125,1.2064112033047216
1785409460.755357,-0.0942382737994194,0.0029296875,0.9838866591453552,0.9883938452670323,-0.17547607421875,0.78582763671875,-0.8258819580078125,1.1534287736210755
1785409460.764959,-0.08154296875,0.0053710900247097015,0.9921874403953552,0.9955470964444141,-0.05340576171875,0.90789794921875,-0.7648468017578125,1.1883271821091725
1785409460.774561,-0.08984375,-0.012695316225290298,0.9809569716453552,0.9851444821384063,-0.35858154296875,0.48065185546875,-0.6427764892578125,0.8790725477831738
1785409460.784163,-0.1079101487994194,-0.001953125,0.9960936903953552,1.0019236772113014,-0.17547607421875,0.05340576171875,-0.8869171142578125,0.9056853733893409
1785409460.793765,-0.1010742038488388,0.0053710900247097015,0.9897460341453552,0.9949080637919209,-0.2994537353515625,0.2346038818359375,-0.5207061767578125,0.6448615692551638
1785409460.801726,-0.08984375,0.0019531212747097015,0.9809569716453552,0.9850646142849729,-0.48065185546875,-0.06866455078125,-0.5817413330078125,0.7577361052696708
1785409460.809688,-0.0878906175494194,0.005859375,0.9873046278953552,0.9912262714396722,-0.35858154296875,-0.43487548828125,-0.8258819580078125,0.9998892047764708
1785409460.81765,-0.0976562425494194,0.00146484375,0.9882811903953552,0.9930954630675458,-0.2384185791015625,-0.4367828369140625,-0.8258819580078125,0.964211426009007
1785409460.825612,-0.0825195237994194,0.005859375,0.9946288466453552,0.9980632979238055,-0.4215240478515625,-0.7419586181640625,-0.8258819580078125,1.1875462612243406
1785409460.836265,-0.0888671800494194,0.0029296875,0.9995116591453552,1.0034587761967526,-0.17547607421875,-0.98419189453125,-0.8869171142578125,1.3364308831539478
1785409460.846918,-0.0869140550494194,-0.0009765625,0.9907225966453552,0.9945281645801516,-0.2994537353515625,-1.1653900146484375,-0.4596710205078125,1.2880620609865747
1785409460.857571,-0.09130859375,0.00048827752470970154,0.9931640028953552,0.9973526128479681,-0.17547607421875,-1.10626220703125,-0.7648468017578125,1.3563180134054222
1785409460.868238,-0.07666015625,0.009765621274709702,0.9833983778953552,0.9864301883875874,-0.05340576171875,-1.47247314453125,-1.1920928955078125,1.895287526543323
1785409460.878903,-0.0869140550494194,0.00146484375,0.9843749403953552,0.9882055565572906,0.0095367431640625,-1.5964508056640625,-1.0089874267578125,1.888597826889294
1785409460.889568,-0.09521484375,0.00048827752470970154,0.9848632216453552,0.9894552391265338,0.4978179931640625,-1.7795562744140625,-1.0700225830078125,2.1353200266637
1785409460.897549,-0.08740234375,0.0048828087747097015,0.9799804091453552,0.983882418698099,0.31280517578125,-1.35040283203125,-1.1310577392578125,1.789057432361676
1785409460.905531,-0.0869140550494194,0.0068359375,0.9990233778953552,1.002820269334482,0.67901611328125,-1.53350830078125,-0.9479522705078125,1.9264797164313692
1785409460.913513,-0.0781249925494194,0.00341796875,0.9858397841453552,0.9889364372774336,0.3719329833984375,-1.4705657958984375,-0.8258819580078125,1.7271302535619268
1785409460.921495,-0.07568359375,0.0009765587747097015,0.9848632216453552,0.9877674449887602,0.61798095703125,-1.10626220703125,-0.8258819580078125,1.5125467075504577
1785409460.929492,-0.0839843675494194,-0.01220703125,0.9824218153953552,0.9860806300548246,0.00762939453125,-0.67901611328125,-0.6427764892578125,0.9350308577256087
1785409460.937489,-0.08544921875,0.0024414025247097015,0.9882811903953552,0.9919713910796689,-0.1163482666015625,-0.4367828369140625,-0.7648468017578125,0.8884293983896747
1785409460.945486,-0.08984375,0.011230465024709702,0.9877929091453552,0.9919338960417563,0.0667572021484375,-0.2536773681640625,-0.2155303955078125,0.339502698877471
1785409460.961554,-0.09033203125,-0.0024414099752902985,0.9916991591453552,0.9958077417865474,-0.05340576171875,-0.37384033203125,-0.2765655517578125,0.46807827727539164
1785409460.969624,-0.0834960862994194,0.00830078125,0.9804686903953552,0.9840525149819309,-0.05340576171875,-0.67901611328125,0.3948211669921875,0.7872730221374337
1785409460.977694,-0.0732421800494194,0.00439453125,0.9814452528953552,0.9841841866612806,0.00762939453125,-0.37384033203125,0.6389617919921875,0.7403289627861497
1785409460.985764,-0.0883788987994194,-0.00634765625,0.9912108778953552,0.9951633669659203,0.0667572021484375,-0.2536773681640625,0.6389617919921875,0.6907104333823256
1785409460.996344,-0.0771484300494194,-0.00537109375,0.9809569716453552,0.9840006652064762,0.00762939453125,0.05340576171875,0.5168914794921875,0.5196991289364413
1785409461.006924,-0.0800781175494194,-0.01123046875,0.9951171278953552,0.9983970786061546,0.00762939453125,0.66375732421875,0.0286102294921875,0.6644174428373656
1785409461.017504,-0.0869140550494194,-0.0068359375,0.9897460341453552,0.9935783789480808,0.43487548828125,1.15203857421875,0.2727508544921875,1.2612305877285266
1785409461.02555,-0.0776367112994194,0.0087890625,0.9960936903953552,0.9991533148653694,0.4978179931640625,0.8449554443359375,-0.0324249267578125,0.9812358702707956
1785409461.033598,-0.0869140550494194,0.00927734375,0.9941405653953552,0.9979757441124437,0.31280517578125,0.90789794921875,0.0286102294921875,0.960699906017871
1785409461.041646,-0.0795898362994194,-0.005859375,0.9853515028953552,0.9885779982255797,0.12969970703125,0.66375732421875,0.3948211669921875,0.7831216721321788
1785409461.049694,-0.09765625,-3.725290298461914e-09,0.9887694716453552,0.9935802993326194,0.1926422119140625,0.0514984130859375,-0.0934600830078125,0.2202223773310506
1785409461.060665,-0.09326171875,0.0009765587747097015,0.9892577528953552,0.9936446062424997,0.25177001953125,0.48065185546875,0.3948211669921875,0.6710425491765711
1785409461.071636,-0.0844726487994194,-0.0126953125,0.9863280653953552,0.9900201270384389,-0.05340576171875,0.48065185546875,0.0286102294921875,0.48445528873355037
1785409461.082607,-0.0874023362994194,0.0087890625,0.9936522841453552,0.9975275824745437,0.0095367431640625,0.3566741943359375,-0.1544952392578125,0.3888138491986829
1785409461.093295,-0.0859375,0.0043945349752902985,0.9868163466453552,0.9905609864366681,0.12969970703125,0.05340576171875,0.2117156982421875,0.253964025544818
1785409461.103982,-0.0981445237994194,0.00390625,0.9877929091453552,0.992664312695244,-0.17547607421875,-0.06866455078125,0.0286102294921875,0.19059175844933787
1785409461.114669,-0.099609375,-0.009765621274709702,0.9853515028953552,0.9904216168909618,-0.05340576171875,0.23651123046875,0.3337860107421875,0.4125564670318304
1785409461.124955,-0.08154296875,-0.007812503725290298,0.9897460341453552,0.993130154145709,-0.05340576171875,0.23651123046875,0.8831024169921875,0.9157836078572522
1785409461.135243,-0.08984375,-0.013671878725290298,0.9858397841453552,0.9900196461109759,-0.23651123046875,0.17547607421875,0.8220672607421875,0.8732261997588198
1785409461.145531,-0.0834960862994194,-0.013671875,0.9916991591453552,0.9953018330350549,-0.5435943603515625,0.3566741943359375,1.0051727294921875,1.197114666866123
1785409461.156176,-0.0883788987994194,0.00634765625,0.9936522841453552,0.9975951003689563,-0.17547607421875,0.23651123046875,0.6999969482421875,0.7594242176211147
1785409461.166819,-0.07373046875,0.0053710900247097015,0.9838866591453552,0.9866600167607669,-0.23651123046875,0.48065185546875,0.6389617919921875,0.8338080953848205
1785409461.177462,-0.0942382737994194,-0.001953125,0.9809569716453552,0.9854751377714134,0.00762939453125,0.54168701171875,0.3948211669921875,0.6703482529482534
1785409461.185494,-0.1059570237994194,-0.00146484375,0.9853515028953552,0.9910331078817588,-0.2994537353515625,0.6008148193359375,0.2727508544921875,0.7245992101678674
1785409461.193525,-0.0908203125,0.0024414025247097015,0.9863280653953552,0.9905035801022778,-0.23651123046875,0.66375732421875,0.0896453857421875,0.71031517143923
1785409461.201556,-0.08544921875,-0.014160159975290298,0.9819335341453552,0.9857461867005617,0.06866455078125,0.66375732421875,-0.0934600830078125,0.6738125801021029
1785409461.209587,-0.08984375,-0.0048828087747097015,0.9848632216453552,0.9889647650878473,-0.17547607421875,0.54168701171875,0.0286102294921875,0.570118598643834
1785409461.220231,-0.0908203125,-0.0034179724752902985,0.9970702528953552,1.0012038258552787,-0.54168701171875,0.60272216796875,-0.2155303955078125,0.8385416995078381
1785409461.230875,-0.1044921800494194,-0.0107421875,0.9907225966453552,0.9962757016948073,-0.41961669921875,0.60272216796875,-0.5207061767578125,0.9002705751816658
1785409461.241519,-0.0917968675494194,0.00146484375,0.9809569716453552,0.9852438230604259,-0.4215240478515625,0.2346038818359375,-0.3376007080078125,0.5888087485228402
1785409461.249518,-0.0927734300494194,-0.00390625,0.9921874403953552,0.996522997722824,-0.41961669921875,-0.06866455078125,-0.5817413330078125,0.7205664253397714
1785409461.257518,-0.09033203125,0.0048828087747097015,0.9858397841453552,0.9899817158387533,-0.17547607421875,-0.06866455078125,-0.8869171142578125,0.9067130972477572
1785409461.265518,-0.095703125,-0.0024414099752902985,0.9975585341453552,1.0021417452953763,0.00762939453125,0.17547607421875,-0.4596710205078125,0.49208485790443857
1785409461.273518,-0.0903320237994194,-0.00146484375,0.9877929091453552,0.9919157482612899,0.06866455078125,-0.37384033203125,-0.3376007080078125,0.5083755033777714
1785409461.284187,-0.0966796800494194,0.001953125,0.9721679091453552,0.9769653109521215,0.00762939453125,-0.43487548828125,-0.0934600830078125,0.4448704138112539
1785409461.294856,-0.1005859375,0.0073242150247097015,0.9873046278953552,0.99244224175116,-0.05340576171875,-0.55694580078125,-0.1544952392578125,0.5804391263052108
1785409461.305525,-0.095703125,-0.0024414099752902985,0.9765624403953552,0.9812437253854747,0.00762939453125,-0.55694580078125,-0.0324249267578125,0.5579410439679364
1785409461.313573,-0.0947265625,0.0019531212747097015,0.9936522841453552,0.998159204793034,0.1926422119140625,-0.4367828369140625,0.0286102294921875,0.47823510292055593
1785409461.321623,-0.09130859375,0.0087890625,0.9916991591453552,0.9959325926797636,0.31280517578125,-0.67901611328125,0.1506805419921875,0.7626366014204756
1785409461.329673,-0.0927734300494194,0.00732421875,1.00537109375,1.009669049565997,0.5550384521484375,-0.7991790771484375,-0.1544952392578125,0.9852023445305489
1785409461.337723,-0.0791015625,-0.013183597475290298,0.9853515028953552,0.9886093509017944,0.3719329833984375,-0.9822845458984375,0.0896453857421875,1.054160029803553
1785409461.348313,-0.0883788987994194,-0.00244140625,0.9794921278953552,0.983474259361396,0.19073486328125,-0.67901611328125,-0.2765655517578125,0.7575824539847763
1785409461.358903,-0.0776367112994194,0.0009765625,0.9975585341453552,1.0005755551990743,0.61798095703125,-0.67901611328125,-0.2155303955078125,0.943088912423738
1785409461.369493,-0.07568359375,0.0019531212747097015,0.9897460341453552,0.9926374127303924,0.3719329833984375,-0.0057220458984375,-0.1544952392578125,0.4027848866358505
1785409461.377508,-0.07958984375,-3.725290298461914e-09,0.9887694716453552,0.9919675454801857,0.19073486328125,-0.37384033203125,-0.3986358642578125,0.5788323886901332
1785409461.385523,-0.0859375,0.0048828087747097015,0.9785155653953552,0.9822941552553248,0.00762939453125,-0.31280517578125,-0.3376007080078125,0.46030372983914486
1785409461.393538,-0.08642578125,0.0043945349752902985,0.9892577528953552,0.9930355629411716,0.12969970703125,-0.19073486328125,-0.4596710205078125,0.5142949048645173
1785409461.40958,-0.08056640625,-0.010253902524709702,0.9868163466453552,0.9901528116101637,-0.11444091796875,0.11444091796875,-0.5207061767578125,0.5452782500015919
1785409461.417609,-0.080078125,-0.0024414099752902985,0.9824218153953552,0.9856830575549569,-0.2994537353515625,-0.1316070556640625,-0.5817413330078125,0.6673948870393553
1785409461.425638,-0.0908203125,0.012695308774709702,0.9848632216453552,0.9891233822820846,0.00762939453125,-0.00762939453125,-0.8258819580078125,0.8259524343959797
1785409461.433667,-0.0795898362994194,0.0078125,0.9790038466453552,0.982264785556736,0.00762939453125,-0.19073486328125,-0.8869171142578125,0.9072265225924759
1785409461.444333,-0.0878906175494194,0.00341796875,0.9931640028953552,0.9970512423194303,-0.17547607421875,-0.12969970703125,-0.9479522705078125,0.9727421928692789
1785409461.454999,-0.0888671800494194,-0.00830078125,0.9892577528953552,0.9932759839656167,-0.41961669921875,0.29754638671875,-0.6427764892578125,0.8232700903441237
1785409461.465665,-0.0927734300494194,-0.0029296875,0.9941405653953552,0.9984642988893387,-0.05340576171875,0.60272216796875,-0.6427764892578125,0.8827727919959409
1785409461.476279,-0.08544921875,-0.0034179724752902985,0.9892577528953552,0.9929472056380414,-0.1163482666015625,0.2346038818359375,-0.5207061767578125,0.5828471695285283
1785409461.486892,-0.0961913913488388,0.0009765587747097015,0.9873046278953552,0.9919799220247614,-0.23651123046875,0.11444091796875,-0.2765655517578125,0.3814744949042801
1785409461.497505,-0.0922851487994194,-0.00439453125,0.9838866591453552,0.9882149658035172,0.00762939453125,0.41961669921875,-0.3376007080078125,0.5386191789859777
1785409461.505518,-0.0849609375,-0.0039062537252902985,0.9746093153953552,0.9783133124794164,-0.05340576171875,0.23651123046875,-0.3376007080078125,0.41564886090302033
1785409461.513531,-0.0883788987994194,-0.0107421875,0.9887694716453552,0.9927695061811267,0.0667572021484375,0.2346038818359375,-0.2765655517578125,0.36876009793669534
1785409461.521544,-0.0874023362994194,-0.00048828125,0.9873046278953552,0.991165896847123,-0.17547607421875,-0.00762939453125,-0.4596710205078125,0.49208485790443857
1785409461.529557,-0.0966796800494194,-0.001953125,0.9833983778953552,0.9881412575532608,0.12969970703125,0.11444091796875,-0.4596710205078125,0.49113764344042704
1785409461.540215,-0.08935546875,0.0063476525247097015,0.9931640028953552,0.9971957827504245,0.0667572021484375,-0.2536773681640625,-0.4596710205078125,0.529250581721009
1785409461.550873,-0.07470703125,-0.0043945349752902985,0.9887694716453552,0.9915974589084385,0.2498626708984375,0.0514984130859375,-0.3986358642578125,0.47328003669227786
1785409461.561531,-0.0820312425494194,0.0029296875,0.9916991591453552,0.995090413014141,-0.23651123046875,-0.25177001953125,-0.5207061767578125,0.6248684880727675
1785409461.569571,-0.0908203125,0.010253902524709702,0.9829100966453552,0.9871503075859144,0.12969970703125,0.11444091796875,-0.2155303955078125,0.27635500555856835
1785409461.577609,-0.0820312350988388,0.015136715024709702,0.9912108778953552,0.9947146566386066,0.06866455078125,-0.49591064453125,-0.2155303955078125,0.5450647110950633
1785409461.585647,-0.0859375,-3.725290298461914e-09,0.9941405653953552,0.9978480433767691,0.00762939453125,-0.25177001953125,-0.1544952392578125,0.2954913354888908
1785409461.593685,-0.0991210862994194,-0.001953125,0.9956054091453552,1.000529327489171,-0.05340576171875,-0.31280517578125,-0.1544952392578125,0.35294196737371336
1785409461.604285,-0.07568359375,0.0029296837747097015,0.9907225966453552,0.9936135329763026,-0.05340576171875,-0.25177001953125,0.0896453857421875,0.2725373613000454
1785409461.614885,-0.08935546875,-0.0039062537252902985,0.9746093153953552,0.9787047441742078,-0.05340576171875,-0.31280517578125,0.2117156982421875,0.3814744949042801
1785409461.625485,-0.0795898362994194,-0.00048828125,0.9794921278953552,0.9827205142204565,-0.05340576171875,-0.25177001953125,0.4558563232421875,0.5234933672544587
1785409461.636162,-0.0844726487994194,-0.00146484375,0.9877929091453552,0.9913993168851015,0.00762939453125,-0.06866455078125,0.3948211669921875,0.400820136844417
1785409461.646841,-0.0971679612994194,0.0107421875,0.9897460341453552,0.9945623255491982,0.06866455078125,0.29754638671875,0.2727508544921875,0.4094407178207771
1785409461.65752,-0.0825195237994194,-0.0068359375,0.9814452528953552,0.9849319703819216,-0.05340576171875,0.11444091796875,0.0896453857421875,0.15487154120481808
1785409461.665519,-0.0849609375,0.012207027524709702,0.9965819716453552,1.0002714624692697,-0.17547607421875,0.54168701171875,-0.0324249267578125,0.5703227570098032
1785409461.673521,-0.087890625,-3.725290298461914e-09,0.9863280653953552,0.9902362417875014,-0.23651123046875,0.90789794921875,-0.5207061767578125,1.073010331193131
1785409461.681523,-0.0771484300494194,0.005859375,0.9912108778953552,0.9942259386037771,0.00762939453125,0.90789794921875,-0.7038116455078125,1.1487766215452595
1785409461.689525,-0.07568359375,0.008789066225290298,0.9907225966453552,0.9936480853661133,0.0667572021484375,0.8449554443359375,-0.7038116455078125,1.1017064306356952
1785409461.700186,-0.0742187425494194,0.0078125,0.9916991591453552,0.9945032323484281,-0.17547607421875,0.72479248046875,-1.0089874267578125,1.2546599617914886
1785409461.710847,-0.0908203125,-0.0019531287252902985,0.9965819716453552,1.0007136304073003,-0.2994537353515625,-0.0057220458984375,-0.7038116455078125,0.7648896088833226
1785409461.721508,-0.0830078050494194,-0.00634765625,0.9936522841453552,0.9971336170374923,-0.41961669921875,-0.19073486328125,-0.7038116455078125,0.8413137314263751
1785409461.7295,-0.0825195237994194,0.00390625,0.9858397841453552,0.9892951079434822,-0.48065185546875,-0.37384033203125,-0.5817413330078125,0.8421435617212151
1785409461.737492,-0.0888671800494194,0.001953125,0.9853515028953552,0.989352704875939,-0.48065185546875,-0.19073486328125,-0.6427764892578125,0.8249652170722521
1785409461.745484,-0.1005859300494194,0.00341796875,0.9897460341453552,0.9948499504652656,-0.48065185546875,-0.49591064453125,-0.7648468017578125,1.0305067703242452
1785409461.753476,-0.0800781175494194,-0.01611328125,0.9907225966453552,0.9940842048069245,-0.23651123046875,-0.37384033203125,-0.5207061767578125,0.6832489140165652
1785409461.764201,-0.0942382737994194,0.00244140625,0.9970702528953552,1.001516800618931,-0.05340576171875,-0.67901611328125,-0.2155303955078125,0.714400734089831
1785409461.774926,-0.0942382737994194,-0.0009765625,0.9853515028953552,0.9898481652158304,-0.17547607421875,-0.31280517578125,-0.3986358642578125,0.5362364057869776
1785409461.785651,-0.08154296875,-0.015136715024709702,0.9833983778953552,0.9868894292379053,-0.23651123046875,-0.37384033203125,-0.2155303955078125,0.49208485790443857
1785409461.794185,-0.0908203125,0.012695308774709702,0.9931640028953552,0.9973887089167432,0.06866455078125,-0.55694580078125,0.0896453857421875,0.5682778728111136
1785409461.802722,-0.076171875,0.0068359337747097015,0.9951171278953552,0.9980515932366867,0.00762939453125,-0.67901611328125,0.2117156982421875,0.7112978466427871
1785409461.811259,-0.0839843675494194,0.01416015625,0.9882811903953552,0.9919443509123688,0.19073486328125,-0.74005126953125,0.3337860107421875,0.8339477025407023
1785409461.819796,-0.07958984375,0.0014648400247097015,0.9853515028953552,0.9885617194907876,0.25177001953125,-0.31280517578125,0.2727508544921875,0.4854155429696531
1785409461.829697,-0.076171875,0.0024414025247097015,0.9838866591453552,0.9868338629331239,0.0667572021484375,-0.2536773681640625,0.2117156982421875,0.3370938564250462
1785409461.839598,-0.0791015625,0.0009765587747097015,0.9809569716453552,0.984141550325261,-0.05340576171875,-0.19073486328125,0.3948211669921875,0.44171904799402734
1785409461.849499,-0.0937499925494194,0.0087890625,0.9868163466453552,0.991298547728751,-0.05340576171875,0.05340576171875,0.0896453857421875,0.11722050142524301
1785409461.857611,-0.07373046875,0.0009765587747097015,0.9882811903953552,0.9910281766823764,-0.2994537353515625,0.4177093505859375,0.1506805419921875,0.5355915112452667
1785409461.865723,-0.0712890625,0.0024414025247097015,0.9799804091453552,0.9825729963657226,-0.23651123046875,-0.00762939453125,0.0286102294921875,0.23835753613081187
1785409461.873835,-0.0830078050494194,-0.00244140625,0.9936522841453552,0.9971164014050123,-0.4215240478515625,0.5397796630859375,-0.0324249267578125,0.6856354596092475
1785409461.881947,-0.0859375,-0.0024414099752902985,1.00146484375,1.0051482714784568,-0.35858154296875,0.72479248046875,-0.3376007080078125,0.8762871109112979
1785409461.892565,-0.0986328050494194,-0.00341796875,0.9887694716453552,0.9936826358551948,-0.41961669921875,0.11444091796875,-0.0324249267578125,0.43614937102329815
1785409461.903183,-0.0834960862994194,0.01318359375,0.9809569716453552,0.9845922931808431,-0.23651123046875,-0.06866455078125,0.0286102294921875,0.2479333134200176
1785409461.913801,-0.08984375,0.00048827752470970154,0.9848632216453552,0.9889528316247806,-0.41961669921875,-0.00762939453125,0.2117156982421875,0.4700637390889978
1785409461.92176,-0.09375,0.0063476525247097015,0.9995116591453552,1.0039187775712113,-0.35858154296875,0.11444091796875,-0.0324249267578125,0.3777946830470609
1785409461.929722,-0.0683593675494194,-0.01318359375,0.9975585341453552,0.9999849195473657,-0.2994537353515625,0.3566741943359375,-0.1544952392578125,0.49067076484596317
1785409461.937684,-0.0791015550494194,0.001953125,0.9804686903953552,0.9836563035705534,-0.17547607421875,0.78582763671875,-0.2765655517578125,0.8513550561741577
1785409461.945646,-0.0961913913488388,0.009765621274709702,0.9829100966453552,0.987653992659316,-0.35858154296875,0.78582763671875,-0.3986358642578125,0.951323472779579
1785409461.956253,-0.0961913987994194,-0.01025390625,1.0029296875,1.0075841830165955,-0.17547607421875,0.48065185546875,-0.3376007080078125,0.6130190020188222
1785409461.96686,-0.0781249925494194,-0.0205078125,1.00048828125,1.0037434362191173,-0.2384185791015625,0.7228851318359375,-0.0324249267578125,0.761877751719735
1785409461.977467,-0.08984375,-0.0034179724752902985,0.9975585341453552,1.0016020222604056,0.43487548828125,0.23651123046875,-0.0934600830078125,0.5037747905180697
1785409461.988232,-0.08544921875,-0.0009765587747097015,0.9892577528953552,0.992941803085958,0.06866455078125,0.17547607421875,-0.0324249267578125,0.19120159265148556
1785409461.998999,-0.0893554612994194,-0.01123046875,0.9858397841453552,0.9899447468905208,-0.17547607421875,-0.25177001953125,-0.0934600830078125,0.32080333924979254
1785409462.009766,-0.08056640625,-0.0029296912252902985,0.9873046278953552,0.990590711227549,-0.35858154296875,0.05340576171875,0.1506805419921875,0.392603520205396
1785409462.017713,-0.09326171875,0.015136715024709702,0.9833983778953552,0.9879267371486407,-0.66375732421875,0.05340576171875,-0.0324249267578125,0.6666913354124562
1785409462.025663,-0.0830078050494194,0.00146484375,0.9833983778953552,0.9868965554269354,-0.35858154296875,-0.00762939453125,0.0896453857421875,0.36969612630325
1785409462.033613,-0.0810546875,0.0073242150247097015,0.9897460341453552,0.993086460786728,0.0095367431640625,-0.1316070556640625,0.3337860107421875,0.35892125534429503
1785409462.041563,-0.09521484375,-0.0048828087747097015,0.9819335341453552,0.9865511511173938,-0.35858154296875,-0.31280517578125,0.3337860107421875,0.5812408295367523
1785409462.052435,-0.0781249925494194,0.00390625,0.9965819716453552,0.9996471374732451,-0.48065185546875,-0.19073486328125,0.1506805419921875,0.5386191789859777
1785409462.063307,-0.076171875,0.0019531212747097015,0.9907225966453552,0.9936484452397862,-0.35858154296875,-0.06866455078125,-0.0324249267578125,0.3665336537987881
1785409462.074179,-0.08935546875,-0.013183597475290298,0.9848632216453552,0.988996345993043,-0.35858154296875,-0.12969970703125,-0.0324249267578125,0.38269323594374005
1785409462.084674,-0.0874023362994194,-0.0068359375,0.9882811903953552,0.9921620884318051,-0.2384185791015625,0.0514984130859375,0.0896453857421875,0.25986881420448177
1785409462.09517,-0.08984375,-0.0053710900247097015,0.9863280653953552,0.9904260702387938,0.0667572021484375,0.0514984130859375,-0.1544952392578125,0.17600394751932677
1785409462.105666,-0.08056640625,0.0009765587747097015,0.9902343153953552,0.9935068690600928,-0.11444091796875,0.29754638671875,-0.0324249267578125,0.3204402468950547
1785409462.116275,-0.08544921875,-0.008789066225290298,0.9877929091453552,0.9915208762441373,0.12969970703125,0.05340576171875,-0.3376007080078125,0.3655795774330512
1785409462.126883,-0.080078125,0.0058593712747097015,0.9877929091453552,0.9910507906727558,0.19073486328125,0.17547607421875,-0.2155303955078125,0.33708306406862903
1785409462.137491,-0.0825195237994194,0.00390625,0.9848632216453552,0.9883219596603191,0.25177001953125,0.29754638671875,-0.1544952392578125,0.4192741035855645
1785409462.145509,-0.0878906175494194,0.01708984375,0.9853515028953552,0.9894111418772041,0.06866455078125,0.11444091796875,-0.3376007080078125,0.3630231153616768
1785409462.153528,-0.09130859375,-0.00048827752470970154,0.9990233778953552,1.0031875234914902,0.00762939453125,0.48065185546875,-0.4596710205078125,0.6651179300854544
1785409462.161547,-0.080078125,-0.0053710900247097015,0.9824218153953552,0.9856946677730759,0.3719329833984375,0.1125335693359375,-0.6427764892578125,0.751105560829999
1785409462.177552,-0.0830078050494194,0.00244140625,0.9838866591453552,0.987385038476788,-0.1163482666015625,0.0514984130859375,-0.5207061767578125,0.5360260517972018
1785409462.185541,-0.0810546875,-0.00634765625,0.9868163466453552,0.990159914918836,0.25177001953125,-0.00762939453125,-0.5817413330078125,0.6339316437324974
1785409462.19353,-0.0854492112994194,0.00341796875,0.9863280653953552,0.9900284353535573,0.0667572021484375,0.0514984130859375,-0.6427764892578125,0.6482825199954538
1785409462.201519,-0.0781249925494194,-0.0146484375,0.9970702528953552,1.0002335629196042,0.25177001953125,-0.06866455078125,-0.6427764892578125,0.6937323535855565
1785409462.212185,-0.0917968675494194,0.001953125,0.9980468153953552,1.0022614056771624,0.1926422119140625,-0.1316070556640625,-0.6427764892578125,0.683807761036905
1785409462.222851,-0.0874023362994194,0.005859375,0.9892577528953552,0.9931285930480277,-0.17547607421875,-0.12969970703125,-0.6427764892578125,0.6788044503167426
1785409462.233517,-0.0927734300494194,-0.001953125,0.9960936903953552,1.0004065993713944,-0.35858154296875,-0.06866455078125,-0.5817413330078125,0.686817677423599
1785409462.244187,-0.08837890625,0.00048827752470970154,0.9921874403953552,0.9961159502603971,0.06866455078125,-0.67901611328125,-0.3986358642578125,0.790372225538157
1785409462.254859,-0.0874023362994194,0.001953125,0.9960936903953552,0.999922808587393,0.0667572021484375,-0.2536773681640625,-0.2155303955078125,0.339502698877471
1785409462.265531,-0.109375,0.00048827752470970154,0.9843749403953552,0.990432810602668,-0.35858154296875,-0.67901611328125,-0.2765655517578125,0.8161691671905574
1785409462.273538,-0.0751953125,0.0058593712747097015,0.9936522841453552,0.9965106768324107,-0.1163482666015625,-0.4940032958984375,-0.1544952392578125,0.5305138588699038
1785409462.281543,-0.0922851487994194,-0.00927734375,0.9892577528953552,0.9935962557596291,0.00762939453125,-0.55694580078125,-0.3986358642578125,0.6849506441644934
1785409462.289548,-0.076171875,-0.013183597475290298,0.9975585341453552,1.0005493445251143,-0.0553131103515625,-0.6198883056640625,-0.0934600830078125,0.629329674170584
1785409462.297553,-0.08154296875,-0.0043945349752902985,0.9843749403953552,0.9877563419024814,-0.23651123046875,-0.55694580078125,-0.0934600830078125,0.6122589111328125
1785409462.308213,-0.0893554612994194,-0.01171875,0.9780272841453552,0.9821706043749904,0.06866455078125,-0.55694580078125,-0.1544952392578125,0.5820414285041808
1785409462.318873,-0.0830078050494194,0.01416015625,0.9848632216453552,0.9884565600337806,-0.23651123046875,-0.74005126953125,-0.0934600830078125,0.7825268243252012
1785409462.329533,-0.080078125,0.0014648400247097015,0.9912108778953552,0.9944413790253774,-0.1163482666015625,-0.7419586181640625,-0.4596710205078125,0.8805322011737033
1785409462.34019,-0.0937499925494194,-0.0029296875,1.00390625,1.008278435235489,0.25177001953125,-0.37384033203125,-0.2155303955078125,0.49959792631250516
1785409462.350845,-0.08544921875,0.00048827752470970154,0.9907225966453552,0.994400860268957,0.19073486328125,-0.37384033203125,-0.2765655517578125,0.5026180322503916
1785409462.3615,-0.07763671875,-3.725290298461914e-09,1.0068359375,1.009824769521807,0.37384033203125,-0.19073486328125,-0.3986358642578125,0.5788323886901332
1785409462.369518,-0.0786132737994194,-0.0068359375,0.9877929091453552,0.9909397601352014,-0.05340576171875,-0.25177001953125,-0.3986358642578125,0.47450065373200384
1785409462.377539,-0.0820312425494194,-0.0029296875,0.9941405653953552,0.9975235193155326,0.00762939453125,-0.25177001953125,-0.1544952392578125,0.2954913354888908
1785409462.38556,-0.07958984375,-0.012695316225290298,0.9848632216453552,0.9881554936506084,-0.1163482666015625,-0.2536773681640625,-0.2155303955078125,0.3526222875083021
1785409462.393581,-0.07568359375,0.0014648400247097015,0.9804686903953552,0.9833864982624054,-0.1163482666015625,-0.2536773681640625,-0.3376007080078125,0.43802210481573856
1785409462.401571,-0.0908203125,0.012207027524709702,0.9799804091453552,0.9842555272856153,0.25177001953125,-0.00762939453125,0.2727508544921875,0.37126726090768886
1785409462.409561,-0.0839843675494194,0.00439453125,0.9863280653953552,0.989906934253987,-0.17547607421875,-0.00762939453125,-0.0934600830078125,0.19895941143852666
1785409462.417551,-0.0776367112994194,0.00048828125,0.9804686903953552,0.9835377726379152,0.12969970703125,-0.06866455078125,-0.1544952392578125,0.2130859298295213
1785409462.425541,-0.080078125,-0.014648433774709702,0.9848632216453552,0.9882219629542929,0.06866455078125,-0.00762939453125,0.3948211669921875,0.400820136844417
1785409462.436275,-0.0878906175494194,-0.0029296875,0.9858397841453552,0.9897542238989568,-0.05340576171875,0.23651123046875,0.2117156982421875,0.3218901589126003
1785409462.447009,-0.0781249925494194,-0.00830078125,0.9882811903953552,0.9913990764164891,-0.05340576171875,0.05340576171875,0.3948211669921875,0.40198022920859255
1785409462.457743,-0.07958984375,0.0063476525247097015,0.9965819716453552,0.9997752057984172,0.12969970703125,0.11444091796875,0.4558563232421875,0.4875692003699659
1785409462.468328,-0.0888671800494194,-0.00146484375,0.9921874403953552,0.9961603477028356,-0.1163482666015625,0.1773834228515625,0.1506805419921875,0.2602045802417472
1785409462.478912,-0.0869140475988388,0.0048828087747097015,0.9941405653953552,0.9979445662240665,-0.23651123046875,0.17547607421875,0.3948211669921875,0.4925577820582467
1785409462.489496,-0.0810546875,-0.014160159975290298,0.9907225966453552,0.9941336107384982,0.12969970703125,0.17547607421875,0.4558563232421875,0.5053898040790911
1785409462.500189,-0.0810546875,-0.0043945349752902985,0.9897460341453552,0.9930691750375854,0.06866455078125,0.29754638671875,0.1506805419921875,0.34051916028093654
1785409462.510883,-0.0742187425494194,-0.0048828125,0.9897460341453552,0.9925368888409064,0.00762939453125,0.17547607421875,0.3337860107421875,0.3771778907244186
1785409462.521577,-0.0971679612994194,0.00830078125,0.9868163466453552,0.9916234253379312,-0.17547607421875,-0.12969970703125,0.2117156982421875,0.30403520110242716
1785409462.529588,-0.08642578125,-0.0029296912252902985,0.9819335341453552,0.9857339723447376,-0.278472900390625,0.301361083984375,0.3490447998046875,0.5387002241162508
1785409462.5376,-0.09765625,0.0048828087747097015,0.9907225966453552,0.995535960419968,-0.3376007080078125,0.1163482666015625,0.4100799560546875,0.5437616458949445
1785409462.545612,-0.09375,-0.0043945349752902985,0.9965819716453552,1.0009915087782677,-0.2155303955078125,0.4215240478515625,0.6542205810546875,0.8075521301937438
1785409462.553624,-0.0830078050494194,0.00634765625,0.9877929091453552,0.9912948198174116,-0.461578369140625,0.301361083984375,0.7724761962890625,0.9489955572245714
1785409462.56426,-0.08544921875,-0.0073242224752902985,0.9829100966453552,0.9866445516533472,-0.1544952392578125,0.2384185791015625,0.3490447998046875,0.4500494084929244
1785409462.574896,-0.0986328050494194,-0.01123046875,0.9799804091453552,0.9849955106339111,0.026702880859375,0.48065185546875,0.5321502685546875,0.7175814645979703
1785409462.585532,-0.0908203125,-0.0058593712747097015,0.9804686903953552,0.984683458904391,-0.278472900390625,0.35858154296875,0.7152557373046875,0.8471827718722145
1785409462.596218,-0.08984375,0.0058593712747097015,0.9843749403953552,0.9884838162176235,-0.1544952392578125,0.2994537353515625,0.3490447998046875,0.48515316224881677
1785409462.606907,-0.0991210862994194,-0.00244140625,0.9765624403953552,0.9815829818230276,-0.461578369140625,0.118255615234375,0.5893707275390625,0.7578897254039689
1785409462.617596,-0.0971679612994194,-0.0234375,0.9868163466453552,0.99186563158314,-0.3376007080078125,-0.0667572021484375,0.6542205810546875,0.7392126424524925
1785409462.625582,-0.0947265550494194,0.0078125,0.9985350966453552,1.0030486003281842,-0.3986358642578125,-0.1277923583984375,0.5321502685546875,0.6770711539125218
1785409462.633568,-0.08642578125,-0.0034179724752902985,0.9843749403953552,0.988167557390382,-0.400543212890625,-0.67901611328125,0.8983612060546875,1.195219897772938
1785409462.641554,-0.076171875,0.015136715024709702,0.9956054091453552,0.9986297639276756,-0.1544952392578125,-0.3719329833984375,0.8373260498046875,0.9291489852410716
1785409462.64954,-0.07666015625,-0.0053710900247097015,0.9941405653953552,0.9971063593864621,-0.152587890625,-0.31280517578125,0.8373260498046875,0.9067772913138307
1785409462.658063,-0.0737304612994194,0.00390625,0.9975585341453552,1.000287193139409,-0.1544952392578125,-0.2498626708984375,0.7724761962890625,0.8264500027799915
1785409462.666586,-0.076171875,-0.0039062537252902985,0.9970702528953552,0.9999832511437327,-0.0934600830078125,-0.4329681396484375,0.5321502685546875,0.6923728080949468
1785409462.675109,-0.0825195237994194,-0.013671875,0.9882811903953552,0.9918145508427263,-0.278472900390625,-0.67901611328125,0.8983612060546875,1.160027109550279
1785409462.683632,-0.0932617112994194,-0.0234375,0.9868163466453552,0.9914905774676994,-0.278472900390625,-0.61798095703125,0.9593963623046875,1.1746867665504255
1785409462.693915,-0.0732421800494194,-0.00830078125,0.9853515028953552,0.9881047030380369,-0.0934600830078125,-0.6160736083984375,0.5321502685546875,0.819429915492304
1785409462.704198,-0.08447265625,0.00048827752470970154,0.9907225966453552,0.994317419928157,-0.2155303955078125,-0.0667572021484375,0.5321502685546875,0.5780084633889606
1785409462.714481,-0.0781249925494194,-0.0029296875,0.9931640028953552,0.9962363344994096,-0.644683837890625,-0.370025634765625,0.5321502685546875,0.9141772965589965
1785409462.724834,-0.0966796800494194,-0.001953125,0.9863280653953552,0.991056924610422,-0.2765655517578125,-0.3719329833984375,0.5893707275390625,0.7497869717717757
1785409462.735188,-0.0693359300494194,0.00244140625,0.9873046278953552,0.9897392888654473,-0.0324249267578125,-0.0057220458984375,0.7724761962890625,0.7731775937763145
1785409462.745542,-0.07470703125,-0.012695316225290298,0.9853515028953552,0.9882610463993731,-0.2155303955078125,-0.0057220458984375,0.6542205810546875,0.6888328257803564
1785409462.756194,-0.0751953125,0.0068359337747097015,0.9941405653953552,0.9970037757085685,-0.2155303955078125,0.6046295166015625,0.4711151123046875,0.7962283923444652
1785409462.766847,-0.0732421875,0.00048827752470970154,0.9907225966453552,0.9934263535604647,-0.0324249267578125,1.0929107666015625,0.1010894775390625,1.0980548265446426
1785409462.7775,-0.07177734375,-0.012695316225290298,0.9921874403953552,0.9948613345628387,-0.3376007080078125,1.2760162353515625,0.0438690185546875,1.320649901267214
1785409462.788168,-0.0849609375,-0.0029296912252902985,0.9882811903953552,0.9919307714154324,-0.3376007080078125,1.2149810791015625,-0.2040863037109375,1.277421026907169
1785409462.798834,-0.0976562425494194,0.00341796875,0.9819335341453552,0.9867836083450284,0.026702880859375,0.96893310546875,-0.5054473876953125,1.0931703748490083
1785409462.8095,-0.08349609375,0.0009765587747097015,0.9804686903953552,0.9840179897665144,-0.461578369140625,0.84686279296875,-0.6275177001953125,1.1506561801997002
1785409462.817511,-0.0844726487994194,0.0029296875,0.9814452528953552,0.9850781674034125,-0.3376007080078125,0.2994537353515625,-0.6923675537109375,0.8264500027799915
1785409462.825522,-0.0908203125,-0.0019531287252902985,0.9843749403953552,0.9885576195411041,-0.5207061767578125,-0.1277923583984375,-0.9937286376953125,1.1291423359145447
1785409462.833533,-0.0976562425494194,-0.01025390625,0.9809569716453552,0.9858592518822761,-0.400543212890625,-0.00762939453125,-0.9937286376953125,1.0714428022201836
1785409462.841544,-0.095703125,-0.0043945349752902985,0.9873046278953552,0.991941948067527,-0.583648681640625,0.17547607421875,-0.6923675537109375,0.922393877709372
1785409462.852188,-0.0986328125,-0.0039062537252902985,0.9951171278953552,1.0000008943748637,-0.3986358642578125,0.1773834228515625,-0.7495880126953125,0.8673278617406553
1785409462.862832,-0.1025390550494194,-0.00634765625,0.9833983778953552,0.9887501808836809,-0.152587890625,-0.19073486328125,-0.5054473876953125,0.5613732396225524
1785409462.873476,-0.0820312425494194,-0.01220703125,0.9912108778953552,0.9946743893477005,-0.095367431640625,-0.19073486328125,-0.3871917724609375,0.4420319035432723
1785409462.884157,-0.0849609300494194,-0.01708984375,0.9985350966453552,1.0022887615985778,0.2117156982421875,-0.2498626708984375,-0.2613067626953125,0.4189703037459603
1785409462.894838,-0.095703125,-0.012207034975290298,0.9833983778953552,0.9881196635452962,0.026702880859375,-0.00762939453125,-0.1392364501953125,0.14197901454121725
1785409462.905519,-0.0834960862994194,-0.009765625,0.9941405653953552,0.9976885423936456,0.2727508544921875,-0.3719329833984375,-0.1392364501953125,0.4817820688121057
1785409462.913551,-0.07666015625,0.0043945349752902985,0.9951171278953552,0.9980752425166272,0.3337860107421875,-0.3719329833984375,0.0438690185546875,0.501668950500026
1785409462.921582,-0.0908203125,0.0009765587747097015,0.9926757216453552,0.9968221361776457,0.514984130859375,-0.61798095703125,-0.0171661376953125,0.8046140656076178
1785409462.929613,-0.0654296875,0.0009765587747097015,0.9868163466453552,0.9889835689635466,0.3337860107421875,-0.3719329833984375,-0.0782012939453125,0.5058287135795746
1785409462.937644,-0.0825195237994194,-0.0126953125,0.9980468153953552,1.0015328693998844,0.3948211669921875,-0.2498626708984375,-0.2613067626953125,0.5353469271826243
1785409462.948253,-0.07470703125,0.0019531212747097015,0.9794921278953552,0.9823389353017995,0.6389617919921875,-0.1277923583984375,-0.5702972412109375,0.865934178690106
1785409462.958862,-0.08154296875,-0.0068359375,0.9794921278953552,0.9829042753000102,0.3337860107421875,0.0553131103515625,-0.6275177001953125,0.712917320032528
1785409462.969471,-0.0927734300494194,-0.00146484375,0.9790038466453552,0.9833908616805164,0.0286102294921875,0.2384185791015625,-0.5702972412109375,0.6187898734022801
1785409462.980147,-0.08642578125,0.0029296875,0.9926757216453552,0.9964351896022376,-0.030517578125,-0.19073486328125,-0.5054473876953125,0.5410990411870531
1785409462.990823,-0.08544921875,0.0068359337747097015,1.00390625,1.0075594561933405,0.209808349609375,-0.19073486328125,-0.5054473876953125,0.5795484391875647
1785409463.001499,-0.0991210862994194,-0.0068359375,0.9809569716453552,0.985975811067547,0.1506805419921875,-0.3108978271484375,-0.3223419189453125,0.4725107378356872
1785409463.009505,-0.0844726487994194,-0.00537109375,0.9897460341453552,0.9933587917513591,0.087738037109375,-0.49591064453125,-0.1392364501953125,0.5225056167910519
1785409463.017511,-0.09130859375,0.00390625,0.9873046278953552,0.9915255651496087,0.087738037109375,-0.49591064453125,-0.2613067626953125,0.5673680945783877
1785409463.025517,-0.0849609375,-0.008300784975290298,0.9951171278953552,0.9987719269997458,0.2117156982421875,0.2384185791015625,-0.1392364501953125,0.3479277867690029
1785409463.033523,-0.09521484375,-0.0224609412252903,0.9965819716453552,1.0013720520164353,0.209808349609375,0.17547607421875,-0.5054473876953125,0.5747072802018863
1785409463.044198,-0.09130859375,-0.0048828087747097015,0.9956054091453552,0.9997955950261148,-0.0324249267578125,-0.1277923583984375,-0.3223419189453125,0.34826222225448256
1785409463.054873,-0.0742187425494194,-0.017578125,0.9873046278953552,0.990246353433184,0.5168914794921875,-0.0667572021484375,-0.4444122314453125,0.6849347100771809
1785409463.065548,-0.0874023362994194,-0.00341796875,0.9907225966453552,0.9945763492083893,0.1506805419921875,-0.3719329833984375,0.0438690185546875,0.40368708260690395
1785409463.076205,-0.0869140550494194,-0.00048828125,0.9833983778953552,0.9872318172703555,0.4558563232421875,-0.0057220458984375,-0.0782012939453125,0.4625507232983975
1785409463.086863,-0.08154296875,0.0073242150247097015,0.9951171278953552,0.9984793428554205,0.3337860107421875,-0.3108978271484375,0.1659393310546875,0.4853930587510297
1785409463.097521,-0.08056640625,-3.725290298461914e-09,0.9804686903953552,0.9837732455508348,0.3337860107421875,-0.3108978271484375,0.2269744873046875,0.5094977701423522
1785409463.10817,-0.08984375,-0.0180664099752903,0.9833983778953552,0.9876591842486322,0.0896453857421875,-0.5550384521484375,0.1010894775390625,0.5712469352366975
1785409463.11882,-0.0888671800494194,-0.00634765625,0.9858397841453552,0.9898574384392758,0.0896453857421875,-0.3108978271484375,0.1659393310546875,0.3636339033992327
1785409463.12947,-0.07958984375,-0.0029296912252902985,0.9780272841453552,0.9812647424887763,0.0286102294921875,0.2384185791015625,0.4100799560546875,0.47521314633563966
1785409463.140175,-0.0795898362994194,-0.00732421875,0.9995116591453552,1.0027022204971758,0.026702880859375,-0.12969970703125,0.2269744873046875,0.2627783776063164
1785409463.150881,-0.0776367112994194,0.00244140625,0.9775390028953552,0.9806201719256606,0.026702880859375,0.118255615234375,0.5893707275390625,0.6017103031032246
1785409463.161587,-0.076171875,-0.0029296912252902985,0.9921874403953552,0.9951113779421767,-0.1544952392578125,0.1163482666015625,0.2269744873046875,0.2981997920551635
1785409463.16957,-0.080078125,0.009765621274709702,0.9907225966453552,0.994001577949508,0.026702880859375,0.301361083984375,0.4711151123046875,0.5598937361931153
1785409463.177554,-0.0927734300494194,-0.00439453125,0.9907225966453552,0.9950665730149701,-0.2155303955078125,0.2384185791015625,0.3490447998046875,0.47447765228644484
1785409463.185538,-0.07958984375,-3.725290298461914e-09,0.9921874403953552,0.9953745325787856,-0.152587890625,0.17547607421875,0.4711151123046875,0.5253802109239265
1785409463.193522,-0.0844726487994194,-0.01123046875,0.9765624403953552,0.9802734066649296,-0.461578369140625,0.301361083984375,0.4100799560546875,0.6870506998443209
1785409463.201514,-0.09521484375,-0.013671878725290298,0.9960936903953552,1.0007274488009479,-0.2765655517578125,0.2384185791015625,0.5893707275390625,0.6933179485343179
1785409463.209506,-0.08154296875,-0.0034179724752902985,0.9868163466453552,0.9901855585166304,-0.3376007080078125,0.4215240478515625,0.8373260498046875,0.9963792825255173
1785409463.217498,-0.0883788987994194,0.0087890625,0.9794921278953552,0.9835105012055528,-0.2155303955078125,0.1773834228515625,0.5893707275390625,0.6521319533424307
1785409463.22549,-0.0874023362994194,-0.0146484375,0.9843749403953552,0.9883560939206817,0.026702880859375,0.301361083984375,0.5321502685546875,0.6121400616764545
1785409463.236193,-0.0908203125,-0.007812503725290298,0.9882811903953552,0.9924762343080643,-0.1544952392578125,0.6046295166015625,0.6542205810546875,0.9041295261049165
1785409463.246896,-0.1035156175494194,-0.0078125,0.9829100966453552,0.9883768392269565,-0.3986358642578125,0.2994537353515625,1.3866424560546875,1.4735536613309854
1785409463.257599,-0.0898437425494194,0.00390625,0.9907225966453552,0.9947956676464087,-0.095367431640625,-0.00762939453125,1.5659332275390625,1.5688530931191575
1785409463.268223,-0.1010742038488388,-3.725290298461914e-09,0.9892577528953552,0.9944078118896916,-0.2155303955078125,0.0553131103515625,2.1190643310546875,2.1307150280393596
1785409463.278847,-0.0937499925494194,-0.00048828125,0.9912108778953552,0.99563462373487,-0.152587890625,-0.19073486328125,2.6073455810546875,2.6187618890387325
1785409463.289471,-0.0825195237994194,-0.00927734375,0.9956054091453552,0.9990623962669343,-0.2765655517578125,0.0553131103515625,2.9735565185546875,2.9869024780924707
1785409463.300163,-0.09521484375,-0.009765621274709702,0.9912108778953552,0.9958213887476502,-0.2155303955078125,0.2994537353515625,2.8514862060546875,2.8752564188823078
1785409463.310855,-0.0683593675494194,0.0087890625,0.9946288466453552,0.9970139383832379,-0.0324249267578125,0.5435943603515625,3.0956268310546875,3.14315950623365
1785409463.321547,-0.0771484300494194,0.00048828125,0.9941405653953552,0.997129671829229,-0.0324249267578125,0.5435943603515625,2.1800994873046875,2.2470825483340473
1785409463.329544,-0.0629882737994194,-0.01123046875,0.9999999403953552,1.0020446730836352,0.0896453857421875,0.6046295166015625,1.3256072998046875,1.4597423953650792
1785409463.337541,-0.06591796875,0.00048827752470970154,0.9907225966453552,0.9929132291005002,0.209808349609375,0.48065185546875,0.2841949462890625,0.5965002239962739
1785409463.345538,-0.06787109375,-3.725290298461914e-09,0.9897460341453552,0.992070409534162,-0.278472900390625,0.35858154296875,-0.6923675537109375,0.8279497017581952
1785409463.353535,-0.06494140625,0.0048828087747097015,0.9804686903953552,0.9826291675463541,0.2727508544921875,-0.0667572021484375,-1.1806488037109375,1.21358195041331
1785409463.364331,-0.0673828050494194,-0.00439453125,0.9975585341453552,0.9998413791034382,0.2727508544921875,-0.2498626708984375,-2.0923614501953125,2.1248060667265967
1785409463.375127,-0.0737304612994194,0.00439453125,0.9897460341453552,0.9924982140713358,0.514984130859375,-0.12969970703125,-2.4585723876953125,2.5152751051483033
1785409463.385923,-0.0776367112994194,-0.0078125,0.9892577528953552,0.9923302856212779,0.514984130859375,-0.67901611328125,-3.0689239501953125,3.1850534923631915
1785409463.394296,-0.08935546875,-0.0029296912252902985,0.9912108778953552,0.9952346393410393,0.5168914794921875,-0.5550384521484375,-3.2520294189453125,3.339302296381797
1785409463.402669,-0.1005859375,0.0068359337747097015,0.9921874403953552,0.9972964342118208,0.514984130859375,-0.49591064453125,-2.5234222412109375,2.6227458568901443
1785409463.411042,-0.0947265625,0.0014648400247097015,0.9873046278953552,0.9918395513705582,0.4558563232421875,-0.7381439208984375,-2.1533966064453125,2.321589623522941
1785409463.419415,-0.1010742112994194,-0.00732421875,0.9916991591453552,0.9968635125330358,0.3337860107421875,-0.7991790771484375,-1.6651153564453125,1.8768882355081806
1785409463.429434,-0.1079101487994194,-0.00244140625,0.9912108778953552,0.9970704915583808,0.4558563232421875,-0.9822845458984375,-1.1157989501953125,1.554893955807838
1785409463.439453,-0.0903320237994194,0.0185546875,0.9863280653953552,0.9906297005129947,0.1506805419921875,-0.4329681396484375,-0.3871917724609375,0.6000695829211231
1785409463.449472,-0.1015624925494194,-0.00146484375,0.9902343153953552,0.9954301005327147,0.0896453857421875,-0.5550384521484375,0.1010894775390625,0.5712469352366975
1785409463.460143,-0.0971679612994194,0.001953125,0.9936522841453552,0.9983938547425223,0.1506805419921875,-0.2498626708984375,0.4711151123046875,0.5541528932392382
1785409463.470815,-0.0986328050494194,-0.005859375,0.9887694716453552,0.9936940326705913,-0.2155303955078125,-0.3108978271484375,0.8373260498046875,0.9188175683969565
1785409463.481487,-0.0942382737994194,0.00927734375,0.9990233778953552,1.003501186315789,-0.3376007080078125,-0.2498626708984375,0.8983612060546875,0.9916947357427637
1785409463.489828,-0.0791015625,-0.014160159975290298,0.9829100966453552,0.9861895484174676,-0.1544952392578125,-0.4329681396484375,0.4711151123046875,0.6582398027662988
1785409463.498168,-0.08447265625,0.009765621274709702,0.9892577528953552,0.9929057853977785,-0.5207061767578125,-0.5550384521484375,0.8373260498046875,1.1315111663428663
1785409463.506508,-0.0961913987994194,-0.00048828125,0.9863280653953552,0.9910076065339317,-0.518798828125,-0.67901611328125,0.1659393310546875,0.8704889245420219
1785409463.514848,-0.0712890625,0.00048827752470970154,0.9916991591453552,0.9942583120581264,-0.3376007080078125,-0.7991790771484375,-0.3871917724609375,0.950041527545321
1785409463.525101,-0.0737304612994194,-0.00244140625,0.9902343153953552,0.992978419087953,-0.5207061767578125,-0.7991790771484375,-0.4444122314453125,1.052294802478739
1785409463.535354,-0.0600585900247097,-0.008789066225290298,0.9887694716453552,0.990630783884038,-0.8258819580078125,-0.9212493896484375,-0.9937286376953125,1.5869083312738068
1785409463.545607,-0.08447265625,-0.0034179724752902985,0.9926757216453552,0.9962692409855376,-0.278472900390625,-0.67901611328125,-1.1157989501953125,1.3355213722005739
1785409463.556236,-0.08056640625,0.010253902524709702,0.9892577528953552,0.9925860113847031,-0.7038116455078125,-0.3108978271484375,-1.0585784912109375,1.3086621845734137
1785409463.566865,-0.0791015550494194,-0.00634765625,0.9926757216453552,0.9958425764623801,-0.3376007080078125,-0.3108978271484375,-1.4209747314453125,1.4932517819775317
1785409463.577494,-0.0751953050494194,-0.0009765625,0.9936522841453552,0.9964939284125485,-0.3376007080078125,-0.5550384521484375,-0.8754730224609375,1.0901811475473233
1785409463.585647,-0.0849609375,0.0019531212747097015,0.9887694716453552,0.992414854605385,-0.5817413330078125,-0.1277923583984375,-0.5054473876953125,0.7811727895432334
1785409463.593799,-0.0917968675494194,-0.0068359375,0.9877929091453552,0.9920726920398694,-0.3986358642578125,0.2994537353515625,-0.3871917724609375,0.6312690080702672
1785409463.601951,-0.0688476487994194,-0.0078125,0.9868163466453552,0.9892459430838946,-0.2765655517578125,0.6046295166015625,0.0438690185546875,0.6663256317701532
1785409463.610103,-0.0893554612994194,-0.0107421875,0.9907225966453552,0.9948020187756116,-0.3376007080078125,0.5435943603515625,-0.0782012939453125,0.6446584436956688
1785409463.620618,-0.0898437425494194,-0.0107421875,0.9853515028953552,0.9894972849511547,-0.278472900390625,0.66375732421875,0.0438690185546875,0.7211417561720811
1785409463.631133,-0.07470703125,0.0014648400247097015,0.9809569716453552,0.983798692057533,-0.2155303955078125,0.5435943603515625,0.1010894775390625,0.5934368226381803
1785409463.641648,-0.0834960862994194,-0.0029296875,0.9814452528953552,0.9849949055335238,-0.3986358642578125,0.9098052978515625,-0.0171661376953125,0.9934540294118888
1785409463.652275,-0.06982421875,-0.0029296912252902985,0.9970702528953552,0.9995164299917891,-0.3986358642578125,1.0929107666015625,-0.1392364501953125,1.171644692340293
1785409463.662904,-0.07958984375,0.0053710900247097015,0.9863280653953552,0.9895486063972537,-0.095367431640625,0.84686279296875,-0.1392364501953125,0.8635150989968577
1785409463.673533,-0.09130859375,0.0029296837747097015,0.9907225966453552,0.994925678552593,-0.0324249267578125,0.6656646728515625,-0.4444122314453125,0.801038740646187
1785409463.681523,-0.09130859375,-0.007812503725290298,0.9897460341453552,0.9939796308846167,0.0896453857421875,0.4215240478515625,-0.2613067626953125,0.5039841687318525
1785409463.689514,-0.0791015550494194,0.0029296875,0.9892577528953552,0.992419538674875,-0.3376007080078125,0.3604888916015625,-0.4444122314453125,0.6644010163099552
1785409463.697505,-0.0810546875,-0.0024414099752902985,0.9931640028953552,0.9964690459294334,-0.0324249267578125,0.4825592041015625,-0.4444122314453125,0.6568234106642249
1785409463.705496,-0.0849609375,-0.00048827752470970154,1.001953125,1.005548936657528,-0.0324249267578125,0.2994537353515625,-0.3223419189453125,0.44116689381752067
1785409463.716175,-0.0854492112994194,-0.00146484375,0.9843749403953552,0.9880777989395693,-0.0324249267578125,0.4825592041015625,-0.2040863037109375,0.5249437881342878
1785409463.726854,-0.08447265625,-0.0229492224752903,0.9824218153953552,0.9863138039340504,-0.2155303955078125,0.4215240478515625,-0.4444122314453125,0.6493366659623669
1785409463.737533,-0.08935546875,-0.014160159975290298,0.9946288466453552,0.9987349260465099,0.0896453857421875,0.0553131103515625,-0.2040863037109375,0.22966726959674238
1785409463.748193,-0.0849609375,0.011230465024709702,0.9858397841453552,0.9895577619569819,-0.2155303955078125,-0.0057220458984375,-0.1392364501953125,0.25665712976656163
1785409463.758853,-0.07958984375,-0.0048828087747097015,0.9863280653953552,0.9895460765604722,-0.0324249267578125,0.2994537353515625,0.0438690185546875,0.30438200715581837
1785409463.769513,-0.0830078050494194,0.005859375,0.9838866591453552,0.9873994055187199,-0.0324249267578125,-0.1277923583984375,0.2269744873046875,0.2624874866112858
1785409463.780182,-0.0942382737994194,0.0029296875,0.9868163466453552,0.9913102124582536,-0.0934600830078125,0.0553131103515625,0.2269744873046875,0.2516182528748999
1785409463.790851,-0.07568359375,0.0058593712747097015,0.9829100966453552,0.9858370031004271,-0.2155303955078125,0.3604888916015625,0.2269744873046875,0.4774128299942335
1785409463.80152,-0.08642578125,-0.01171875,0.9985350966453552,1.0023368116550366,-0.3376007080078125,0.3604888916015625,0.1659393310546875,0.521020480025859
1785409463.809559,-0.0893554612994194,-0.005859375,0.9921874403953552,0.9962201802903358,-0.1544952392578125,0.2994537353515625,0.2269744873046875,0.4062742133787943
1785409463.817597,-0.0869140550494194,-0.0009765625,0.9960936903953552,0.9998788159996629,-0.5817413330078125,0.4215240478515625,0.1010894775390625,0.7254823112357692
1785409463.825635,-0.0917968675494194,0.005859375,0.9804686903953552,0.9847740096148249,-0.5817413330078125,0.2384185791015625,0.4711151123046875,0.7856308588849937
1785409463.833673,-0.08447265625,-0.008300784975290298,0.9892577528953552,0.9928924586019899,-0.461578369140625,0.301361083984375,0.5321502685546875,0.7661964513893174
1785409463.844315,-0.0678710862994194,-0.00830078125,0.9809569716453552,0.9833371586309804,-0.2155303955078125,0.1163482666015625,0.7724761962890625,0.810376298001219
1785409463.854957,-0.0874023362994194,-0.00634765625,1.0009765625,1.004805224809655,-0.0934600830078125,0.4215240478515625,0.8373260498046875,0.942089286487494
1785409463.865599,-0.07958984375,-0.008300784975290298,0.9970702528953552,1.0002762295826904,0.3337860107421875,0.3604888916015625,0.8983612060546875,1.0239229455771266
1785409463.876253,-0.08837890625,-3.725290298461914e-09,0.9833983778953552,0.9873617375193158,0.392913818359375,0.35858154296875,0.8373260498046875,0.9920065046647202
1785409463.886906,-0.0737304612994194,-0.001953125,0.9912108778953552,0.9939512060854756,0.335693359375,0.66375732421875,0.7724761962890625,1.0723727387507227
1785409463.897559,-0.07666015625,-0.012207034975290298,0.9902343153953552,0.993272264107717,0.026702880859375,0.84686279296875,0.0438690185546875,0.8484186023125456
1785409463.905541,-0.06689453125,0.0073242150247097015,0.9931640028953552,0.9954412383882891,-0.0324249267578125,1.1539459228515625,-0.0171661376953125,1.1545290143709548
1785409463.913523,-0.0776367112994194,0.00537109375,0.9829100966453552,0.9859860879732747,-0.095367431640625,1.15203857421875,0.0438690185546875,1.1568112699548925
1785409463.921505,-0.08056640625,-0.0039062537252902985,0.9892577528953552,0.9925407328154215,-0.2155303955078125,1.3370513916015625,-0.2040863037109375,1.3696024950816283
1785409463.929487,-0.0908203125,-0.015136715024709702,0.9882811903953552,0.9925609102687841,-0.3376007080078125,1.0929107666015625,0.0438690185546875,1.1447063695943789
1785409463.940168,-0.0917968675494194,-0.01416015625,0.9873046278953552,0.9916640576225881,-0.8258819580078125,0.7266998291015625,0.0438690185546875,1.1009532873687284
1785409463.950849,-0.1015624925494194,-0.00927734375,0.9936522841453552,0.9988722995394297,-0.644683837890625,0.606536865234375,0.0438690185546875,0.886244159650533
1785409463.96153,-0.08837890625,-0.0043945349752902985,0.9843749403953552,0.9883441537672768,-0.7038116455078125,0.5435943603515625,0.2269744873046875,0.9178033987982747
1785409463.972227,-0.0825195237994194,-0.015625,0.9965819716453552,1.0001146127527718,-0.461578369140625,0.17547607421875,0.1659393310546875,0.5209436678496251
1785409463.982923,-0.0917968675494194,0.0029296875,0.9804686903953552,0.9847609358653074,-0.2155303955078125,-0.0667572021484375,0.6542205810546875,0.6920364470907399
1785409463.993619,-0.0820312425494194,-0.00146484375,0.9863280653953552,0.9897344710112697,-0.766754150390625,-0.12969970703125,0.9593963623046875,1.234979886940961
1785409464.004241,-0.0893554612994194,-0.00146484375,0.9829100966453552,0.9869644382239036,-0.400543212890625,-0.19073486328125,0.7724761962890625,0.8908053251394942
1785409464.014864,-0.08154296875,-0.0009765625,0.9902343153953552,0.9935865381603093,-0.3376007080078125,-0.3108978271484375,1.2607574462890625,1.3416933462406058
1785409464.025487,-0.0917968675494194,-0.005859375,0.9936522841453552,0.9979007260016188,-0.2155303955078125,-0.2498626708984375,0.9593963623046875,1.0145570884379658
1785409464.033507,-0.08447265625,-0.0034179724752902985,0.9897460341453552,0.9933501519082942,-0.278472900390625,-0.19073486328125,1.2035369873046875,1.24997128932361
1785409464.041527,-0.0771484300494194,-0.01318359375,0.9951171278953552,0.9981902552289097,-0.0324249267578125,-0.2498626708984375,1.0204315185546875,1.0510771685483307
1785409464.049547,-0.0942382737994194,-0.017578125,0.9916991591453552,0.9963217677923204,0.0286102294921875,-0.0667572021484375,1.1425018310546875,1.1448080639275724
1785409464.057567,-0.0810546875,-0.00048827752470970154,0.9887694716453552,0.992086270864837,0.026702880859375,0.17547607421875,1.2035369873046875,1.2165550444923805
1785409464.068198,-0.0747070237994194,0.00732421875,0.9829100966453552,0.9857723072153358,0.209808349609375,-0.00762939453125,0.7152557373046875,0.7454317681545343
1785409464.078829,-0.08056640625,-0.013183597475290298,0.9916991591453552,0.9950537549841391,0.026702880859375,0.118255615234375,0.8983612060546875,0.9065044351379
1785409464.08946,-0.08056640625,-0.00048827752470970154,0.9892577528953552,0.9925331661433531,0.026702880859375,0.48065185546875,0.4711151123046875,0.673564175898333
1785409464.10015,-0.0781249925494194,-0.01611328125,0.9912108778953552,0.9944154849717342,-0.2155303955078125,0.4215240478515625,0.5893707275390625,0.7559720423301673
1785409464.110841,-0.0859375,-0.0009765587747097015,1.001953125,1.0056322748751434,-0.461578369140625,0.54168701171875,0.3490447998046875,0.7926611393237356
1785409464.121532,-0.09130859375,-0.0034179724752902985,0.9951171278953552,0.999303277318325,-0.2765655517578125,0.6046295166015625,0.3490447998046875,0.7509311746329598
1785409464.129537,-0.0839843675494194,-0.0078125,0.9863280653953552,0.9899280083599362,-0.0934600830078125,0.4215240478515625,0.3490447998046875,0.555202289533903
1785409464.137542,-0.0961913913488388,-0.014160159975290298,0.9902343153953552,0.9949961272721916,-0.2765655517578125,0.0553131103515625,0.5321502685546875,0.6022723245498612
1785409464.145547,-0.0800781175494194,-0.00634765625,1.0009765625,1.0041946406571005,-0.278472900390625,-0.00762939453125,0.4711151123046875,0.5473160083121439
1785409464.153552,-0.0781249925494194,-0.0166015625,0.9975585341453552,1.0007507958450585,-0.2155303955078125,0.2384185791015625,0.5321502685546875,0.6216757020918448
1785409464.162048,-0.08642578125,-0.015624996274709702,0.9887694716453552,0.9926623918690042,-0.0324249267578125,0.3604888916015625,0.2841949462890625,0.46018516310243607
1785409464.170544,-0.0859375,0.0043945349752902985,1.00439453125,1.0080738763844672,-0.2155303955078125,0.6046295166015625,0.1659393310546875,0.6629977868171736
1785409464.17904,-0.08544921875,-0.008300784975290298,0.9863280653953552,0.9900573339977516,-0.1544952392578125,0.7877349853515625,0.2841949462890625,0.8515644154122448
1785409464.187536,-0.0942382737994194,-0.00048828125,0.9877929091453552,0.9922781475096171,0.3948211669921875,0.7266998291015625,0.1010894775390625,0.8331839400699185
1785409464.197575,-0.0874023362994194,-0.00390625,0.9916991591453552,0.995550927591986,0.3337860107421875,0.5435943603515625,0.1010894775390625,0.645853707926438
1785409464.207614,-0.0883788987994194,-0.001953125,0.9848632216453552,0.9888226381914664,0.2117156982421875,0.7266998291015625,0.3490447998046875,0.8335157171698153
1785409464.217653,-0.0888671875,0.00048827752470970154,0.9936522841453552,0.9976184026051158,0.392913818359375,0.17547607421875,0.4100799560546875,0.5944229905032128
