timestamp,accel_x,accel_y,accel_z,accel_rms,gyro_x,gyro_y,gyro_z,gyro_rms
1782132526.362002,-0.0834960862994194,-0.189453125,0.9892577528953552,1.0106903505343034,0.274658203125,-0.232696533203125,0.1926422119140625,0.40828400277227295
1782132526.372679,-0.083984375,-0.19091796875,0.9770507216453552,0.999065142372346,0.091552734375,-0.293731689453125,0.3757476806640625,0.4856403279021921
1782132526.383356,-0.083984375,-0.1953125,0.9716796278953552,0.9946666010112366,0.213623046875,-0.293731689453125,-0.0514984130859375,0.3668312937789187
1782132526.393995,-0.06591796875,-0.1904296875,0.9716796278953552,0.9923557546325459,0.518798828125,-0.049591064453125,-0.1735687255859375,0.5493064720527092
1782132526.404637,-0.0712890625,-0.18408203125,0.9765624403953552,0.9963144707632157,0.396728515625,0.011444091796875,-0.4177093505859375,0.5761992571272517
1782132526.415279,-0.0820312425494194,-0.1982421875,0.9628905653953552,0.986502575053088,0.4558563232421875,0.1316070556640625,-0.2346038818359375,0.5293055695087101
1782132526.423295,-0.07421875,-0.1953125,0.9770507216453552,0.9991413854783125,0.1506805419921875,0.1964569091796875,-0.4787445068359375,0.5389770363615507
1782132526.431309,-0.0751953125,-0.1845703125,0.9863280653953552,1.0062621864429093,0.2765655517578125,0.0705718994140625,-0.4177093505859375,0.5059150116105842
1782132526.439325,-0.0878906175494194,-0.18896484375,0.9794921278953552,1.0014176458579362,-0.0324249267578125,0.1316070556640625,-0.1125335693359375,0.17616922887751824
1782132526.44734,-0.0937499925494194,-0.203125,0.9711913466453552,0.9966250340658891,0.152587890625,-0.171661376953125,-0.2346038818359375,0.32831337785006626
1782132526.455425,-0.0786132737994194,-0.18994140625,0.9775390028953552,0.998919559728077,0.0934600830078125,-0.1125335693359375,-0.1735687255859375,0.22699051487857358
1782132526.46351,-0.0849609375,-0.1943359375,0.9716796278953552,0.9945582520756332,0.0286102294921875,0.0705718994140625,0.1316070556640625,0.15205050252816607
1782132526.471595,-0.095703125,-0.18212890625,0.9741210341453552,0.9956112774527031,-0.152587890625,0.194549560546875,0.2536773681640625,0.35423834207072286
1782132526.47968,-0.0922851487994194,-0.18798828125,0.9721679091453552,0.994467991515218,-0.274658203125,0.255584716796875,0.2536773681640625,0.45289389830581495
1782132526.490242,-0.07861328125,-0.1904296875,0.9726561903953552,0.9942351726752805,0.091552734375,0.316619873046875,0.1316070556640625,0.35489500458631734
1782132526.500803,-0.08154296875,-0.19091796875,0.9697265028953552,0.9916997615013552,0.152587890625,0.316619873046875,-0.1125335693359375,0.3690460846575837
1782132526.511366,-0.09130859375,-0.18896484375,0.9809569716453552,1.003155796317646,0.274658203125,0.499725341796875,-0.1735687255859375,0.5960609434272504
1782132526.522013,-0.08349609375,-0.1953125,0.9697265028953552,0.9927175130647259,0.274658203125,0.499725341796875,-0.2346038818359375,0.6166048387341343
1782132526.532659,-0.0732421800494194,-0.1943359375,0.9638671278953552,0.9859871772896626,0.1506805419921875,0.2536773681640625,-0.4787445068359375,0.5623638819121385
1782132526.543305,-0.0874023362994194,-0.185546875,0.9765624403953552,0.9978682333874519,0.152587890625,0.011444091796875,-0.3566741943359375,0.38811146917816325
1782132526.554012,-0.09130859375,-0.19580078125,0.9770507216453552,1.000651446757772,0.0286102294921875,-0.1125335693359375,-0.2346038818359375,0.26176579385315496
1782132526.564718,-0.0908203125,-0.181640625,0.9677733778953552,0.988851331988775,0.1506805419921875,-0.2918243408203125,-0.1735687255859375,0.37147297900627413
1782132526.575424,-0.1044921800494194,-0.18408203125,0.9726561903953552,0.9954219580836118,0.091552734375,-0.232696533203125,-0.0514984130859375,0.2553070039906117
1782132526.583414,-0.0825195237994194,-0.185546875,0.9780272841453552,0.9988866217760092,0.4558563232421875,-0.6008148193359375,-0.1125335693359375,0.7625268774286237
1782132526.591403,-0.080078125,-0.20458984375,0.9667968153953552,0.9914462126246515,0.274658203125,-0.171661376953125,0.3147125244140625,0.45160683110906163
1782132526.599392,-0.08544921875,-0.19140625,0.9707030653953552,0.9930772188968928,0.213623046875,-0.659942626953125,0.4367828369140625,0.8197184416911983
1782132526.607381,-0.07568359375,-0.19140625,0.9687499403953552,0.9903740737307201,0.5168914794921875,-0.6008148193359375,0.4978179931640625,0.9359369653043907
1782132526.61807,-0.07373046875,-0.1865234375,0.9716796278953552,0.9921635318967167,0.579833984375,-0.720977783203125,0.4978179931640625,1.0506375053397696
1782132526.628758,-0.07568359375,-0.1904296875,0.9741210341453552,0.9954412395559463,0.4558563232421875,-0.4177093505859375,0.5588531494140625,0.8334284202118547
1782132526.639447,-0.076171875,-0.19482421875,0.9692382216453552,0.9915550216961307,0.5168914794921875,-0.2346038818359375,0.6809234619140625,0.8864945256058521
1782132526.650091,-0.08056640625,-0.1884765625,0.9721679091453552,0.9935415461871275,0.701904296875,-0.659942626953125,0.7419586181640625,1.2160166544539202
1782132526.660734,-0.07861328125,-0.185546875,0.9877929091453552,1.0081381463713202,0.885009765625,-0.293731689453125,0.8029937744140625,1.2305769347701698
1782132526.671377,-0.0771484225988388,-0.1962890625,0.9711913466453552,0.9938279061112324,1.190185546875,-0.720977783203125,0.6809234619140625,1.549195714184514
1782132526.679386,-0.0678710862994194,-0.18994140625,0.9799804091453552,1.000522775589036,1.068115234375,0.011444091796875,0.5588531494140625,1.2055363801026633
1782132526.687396,-0.0742187425494194,-0.1796875,0.9726561903953552,0.9918951981516356,0.823974609375,0.316619873046875,0.1926422119140625,0.9034895255142948
1782132526.695405,-0.0673828050494194,-0.17578125,0.9687499403953552,0.9868717937421734,0.579833984375,0.621795654296875,0.1316070556640625,0.8603241843858803
1782132526.703416,-0.06689453125,-0.17919921875,0.9672850966453552,0.9860160731468741,0.1506805419921875,1.0471343994140625,0.0705718994140625,1.060271412968499
1782132526.714226,-0.08056640625,-0.18505859375,0.9677733778953552,0.9885964494675032,-0.518798828125,1.476287841796875,-0.1125335693359375,1.5688345419860676
1782132526.725036,-0.080078125,-0.185546875,0.9609374403953552,0.9819576942411308,-0.396728515625,1.232147216796875,-0.1735687255859375,1.3060269451553546
1782132526.735846,-0.0869140550494194,-0.18603515625,0.9750975966453552,0.9964830431621219,-0.6999969482421875,1.0471343994140625,-0.3566741943359375,1.3090846645231986
1782132526.743707,-0.0922851487994194,-0.19140625,0.9736327528953552,0.99655087112429,-0.5207061767578125,0.5588531494140625,-0.1735687255859375,0.7833121137996535
1782132526.751569,-0.0859375,-0.18115234375,0.9785155653953552,0.9988464032439421,-0.701904296875,0.255584716796875,-0.1735687255859375,0.7668893609467101
1782132526.759431,-0.087890625,-0.1767578125,0.9609374403953552,0.9810040013151081,-0.762939453125,0.255584716796875,-0.3566741943359375,0.8801230808813066
1782132526.767293,-0.0966796725988388,-0.18701171875,0.9809569716453552,1.003293039078451,-0.6999969482421875,0.0705718994140625,0.0095367431640625,0.7036100269364143
1782132526.778056,-0.0820312425494194,-0.17626953125,0.9584960341453552,0.9780157053307837,-0.640869140625,0.011444091796875,-0.1735687255859375,0.6640559653703955
1782132526.788819,-0.0859375,-0.1787109375,0.9721679091453552,0.9921861199696509,-0.946044921875,0.133514404296875,-0.1125335693359375,0.9620243731775773
1782132526.799582,-0.0883788987994194,-0.19482421875,0.9716796278953552,0.9949515592386404,-0.885009765625,0.011444091796875,-0.2956390380859375,0.933153627935428
1782132526.810237,-0.09375,-0.185546875,0.9711913466453552,0.9931914906608313,-0.6999969482421875,-0.4177093505859375,-0.2346038818359375,0.8482427780345624
1782132526.820892,-0.0849609300494194,-0.1884765625,0.9785155653953552,1.0001172361116824,-0.4596710205078125,-0.7228851318359375,-0.2346038818359375,0.8882000575864905
1782132526.831547,-0.0825195237994194,-0.185546875,0.9790038466453552,0.9998428108341584,0.1506805419921875,-0.7228851318359375,-0.2956390380859375,0.7954055446153858
1782132526.83953,-0.0771484225988388,-0.19140625,0.9731444716453552,0.9947856021990211,0.3948211669921875,-0.6008148193359375,-0.2956390380859375,0.7773446094745409
1782132526.847514,-0.0859375,-0.18408203125,0.9760741591453552,0.9969915808504545,0.4558563232421875,-0.6008148193359375,-0.2956390380859375,0.8100530077803176
1782132526.855498,-0.0874023362994194,-0.1806640625,0.9809569716453552,1.0012768109215489,0.762939453125,-0.232696533203125,-0.2956390380859375,0.8506625221201446
1782132526.863482,-0.0747070237994194,-0.18408203125,0.9770507216453552,0.9970433522679956,0.8220672607421875,-0.4177093505859375,-0.3566741943359375,0.9886820336469554
1782132526.874114,-0.0830078050494194,-0.19482421875,0.9619140028953552,0.9849494001606558,0.4558563232421875,-0.3566741943359375,-0.6008148193359375,0.8342660939285206
1782132526.884746,-0.08447265625,-0.1865234375,0.9697265028953552,0.9911085272604623,0.396728515625,-0.293731689453125,-0.3566741943359375,0.6090059945552203
1782132526.895378,-0.0693359300494194,-0.193359375,0.9604491591453552,0.9821699987269151,0.518798828125,-0.293731689453125,-0.3566741943359375,0.6947280117845044
1782132526.906137,-0.0683593675494194,-0.1943359375,0.9692382216453552,0.9908895952799238,0.1506805419921875,0.1316070556640625,-0.4177093505859375,0.4631480804262808
1782132526.916895,-0.08544921875,-0.189453125,0.9790038466453552,1.0008209566669022,0.030517578125,-0.171661376953125,-0.4787445068359375,0.5095049104156342
1782132526.927653,-0.0844726487994194,-0.18408203125,0.9780272841453552,0.9987788499748357,0.396728515625,-0.354766845703125,-0.1735687255859375,0.5598027620704342
1782132526.93621,-0.0722656175494194,-0.19287109375,0.9741210341453552,0.9956572540028704,0.579833984375,-0.293731689453125,0.0705718994140625,0.6538089536034846
1782132526.944766,-0.0795898362994194,-0.18896484375,0.9677733778953552,0.9892560665361705,0.701904296875,-0.293731689453125,0.0095367431640625,0.7609460538242856
1782132526.953322,-0.0830078125,-0.18212890625,0.9755858778953552,0.995906140445327,0.5168914794921875,-0.2346038818359375,0.1926422119140625,0.5994387414534162
1782132526.961878,-0.08056640625,-0.18359375,0.9648436903953552,0.9854546959403211,0.0934600830078125,-0.1125335693359375,-0.1125335693359375,0.1845600053391842
1782132526.972124,-0.0693359300494194,-0.203125,0.9638671278953552,0.9874751019939991,0.2117156982421875,-0.1125335693359375,0.3757476806640625,0.44572823629885233
1782132526.982369,-0.06982421875,-0.1962890625,0.9819335341453552,1.003791952079894,0.396728515625,0.011444091796875,0.1926422119140625,0.4411751400047534
1782132526.992616,-0.0844726487994194,-0.19287109375,0.9765624403953552,0.9990040476346645,0.274658203125,0.804901123046875,0.4978179931640625,0.985457102437173
1782132527.002867,-0.07568359375,-0.19384765625,0.9892577528953552,1.0109084141800884,0.213623046875,0.377655029296875,0.2536773681640625,0.5026035559245748
1782132527.013117,-0.0771484300494194,-0.1982421875,0.9697265028953552,0.9927846370595843,-0.213623046875,0.438690185546875,0.1926422119140625,0.5245902275704845
1782132527.023367,-0.08349609375,-0.1904296875,0.9707030653953552,0.9927232770116734,0.3337860107421875,0.2536773681640625,-0.1125335693359375,0.43408422260353496
1782132527.031363,-0.0703125,-0.18408203125,0.9663085341453552,0.9861958350386201,-0.213623046875,0.499725341796875,-0.2346038818359375,0.5919452717630681
1782132527.03936,-0.078125,-0.19189453125,0.9609374403953552,0.9830197307797205,-0.091552734375,0.438690185546875,-0.1735687255859375,0.4805799460737177
1782132527.047356,-0.0791015550494194,-0.18896484375,0.9614257216453552,0.9830077244996553,-0.1544952392578125,0.2536773681640625,-0.4177093505859375,0.5125447176968071
1782132527.055351,-0.0830078050494194,-0.1845703125,0.9663085341453552,0.9872733558228011,-0.213623046875,0.194549560546875,-0.4177093505859375,0.5079029821059001
1782132527.066019,-0.0791015550494194,-0.1845703125,0.9682616591453552,0.9888649537922254,0.091552734375,0.377655029296875,-0.7228851318359375,0.820711970275945
1782132527.076686,-0.08642578125,-0.19677734375,0.9785155653953552,1.001840032339979,0.030517578125,0.194549560546875,-0.3566741943359375,0.40742770522975946
1782132527.087353,-0.0932617112994194,-0.1845703125,0.9702147841453552,0.992008404412514,0.091552734375,-0.171661376953125,-0.3566741943359375,0.40628316777116463
1782132527.095302,-0.07568359375,-0.18212890625,0.9648436903953552,0.9847955583523234,0.030517578125,-0.293731689453125,-0.2346038818359375,0.3771585997111733
1782132527.103253,-0.08154296875,-0.1923828125,0.9746093153953552,0.9967566001554123,-0.0324249267578125,0.0705718994140625,-0.0514984130859375,0.09318720627064597
1782132527.111204,-0.07861328125,-0.18603515625,0.9584960341453552,0.9795426355305967,-0.05340576171875,-0.08392333984375,0.0,0.09947513435672987
1782132527.119155,-0.0839843675494194,-0.19921875,0.9765624403953552,1.0002078205728897,0.00762939453125,-0.14495849609375,-0.0591278076171875,0.15673950007668883
1782132527.129867,-0.0937499925494194,-0.19775390625,0.9677733778953552,0.9922101488611855,0.2498626708984375,-0.3261566162109375,0.0629425048828125,0.41565761334010537
1782132527.140579,-0.076171875,-0.18505859375,0.9643554091453552,0.9849011081370802,0.61798095703125,0.09918212890625,0.0629425048828125,0.6290463551031502
1782132527.151291,-0.0903320237994194,-0.193359375,0.9858397841453552,1.008676262448884,-0.0553131103515625,-0.2040863037109375,0.1201629638671875,0.24320751925979625
1782132527.161994,-0.0712890625,-0.1923827975988388,0.9824218153953552,1.00361640810062,0.4329681396484375,-0.2040863037109375,-0.1201629638671875,0.4935096424573373
1782132527.172697,-0.0810546875,-0.1826171875,0.9755858778953552,0.9958346773862536,0.74005126953125,0.03814697265625,-0.3032684326171875,0.8006889628811784
1782132527.1834,-0.0874023362994194,-0.1826171875,0.9760741591453552,0.9968495221006625,0.49591064453125,-0.14495849609375,-0.2422332763671875,0.5706288576025084
1782132527.191468,-0.07958984375,-0.19677734375,0.9589843153953552,0.9821948805688987,0.4329681396484375,-0.0209808349609375,-0.5474090576171875,0.6982537373674589
1782132527.199538,-0.0888671875,-0.181640625,0.9653319716453552,0.9862841928902946,0.2498626708984375,0.1010894775390625,-0.1201629638671875,0.29510942828545567
1782132527.207608,-0.0869140550494194,-0.18798828125,0.9760741591453552,0.997804796041678,0.2498626708984375,-0.2040863037109375,-0.4253387451171875,0.5338498119965556
1782132527.215678,-0.09521484375,-0.18994140625,0.9746093153953552,0.9975003368089493,0.1277923583984375,0.2841949462890625,-0.3681182861328125,0.4822952694632584
1782132527.226271,-0.0908203125,-0.1806640625,0.9746093153953552,0.9953648327608348,0.06866455078125,0.03814697265625,-0.3681182861328125,0.37640547902785204
1782132527.236864,-0.0971679612994194,-0.18505859375,0.9692382216453552,0.9915195540795269,0.06866455078125,0.52642822265625,-0.5474090576171875,0.7625602733583402
1782132527.247457,-0.0820312425494194,-0.19189453125,0.9741210341453552,0.9962250875390938,0.1926422119140625,0.5893707275390625,-0.2422332763671875,0.6656919982023584
1782132527.255508,-0.09130859375,-0.18701171875,0.9692382216453552,0.9913290939646039,0.1926422119140625,0.2841949462890625,0.0629425048828125,0.34905522231920344
1782132527.26356,-0.0859375,-0.18505859375,0.9687499403953552,0.9900042343560869,0.31280517578125,0.28228759765625,0.0,0.42134708470105214
1782132527.271612,-0.0771484300494194,-0.19384765625,0.9653319716453552,0.987620681017473,0.0667572021484375,0.2841949462890625,0.1850128173828125,0.3456197826092372
1782132527.279664,-0.0747070237994194,-0.1689453125,0.9711913466453552,0.9886032014005964,0.12969970703125,0.164031982421875,0.3032684326171875,0.36837514504011803
1782132527.290353,-0.0678710862994194,-0.1884765625,0.9785155653953552,0.9988105980055835,0.00762939453125,0.34332275390625,0.2460479736328125,0.42245511754445364
1782132527.301042,-0.0732421800494194,-0.1884765625,0.9721679091453552,0.9929744584440526,0.12969970703125,0.52642822265625,0.0629425048828125,0.5458117317664886
1782132527.311731,-0.0922851487994194,-0.1904296875,0.9765624403953552,0.9992268083679552,0.0667572021484375,0.2841949462890625,0.2460479736328125,0.3817890737877967
1782132527.322284,-0.0751953125,-0.1943359375,0.9765624403953552,0.9985464393892296,0.19073486328125,0.22125244140625,-0.0591278076171875,0.29804115241482737
1782132527.332834,-0.07421875,-0.19580078125,0.9741210341453552,0.9963724995974593,-0.17547607421875,0.652313232421875,-0.2422332763671875,0.7176220216767889
1782132527.343386,-0.0751953125,-0.2001953125,0.9687499403953552,0.9920730543588762,0.19073486328125,0.52642822265625,-0.4253387451171875,0.7031497065190309
1782132527.351536,-0.0810546875,-0.1787109375,0.9746093153953552,0.9941683857391838,0.3719329833984375,0.1010894775390625,-0.4863739013671875,0.62057457129657
1782132527.359689,-0.08056640625,-0.17138671875,0.9619140028953552,0.9803789584370408,0.12969970703125,0.22125244140625,-0.4863739013671875,0.5498492782239118
1782132527.367841,-0.06982421875,-0.1826171875,0.9687499403953552,0.9882817946873566,0.0667572021484375,0.1010894775390625,-0.4253387451171875,0.44225406115226545
1782132527.375995,-0.0820312425494194,-0.193359375,0.9726561903953552,0.9950763977549653,0.00762939453125,0.03814697265625,-0.5474090576171875,0.5487896459893239
1782132527.386581,-0.09033203125,-0.181640625,0.9760741591453552,0.9969322728608268,-0.17547607421875,-0.08392333984375,-0.4253387451171875,0.4677050648556391
1782132527.397166,-0.0869140550494194,-0.1982421875,0.9741210341453552,0.9978806577112991,0.00762939453125,0.164031982421875,-0.0591278076171875,0.1745302167298801
1782132527.407753,-0.0771484300494194,-0.1884765625,0.9648436903953552,0.9861027541623817,0.00762939453125,-0.14495849609375,-0.3032684326171875,0.33621855313584464
1782132527.415603,-0.0834960862994194,-0.17822265625,0.9677733778953552,0.9875830206069319,-0.05340576171875,-0.57220458984375,-0.2422332763671875,0.6236563382204949
1782132527.423452,-0.0854492112994194,-0.20263671875,0.9624022841453552,0.9872088755808754,0.31280517578125,-0.324249267578125,-0.0591278076171875,0.4544015439609601
1782132527.431301,-0.0908203125,-0.19140625,0.9736327528953552,0.9964162881106712,0.3719329833984375,-0.4482269287109375,-0.0591278076171875,0.5854379739946132
1782132527.447233,-0.0703125,-0.18212890625,0.9770507216453552,0.9963648422218544,-0.05340576171875,-0.26702880859375,0.3032684326171875,0.4075883980510769
1782132527.455318,-0.0830078050494194,-0.19873046875,0.9746093153953552,0.9981219427325101,0.19073486328125,-0.08392333984375,0.5512237548828125,0.5892966510922607
1782132527.463404,-0.0834960862994194,-0.17041015625,0.9838866591453552,1.0020200476161532,0.31280517578125,0.22125244140625,0.1850128173828125,0.4254755732350457
1782132527.471489,-0.080078125,-0.189453125,0.9809569716453552,1.0022881685899556,0.92315673828125,0.34332275390625,0.1201629638671875,0.9922338507978826
1782132527.482141,-0.08251953125,-0.1767578125,0.9755858778953552,0.99489728236957,1.10626220703125,0.34332275390625,0.3032684326171875,1.1973547203220563
1782132527.492793,-0.0791015550494194,-0.19287109375,0.9868163466453552,1.0085944759029981,1.35040283203125,0.34332275390625,-0.0591278076171875,1.3946162266879756
1782132527.503445,-0.080078125,-0.177734375,0.9804686903953552,0.9996603758305813,1.77764892578125,-0.45013427734375,0.1850128173828125,1.8430643812864862
1782132527.511446,-0.07568359375,-0.193359375,0.9750975966453552,0.9969609707741088,1.1692047119140625,-0.3261566162109375,0.1850128173828125,1.227862996940677
1782132527.519449,-0.0834960862994194,-0.18359375,0.9658202528953552,0.9866544594584421,1.10626220703125,0.164031982421875,0.1850128173828125,1.1335573671230004
1782132527.527451,-0.083984375,-0.171875,0.9648436903953552,0.983624795216585,0.43487548828125,0.34332275390625,0.0,0.554064259502115
1782132527.535453,-0.08642578125,-0.16796875,0.9667968153953552,0.9850781689286571,0.1926422119140625,0.1010894775390625,-0.1850128173828125,0.2855868464691417
1782132527.546097,-0.0791015625,-0.177734375,0.9736327528953552,0.9928782920162823,-0.35858154296875,0.03814697265625,-0.3032684326171875,0.471176884728837
1782132527.556741,-0.08935546875,-0.18505859375,0.9736327528953552,0.9950838258291849,-0.66375732421875,0.34332275390625,-0.0591278076171875,0.749626838125091
1782132527.567384,-0.0908203125,-0.19921875,0.9716796278953552,0.9960410326793853,-0.90789794921875,0.52642822265625,0.0,1.0494786133145497
1782132527.57593,-0.0893554612994194,-0.1787109375,0.9711913466453552,0.9915314566089063,-0.66375732421875,0.22125244140625,0.0629425048828125,0.7024871437992184
1782132527.584475,-0.08154296875,-0.1787109375,0.9716796278953552,0.9913365494127352,-0.7266998291015625,0.1010894775390625,0.2460479736328125,0.7738548503525542
1782132527.59302,-0.0776367112994194,-0.189453125,0.9707030653953552,0.9920606769152753,-0.90789794921875,0.03814697265625,-0.0591278076171875,0.9106206539235006
1782132527.601565,-0.0800781175494194,-0.1884765625,0.9736327528953552,0.9949355039562428,-0.9098052978515625,-0.0820159912109375,-0.1850128173828125,0.9320418689141646
1782132527.613025,-0.0751953050494194,-0.19775390625,0.9794921278953552,1.0020807202753579,-1.02996826171875,-0.38909912109375,-0.4863739013671875,1.203657890812423
1782132527.624487,-0.0771484300494194,-0.193359375,0.9692382216453552,0.9913437640181793,-0.84686279296875,-0.38909912109375,-0.3681182861328125,1.002040811911431
1782132527.635948,-0.0820312425494194,-0.19677734375,0.9780272841453552,1.0009934147137267,-0.23651123046875,0.03814697265625,-0.1201629638671875,0.2680147226292352
1782132527.647409,-0.0820312350988388,-0.20166015625,0.9707030653953552,0.9948167586639032,-0.4215240478515625,-0.2651214599609375,-0.6084442138671875,0.7862418666272136
1782132527.655431,-0.0625,-0.193359375,0.9765624403953552,0.9974809762052218,0.31280517578125,0.03814697265625,-0.4863739013671875,0.579535884522705
1782132527.663453,-0.08984375,-0.1796875,0.9863280653953552,1.006579629069085,0.4978179931640625,-0.2040863037109375,-0.3681182861328125,0.6519087714286769
1782132527.671475,-0.0859375,-0.18798828125,0.9716796278953552,0.9934214347699747,0.55694580078125,0.03814697265625,-0.4253387451171875,0.7018239555818597
1782132527.679497,-0.0834960862994194,-0.1884765625,0.9711913466453552,0.9928281033683298,0.80108642578125,-0.324249267578125,-0.4253387451171875,0.9632186133966643
1782132527.690181,-0.07958984375,-0.1953125,0.9780272841453552,1.0005093125089535,0.80108642578125,-0.324249267578125,-0.4253387451171875,0.9632186133966643
1782132527.700865,-0.09326171875,-0.18701171875,0.9584960341453552,0.9810126291778344,0.7381439208984375,-0.0820159912109375,-0.1201629638671875,0.7523444747314746
1782132527.711549,-0.0712890625,-0.19189453125,0.9814452528953552,1.0025669184581216,0.7381439208984375,-0.2040863037109375,-0.1201629638671875,0.775207588460703
1782132527.719516,-0.0859375,-0.18603515625,0.9672850966453552,0.988754161285517,0.31280517578125,-0.14495849609375,-0.2422332763671875,0.421351401759722
1782132527.727483,-0.08642578125,-0.1796875,0.9707030653953552,0.9909699564007287,-0.05340576171875,-0.08392333984375,-0.2422332763671875,0.2618630606536013
1782132527.73545,-0.08984375,-0.17041015625,0.9702147841453552,0.9891553205343588,-0.0553131103515625,0.1621246337890625,-0.4253387451171875,0.45853787755851266
1782132527.743417,-0.0849609300494194,-0.18359375,0.9653319716453552,0.9863015969543159,-0.2384185791015625,0.1010894775390625,-0.7305145263671875,0.77505740081842
1782132527.754117,-0.080078125,-0.1806640625,0.9731444716453552,0.9930066325440314,0.49591064453125,-0.324249267578125,-0.3032684326171875,0.6656100187846002
1782132527.764817,-0.0839843675494194,-0.18408203125,0.9741210341453552,0.9949127385787249,0.31280517578125,-0.26702880859375,-0.4253387451171875,0.5916624973009529
1782132527.775517,-0.0776367112994194,-0.1875,0.9633788466453552,0.984521462998712,0.49591064453125,-0.57220458984375,-0.6084442138671875,0.9713649269899103
1782132527.783458,-0.08935546875,-0.181640625,0.9804686903953552,1.001147626122894,0.1926422119140625,-0.3261566162109375,-0.1850128173828125,0.4215671983269539
1782132527.791399,-0.0830078050494194,-0.1787109375,0.9702147841453552,0.9900225362361553,0.2498626708984375,-0.3871917724609375,-0.2422332763671875,0.5206013668340926
1782132527.79934,-0.07568359375,-0.1806640625,0.9677733778953552,0.9873969925034738,0.31280517578125,-0.38909912109375,0.1201629638671875,0.5135020369159352
1782132527.807281,-0.07861328125,-0.1865234375,0.9770507216453552,0.9977971504235805,0.3719329833984375,-0.0209808349609375,0.3032684326171875,0.4803603665972101
1782132527.81809,-0.07080078125,-0.18505859375,0.9750975966453552,0.9950250030677047,0.43487548828125,0.40435791015625,0.4291534423828125,0.732662737501235
1782132527.828899,-0.0732421800494194,-0.19384765625,0.9731444716453552,0.9949630613575196,0.67901611328125,0.22125244140625,0.3681182861328125,0.8034466986111528
1782132527.839708,-0.080078125,-0.19140625,0.9638671278953552,0.9859455861657981,0.61798095703125,0.835418701171875,0.3032684326171875,1.0824955481400595
1782132527.850347,-0.0742187425494194,-0.1845703125,0.9628905653953552,0.9832257436262293,0.2498626708984375,0.4062652587890625,0.3032684326171875,0.5652031113056
1782132527.860985,-0.08642578125,-0.18701171875,0.9692382216453552,0.9908912800669671,0.12969970703125,0.22125244140625,0.2460479736328125,0.3554071779818626
1782132527.871623,-0.0791015625,-0.181640625,0.9794921278953552,0.9993273750124645,-0.0553131103515625,-0.0209808349609375,-0.1850128173828125,0.1942407738049562
1782132527.879654,-0.080078125,-0.17529296875,0.9736327528953552,0.9925224775828968,-0.23651123046875,0.22125244140625,-0.3681182861328125,0.49030732969376206
1782132527.887684,-0.07666015625,-0.17822265625,0.9765624403953552,0.9956476760119575,-0.41961669921875,0.03814697265625,-0.3681182861328125,0.5595037429467606
1782132527.895714,-0.07666015625,-0.1845703125,0.9755858778953552,0.9958467678119325,-0.0553131103515625,0.1010894775390625,-0.7915496826171875,0.7998934445894997
1782132527.903744,-0.0781249925494194,-0.193359375,0.9667968153953552,0.9890335912494772,-0.2384185791015625,0.1010894775390625,-0.6084442138671875,0.661261569062038
1782132527.914383,-0.0771484300494194,-0.19091796875,0.9682616591453552,0.9899152446657401,-0.17547607421875,0.09918212890625,-0.2422332763671875,0.3151283984301994
1782132527.925022,-0.08056640625,-0.18212890625,0.9648436903953552,0.9851828415089198,-0.0553131103515625,0.1010894775390625,-0.3032684326171875,0.3244231262841328
1782132527.935661,-0.09033203125,-0.1796875,0.9726561903953552,0.9932308584817562,-0.1163482666015625,0.1010894775390625,-0.1850128173828125,0.2408022927761171
1782132527.943635,-0.0893554612994194,-0.18798828125,0.9614257216453552,0.983698841410649,0.31280517578125,0.03814697265625,-0.2422332763671875,0.3974660107455198
1782132527.951611,-0.0820312425494194,-0.169921875,0.9687499403953552,0.9869544140302132,-0.05340576171875,0.03814697265625,0.1850128173828125,0.19630870969858294
1782132527.959587,-0.09423828125,-0.18603515625,0.9765624403953552,0.9985810598067879,0.2498626708984375,-0.0820159912109375,0.4291534423828125,0.5033196342602099
1782132527.967563,-0.07470703125,-0.18212890625,0.9682616591453552,0.98807019972314,0.0667572021484375,-0.2040863037109375,0.4863739013671875,0.5316646643629978
1782132527.977074,-0.08837890625,-0.1904296875,0.9672850966453552,0.9898054127673318,0.31280517578125,-0.14495849609375,0.3032684326171875,0.45916422531310735
1782132527.986587,-0.0732421875,-0.18603515625,0.9667968153953552,0.987253553880333,0.49591064453125,-0.26702880859375,0.3032684326171875,0.6396901548409847
1782132527.996099,-0.08984375,-0.18115234375,0.9750975966453552,0.9958430569340374,0.67901611328125,-0.08392333984375,0.3681182861328125,0.7769279771326709
1782132528.005613,-0.0810546875,-0.18017578125,0.9790038466453552,0.9987400594054354,0.4329681396484375,-0.0209808349609375,0.0,0.4334761877961545
1782132528.015126,-0.0751953125,-0.185546875,0.9716796278953552,0.9920903573319793,0.43487548828125,-0.08392333984375,-0.1201629638671875,0.4589106178372126
1782132528.023184,-0.07666015625,-0.1796875,0.9653319716453552,0.9849011080779803,0.31280517578125,0.22125244140625,-0.3032684326171875,0.48864246954787954
1782132528.031242,-0.0634765625,-0.17724609375,0.9619140028953552,0.9801652925413221,0.1277923583984375,-0.0209808349609375,-0.3032684326171875,0.3297617693468701
1782132528.039299,-0.0751953125,-0.1806640625,0.9638671278953552,0.9835312291626624,0.0095367431640625,-0.0209808349609375,-0.4253387451171875,0.4259626662087878
1782132528.047358,-0.08935546875,-0.1796875,0.9633788466453552,0.9840583314090263,-0.17547607421875,-0.019073486328125,-0.3032684326171875,0.35089513066729644
1782132528.055416,-0.0771484300494194,-0.17626953125,0.9663085341453552,0.9852791538789045,0.1277923583984375,0.2841949462890625,-0.3681182861328125,0.4822952694632584
1782132528.063474,-0.0859375,-0.1875,0.9799804091453552,1.0014505011307089,0.1926422119140625,-0.0209808349609375,-0.3032684326171875,0.3598929833560058
1782132528.075382,-0.0791015550494194,-0.19384765625,0.9609374403953552,0.9834809272164007,0.1926422119140625,-0.2040863037109375,-0.0591278076171875,0.2868071456696132
1782132528.08729,-0.087890625,-0.1962890625,0.9731444716453552,0.9966264700046538,0.3719329833984375,-0.0820159912109375,-0.1201629638671875,0.3993743918171544
1782132528.099198,-0.0751953125,-0.189453125,0.9721679091453552,0.9933062293000532,0.2498626708984375,0.2841949462890625,-0.0591278076171875,0.383006813827586
1782132528.111105,-0.083984375,-0.18994140625,0.9716796278953552,0.9936258915302199,0.12969970703125,0.164031982421875,-0.2422332763671875,0.32000853963734255
1782132528.119265,-0.0820312425494194,-0.1806640625,0.9736327528953552,0.9936444865965862,0.4329681396484375,0.1621246337890625,-0.1850128173828125,0.4979714343491928
1782132528.127424,-0.07568359375,-0.1875,0.9741210341453552,0.9948849408486046,0.06866455078125,0.52642822265625,0.0,0.5308874590183961
1782132528.135583,-0.0673828050494194,-0.18798828125,0.9614257216453552,0.981946767673762,0.1277923583984375,0.2841949462890625,-0.1850128173828125,0.36239122086110714
1782132528.143742,-0.0712890625,-0.17529296875,0.9760741591453552,0.9942487211340176,-0.35858154296875,0.09918212890625,0.1850128173828125,0.4155087968360615
1782132528.154315,-0.0810546875,-0.18603515625,0.9667968153953552,0.98786386915672,-0.23651123046875,0.03814697265625,-0.7305145263671875,0.7687940081024014
1782132528.164888,-0.0751953125,-0.1826171875,0.9667968153953552,0.9867621063108288,0.12969970703125,-0.14495849609375,-0.7305145263671875,0.7559672299956064
1782132528.175461,-0.08984375,-0.19189453125,0.9750975966453552,0.9978530620894379,0.00762939453125,0.164031982421875,-0.6732940673828125,0.6930292923759104
1782132528.183835,-0.0834960862994194,-0.18359375,0.9575194716453552,0.9785304287789842,0.1277923583984375,-0.2040863037109375,-0.4253387451171875,0.4887690194000552
1782132528.192208,-0.0795898362994194,-0.18359375,0.9770507216453552,0.9973310983564787,0.00762939453125,-0.26702880859375,-0.3032684326171875,0.4041464270558341
1782132528.200581,-0.0839843675494194,-0.17919921875,0.9726561903953552,0.992585411290984,-0.1163482666015625,-0.3871917724609375,-0.3681182861328125,0.546777340777752
1782132528.208954,-0.0820312425494194,-0.1806640625,0.9790038466453552,0.9989079837400479,0.00762939453125,-0.26702880859375,-0.4253387451171875,0.5022704852743936
1782132528.219062,-0.07470703125,-0.18701171875,0.9726561903953552,0.9932847467782957,-0.0553131103515625,-0.6923675537109375,-0.0591278076171875,0.6970856957663435
1782132528.22917,-0.0883788987994194,-0.18310546875,0.9594725966453552,0.9807783165183331,0.2498626708984375,-0.3871917724609375,-0.0591278076171875,0.4645911327216205
1782132528.239278,-0.0878906175494194,-0.18017578125,0.9682616591453552,0.9887965985849578,-0.17547607421875,-0.324249267578125,0.2460479736328125,0.4432482887468241
1782132528.249959,-0.0849609375,-0.1806640625,0.9755858778953552,0.9958040316893348,-0.0553131103515625,-0.3871917724609375,0.5512237548828125,0.6758880356873567
1782132528.260641,-0.0791015625,-0.19189453125,0.9746093153953552,0.9964656973368434,-0.2384185791015625,-0.0209808349609375,0.6084442138671875,0.6538256462428848
1782132528.271323,-0.0810546875,-0.18798828125,0.9833983778953552,1.0044808738349713,0.31280517578125,0.09918212890625,0.0629425048828125,0.3341346010380212
1782132528.280368,-0.0834960862994194,-0.1943359375,0.9799804091453552,1.0025465851221187,0.6809234619140625,0.2841949462890625,0.4291534423828125,0.8535784706693889
1782132528.289414,-0.0844726487994194,-0.18310546875,0.9897460341453552,1.010079429147929,0.61798095703125,0.09918212890625,0.2460479736328125,0.6725155487246736
1782132528.29846,-0.0678710862994194,-0.18701171875,0.9760741591453552,0.9961428770294974,0.9860992431640625,-0.5092620849609375,0.0629425048828125,1.111621044901733
1782132528.307506,-0.08447265625,-0.18994140625,0.9658202528953552,0.9879383221461784,1.10626220703125,-0.324249267578125,0.2460479736328125,1.1787676885457186
1782132528.316229,-0.08154296875,-0.185546875,0.9687499403953552,0.9897238734065342,0.9860992431640625,-0.0209808349609375,-0.1850128173828125,1.0035246162403395
1782132528.324952,-0.07080078125,-0.16748046875,0.9721679091453552,0.9890262390909463,0.6160736083984375,-0.0209808349609375,-0.0591278076171875,0.6192600294176466
1782132528.333675,-0.0727538987994194,-0.18505859375,0.9707030653953552,0.9908603605348146,0.12969970703125,-0.14495849609375,-0.0591278076171875,0.20330046047013506
1782132528.342398,-0.08154296875,-0.189453125,0.9731444716453552,0.9947622354204781,-0.2384185791015625,0.2841949462890625,-0.1201629638671875,0.389935025667608
1782132528.351121,-0.08056640625,-0.18408203125,0.9721679091453552,0.9927172727505136,-0.54168701171875,0.52642822265625,-0.0591278076171875,0.7576592835222324
1782132528.35914,-0.08642578125,-0.18505859375,0.9755858778953552,0.9967366271659989,-0.84686279296875,0.469207763671875,-0.1201629638671875,0.9755878502165456
1782132528.367158,-0.0849609375,-0.17919921875,0.9711913466453552,0.9912332483831986,-0.54168701171875,0.164031982421875,-0.0591278076171875,0.5690583516263114
1782132528.375178,-0.0932617112994194,-0.1796875,0.9624022841453552,0.9834650481735197,-0.7877349853515625,0.1010894775390625,-0.2422332763671875,0.8303146691438911
1782132528.383197,-0.0810546875,-0.18505859375,0.9555663466453552,0.976690118885003,-1.0929107666015625,0.1621246337890625,-0.1201629638671875,1.1113853870373678
1782132528.391216,-0.0844726487994194,-0.18896484375,0.9658202528953552,0.987751032128795,-1.2760162353515625,0.0400543212890625,-0.3032684326171875,1.3121713012243437
1782132528.399235,-0.0820312425494194,-0.177734375,0.9726561903953552,0.9921586050250473,-0.90789794921875,-0.26702880859375,-0.6084442138671875,1.1250721897740914
1782132528.411286,-0.0996093675494194,-0.17822265625,0.9833983778953552,1.0043693100406925,-1.0929107666015625,-0.2651214599609375,-0.4253387451171875,1.2023545152671478
1782132528.423337,-0.08935546875,-0.19189453125,0.9580077528953552,0.9811150623279603,-1.02996826171875,-0.14495849609375,-0.1201629638671875,1.0470371166405956
1782132528.435388,-0.0903320237994194,-0.203125,0.9624022841453552,0.9877437910090328,-0.35858154296875,-0.38909912109375,-0.3681182861328125,0.6445850770682932
1782132528.447438,-0.08447265625,-0.185546875,0.9633788466453552,0.9847142096262911,-0.35858154296875,-0.38909912109375,-0.1850128173828125,0.5605431219716323
1782132528.455408,-0.08447265625,-0.18115234375,0.9936522841453552,1.013556442970657,-0.1163482666015625,-0.2651214599609375,0.0629425048828125,0.2962905104689148
1782132528.463376,-0.0795898362994194,-0.17919921875,0.9775390028953552,0.9970102327581317,0.00762939453125,-0.324249267578125,-0.2422332763671875,0.4048120000264891
1782132528.471344,-0.076171875,-0.19482421875,0.9902343153953552,1.0120882521495205,0.0667572021484375,-0.3871917724609375,-0.1850128173828125,0.4342853155427382
1782132528.479312,-0.07373046875,-0.19189453125,0.9726561903953552,0.9941427250954249,0.19073486328125,-0.45013427734375,0.0,0.48887693309328595
1782132528.490035,-0.0776367112994194,-0.185546875,0.9667968153953552,0.987497434944646,0.25177001953125,-0.45013427734375,-0.1850128173828125,0.5479404648047742
1782132528.500758,-0.0776367112994194,-0.18408203125,0.9653319716453552,0.9857887545773811,0.2498626708984375,-0.2040863037109375,-0.3032684326171875,0.4427802117224521
1782132528.511481,-0.07958984375,-0.1806640625,0.9755858778953552,0.9953601618791081,0.00762939453125,-0.57220458984375,-0.1201629638671875,0.5847353573921408
1782132528.519472,-0.07080078125,-0.17724609375,0.9843749403953552,1.0027078097100885,0.00762939453125,-0.324249267578125,-0.3032684326171875,0.44403551367874794
1782132528.527465,-0.080078125,-0.19921875,0.9687499403953552,0.9922585668418703,-0.2994537353515625,-0.0820159912109375,-0.3032684326171875,0.4340171709188495
1782132528.535458,-0.08154296875,-0.17919921875,0.9780272841453552,0.9976467231870775,-0.17547607421875,0.164031982421875,-0.1850128173828125,0.3031964486540047
1782132528.554173,-0.0849609375,-0.19384765625,0.9765624403953552,0.9992344443249687,-0.2384185791015625,-0.2040863037109375,-0.3032684326171875,0.4364245415249773
1782132528.564897,-0.0825195237994194,-0.1875,0.9731444716453552,0.9944726665434301,-0.05340576171875,-0.45013427734375,-0.4863739013671875,0.6648553338551768
1782132528.575621,-0.0712890625,-0.189453125,0.9912108778953552,1.0116687310886283,0.3719329833984375,-0.6923675537109375,-0.1850128173828125,0.8074259818505076
1782132528.583605,-0.0883788987994194,-0.1796875,0.9692382216453552,0.9897076122307531,0.31280517578125,-0.38909912109375,0.1201629638671875,0.5135020369159352
1782132528.591592,-0.0747070237994194,-0.1787109375,0.9765624403953552,0.9955867308165711,0.1926422119140625,-0.5092620849609375,0.3032684326171875,0.6232420358191425
1782132528.599579,-0.0834960862994194,-0.1943359375,0.9858397841453552,1.0082748301108604,0.3719329833984375,-0.3871917724609375,0.1850128173828125,0.5678744186851796
1782132528.607566,-0.0830078125,-0.18212890625,0.9736327528953552,0.9939929441089832,0.2498626708984375,0.1010894775390625,0.1850128173828125,0.32692534220146874
1782132528.618165,-0.0722656175494194,-0.19384765625,0.9692382216453552,0.991071119351012,0.1277923583984375,0.4673004150390625,0.3681182861328125,0.6084501929871285
1782132528.628764,-0.07666015625,-0.1806640625,0.9702147841453552,0.9898651475880422,0.12969970703125,0.652313232421875,0.4863739013671875,0.8239503256433641
1782132528.639363,-0.07958984375,-0.1865234375,0.9794921278953552,1.0002651471354667,0.12969970703125,0.58746337890625,0.4863739013671875,0.7736244615387229
1782132528.647493,-0.0751953125,-0.1845703125,0.9814452528953552,1.0014765697254968,-0.05340576171875,0.70953369140625,0.3681182861328125,0.8011250259545627
1782132528.655625,-0.08056640625,-0.18359375,0.9863280653953552,1.0064992118435299,0.00762939453125,0.52642822265625,0.4291534423828125,0.679233066317409
1782132528.663757,-0.08642578125,-0.18408203125,0.9833983778953552,1.0042051481350884,-0.23651123046875,0.52642822265625,0.0,0.5771171767906934
1782132528.671889,-0.0927734375,-0.18603515625,0.9750975966453552,0.9970111900325273,0.00762939453125,0.22125244140625,0.2460479736328125,0.3309840718493154
1782132528.682702,-0.08251953125,-0.1865234375,0.9726561903953552,0.9938111140900677,-0.6046295166015625,0.1010894775390625,-0.1850128173828125,0.6403324741186298
1782132528.693515,-0.0693359300494194,-0.18359375,0.9633788466453552,0.9831647564872407,-0.2994537353515625,0.1621246337890625,-0.3032684326171875,0.4559919722092998
1782132528.704328,-0.0776367112994194,-0.1953125,0.9814452528953552,1.003697771258095,-0.2994537353515625,0.1010894775390625,-0.2422332763671875,0.39820670796045926
1782132528.714781,-0.07177734375,-0.1875,0.9785155653953552,0.9988998692545702,-0.54168701171875,-0.08392333984375,-0.1850128173828125,0.5785306286025353
1782132528.725235,-0.0849609375,-0.177734375,0.9628905653953552,0.9828357491895104,-0.2994537353515625,-0.2040863037109375,-0.3681182861328125,0.5165605787937712
1782132528.735689,-0.0810546875,-0.1767578125,0.9809569716453552,1.000044882425351,-0.2994537353515625,-0.2040863037109375,-0.4863739013671875,0.6065338662511232
1782132528.743705,-0.0673827975988388,-0.1865234375,0.9707030653953552,0.9907552045369238,-0.05340576171875,-0.14495849609375,-0.1201629638671875,0.1957147895787864
1782132528.751722,-0.0878906175494194,-0.1923828125,0.9780272841453552,1.0006364353407124,-0.17547607421875,-0.324249267578125,0.0,0.3686860997490613
1782132528.759739,-0.0869140550494194,-0.1787109375,0.9707030653953552,0.9908360577387167,-0.1163482666015625,-0.2651214599609375,0.1850128173828125,0.3435928553810937
1782132528.767756,-0.0810546875,-0.19873046875,0.9653319716453552,0.988903168695513,-0.0553131103515625,-0.5092620849609375,0.1850128173828125,0.544644061705855
1782132528.778377,-0.08349609375,-0.1865234375,0.9868163466453552,1.0077544802256209,0.12969970703125,-0.324249267578125,-0.1850128173828125,0.3952079757860012
1782132528.788998,-0.0610351525247097,-0.18359375,0.9628905653953552,0.9821355282292581,0.1926422119140625,-0.5092620849609375,-0.0591278076171875,0.5476814682126088
1782132528.799618,-0.0732421800494194,-0.1884765625,0.9765624403953552,0.9972773092481046,0.12969970703125,-0.57220458984375,0.0629425048828125,0.5900863204338574
1782132528.810124,-0.0571289025247097,-0.1865234375,0.9741210341453552,0.9934618731511091,0.25177001953125,-0.26702880859375,-0.3032684326171875,0.47609271111396906
1782132528.820631,-0.0722656175494194,-0.1787109375,0.9760741591453552,0.994927476157554,0.1277923583984375,-0.2040863037109375,0.1201629638671875,0.26911195460769616
1782132528.831137,-0.07177734375,-0.20361328125,0.9653319716453552,0.9891795442981552,0.55694580078125,0.03814697265625,-0.4253387451171875,0.7018239555818597
1782132528.839222,-0.0849609375,-0.18505859375,0.9663085341453552,0.9875308740407823,0.00762939453125,-0.08392333984375,-0.0591278076171875,0.10294383063136013
1782132528.847305,-0.0893554612994194,-0.1884765625,0.9755858778953552,0.9976350125294818,0.0095367431640625,0.2841949462890625,-0.4863739013671875,0.5633979844635221
1782132528.855388,-0.0722656175494194,-0.18994140625,0.9833983778953552,1.0041774877656053,0.1277923583984375,-0.0209808349609375,-0.6084442138671875,0.622073503445656
1782132528.863471,-0.0747070237994194,-0.17822265625,0.9643554091453552,0.9835272287810226,0.1277923583984375,-0.2040863037109375,-0.4863739013671875,0.5427169411014976
1782132528.874121,-0.09521484375,-0.17626953125,0.9707030653953552,0.9911615687088412,0.00762939453125,0.22125244140625,-0.1850128173828125,0.28851445905719436
1782132528.884771,-0.0859375,-0.1845703125,0.9677733778953552,0.9889574132011871,-0.0553131103515625,0.1621246337890625,0.0,0.1713007211251656
1782132528.895421,-0.080078125,-0.1904296875,0.9604491591453552,0.982414657508673,-0.1163482666015625,0.1621246337890625,0.1201629638671875,0.2329387342366505
1782132528.906077,-0.0830078125,-0.18212890625,0.9731444716453552,0.9935146693037673,0.12969970703125,0.22125244140625,0.2460479736328125,0.3554071779818626
1782132528.916732,-0.08056640625,-0.19189453125,0.9570311903953552,0.9793993855058558,-0.17547607421875,0.34332275390625,0.1850128173828125,0.4276588693911558
1782132528.927387,-0.0878906175494194,-0.185546875,0.9755858778953552,0.9969554697298846,0.0667572021484375,0.4062652587890625,0.5512237548828125,0.6880084392540096
1782132528.935383,-0.0820312425494194,-0.19921875,0.9707030653953552,0.9943247338137091,0.12969970703125,0.34332275390625,0.3032684326171875,0.47609271111396906
1782132528.943381,-0.0810546875,-0.185546875,0.9726561903953552,0.9935077100367132,0.3719329833984375,0.2841949462890625,0.1850128173828125,0.5033196342602099
1782132528.951379,-0.0771484300494194,-0.1728515625,0.9746093153953552,0.992820658816679,-0.05340576171875,0.34332275390625,-0.1201629638671875,0.3676436135986567
1782132528.959377,-0.08642578125,-0.19091796875,0.9736327528953552,0.9959316361914038,0.0667572021484375,0.5893707275390625,-0.3681182861328125,0.6980869939369809
1782132528.969963,-0.07080078125,-0.19091796875,0.9736327528953552,0.9946975213238566,-0.23651123046875,0.34332275390625,-0.2422332763671875,0.48216702050969423
1782132528.980549,-0.0961913987994194,-0.18505859375,0.9731444716453552,0.9952435033787631,-0.05340576171875,0.34332275390625,-0.6084442138671875,0.7006618657547956
1782132528.991135,-0.07373046875,-0.1806640625,0.9736327528953552,0.992993667155882,0.00762939453125,0.09918212890625,-0.4253387451171875,0.43681615177686967
1782132528.999204,-0.083984375,-0.17529296875,0.9760741591453552,0.9952395512079699,0.00762939453125,0.03814697265625,-0.5474090576171875,0.5487896459893239
1782132529.007273,-0.080078125,-0.18994140625,0.9687499403953552,0.9904376259652838,0.19073486328125,-0.26702880859375,-0.6084442138671875,0.6912948242814888
1782132529.015342,-0.0917968675494194,-0.18359375,0.9663085341453552,0.987869178126888,0.0667572021484375,-0.0209808349609375,-0.4863739013671875,0.4913820218582321
1782132529.023411,-0.08837890625,-0.1767578125,0.9853515028953552,1.004973501943144,0.12969970703125,-0.324249267578125,-0.1201629638671875,0.3693219996348574
1782132529.031464,-0.08056640625,-0.173828125,0.9731444716453552,0.9918252495026396,0.4329681396484375,-0.3261566162109375,-0.1850128173828125,0.572773332868006
1782132529.039517,-0.09130859375,-0.173828125,0.9658202528953552,0.985577108721822,0.2498626708984375,-0.3261566162109375,0.2460479736328125,0.47890405921800544
1782132529.04757,-0.0791015550494194,-0.1787109375,0.9794921278953552,0.9987990207255593,0.1926422119140625,-0.2040863037109375,0.2460479736328125,0.37323162580674857
1782132529.055623,-0.07568359375,-0.1972656100988388,0.9755858778953552,0.998203151888148,0.3719329833984375,-0.5092620849609375,0.3681182861328125,0.7302007175453765
1782132529.066775,-0.0820312425494194,-0.1787109375,0.9711913466453552,0.9908982570047992,0.12969970703125,-0.45013427734375,0.3032684326171875,0.5580453600433013
1782132529.077927,-0.07666015625,-0.1796875,0.9677733778953552,0.9872941244510222,0.49591064453125,-0.38909912109375,0.3032684326171875,0.6994978453272134
1782132529.089078,-0.07421875,-0.177734375,0.9799804091453552,0.9987289588356297,0.55694580078125,-0.14495849609375,0.4291534423828125,0.7178957220283789
1782132529.099169,-0.08349609375,-0.18701171875,0.9741210341453552,0.995417887013165,0.98419189453125,-0.63323974609375,0.4291534423828125,1.2465147164806785
1782132529.109262,-0.08447265625,-0.1748046875,0.9785155653953552,0.9975896050715921,0.8602142333984375,-0.5092620849609375,0.3032684326171875,1.044647376267278
1782132529.119354,-0.0703124925494194,-0.18359375,0.9687499403953552,0.9884973235490215,0.43487548828125,-0.08392333984375,0.0629425048828125,0.4473495011725262
1782132529.130057,-0.0751953125,-0.18115234375,0.9785155653953552,0.9979795681220546,0.31280517578125,-0.08392333984375,0.0,0.32386757319322396
1782132529.140759,-0.064453125,-0.18505859375,0.9838866591453552,1.003211765524708,0.0667572021484375,0.5893707275390625,-0.1201629638671875,0.605188827064709
1782132529.151461,-0.0791015550494194,-0.173828125,0.9775390028953552,0.9960199672867494,-0.2994537353515625,0.6504058837890625,-0.1850128173828125,0.7395472235627425
1782132529.159484,-0.0908203125,-0.18212890625,0.9658202528953552,0.9870299025648954,-0.2994537353515625,0.7724761962890625,-0.1850128173828125,0.8488944316257162
1782132529.167506,-0.08447265625,-0.18701171875,0.9682616591453552,0.9897674742961984,-0.66375732421875,0.77056884765625,-0.1201629638671875,1.0241041315792367
1782132529.175528,-0.07958984375,-0.18505859375,0.9809569716453552,1.0014278838580954,-0.66375732421875,0.40435791015625,-0.1201629638671875,0.7864593078127512
1782132529.18355,-0.0874023362994194,-0.18603515625,0.9716796278953552,0.9931815277271394,-0.60272216796875,0.52642822265625,-0.1850128173828125,0.8213588910859213
1782132529.194371,-0.0874023362994194,-0.1923828125,0.9702147841453552,0.9929587314235295,-0.6046295166015625,0.1010894775390625,0.1201629638671875,0.6246879802751985
1782132529.205192,-0.0839843675494194,-0.1787109375,0.9814452528953552,1.001112260241394,-0.6618499755859375,-0.0209808349609375,-0.1201629638671875,0.6729968228038756
1782132529.216012,-0.0898437425494194,-0.17822265625,0.9790038466453552,0.9991415040035592,-0.6046295166015625,0.2841949462890625,-0.1850128173828125,0.6932339882305312
1782132529.226382,-0.0810546875,-0.185546875,0.9687499403953552,0.9896837637366759,-0.72479248046875,0.22125244140625,-0.3032684326171875,0.816240482207514
1782132529.236753,-0.08837890625,-0.19580078125,0.9726561903953552,0.9960968033893404,-0.6046295166015625,0.1010894775390625,-0.3032684326171875,0.6839354333831852
1782132529.247123,-0.1030273362994194,-0.1943359375,0.9697265028953552,0.9943593812332706,-0.35858154296875,0.03814697265625,-0.7305145263671875,0.81467010974637
1782132529.255253,-0.08056640625,-0.19384765625,0.9765624403953552,0.9988703918129669,-0.17547607421875,-0.26702880859375,-0.5474090576171875,0.6338398169912957
1782132529.263385,-0.07666015625,-0.19091796875,0.9716796278953552,0.9932208966865107,-0.11444091796875,-0.63323974609375,-0.5474090576171875,0.8448348809677216
1782132529.271517,-0.0839843675494194,-0.1884765625,0.9799804091453552,1.0014681177716993,0.31280517578125,-0.57220458984375,-0.4863739013671875,0.8135261167073442
1782132529.279649,-0.0810546875,-0.19677734375,0.9775390028953552,1.000436748405752,0.6160736083984375,-0.2040863037109375,-0.3681182861328125,0.746129333904534
1782132529.287577,-0.0771484300494194,-0.18310546875,0.9697265028953552,0.9898732158023585,0.55694580078125,-0.63323974609375,-0.1850128173828125,0.8633718455200348
1782132529.295505,-0.0771484300494194,-0.185546875,0.9687499403953552,0.9893715025698688,0.8602142333984375,-0.5092620849609375,-0.0591278076171875,1.0014052606980042
1782132529.303433,-0.0883788987994194,-0.1787109375,0.9775390028953552,0.9976627341525653,0.6160736083984375,-0.5092620849609375,0.0,0.799308802743866
1782132529.311361,-0.0742187425494194,-0.1796875,0.9760741591453552,0.9952470967318514,0.43487548828125,-0.57220458984375,0.1850128173828125,0.7421351127268104
1782132529.322174,-0.0830078050494194,-0.17578125,0.9628905653953552,0.9823174560589217,0.12969970703125,-0.45013427734375,0.4291534423828125,0.6353074521464313
1782132529.332987,-0.0795898362994194,-0.18896484375,0.9633788466453552,0.9849573881033459,0.0667572021484375,-0.0820159912109375,0.1201629638671875,0.16006962465860577
1782132529.3438,-0.0712890625,-0.18359375,0.9648436903953552,0.9847396317641123,-0.17547607421875,0.09918212890625,0.0629425048828125,0.21116511605500357
1782132529.351845,-0.06884765625,-0.181640625,0.9833983778953552,1.0023999631228668,-0.0057220458984375,-0.0209808349609375,0.1583099365234375,0.15979666218972388
1782132529.35989,-0.0800781175494194,-0.1787109375,0.9833983778953552,1.002707571398363,0.301361083984375,0.286102294921875,0.0972747802734375,0.42677325241519837
1782132529.367935,-0.0732421800494194,-0.189453125,0.9814452528953552,1.0022433277111327,0.423431396484375,0.041961669921875,0.3414154052734375,0.5455450560946968
1782132529.37598,-0.0678710862994194,-0.177734375,0.9785155653953552,0.9968393572352044,0.484466552734375,0.408172607421875,-0.2079010009765625,0.6667349881136865
1782132529.383771,-0.0742187425494194,-0.17431640625,0.9643554091453552,0.9827898994095521,0.6656646728515625,0.5283355712890625,0.2803802490234375,0.8949083844809829
1782132529.391562,-0.0615234337747097,-0.189453125,0.9721679091453552,0.9923648840259053,0.301361083984375,0.102996826171875,0.1583099365234375,0.3556527592241789
1782132529.399353,-0.07177734375,-0.19677734375,0.9770507216453552,0.9992504304511561,0.362396240234375,0.286102294921875,0.2193450927734375,0.5111729920676192
1782132529.407144,-0.0830078125,-0.1865234375,0.9721679091453552,0.9933739141153765,0.179290771484375,0.774383544921875,0.0972747802734375,0.8007980009106401
1782132529.417871,-0.07666015625,-0.18310546875,0.9707030653953552,0.9907920232876176,0.057220458984375,0.530242919921875,0.2803802490234375,0.6025320066984852
1782132529.428598,-0.087890625,-0.1962890625,0.9760741591453552,0.9994873296702323,0.118255615234375,0.896453857421875,0.8296966552734375,1.227196173719976
1782132529.439325,-0.08447265625,-0.189453125,0.9819335341453552,1.0036042953800983,0.6656646728515625,0.6504058837890625,0.5245208740234375,1.0682974387483666
1782132529.447745,-0.0771484300494194,-0.1884765625,0.9682616591453552,0.9894472878540941,0.179290771484375,0.774383544921875,0.5855560302734375,0.987264361746548
1782132529.456165,-0.0791015550494194,-0.18408203125,0.9682616591453552,0.9887739331168062,-0.1888275146484375,0.5931854248046875,0.4634857177734375,0.7761081039835765
1782132529.464585,-0.0869140550494194,-0.18408203125,0.9687499403953552,0.9899074169892171,-0.1888275146484375,0.4062652587890625,0.2193450927734375,0.49881816377417304
1782132529.473005,-0.08642578125,-0.189453125,0.9638671278953552,0.9861043263641933,-0.3681182861328125,-0.0209808349609375,0.3414154052734375,0.5025094496415394
1782132529.483476,-0.0786132737994194,-0.18310546875,0.9770507216453552,0.9971638642526759,-0.431060791015625,0.041961669921875,0.3414154052734375,0.5514876845874931
1782132529.493947,-0.08154296875,-0.18603515625,0.9809569716453552,1.0017658984678763,-0.370025634765625,-0.141143798828125,0.0972747802734375,0.40780255664792425
1782132529.504417,-0.08154296875,-0.181640625,0.9663085341453552,0.9866077009455679,-0.370025634765625,-0.080108642578125,0.0362396240234375,0.3803283783111294
1782132529.514715,-0.08935546875,-0.1845703125,0.9663085341453552,0.9878273043472857,-0.614166259765625,-0.202178955078125,-0.1468658447265625,0.6630581428941404
1782132529.525013,-0.0820312425494194,-0.1748046875,0.9721679091453552,0.991159042282431,-0.431060791015625,-0.141143798828125,-0.4520416259765625,0.64037224261689
1782132529.535311,-0.0776367112994194,-0.19091796875,0.9780272841453552,0.9995071276713112,-0.431060791015625,-0.080108642578125,-0.1468658447265625,0.4623855280109585
1782132529.546045,-0.09130859375,-0.189453125,0.9760741591453552,0.9984740908086601,-0.797271728515625,0.041961669921875,0.0362396240234375,0.7991972855198427
1782132529.55678,-0.08056640625,-0.185546875,0.9736327528953552,0.9944241178435353,-0.247955322265625,0.102996826171875,-0.0858306884765625,0.281881349375389
1782132529.567515,-0.0800781175494194,-0.18310546875,0.9638671278953552,0.9843677960161318,-0.125885009765625,-0.385284423828125,-0.0247955322265625,0.40608612552839113
1782132529.578469,-0.07568359375,-0.1748046875,0.9692382216453552,0.98777903168327,-0.1888275146484375,-0.2651214599609375,0.0362396240234375,0.3275034796295834
1782132529.589423,-0.083984375,-0.1904296875,0.9775390028953552,0.9994495201395284,-0.1888275146484375,0.0400543212890625,-0.1468658447265625,0.2425484596724541
1782132529.600377,-0.0678710862994194,-0.1943359375,0.9687499403953552,0.9903784064565783,-0.064849853515625,-0.202178955078125,-0.0858306884765625,0.22901689994810695
1782132529.60807,-0.08935546875,-0.181640625,0.9804686903953552,1.001147626122894,0.118255615234375,0.164031982421875,-0.2079010009765625,0.29002363351762817
1782132529.615765,-0.0576171837747097,-0.19140625,0.9692382216453552,0.9896357020153638,-0.0057220458984375,0.0400543212890625,0.0362396240234375,0.05431759210929162
1782132529.62346,-0.08544921875,-0.18603515625,0.9726561903953552,0.9939671589445764,0.240325927734375,0.164031982421875,-0.2079010009765625,0.3576113379154735
1782132529.631155,-0.0830078050494194,-0.18408203125,0.9746093153953552,0.9953089005849648,0.057220458984375,-0.080108642578125,-0.3299713134765625,0.34434378643957003
1782132529.6392,-0.0786132737994194,-0.1796875,0.9863280653953552,1.0056394468497427,0.057220458984375,0.041961669921875,-0.2079010009765625,0.21967655513520684
1782132529.647244,-0.0791015625,-0.1875,0.9697265028953552,0.990849533283231,-0.1888275146484375,0.0400543212890625,-0.2689361572265625,0.3310390242947554
1782132529.65529,-0.08349609375,-0.181640625,0.9624022841453552,0.9829461179790561,-0.064849853515625,0.102996826171875,-0.1468658447265625,0.1907443997860074
1782132529.663335,-0.0869140550494194,-0.193359375,0.9702147841453552,0.9931055473814162,-0.1888275146484375,0.0400543212890625,-0.2079010009765625,0.2836952681122651
1782132529.673032,-0.08642578125,-0.1806640625,0.9746093153953552,0.9949734854754069,-0.1888275146484375,-0.1430511474609375,-0.3299713134765625,0.4062025711337197
1782132529.682729,-0.0771484300494194,-0.1953125,0.9814452528953552,1.0036601204322946,-0.125885009765625,0.225067138671875,-0.2079010009765625,0.3312477604463057
1782132529.692426,-0.08544921875,-0.1953125,0.9711913466453552,0.994314423831845,-0.003814697265625,-0.080108642578125,0.2193450927734375,0.23354703221134293
1782132529.702123,-0.07080078125,-0.189453125,0.9643554091453552,0.9853357764466798,0.057220458984375,-0.263214111328125,0.2193450927734375,0.3473731697359844
1782132529.71182,-0.07470703125,-0.185546875,0.9687499403953552,0.9891841235869379,-0.247955322265625,-0.141143798828125,0.0972747802734375,0.30143954064576484
1782132529.721321,-0.0878906175494194,-0.19482421875,0.9833983778953552,1.0063566000737423,0.179290771484375,-0.080108642578125,0.4024505615234375,0.4478046782088172
1782132529.730823,-0.078125,-0.17626953125,0.9765624403953552,0.9954138150854781,-0.064849853515625,-0.080108642578125,0.2193450927734375,0.24235339453058152
1782132529.740324,-0.076171875,-0.18603515625,0.9692382216453552,0.9898656293660409,-0.064849853515625,0.102996826171875,0.1583099365234375,0.1996894731940877
1782132529.749827,-0.0776367112994194,-0.19091796875,0.9790038466453552,1.0004627236831054,-0.064849853515625,0.408172607421875,-0.0858306884765625,0.4221105163756653
1782132529.759329,-0.07275390625,-0.19140625,0.9682616591453552,0.9896767775312364,-0.2498626708984375,0.4673004150390625,-0.0858306884765625,0.5368127599904288
1782132529.769174,-0.07568359375,-0.18701171875,0.9702147841453552,0.9909682722907744,-0.247955322265625,0.713348388671875,-0.2079010009765625,0.7833074694318107
1782132529.779019,-0.0839843675494194,-0.18896484375,0.9770507216453552,0.9986937462675168,-0.3108978271484375,0.1621246337890625,-0.3299713134765625,0.48147993055194444
1782132529.788864,-0.08837890625,-0.1875,0.9838866591453552,1.0054849770703462,-0.3108978271484375,-0.0209808349609375,-0.2689361572265625,0.41161184509810717
1782132529.798709,-0.08056640625,-0.1904296875,0.9804686903953552,1.0020345625491023,-0.492095947265625,-0.263214111328125,-0.1468658447265625,0.577069897035666
1782132529.808554,-0.0820312425494194,-0.18701171875,0.9760741591453552,0.9972077375629127,-0.1888275146484375,-0.2002716064453125,-0.2079010009765625,0.3449454635787354
1782132529.817924,-0.08642578125,-0.181640625,0.9697265028953552,0.990369740416537,-0.1888275146484375,-0.5664825439453125,-0.2689361572265625,0.654893090165753
1782132529.827294,-0.080078125,-0.18701171875,0.9799804091453552,1.0008733642984224,-0.3108978271484375,-0.5092620849609375,-0.1468658447265625,0.6144712413544084
1782132529.836663,-0.0776367112994194,-0.17529296875,0.9765624403953552,0.9952031369652677,-0.308990478515625,-0.568389892578125,0.2193450927734375,0.6831211133628321
1782132529.846034,-0.0810546875,-0.19482421875,0.9692382216453552,0.9919420693142927,0.118255615234375,-0.385284423828125,0.5245208740234375,0.66147609561143
1782132529.855404,-0.0830078050494194,-0.18798828125,0.9614257216453552,0.9831425673968875,-0.125885009765625,-0.202178955078125,0.5855560302734375,0.6321386162462793
1782132529.865096,-0.0849609375,-0.18505859375,0.9814452528953552,1.0023471596470128,-0.247955322265625,-0.507354736328125,0.7686614990234375,0.9537982860098823
1782132529.87479,-0.0703125,-0.19580078125,0.9643554091453552,0.9865410020583361,-0.125885009765625,0.102996826171875,0.4634857177734375,0.49119689785780357
1782132529.884484,-0.08056640625,-0.18701171875,0.9853515028953552,1.0061719102737883,0.240325927734375,0.164031982421875,0.2193450927734375,0.36438346905756613
1782132529.894177,-0.0625,-0.173828125,0.9809569716453552,0.9981978998478417,0.3604888916015625,0.3452301025390625,0.1583099365234375,0.5236392848796865
1782132529.903872,-0.06640625,-0.18505859375,0.9853515028953552,1.0047756254099347,0.850677490234375,-0.080108642578125,-0.3299713134765625,0.9159424953154062
1782132529.913378,-0.08642578125,-0.18603515625,0.9750975966453552,0.996440574248752,0.789642333984375,-0.446319580078125,-0.2689361572265625,0.9460776077284545
1782132529.922884,-0.0839843675494194,-0.189453125,0.9667968153953552,0.9887577776298613,0.7915496826171875,-0.3261566162109375,0.0362396240234375,0.8568794248311131
1782132529.93239,-0.07666015625,-0.1796875,0.9541015028953552,0.9738963266383645,0.5435943603515625,-0.0209808349609375,-0.1468658447265625,0.5634754656495075
1782132529.941896,-0.0624999962747097,-0.18505859375,0.9506835341453552,0.9705421756678939,0.1773834228515625,0.4673004150390625,-0.0247955322265625,0.5004491732599973
1782132529.951402,-0.095703125,-0.19677734375,0.9619140028953552,0.9864881956284306,-0.492095947265625,0.408172607421875,-0.1468658447265625,0.6559976182213405
1782132529.96103,-0.0771484300494194,-0.18017578125,0.9785155653953552,0.9979518546148054,-1.224517822265625,1.018524169921875,-0.3299713134765625,1.6265658454174676
1782132529.970656,-0.0844726487994194,-0.19287109375,0.9868163466453552,1.009029924831765,-0.919342041015625,0.896453857421875,-0.2079010009765625,1.3007851986674783
1782132529.980282,-0.0849609375,-0.185546875,0.9736327528953552,0.9947897975118826,-1.1043548583984375,0.6504058837890625,-0.2689361572265625,1.3095625695626212
1782132529.989908,-0.0893554612994194,-0.18896484375,0.9672850966453552,0.989612332597825,-1.346588134765625,-0.080108642578125,-0.0247955322265625,1.3491967305495791
1782132529.999534,-0.0830078125,-0.1865234375,0.9721679091453552,0.9933739141153765,-1.102447509765625,0.102996826171875,-0.1468658447265625,1.1169460301810263
1782132530.009231,-0.078125,-0.19091796875,0.9692382216453552,0.9909469797697941,-1.2874603271484375,-0.3261566162109375,-0.2689361572265625,1.3550863031346456
1782132530.018928,-0.08642578125,-0.1826171875,0.9653319716453552,0.9862475694853661,-1.285552978515625,-0.202178955078125,-0.0247955322265625,1.3015904151710997
1782132530.028625,-0.0825195237994194,-0.2060546875,0.9770507216453552,1.0019461655780288,-1.2874603271484375,-0.3261566162109375,-0.3299713134765625,1.3685076908796598
1782132530.038322,-0.0751953125,-0.19140625,0.9692382216453552,0.9908145224305536,-0.7991790771484375,-0.5092620849609375,-0.1468658447265625,0.9589601894123844
1782132530.048019,-0.0825195237994194,-0.18310546875,0.9814452528953552,1.0017843425234134,-0.6160736083984375,-0.3261566162109375,-0.4520416259765625,0.8308227614111053
1782132530.055925,-0.0781249925494194,-0.203125,0.9790038466453552,1.002901695996297,-0.1888275146484375,0.1049041748046875,-0.1468658447265625,0.2612092887456437
1782132530.06383,-0.0722656175494194,-0.1923828125,0.9692382216453552,0.990785646001929,0.179290771484375,0.225067138671875,-0.0858306884765625,0.3002787117558754
1782132530.071734,-0.0849609375,-0.1865234375,0.9687499403953552,0.9901948296439946,0.4825592041015625,0.0400543212890625,-0.1468658447265625,0.5060012949235483
1782132530.079639,-0.07861328125,-0.19580078125,0.9916991591453552,1.0138960578760559,0.606536865234375,0.102996826171875,-0.2689361572265625,0.671432775304879
1782132530.087545,-0.0805663987994194,-0.203125,0.9711913466453552,0.9954714169876128,0.728607177734375,0.347137451171875,-0.1468658447265625,0.820330668571768
1782132530.09545,-0.0781249925494194,-0.1796875,0.9682616591453552,0.9878875202612961,0.728607177734375,0.164031982421875,-0.4520416259765625,0.8729928649873582
1782132530.104987,-0.07763671875,-0.1767578125,0.9687499403953552,0.9877991857630052,0.4825592041015625,-0.1430511474609375,-0.2079010009765625,0.5445639011723794
1782132530.114524,-0.0722656175494194,-0.17822265625,0.9687499403953552,0.9876548393525993,0.1201629638671875,-0.0209808349609375,-0.1468658447265625,0.19091597541392882
1782132530.124061,-0.0893554612994194,-0.18408203125,0.9741210341453552,0.995380521136301,-0.247955322265625,0.102996826171875,-0.1468658447265625,0.30603882823683687
1782132530.133598,-0.0859375,-0.17236328125,0.9702147841453552,0.9891466433263244,-0.125885009765625,0.102996826171875,-0.0858306884765625,0.1839083711241325
1782132530.143135,-0.0791015550494194,-0.18798828125,0.9643554091453552,0.9856865653170235,-0.736236572265625,-0.080108642578125,-0.0858306884765625,0.745539128444314
1782132530.151176,-0.08154296875,-0.17919921875,0.9692382216453552,0.98903202478556,-0.492095947265625,0.591278076171875,0.1583099365234375,0.7853853962729516
1782132530.159217,-0.0756835862994194,-0.18798828125,0.9868163466453552,1.0074095994822347,-0.6771087646484375,0.1621246337890625,0.2803802490234375,0.7505822806910749
1782132530.167258,-0.0810546875,-0.1923827975988388,0.9799804091453552,1.0019693635467983,-0.1277923583984375,-0.1430511474609375,0.2803802490234375,0.3397169434946841
1782132530.175298,-0.0751953125,-0.19970703125,0.9907225966453552,1.013443879480446,0.057220458984375,-0.385284423828125,0.0972747802734375,0.4014731012760361
1782132530.18334,-0.083984375,-0.1728515625,0.9775390028953552,0.996249737808988,0.240325927734375,0.041961669921875,0.4634857177734375,0.5237712705599449
1782132530.191381,-0.0776367112994194,-0.18603515625,0.9804686903953552,1.0009772180963632,0.240325927734375,0.164031982421875,0.1583099365234375,0.3312477604463057
1782132530.200989,-0.0825195237994194,-0.19482421875,0.9697265028953552,0.9925398926175644,0.1773834228515625,0.0400543212890625,0.3414154052734375,0.38682516246295207
1782132530.210597,-0.0922851487994194,-0.18310546875,0.9755858778953552,0.9969011819252394,0.545501708984375,0.041961669921875,0.2803802490234375,0.6147731128554265
1782132530.220205,-0.0615234375,-0.19287109375,0.9643554091453552,0.9853759421226211,0.423431396484375,0.652313232421875,0.4024505615234375,0.8756558428925791
1782132530.229813,-0.0791015625,-0.1962890625,0.9672850966453552,0.9901650930220094,0.240325927734375,0.713348388671875,0.2803802490234375,0.8032655595782713
1782132530.239421,-0.07666015625,-0.189453125,0.9697265028953552,0.9910291401095103,-0.0057220458984375,0.6504058837890625,0.4024505615234375,0.7648705837899804
1782132530.24901,-0.0693359300494194,-0.18798828125,0.9785155653953552,0.9988191912474143,-0.0057220458984375,0.6504058837890625,0.1583099365234375,0.6694195929898901
1782132530.258599,-0.0834960862994194,-0.173828125,0.9687499403953552,0.9877571870071814,0.1773834228515625,0.6504058837890625,-0.2689361572265625,0.7258232216137467
1782132530.268188,-0.08642578125,-0.1923828125,0.9692382216453552,0.9919189949327182,-0.247955322265625,0.530242919921875,0.3414154052734375,0.6776458329578596
1782132530.277777,-0.0825195237994194,-0.17626953125,0.9604491591453552,0.9799709213839957,-0.1277923583984375,0.3452301025390625,0.0362396240234375,0.36990271817536896
1782132530.287366,-0.0810546875,-0.16796875,0.9692382216453552,0.9870187909257533,-0.553131103515625,0.225067138671875,-0.1468658447265625,0.614962446766959
1782132530.295367,-0.0874023362994194,-0.17431640625,0.9614257216453552,0.9810019348196026,-0.553131103515625,0.041961669921875,-0.2689361572265625,0.61647502470322
1782132530.303368,-0.0820312425494194,-0.1728515625,0.9716796278953552,0.9903373600343214,-0.370025634765625,0.347137451171875,-0.0858306884765625,0.5145777759233003
1782132530.311369,-0.080078125,-0.1708984375,0.9726561903953552,0.9907970764782578,-0.1888275146484375,0.2880096435546875,-0.3910064697265625,0.5210484089188194
1782132530.31937,-0.0800781175494194,-0.1982421875,0.9750975966453552,0.9982623867493915,-0.553131103515625,0.102996826171875,-0.3299713134765625,0.6522602483635963
1782132530.330262,-0.080078125,-0.19970703125,0.9741210341453552,0.9976007185235085,-0.247955322265625,0.225067138671875,-0.0858306884765625,0.3456934564526145
1782132530.341156,-0.0781249925494194,-0.1875,0.9692382216453552,0.9902941455744841,-0.1888275146484375,-0.0820159912109375,-0.2689361572265625,0.33868733334213846
1782132530.352049,-0.0869140550494194,-0.19384765625,0.9731444716453552,0.996062814029652,-0.308990478515625,-0.080108642578125,-0.1468658447265625,0.3513717216514036
1782132530.359823,-0.08447265625,-0.1865234375,0.9667968153953552,0.9882422297439771,0.1201629638671875,-0.0209808349609375,-0.0247955322265625,0.12447550658424172
1782132530.3676,-0.0966796800494194,-0.18212890625,0.9707030653953552,0.9923620005795358,-0.1277923583984375,-0.0209808349609375,0.3414154052734375,0.3651514223698415
1782132530.375377,-0.09423828125,-0.1953125,0.9780272841453552,1.0017810114201324,0.3604888916015625,-0.1430511474609375,0.2193450927734375,0.4455649688673941
1782132530.383154,-0.07177734375,-0.19482421875,0.9721679091453552,0.9940920012048207,0.240325927734375,-0.263214111328125,0.1583099365234375,0.3900003281353715
1782132530.393955,-0.06982421875,-0.1875,0.9775390028953552,0.9978046771315984,0.301361083984375,-0.141143798828125,0.1583099365234375,0.36851337952634305
1782132530.404758,-0.06982421875,-0.18701171875,0.9843749403953552,1.0044116824052955,0.1773834228515625,-0.1430511474609375,0.2193450927734375,0.31629223704703063
1782132530.41556,-0.07080078125,-0.2026367038488388,0.9775390028953552,1.000828100401851,0.179290771484375,-0.263214111328125,-0.2689361572265625,0.4168375052769452
1782132530.426089,-0.076171875,-0.1806640625,0.9648436903953552,0.9845633574919126,0.179290771484375,0.225067138671875,-0.3299713134765625,0.4378144188658652
1782132530.436617,-0.07373046875,-0.18603515625,0.9780272841453552,0.9982898526559288,0.301361083984375,0.041961669921875,-0.5130767822265625,0.5965124216165438
1782132530.447145,-0.0727538987994194,-0.177734375,0.9794921278953552,0.9981420071593659,0.1201629638671875,-0.0209808349609375,-0.6351470947265625,0.6467543314587062
1782132530.455461,-0.0825195237994194,-0.189453125,0.9619140028953552,0.9838600039367968,0.179290771484375,0.102996826171875,-0.8182525634765625,0.8439732131868332
1782132530.463778,-0.08642578125,-0.17919921875,0.9750975966453552,0.9951869666795436,0.118255615234375,0.164031982421875,-0.5130767822265625,0.5514876845874931
1782132530.472095,-0.0874023362994194,-0.17724609375,0.9819335341453552,1.001623088601405,-0.064849853515625,-0.019073486328125,-0.2079010009765625,0.2186141065639723
1782132530.480412,-0.0903320237994194,-0.18798828125,0.9868163466453552,1.0086158686127806,-0.247955322265625,0.225067138671875,-0.3910064697265625,0.5148039608606603
1782132530.490786,-0.0820312425494194,-0.189453125,0.9672850966453552,0.9890713167000049,-0.003814697265625,0.102996826171875,0.0972747802734375,0.14172254934890688
1782132530.50116,-0.07958984375,-0.19091796875,0.9716796278953552,0.9934513139991468,-0.064849853515625,0.041961669921875,0.2803802490234375,0.2908253243548011
1782132530.511533,-0.0751953125,-0.1962890625,0.9624022841453552,0.9850897865714062,-0.064849853515625,-0.141143798828125,0.2193450927734375,0.2687737806640003
1782132530.522073,-0.0708007737994194,-0.18798828125,0.9736327528953552,0.9941393669745271,-0.247955322265625,-0.263214111328125,0.4634857177734375,0.5878626717372546
1782132530.532613,-0.0805663987994194,-0.17822265625,0.9755858778953552,0.9949985251070294,0.118255615234375,-0.080108642578125,0.4634857177734375,0.4849956656817965
1782132530.543153,-0.08349609375,-0.1826171875,0.9716796278953552,0.9922106299111974,0.0553131103515625,0.1621246337890625,0.1583099365234375,0.23325088008420583
1782132530.551264,-0.07177734375,-0.19775390625,0.9746093153953552,0.9970566243540747,0.118255615234375,0.102996826171875,-0.2689361572265625,0.3113187970549326
1782132530.559374,-0.07666015625,-0.18310546875,0.9838866591453552,1.003711786463943,-0.0057220458984375,0.2231597900390625,-0.2079010009765625,0.30505058581585925
1782132530.567484,-0.0781249925494194,-0.17333984375,0.9711913466453552,0.9896276308243115,0.057220458984375,0.225067138671875,-0.3910064697265625,0.4547696748952779
1782132530.575594,-0.076171875,-0.18896484375,0.9682616591453552,0.989464757980492,0.118255615234375,0.286102294921875,-0.2689361572265625,0.4100799560546875
1782132530.586284,-0.0722656175494194,-0.19091796875,0.9780272841453552,0.9991042782433495,0.057220458984375,0.347137451171875,-0.4520416259765625,0.5728177917523363
1782132530.596974,-0.0747070237994194,-0.18408203125,0.9824218153953552,1.0023073166443506,0.1773834228515625,0.0400543212890625,-0.5741119384765625,0.6022239992376425
1782132530.607664,-0.0732421875,-0.18115234375,0.9663085341453552,0.9858665086298695,0.118255615234375,-0.385284423828125,-0.3910064697265625,0.5615287500627729
1782132530.61573,-0.0776367112994194,-0.18896484375,0.9682616591453552,0.9895786030860648,0.057220458984375,-0.385284423828125,0.0362396240234375,0.3911925082619974
1782132530.623795,-0.08544921875,-0.1826171875,0.9663085341453552,0.9871184271998678,-0.003814697265625,-0.080108642578125,-0.1468658447265625,0.16733655571388134
1782132530.63186,-0.0703125,-0.17626953125,0.9614257216453552,0.9799766392851601,0.1773834228515625,-0.2002716064453125,0.2193450927734375,0.3459564492454365
1782132530.639925,-0.0947265550494194,-0.1787109375,0.9829100966453552,1.0035053450286358,-0.0057220458984375,-0.3261566162109375,0.2803802490234375,0.430144120208422
1782132530.647924,-0.0927734300494194,-0.18212890625,0.9697265028953552,0.9910334697842506,0.118255615234375,-0.080108642578125,0.3414154052734375,0.37008953525896393
1782132530.655923,-0.07568359375,-0.17431640625,0.9814452528953552,0.9996744471484994,0.118255615234375,-0.141143798828125,0.3414154052734375,0.38790519645928995
1782132530.663922,-0.0820312425494194,-0.19287109375,0.9619140028953552,0.9844830788412203,0.118255615234375,-0.141143798828125,0.5245208740234375,0.5559029679435122
1782132530.671921,-0.0654296875,-0.18505859375,0.9711913466453552,0.9908281177509517,0.3604888916015625,-0.1430511474609375,0.5245208740234375,0.6523327517795843
1782132530.681461,-0.0722656175494194,-0.1875,0.9702147841453552,0.9908053778891277,0.423431396484375,0.102996826171875,0.4634857177734375,0.6361772585609659
1782132530.691,-0.0776367112994194,-0.17236328125,0.9736327528953552,0.9918151527251657,0.789642333984375,0.225067138671875,0.4024505615234375,0.914416036058405
1782132530.700541,-0.0820312425494194,-0.1875,0.9741210341453552,0.9953879464402902,1.094818115234375,0.041961669921875,0.0972747802734375,1.0999317570036913
1782132530.710081,-0.07421875,-0.18505859375,0.9770507216453552,0.9971876546768915,1.277923583984375,-0.263214111328125,0.2803802490234375,1.334534914847929
1782132530.719621,-0.080078125,-0.1943359375,0.9741210341453552,0.9965393880183241,1.1539459228515625,-0.2002716064453125,0.5245208740234375,1.2832856488328082
1782132530.730193,-0.080078125,-0.1865234375,0.9746093153953552,0.9955233882213592,1.338958740234375,-0.263214111328125,0.0362396240234375,1.3650661107805875
1782132530.740765,-0.083984375,-0.181640625,0.9692382216453552,0.9896814751185262,1.033782958984375,-0.080108642578125,0.2193450927734375,1.0598286987178578
1782132530.751337,-0.0693359375,-0.1767578125,0.9633788466453552,0.9819111969381569,0.423431396484375,0.164031982421875,-0.0247955322265625,0.4547696748952779
1782132530.762003,-0.06884765625,-0.185546875,0.9741210341453552,0.9940218467205839,0.118255615234375,0.041961669921875,-0.0247955322265625,0.1279061792701644
1782132530.77267,-0.07861328125,-0.19091796875,0.9584960341453552,0.9804817011310775,-0.308990478515625,0.225067138671875,-0.0247955322265625,0.38307329734876905
1782132530.783337,-0.0771484300494194,-0.18310546875,0.9741210341453552,0.994178697272107,-0.614166259765625,1.018524169921875,0.1583099365234375,1.1998557060545223
1782132530.791413,-0.064453125,-0.18505859375,0.9497069716453552,0.9697134733697294,-1.0395050048828125,0.4673004150390625,-0.1468658447265625,1.1491344174722742
1782132530.799489,-0.0800781175494194,-0.18359375,0.9765624403953552,0.9968918546864814,-0.980377197265625,0.408172607421875,-0.0858306884765625,1.065415990799995
1782132530.807564,-0.08984375,-0.1767578125,0.9716796278953552,0.9917038484147894,-0.858306884765625,0.591278076171875,-0.3299713134765625,1.0932435865419168
1782132530.815641,-0.08154296875,-0.1943359375,0.9746093153953552,0.9971354120739923,-0.6771087646484375,0.5931854248046875,0.1583099365234375,0.9140061615582826
1782132530.82625,-0.083984375,-0.17626953125,0.9731444716453552,0.9925394126104781,-1.407623291015625,0.225067138671875,0.0362396240234375,1.4259634836379802
1782132530.836859,-0.0932617112994194,-0.18017578125,0.9721679091453552,0.9931120291868364,-0.553131103515625,-0.141143798828125,-0.1468658447265625,0.5894447946765617
1782132530.847468,-0.07177734375,-0.1845703125,0.9746093153953552,0.9945257688906589,-0.4940032958984375,-0.2002716064453125,-0.0247955322265625,0.5336316998877633
1782132530.85557,-0.0810546875,-0.18798828125,0.9814452528953552,1.0025688209214765,-0.4940032958984375,-0.2002716064453125,-0.2689361572265625,0.5970549634418055
1782132530.863671,-0.07861328125,-0.1875,0.9770507216453552,0.9979801654625211,-0.064849853515625,-0.080108642578125,-0.3299713134765625,0.3456934564526145
1782132530.871772,-0.07861328125,-0.1953125,0.9741210341453552,0.9966136712937255,0.240325927734375,-0.141143798828125,-0.0247955322265625,0.2798087595258961
1782132530.879873,-0.0961913913488388,-0.19091796875,0.9741210341453552,0.997303486269685,0.545501708984375,0.041961669921875,-0.1468658447265625,0.5664825439453125
1782132530.887961,-0.08154296875,-0.18505859375,0.9799804091453552,1.0006285730389617,0.6656646728515625,-0.1430511474609375,-0.4520416259765625,0.8172604964685392
1782132530.896049,-0.078125,-0.19189453125,0.9731444716453552,0.9949558731132626,0.728607177734375,-0.263214111328125,0.0362396240234375,0.7755407134365454
1782132530.904137,-0.0688476487994194,-0.1923828125,0.9814452528953552,1.002489865146499,0.5435943603515625,-0.3261566162109375,-0.0247955322265625,0.6344192504350665
1782132530.912225,-0.087890625,-0.18701171875,0.9760741591453552,0.9977068252066996,0.606536865234375,-0.263214111328125,-0.2079010009765625,0.6931027798946225
1782132530.921689,-0.07177734375,-0.181640625,0.9726561903953552,0.9920712516954625,0.4825592041015625,-0.1430511474609375,-0.1468658447265625,0.5243058197276387
1782132530.931153,-0.0800781175494194,-0.18310546875,0.9653319716453552,0.9858021774560679,0.1773834228515625,-0.1430511474609375,-0.2689361572265625,0.35249846262958007
1782132530.940617,-0.0673828050494194,-0.17236328125,0.9584960341453552,0.9761988478849832,0.1201629638671875,-0.0209808349609375,-0.3299713134765625,0.3517959650684655
1782132530.950081,-0.06396484375,-0.18603515625,0.9619140028953552,0.981824388352158,-0.1888275146484375,0.1049041748046875,-0.2689361572265625,0.3449454635787354
1782132530.959545,-0.08642578125,-0.189453125,0.9677733778953552,0.9899228319419269,-0.1888275146484375,0.1621246337890625,-0.2079010009765625,0.32428853414297604
1782132530.969328,-0.068359375,-0.18603515625,0.9658202528953552,0.985946674224423,-0.4329681396484375,-0.0209808349609375,-0.2689361572265625,0.5101257316094507
1782132530.979111,-0.09326171875,-0.18701171875,0.9731444716453552,0.9953297412556056,0.057220458984375,-0.080108642578125,-0.4520416259765625,0.4626372306220358
1782132530.988894,-0.07177734375,-0.185546875,0.9775390028953552,0.9975781333207523,0.240325927734375,-0.324249267578125,-0.3299713134765625,0.5213206372126337
1782132530.998677,-0.0683593675494194,-0.1884765625,0.9638671278953552,0.9844979725630795,0.3032684326171875,-0.3261566162109375,-0.2079010009765625,0.4915004646257326
1782132531.00846,-0.0776367112994194,-0.189453125,0.9658202528953552,0.987283498503091,0.0553131103515625,-0.0209808349609375,-0.2079010009765625,0.21615402337101863
1782132531.017851,-0.0830078125,-0.181640625,0.9677733778953552,0.9881644218192698,0.057220458984375,-0.263214111328125,0.0972747802734375,0.286388254308522
1782132531.027241,-0.0771484300494194,-0.1787109375,0.9809569716453552,1.0000830263837324,0.301361083984375,-0.080108642578125,0.2193450927734375,0.38124554722610887
1782132531.036631,-0.0859375,-0.18408203125,0.9658202528953552,0.9869550187512215,0.057220458984375,0.347137451171875,0.5855560302734375,0.6831211133628321
1782132531.046021,-0.0859375,-0.1767578125,0.9755858778953552,0.995186607292766,0.423431396484375,0.530242919921875,0.5855560302734375,0.896285426772951
1782132531.055411,-0.08056640625,-0.1923827975988388,0.9726561903953552,0.994767385544179,0.118255615234375,0.408172607421875,0.3414154052734375,0.5451181036638374
1782132531.063413,-0.08056640625,-0.18408203125,0.9638671278953552,0.9845897522737107,-0.125885009765625,0.591278076171875,0.5245208740234375,0.8003617596634136
1782132531.071416,-0.08056640625,-0.1728515625,0.9794921278953552,0.9978844808311743,-0.1277923583984375,0.4673004150390625,0.0972747802734375,0.49412847280637484
1782132531.079419,-0.0742187425494194,-0.18310546875,0.9838866591453552,1.003528271886738,-0.0057220458984375,0.3452301025390625,0.4634857177734375,0.5779581092850536
1782132531.087422,-0.07568359375,-0.1826171875,0.9716796278953552,0.9915837548085291,-0.064849853515625,0.286102294921875,-0.0858306884765625,0.30565819757520374
1782132531.095425,-0.0820312425494194,-0.18310546875,0.9785155653953552,0.9988740907448499,-0.3108978271484375,0.4673004150390625,-0.0858306884765625,0.5677975377770323
1782132531.103428,-0.0732421800494194,-0.18310546875,0.9707030653953552,0.9905334273978279,-0.492095947265625,0.408172607421875,-0.3910064697265625,0.7494326908621308
1782132531.115431,-0.07958984375,-0.1826171875,0.9677733778953552,0.9880632021088255,-0.1888275146484375,0.2880096435546875,0.1583099365234375,0.3790348546913052
1782132531.127434,-0.07177734375,-0.177734375,0.9667968153953552,0.9856153293202409,-0.3108978271484375,0.1621246337890625,-0.3299713134765625,0.48147993055194444
1782132531.139436,-0.08642578125,-0.1884765625,0.9785155653953552,1.0002427415370136,-0.370025634765625,-0.202178955078125,-0.3299713134765625,0.5354216730555779
1782132531.15144,-0.0922851487994194,-0.17578125,0.9707030653953552,0.9907976774843755,-0.125885009765625,-0.202178955078125,-0.2689361572265625,0.35923532986604245
1782132531.159393,-0.09326171875,-0.19140625,0.9707030653953552,0.993779926287106,-0.0057220458984375,-0.1430511474609375,0.0362396240234375,0.14768101756324276
1782132531.167347,-0.0849609375,-0.1748046875,0.9667968153953552,0.9861395042951338,-0.125885009765625,-0.202178955078125,0.0362396240234375,0.2409080237549885
1782132531.175301,-0.0727538987994194,-0.19775390625,0.9633788466453552,0.9861534056075579,-0.1277923583984375,-0.5092620849609375,0.0972747802734375,0.533986086823469
1782132531.183254,-0.07666015625,-0.18505859375,0.9746093153953552,0.994980793951524,-0.247955322265625,-0.202178955078125,0.2193450927734375,0.38790519645928995
1782132531.191209,-0.0810546875,-0.1923827975988388,0.9702147841453552,0.9924201381229104,-0.064849853515625,-0.263214111328125,0.0972747802734375,0.2880096435546875
1782132531.199163,-0.09130859375,-0.2001953125,0.9760741591453552,1.0005679320220529,0.3032684326171875,-0.0209808349609375,0.1583099365234375,0.34274476459867115
1782132531.208897,-0.0922851487994194,-0.17822265625,0.9624022841453552,0.9831063118594722,0.301361083984375,-0.446319580078125,0.2193450927734375,0.5814911351217138
1782132531.218631,-0.0732421800494194,-0.1826171875,0.9682616591453552,0.9880506539037954,-0.0057220458984375,-0.2002716064453125,-0.0247955322265625,0.20188183815254027
1782132531.228364,-0.07666015625,-0.189453125,0.9711913466453552,0.9924625423296128,0.1773834228515625,-0.2002716064453125,-0.2689361572265625,0.37934186654588065
1782132531.238099,-0.0859375,-0.1875,0.9692382216453552,0.9909410851329663,-0.064849853515625,-0.324249267578125,-0.1468658447265625,0.36181855587185585
1782132531.247833,-0.07080078125,-0.18017578125,0.9799804091453552,0.9989182474473854,-0.125885009765625,0.041961669921875,0.0972747802734375,0.16453024130405156
1782132531.258264,-0.0732421800494194,-0.1884765625,0.9677733778953552,0.9886724141560712,-0.0057220458984375,-0.2651214599609375,-0.2689361572265625,0.37768874355065596
1782132531.268698,-0.0834960862994194,-0.18017578125,0.9746093153953552,0.9946347200011524,0.118255615234375,-0.080108642578125,-0.0858306884765625,0.1666394078077903
1782132531.279132,-0.0878906175494194,-0.19384765625,0.9663085341453552,0.9894715042127193,0.1773834228515625,-0.0209808349609375,-0.2079010009765625,0.27409469229675165
1782132531.290196,-0.0771484300494194,-0.1943359375,0.9609374403953552,0.9834221378516302,0.118255615234375,0.164031982421875,0.0972747802734375,0.22439533121024688
1782132531.301259,-0.0693359375,-0.1806640625,0.9643554091453552,0.9835793464972276,0.057220458984375,0.041961669921875,0.0362396240234375,0.07967605046922845
1782132531.312321,-0.0874023362994194,-0.18115234375,0.9707030653953552,0.9913222388328904,-0.125885009765625,0.041961669921875,0.1583099365234375,0.206566825575596
1782132531.320949,-0.0869140550494194,-0.18701171875,0.9829100966453552,1.004310556552277,-0.0057220458984375,0.2231597900390625,-0.2689361572265625,0.34951350526600916
1782132531.329578,-0.1010742038488388,-0.19580078125,0.9658202528953552,0.9906375227723988,-0.0057220458984375,0.1621246337890625,0.0972747802734375,0.18915475560436484
1782132531.338207,-0.07080078125,-0.201171875,0.9663085341453552,0.9895630637199284,-0.1888275146484375,0.0400543212890625,0.1583099365234375,0.24964417666808922
1782132531.346836,-0.0791015550494194,-0.18408203125,0.9790038466453552,0.999295642933944,-0.0057220458984375,0.1621246337890625,0.1583099365234375,0.22666974807538007
1782132531.356413,-0.06884765625,-0.1826171875,0.9658202528953552,0.9853414625622816,-0.247955322265625,0.164031982421875,0.0972747802734375,0.31281099081449454
1782132531.36599,-0.0727538987994194,-0.18505859375,0.9829100966453552,1.0028220535063164,0.118255615234375,0.408172607421875,-0.0247955322265625,0.42568073294715975
1782132531.375566,-0.0693359375,-0.18212890625,0.9741210341453552,0.9934234745994487,-0.1888275146484375,0.4062652587890625,0.0972747802734375,0.4584426612614661
1782132531.383682,-0.08544921875,-0.18408203125,0.9755858778953552,0.9964715592343628,-0.064849853515625,0.225067138671875,-0.3299713134765625,0.4046502046563067
1782132531.391798,-0.0727538987994194,-0.17724609375,0.9794921278953552,0.9980551769061272,-0.125885009765625,0.286102294921875,-0.2079010009765625,0.37539896783330623
1782132531.399914,-0.0849609375,-0.19091796875,0.9604491591453552,0.9829194366760303,0.240325927734375,-0.324249267578125,-0.4520416259765625,0.605999810793595
1782132531.40803,-0.08837890625,-0.171875,0.9721679091453552,0.9911923578534078,-0.308990478515625,-0.446319580078125,-0.5130767822265625,0.7469431489975608
1782132531.418386,-0.0834960862994194,-0.18359375,0.9677733778953552,0.98856642287171,-0.064849853515625,-0.446319580078125,-0.1468658447265625,0.47431661093552124
1782132531.428742,-0.08056640625,-0.18994140625,0.9643554091453552,0.9861795165040557,0.0553131103515625,-0.3261566162109375,-0.2689361572265625,0.4263382872071464
1782132531.439098,-0.076171875,-0.18798828125,0.9702147841453552,0.9911904336718363,-0.1888275146484375,-0.1430511474609375,0.0972747802734375,0.25608952332229895
1782132531.447254,-0.08837890625,-0.18212890625,0.9697265028953552,0.9906317479161583,-0.1888275146484375,-0.3833770751953125,0.2193450927734375,0.4803603665972101
1782132531.455412,-0.07958984375,-0.1845703125,0.9716796278953552,0.9922509978585827,0.057220458984375,-0.446319580078125,0.0362396240234375,0.45142957239956766
1782132531.463569,-0.076171875,-0.18408203125,0.9726561903953552,0.9928486357368616,0.057220458984375,-0.202178955078125,0.4024505615234375,0.4540010630751818
1782132531.471725,-0.0825195237994194,-0.189453125,0.9711913466453552,0.992932319032454,0.118255615234375,-0.263214111328125,0.2803802490234375,0.4023420720968166
1782132531.481246,-0.08544921875,-0.17919921875,0.9697265028953552,0.9898400978962466,-0.247955322265625,-0.385284423828125,0.4634857177734375,0.6517245888136942
1782132531.490768,-0.07666015625,-0.1728515625,0.9799804091453552,0.9980561329522822,-0.0057220458984375,-0.3261566162109375,0.2803802490234375,0.430144120208422
1782132531.500289,-0.0791015625,-0.18603515625,0.9799804091453552,1.0006136811275375,0.179290771484375,-0.263214111328125,0.0972747802734375,0.33300034837663833
1782132531.509812,-0.06591796875,-0.17529296875,0.9785155653953552,0.9962758228614735,0.850677490234375,-0.263214111328125,0.3414154052734375,0.9536762237529754
1782132531.519334,-0.07080078125,-0.17236328125,0.9707030653953552,0.9884261694819781,1.094818115234375,-0.568389892578125,0.2193450927734375,1.2529190098143255
1782132531.527324,-0.07421875,-0.1875,0.9750975966453552,0.9957308852471688,0.9708404541015625,-0.6885528564453125,0.5245208740234375,1.3006761206101378
1782132531.535314,-0.0776367112994194,-0.1787109375,0.9663085341453552,0.9857571918508449,0.850677490234375,-0.446319580078125,0.4024505615234375,1.0415468373640713
1782132531.543304,-0.07470703125,-0.177734375,0.9770507216453552,0.9958909384277671,0.7915496826171875,-0.0209808349609375,0.4634857177734375,0.9175021013964965
1782132531.551294,-0.07373046875,-0.1865234375,0.9736327528953552,0.9940764116854895,0.057220458984375,0.102996826171875,0.1583099365234375,0.1973437689158611
1782132531.561994,-0.0722656175494194,-0.18701171875,0.9731444716453552,0.9935823393778422,-0.0057220458984375,0.4673004150390625,-0.2079010009765625,0.5114931533383419
1782132531.572694,-0.0893554612994194,-0.18310546875,0.9677733778953552,0.9889880293073194,-0.308990478515625,1.079559326171875,-0.2689361572265625,1.154664501576877
1782132531.583394,-0.08544921875,-0.18505859375,0.9677733778953552,0.9890063513793523,-0.431060791015625,1.018524169921875,-0.0247955322265625,1.1062638512960907
1782132531.591454,-0.09130859375,-0.1826171875,0.9814452528953552,1.0024575207428195,-0.6465911865234375,0.6771087646484375,-0.2117156982421875,0.9598853986469931
1782132531.599514,-0.0908203125,-0.1865234375,0.9755858778953552,0.9974001840025222,-0.6465911865234375,0.6771087646484375,-0.2689361572265625,0.9741063075030929
1782132531.607574,-0.08154296875,-0.18505859375,0.9799804091453552,1.0006285730389617,-0.4024505615234375,0.3719329833984375,-0.0286102294921875,0.548743240360907
1782132531.615634,-0.08837890625,-0.171875,0.9750975966453552,0.9940659785338668,-0.64849853515625,0.55694580078125,0.0972747802734375,0.8603495556951927
1782132531.626436,-0.0800781175494194,-0.17822265625,0.9648436903953552,0.9844283452881638,-0.6465911865234375,0.1888275146484375,-0.2117156982421875,0.7060874801752752
1782132531.637238,-0.0781249925494194,-0.1845703125,0.9794921278953552,0.9997872490315954,-0.8907318115234375,0.0057220458984375,-0.2117156982421875,0.9155650925801319
1782132531.64804,-0.0859375,-0.1875,0.9716796278953552,0.9933291514765415,-0.70953369140625,-0.29754638671875,-0.2689361572265625,0.815045132586996
1782132531.656193,-0.0830078050494194,-0.1884765625,0.9746093153953552,0.9961310295168713,-0.70953369140625,-0.23651123046875,-0.7572174072265625,1.0643090825438537
1782132531.66435,-0.0747070237994194,-0.193359375,0.9863280653953552,1.0078750120386464,-0.52642822265625,-0.41961669921875,-0.1468658447265625,0.6890387682993635
1782132531.672506,-0.0922851487994194,-0.197265625,0.9770507216453552,1.0010286650057933,-0.03814697265625,-0.23651123046875,-0.4520416259765625,0.5115998292378656
1782132531.680662,-0.0727538987994194,-0.1884765625,0.9667968153953552,0.9876804273958926,-0.03814697265625,-0.78582763671875,-0.5168914794921875,0.9413591597926027
1782132531.690072,-0.0771484225988388,-0.1962890625,0.9843749403953552,1.006715102918883,0.0858306884765625,-0.6046295166015625,-0.5168914794921875,0.8000753470779002
1782132531.699481,-0.0751953050494194,-0.1923828125,0.9702147841453552,0.9919587732467028,0.14495849609375,-0.60272216796875,-0.2689361572265625,0.6757319246672472
1782132531.708892,-0.07666015625,-0.18115234375,0.9663085341453552,0.9861263277920014,0.32806396484375,-0.72479248046875,-0.2117156982421875,0.8232700903441237
1782132531.718302,-0.08154296875,-0.1845703125,0.9760741591453552,0.9967127069322551,0.3910064697265625,-0.5397796630859375,-0.0858306884765625,0.672023103124854
1782132531.727712,-0.0737304612994194,-0.189453125,0.9663085341453552,0.9874618223799013,0.5741119384765625,-0.6656646728515625,-0.2117156982421875,0.9041778096514375
1782132531.737275,-0.0737304612994194,-0.173828125,0.9770507216453552,0.9951283890193015,0.45013427734375,-0.23651123046875,-0.2689361572265625,0.5752261176627957
1782132531.746838,-0.0712890625,-0.1865234375,0.9692382216453552,0.9895937820475612,0.3910064697265625,0.0667572021484375,-0.1468658447265625,0.4229800938034358
1782132531.756401,-0.080078125,-0.19189453125,0.9663085341453552,0.9884271345877338,0.0247955322265625,-0.1773834228515625,-0.0286102294921875,0.18137872629536894
1782132531.765964,-0.07666015625,-0.185546875,0.9682616591453552,0.9888554307629888,-0.0972747802734375,-0.1163482666015625,0.0362396240234375,0.15592502162191263
1782132531.775527,-0.0727538987994194,-0.18017578125,0.9726561903953552,0.9918752475255996,0.0247955322265625,-0.1773834228515625,0.0362396240234375,0.18273753711346455
1782132531.783508,-0.0693359300494194,-0.18798828125,0.9833983778953552,1.0036032257472884,-0.03814697265625,0.19073486328125,0.2193450927734375,0.2931676130092506
1782132531.791489,-0.0756835862994194,-0.17822265625,0.9755858778953552,0.9946150640246699,0.1468658447265625,0.0057220458984375,0.0362396240234375,0.1513790887337835
1782132531.799469,-0.0781249925494194,-0.189453125,0.9804686903953552,1.0016560556791414,0.3299713134765625,-0.2994537353515625,-0.0858306884765625,0.453784656437183
1782132531.807451,-0.0742187425494194,-0.18359375,0.9707030653953552,0.990696486292658,0.45013427734375,0.06866455078125,0.2193450927734375,0.5054185967072826
1782132531.818006,-0.0830078125,-0.19189453125,0.9716796278953552,0.9939190647766791,0.2079010009765625,0.0057220458984375,0.2193450927734375,0.3022711328263226
1782132531.828561,-0.08056640625,-0.19189453125,0.9702147841453552,0.9922858380093488,0.3910064697265625,0.2498626708984375,0.2193450927734375,0.5132540144999531
1782132531.839116,-0.0634765625,-0.19091796875,0.9775390028953552,0.9980287806271358,0.5741119384765625,0.3108978271484375,0.3414154052734375,0.7367675724303843
1782132531.847296,-0.09326171875,-0.18603515625,0.9711913466453552,0.9932368596382157,0.3299713134765625,0.4940032958984375,0.4024505615234375,0.717556115259634
1782132531.855477,-0.08056640625,-0.19189453125,0.9692382216453552,0.9913310179944679,0.26702880859375,0.49591064453125,0.7076263427734375,0.9044151662623243
1782132531.863658,-0.0849609300494194,-0.173828125,0.9667968153953552,0.9859668650286776,0.32806396484375,0.55694580078125,0.3414154052734375,0.7310123589891587
1782132531.871839,-0.08056640625,-0.17041015625,0.9755858778953552,0.993628890641793,-0.0362396240234375,0.3108978271484375,0.8296966552734375,0.8867735387611142
1782132531.88246,-0.0830078125,-0.18212890625,0.9750975966453552,0.995427826821917,-0.0972747802734375,0.1888275146484375,0.4024505615234375,0.45506556410706533
1782132531.89308,-0.0791015550494194,-0.1787109375,0.9838866591453552,1.003108973759867,-0.70953369140625,0.06866455078125,0.2765655517578125,0.7646184566132795
1782132531.903702,-0.08935546875,-0.185546875,0.9697265028953552,0.991353384538255,-0.34332275390625,0.06866455078125,0.0362396240234375,0.3519923922943825
1782132531.91175,-0.083984375,-0.185546875,0.9731444716453552,0.9942289378007079,-0.400543212890625,-0.23651123046875,0.4596710205078125,0.6539647350012694
1782132531.9198,-0.0825195237994194,-0.17822265625,0.9736327528953552,0.9932439400869639,-0.3414154052734375,0.0057220458984375,-0.0858306884765625,0.3520853985209414
1782132531.92785,-0.0747070237994194,-0.18359375,0.9790038466453552,0.9988675268474952,-0.095367431640625,-0.23651123046875,-0.1468658447265625,0.29428232278344246
1782132531.9359,-0.09033203125,-0.18359375,0.9711913466453552,0.9925115478963618,-0.46539306640625,-0.23651123046875,-0.2117156982421875,0.5633398665805851
1782132531.946416,-0.07373046875,-0.177734375,0.9916991591453552,1.0101944923272645,-0.46539306640625,0.06866455078125,-0.2117156982421875,0.5158769850217977
1782132531.956932,-0.0947265625,-0.18994140625,0.9726561903953552,0.9955455409802705,-0.5855560302734375,-0.0514984130859375,-0.2689361572265625,0.6464167446808189
1782132531.967448,-0.0727538987994194,-0.1953125,0.9672850966453552,0.9894849976826229,-0.583648681640625,-0.23651123046875,-0.3910064697265625,0.7412620353739364
1782132531.978015,-0.080078125,-0.1806640625,0.9692382216453552,0.9891788209827231,-0.4024505615234375,-0.1773834228515625,0.0362396240234375,0.4412988143224798
1782132531.98858,-0.087890625,-0.18212890625,0.9853515028953552,1.0058893004266658,0.02288818359375,-0.41961669921875,-0.2689361572265625,0.4989275497256595
1782132531.999145,-0.0859375,-0.18115234375,0.9638671278953552,0.9845005158909818,0.2079010009765625,-0.2994537353515625,-0.3299713134765625,0.49170767081723277
1782132532.00722,-0.0756835862994194,-0.18310546875,0.9633788466453552,0.983541773431629,0.2079010009765625,-0.2994537353515625,-0.2689361572265625,0.4530143733777667
1782132532.015296,-0.0732421800494194,-0.169921875,0.9663085341453552,0.9838648503245008,0.14495849609375,-0.29754638671875,-0.2117156982421875,0.39289992965298765
1782132532.023372,-0.0771484300494194,-0.1875,0.9765624403953552,0.9973877532083607,0.3910064697265625,-0.1163482666015625,-0.2689361572265625,0.4886201338187036
1782132532.031448,-0.0776367112994194,-0.18017578125,0.9658202528953552,0.9855452967739662,-0.0972747802734375,0.0057220458984375,-0.3299713134765625,0.3440584142321726
1782132532.039483,-0.0678710862994194,-0.185546875,0.9824218153953552,1.0020911887360522,0.26702880859375,0.06866455078125,0.0972747802734375,0.29237234484512037
1782132532.047518,-0.0722656175494194,-0.189453125,0.9702147841453552,0.9911768426604219,0.0858306884765625,-0.1163482666015625,-0.2117156982421875,0.25637348362833073
1782132532.055553,-0.080078125,-0.1845703125,0.9726561903953552,0.9932465812044201,-0.2803802490234375,-0.1163482666015625,-0.1468658447265625,0.3372233377613119
1782132532.063588,-0.07177734375,-0.18359375,0.9707030653953552,0.990516579004515,-0.1583099365234375,0.0057220458984375,-0.0858306884765625,0.1801712654550646
1782132532.073122,-0.0830078050494194,-0.18408203125,0.9697265028953552,0.990528132031546,-0.1583099365234375,0.0057220458984375,-0.2689361572265625,0.31212406904163764
1782132532.082656,-0.080078125,-0.181640625,0.9736327528953552,0.9936632026318043,-0.16021728515625,0.25177001953125,-0.0858306884765625,0.3105231525699265
1782132532.09219,-0.08056640625,-0.193359375,0.9682616591453552,0.9906611097077278,-0.03814697265625,0.06866455078125,-0.0286102294921875,0.08359759140324069
1782132532.101724,-0.076171875,-0.18994140625,0.9843749403953552,1.0054222573762739,-0.03814697265625,0.00762939453125,-0.2117156982421875,0.21526015903071136
1782132532.111258,-0.0874023362994194,-0.185546875,0.9760741591453552,0.9973903826306801,-0.03814697265625,0.12969970703125,-0.2117156982421875,0.2511986114790561
1782132532.120876,-0.0771484300494194,-0.193359375,0.9711913466453552,0.9932534218205842,0.0858306884765625,0.3108978271484375,0.0362396240234375,0.32455766261073016
1782132532.130494,-0.07861328125,-0.1962890625,0.9702147841453552,0.9929885051803161,0.20599365234375,0.25177001953125,0.2765655517578125,0.4269777886023897
1782132532.140112,-0.0732421800494194,-0.19384765625,0.9628905653953552,0.9849363287539944,0.14495849609375,0.19073486328125,0.4024505615234375,0.46835799142451817
1782132532.149729,-0.07177734375,-0.18603515625,0.9575194716453552,0.9780616570629725,0.02288818359375,0.25177001953125,0.2193450927734375,0.33470028593769546
1782132532.159348,-0.0820312425494194,-0.16796875,0.9731444716453552,0.990935309909119,-0.22125244140625,0.12969970703125,-0.0858306884765625,0.2704469706182321
1782132532.167414,-0.0830078050494194,-0.1796875,0.9614257216453552,0.9815891765889967,0.087738037109375,0.43487548828125,-0.0858306884765625,0.45186453782967123
1782132532.175482,-0.07421875,-0.1806640625,0.9804686903953552,0.9997333540380402,-0.0972747802734375,0.4367828369140625,-0.4520416259765625,0.6360685978064603
1782132532.183549,-0.08447265625,-0.19140625,0.9897460341453552,1.0116171184294243,0.2079010009765625,0.6198883056640625,-0.2117156982421875,0.6872465893609774
1782132532.191616,-0.076171875,-0.18603515625,0.9711913466453552,0.9917781333044181,0.0858306884765625,0.5550384521484375,-0.2689361572265625,0.6227047832733296
1782132532.199682,-0.08349609375,-0.181640625,0.9672850966453552,0.9877273776271029,-0.34332275390625,0.37384033203125,-0.4520416259765625,0.6796828222182323
1782132532.20775,-0.0976562425494194,-0.19775390625,0.9692382216453552,0.9940151303900034,-0.2803802490234375,-0.0514984130859375,-0.4520416259765625,0.5344219327538393
1782132532.217561,-0.0820312425494194,-0.18310546875,0.9614257216453552,0.9821385623636061,-0.16021728515625,-0.11444091796875,-0.5741119384765625,0.6069355979588654
1782132532.227374,-0.0932617112994194,-0.17822265625,0.9804686903953552,1.0008895617603797,-0.4024505615234375,-0.6046295166015625,-0.3299713134765625,0.7977621039719907
1782132532.237185,-0.0781249925494194,-0.1884765625,0.9692382216453552,0.9904795098188119,-0.16021728515625,-0.54168701171875,-0.4520416259765625,0.7234887896458125
1782132532.246998,-0.083984375,-0.185546875,0.9741210341453552,0.9951848105908885,0.14495849609375,-0.41961669921875,-0.2117156982421875,0.4918482253044913
1782132532.25681,-0.09033203125,-0.173828125,0.9858397841453552,1.0051150048201087,-0.03814697265625,-0.41961669921875,-0.1468658447265625,0.4462095271655709
1782132532.264455,-0.09130859375,-0.18212890625,0.9736327528953552,0.9947205312523772,-0.2803802490234375,-0.6656646728515625,0.0972747802734375,0.7288243434479038
1782132532.272099,-0.0922851487994194,-0.17578125,0.9750975966453552,0.9951034717676556,-0.0972747802734375,-0.4825592041015625,0.4596710205078125,0.6735155643599283
1782132532.279745,-0.0683593675494194,-0.1796875,0.9746093153953552,0.9933901139247409,-0.22125244140625,-0.23651123046875,0.7076263427734375,0.7782192788366135
1782132532.28739,-0.08056640625,-0.18212890625,0.9687499403953552,0.9890087620056082,0.0858306884765625,-0.1773834228515625,0.4596710205078125,0.5001292161847684
1782132532.297975,-0.0722656175494194,-0.1787109375,0.9887694716453552,1.0073852226034303,-0.0972747802734375,0.1316070556640625,0.5245208740234375,0.5494587766740285
1782132532.30856,-0.0751953050494194,-0.18798828125,0.9838866591453552,1.0045033030473383,0.0858306884765625,-0.2994537353515625,0.4024505615234375,0.5089262237013283
1782132532.319145,-0.0615234337747097,-0.17431640625,0.9833983778953552,1.0006216627869706,0.392913818359375,-0.23651123046875,0.2765655517578125,0.5355439619813572
1782132532.329882,-0.068359375,-0.19189453125,0.9760741591453552,0.9971044476008318,0.26702880859375,0.00762939453125,-0.0858306884765625,0.28058777479475433
1782132532.340618,-0.0590820237994194,-0.18310546875,0.9833983778953552,1.0020432465066607,0.5741119384765625,0.0667572021484375,0.2765655517578125,0.6407414036560357
1782132532.351354,-0.0595703087747097,-0.17724609375,0.9677733778953552,0.9856724153592481,0.02288818359375,0.61798095703125,0.0972747802734375,0.6260085583110876
1782132532.362019,-0.0859375,-0.19091796875,0.9638671278953552,0.9863441412281603,0.0247955322265625,0.9822845458984375,-0.2117156982421875,1.0051473943713305
1782132532.372684,-0.08154296875,-0.185546875,0.9843749403953552,1.0050228464334472,-0.52642822265625,1.35040283203125,-0.3910064697265625,1.501199700817672
1782132532.383351,-0.0683593675494194,-0.18408203125,0.9702147841453552,0.9898868242052223,-0.8296966552734375,1.6536712646484375,-0.4520416259765625,1.9045647331900868
1782132532.391382,-0.0834960862994194,-0.18359375,0.9702147841453552,0.9909566029047896,-0.64849853515625,1.04522705078125,-0.5741119384765625,1.3574440893406947
1782132532.399415,-0.0874023362994194,-0.19921875,0.9809569716453552,1.004790455250141,-1.0128021240234375,0.7991790771484375,-0.9403228759765625,1.596453084454112
1782132532.407449,-0.08154296875,-0.1826171875,0.9838866591453552,1.0040075950744507,-0.7686614990234375,0.3108978271484375,-0.4520416259765625,0.9443725909947367
1782132532.415482,-0.08984375,-0.18017578125,0.9614257216453552,0.9822803213973099,-0.9517669677734375,0.0667572021484375,-0.0286102294921875,0.954534143032572
1782132532.423436,-0.0830078125,-0.1767578125,0.9711913466453552,0.9906292207554948,-0.7686614990234375,0.1316070556640625,-0.2689361572265625,0.8249167072167419
1782132532.43139,-0.0903320237994194,-0.17822265625,0.9648436903953552,0.985315450310322,-1.4400482177734375,0.0057220458984375,-0.1468658447265625,1.4475293391392674
1782132532.439344,-0.0849609300494194,-0.17822265625,0.9677733778953552,0.9877079455986237,-1.0738372802734375,-0.1773834228515625,-0.3299713134765625,1.1373093031031785
1782132532.447298,-0.0771484300494194,-0.17822265625,0.9667968153953552,0.9861091611573722,-1.13677978515625,-0.54168701171875,-0.4520416259765625,1.3379217952556919
1782132532.458107,-0.0810546875,-0.19921875,0.9760741591453552,0.999489237995386,-0.4634857177734375,-0.2994537353515625,-0.4520416259765625,0.7133254389207612
1782132532.468916,-0.080078125,-0.18505859375,0.9780272841453552,0.9985972950879561,-0.5245208740234375,-0.6656646728515625,-0.5168914794921875,0.9926773924798081
1782132532.479725,-0.0776367112994194,-0.193359375,0.9824218153953552,1.004274828025917,-0.03814697265625,-0.60272216796875,-0.5741119384765625,0.8332668967294351
1782132532.490221,-0.0917968600988388,-0.1865234375,0.9726561903953552,0.994624412014519,0.14495849609375,-0.90789794921875,-0.3299713134765625,0.9768176490537124
1782132532.500719,-0.0634765625,-0.181640625,0.9755858778953552,0.9943794023339673,0.3910064697265625,-0.5397796630859375,-0.3299713134765625,0.7437265705665257
1782132532.511217,-0.0844726487994194,-0.18359375,0.9804686903953552,1.0010799899507707,0.63323974609375,-0.72479248046875,-0.2117156982421875,0.985464485742179
1782132532.521944,-0.0727538987994194,-0.18603515625,0.9746093153953552,0.9948696029163224,0.3910064697265625,-0.0514984130859375,-0.3299713134765625,0.5142170880434128
1782132532.532671,-0.0732421800494194,-0.18994140625,0.9682616591453552,0.9894305409262113,0.3910064697265625,-0.3566741943359375,-0.5168914794921875,0.7397833073575274
1782132532.543398,-0.06591796875,-0.18701171875,0.9672850966453552,0.9874001315303585,0.26702880859375,-0.29754638671875,-0.2117156982421875,0.4523955943094036
1782132532.551429,-0.0771484300494194,-0.193359375,0.9824218153953552,1.0042371988351089,0.2079010009765625,-0.1163482666015625,-0.4520416259765625,0.5109807990167334
1782132532.559461,-0.0732421800494194,-0.1748046875,0.9536132216453552,0.9722650215898943,-0.0972747802734375,0.0057220458984375,-0.5168914794921875,0.5259961276075441
1782132532.567493,-0.0732421875,-0.18701171875,0.9589843153953552,0.9797901398533833,-0.583648681640625,0.25177001953125,-0.3299713134765625,0.7161808389178347
1782132532.575525,-0.0712890625,-0.18212890625,0.9746093153953552,0.9940404350826747,-0.5855560302734375,0.1316070556640625,-0.1468658447265625,0.6178720401809725
1782132532.586982,-0.07958984375,-0.1826171875,0.9843749403953552,1.004329429857016,-0.34332275390625,0.37384033203125,0.0972747802734375,0.5168070143489273
1782132532.598439,-0.0888671875,-0.17626953125,0.9716796278953552,0.9915289324715194,-0.22125244140625,0.31280517578125,-0.0286102294921875,0.3842112258320421
1782132532.609896,-0.0776367112994194,-0.1796875,0.9658202528953552,0.9854561469190231,-0.03814697265625,0.19073486328125,0.2765655517578125,0.3381175594565551
1782132532.617679,-0.0742187425494194,-0.1796875,0.9760741591453552,0.9952470967318514,-0.03814697265625,0.49591064453125,0.0972747802734375,0.5067987191770339
1782132532.62546,-0.0869140550494194,-0.1884765625,0.9667968153953552,0.9888243270852262,0.14495849609375,0.74005126953125,0.1583099365234375,0.7705523234191377
1782132532.63324,-0.08447265625,-0.177734375,0.9721679091453552,0.9918848629163683,-0.03814697265625,0.61798095703125,0.2765655517578125,0.678118101214825
1782132532.641022,-0.0727538987994194,-0.19921875,0.9736327528953552,0.9964647397939711,0.1468658447265625,0.7991790771484375,0.5855560302734375,1.0015650943841152
1782132532.65025,-0.0839843675494194,-0.18359375,0.9755858778953552,0.9962569167542022,0.0247955322265625,0.9822845458984375,0.5245208740234375,1.1138311787769315
1782132532.659478,-0.08349609375,-0.1953125,0.9750975966453552,0.9979648757903791,0.2079010009765625,0.9822845458984375,0.4596710205078125,1.104265911097798
1782132532.668708,-0.080078125,-0.18994140625,0.9750975966453552,0.9966471626886273,-0.0972747802734375,0.7381439208984375,0.0362396240234375,0.7454073659321623
1782132532.677937,-0.0820312425494194,-0.19482421875,0.9643554091453552,0.9872522251753373,-0.22125244140625,0.92315673828125,0.0362396240234375,0.9499917455492245
1782132532.687166,-0.09033203125,-0.177734375,0.9755858778953552,0.9957495614235753,-0.400543212890625,0.55694580078125,0.0362396240234375,0.6869765649205019
1782132532.697825,-0.0869140550494194,-0.19384765625,0.9736327528953552,0.9965398658906424,-0.34332275390625,0.37384033203125,-0.2689361572265625,0.5744160198556418
1782132532.708484,-0.0859375,-0.19580078125,0.9672850966453552,0.9906380055482298,-0.4634857177734375,0.3719329833984375,-0.6351470947265625,0.8698074422877824
1782132532.719143,-0.0859375,-0.17919921875,0.9638671278953552,0.9841430049256569,-0.83160400390625,0.25177001953125,-0.4520416259765625,0.9794360589968121
1782132532.727169,-0.09130859375,-0.17431640625,0.9741210341453552,0.9937983990452661,-0.70953369140625,0.00762939453125,-0.3299713134765625,0.7825454201635461
1782132532.735195,-0.0859375,-0.1806640625,0.9814452528953552,1.0016284449914956,-0.583648681640625,-0.23651123046875,-0.5168914794921875,0.8147147643748113
1782132532.743221,-0.0893554612994194,-0.18896484375,0.9687499403953552,0.9910441754298838,-0.2803802490234375,-0.1773834228515625,-0.2689361572265625,0.42708853813790343
1782132532.751247,-0.07275390625,-0.17626953125,0.9677733778953552,0.9863819693631442,-0.34332275390625,-0.35858154296875,-0.2689361572265625,0.564604191422107
1782132532.761959,-0.0825195237994194,-0.17578125,0.9765624403953552,0.9956820374248885,-0.22125244140625,-0.41961669921875,-0.6351470947265625,0.792743747393228
1782132532.772669,-0.06884765625,-0.18603515625,0.9829100966453552,1.0027269504802698,-0.16021728515625,-0.23651123046875,-0.5741119384765625,0.6412578720779946
1782132532.783379,-0.0854492112994194,-0.16845703125,0.9755858778953552,0.9937037507416923,-0.16021728515625,-0.35858154296875,-0.3299713134765625,0.5129633214354965
1782132532.79397,-0.08544921875,-0.1875,0.9584960341453552,0.9803940363228243,0.32806396484375,-0.11444091796875,-0.0858306884765625,0.35789606845967464
1782132532.804561,-0.0869140550494194,-0.193359375,0.9746093153953552,0.9973992272510176,0.2079010009765625,0.0057220458984375,-0.1468658447265625,0.2546078246314658
1782132532.815152,-0.0859375,-0.19287109375,0.9809569716453552,1.0034246822408732,0.02288818359375,-0.05340576171875,-0.3299713134765625,0.33504792500540725
1782132532.823322,-0.080078125,-0.18212890625,0.9892577528953552,1.0090660762600756,0.14495849609375,-0.35858154296875,-0.4520416259765625,0.5949246340194241
1782132532.831491,-0.0683593675494194,-0.177734375,0.9614257216453552,0.9801030198043924,0.2079010009765625,0.0057220458984375,-0.6351470947265625,0.6683318037890412
1782132532.839662,-0.0795898362994194,-0.18408203125,0.9648436903953552,0.9854664292440521,0.14495849609375,-0.05340576171875,-0.5168914794921875,0.5394830326767879
1782132532.847831,-0.0810546875,-0.1884765625,0.9838866591453552,1.0050503644204838,-0.0972747802734375,0.1316070556640625,-0.7572174072265625,0.7747005884757846
1782132532.858353,-0.083984375,-0.1904296875,0.9736327528953552,0.9956292375357787,-0.0972747802734375,0.0667572021484375,-0.5741119384765625,0.5861087141625256
1782132532.868874,-0.08544921875,-0.18408203125,0.9643554091453552,0.9854791313680958,-0.28228759765625,0.25177001953125,-0.7572174072265625,0.8464352499348197
1782132532.879395,-0.0830078050494194,-0.1884765625,0.9721679091453552,0.9937424987807407,-0.2803802490234375,0.3719329833984375,-0.5168914794921875,0.6957902196450664
1782132532.887535,-0.0820312350988388,-0.1767578125,0.9614257216453552,0.9809749568938639,-0.4634857177734375,0.1888275146484375,-0.5741119384765625,0.7616294103890557
1782132532.895674,-0.07666015625,-0.1767578125,0.9672850966453552,0.9862862475104648,-0.0972747802734375,0.0667572021484375,0.0362396240234375,0.1234188691622679
1782132532.903813,-0.07568359375,-0.19140625,0.9682616591453552,0.9898964589657312,0.0247955322265625,0.3719329833984375,-0.1468658447265625,0.40064764931958313
1782132532.911952,-0.07861328125,-0.181640625,0.9697265028953552,0.9897185736647249,-0.2803802490234375,0.1888275146484375,-0.0286102294921875,0.3392454267375558
1782132532.921431,-0.0859375,-0.1884765625,0.9819335341453552,1.0035447842509342,0.0247955322265625,0.4940032958984375,0.0972747802734375,0.5040996505197789
1782132532.93091,-0.0834960862994194,-0.18896484375,0.9682616591453552,0.9900555283274257,0.2079010009765625,0.3108978271484375,0.5245208740234375,0.6442068242567655
1782132532.940389,-0.083984375,-0.1904296875,0.9707030653953552,0.9927644646608921,-0.22125244140625,0.37384033203125,0.2765655517578125,0.5149735343690631
1782132532.949868,-0.06884765625,-0.1806640625,0.9609374403953552,0.9801939948824921,-0.0362396240234375,0.7991790771484375,0.4596710205078125,0.922658092034033
1782132532.959347,-0.08056640625,-0.19140625,0.9790038466453552,1.000787604890021,-0.0362396240234375,0.3108978271484375,0.5245208740234375,0.6108133238243012
1782132532.969422,-0.0820312425494194,-0.1787109375,0.9736327528953552,0.9932912269052407,-0.0972747802734375,0.4367828369140625,-0.0286102294921875,0.44839734023691274
1782132532.979499,-0.0722656175494194,-0.19091796875,0.9711913466453552,0.9924135338004231,-0.03814697265625,0.37384033203125,0.2765655517578125,0.46658363644171574
1782132532.989576,-0.0781249925494194,-0.177734375,0.9614257216453552,0.9808325243173676,-0.22125244140625,0.61798095703125,-0.0286102294921875,0.657017238216077
1782132532.999653,-0.0722656175494194,-0.19189453125,0.9731444716453552,0.9945129427500548,-0.16021728515625,0.74005126953125,-0.0858306884765625,0.7620448589696113
1782132533.00973,-0.0703125,-0.17919921875,0.9604491591453552,0.9795503024142661,-0.16021728515625,0.43487548828125,-0.0286102294921875,0.4643326544647602
1782132533.018859,-0.08447265625,-0.189453125,0.9804686903953552,1.0021711276382788,0.02288818359375,0.25177001953125,-0.3299713134765625,0.41568386954563813
1782132533.027989,-0.08935546875,-0.18603515625,0.9711913466453552,0.9928776918408997,0.1468658447265625,0.3108978271484375,-0.2689361572265625,0.43652456051940175
1782132533.037119,-0.076171875,-0.1845703125,0.9682616591453552,0.9886349151068251,-0.22125244140625,-0.11444091796875,-0.0286102294921875,0.2507347438337015
1782132533.046249,-0.083984375,-0.18505859375,0.9848632216453552,1.0056120642248363,0.02288818359375,-0.41961669921875,-0.0858306884765625,0.42891601776550714
1782132533.055379,-0.08935546875,-0.1796875,0.9716796278953552,0.992186119998984,-0.4024505615234375,-0.2994537353515625,0.2193450927734375,0.5474954463831838
1782132533.06336,-0.078125,-0.181640625,0.9687499403953552,0.9887230549003068,-0.2803802490234375,-0.0514984130859375,-0.0858306884765625,0.2977113999785285
1782132533.071341,-0.0786132737994194,-0.1884765625,0.9731444716453552,0.9943407987823875,-0.1583099365234375,-0.2994537353515625,-0.0858306884765625,0.34943022579968547
1782132533.079322,-0.08154296875,-0.1875,0.9809569716453552,1.0020389642983898,0.2079010009765625,-0.1773834228515625,-0.1468658447265625,0.31025357573578366
1782132533.087303,-0.07958984375,-0.19482421875,0.9667968153953552,0.9894377705031772,-0.095367431640625,-0.23651123046875,0.2193450927734375,0.3363700029422353
1782132533.095639,-0.0747070237994194,-0.18310546875,0.9746093153953552,0.9944707485625343,0.0858306884765625,-0.3566741943359375,0.4024505615234375,0.5445639011723794
1782132533.103975,-0.0795898362994194,-0.197265625,0.9907225966453552,1.0133013038344143,0.5741119384765625,-0.2994537353515625,0.4596710205078125,0.7940872147390448
1782132533.11231,-0.0810546875,-0.1904296875,0.9731444716453552,0.9949087852366104,0.8792877197265625,-0.2384185791015625,0.0972747802734375,0.9162165114207402
1782132533.120647,-0.08154296875,-0.185546875,0.9731444716453552,0.9940256844109948,1.0013580322265625,-0.1163482666015625,0.3414154052734375,1.0643398455398854
1782132533.130892,-0.0781249925494194,-0.177734375,0.9765624403953552,0.9956742552202599,1.3675689697265625,-0.1163482666015625,0.2765655517578125,1.40009653614287
1782132533.141137,-0.0825195237994194,-0.19189453125,0.9814452528953552,1.0034280080616487,1.3675689697265625,-0.2994537353515625,0.1583099365234375,1.4088929918829995
1782132533.151382,-0.0776367112994194,-0.18212890625,0.9755858778953552,0.995472853764512,1.91497802734375,-0.60272216796875,0.1583099365234375,2.0138214650192716
1782132533.162043,-0.0683593675494194,-0.17333984375,0.9643554091453552,0.9821919668328266,1.42669677734375,-0.35858154296875,-0.0286102294921875,1.4713473290397774
1782132533.172706,-0.0771484300494194,-0.18212890625,0.9697265028953552,0.9896930378499016,1.1844635009765625,-0.1773834228515625,-0.3299713134765625,1.2422961529223373
1782132533.183369,-0.09765625,-0.1767578125,0.9794921278953552,1.0000924437534855,0.576019287109375,-0.23651123046875,-0.0858306884765625,0.6285719436502042
1782132533.193966,-0.0791015550494194,-0.193359375,0.9750975966453552,0.9972262666492369,0.20599365234375,0.25177001953125,0.0972747802734375,0.33953484418823543
1782132533.204562,-0.08349609375,-0.1904296875,0.9765624403953552,0.998453435841546,0.14495849609375,0.61798095703125,-0.0858306884765625,0.640531291918968
1782132533.215158,-0.0947265550494194,-0.18310546875,0.9716796278953552,0.9933086288684619,-0.1583099365234375,0.0057220458984375,0.1583099365234375,0.22395716959582573
1782132533.223204,-0.0747070237994194,-0.17822265625,0.9824218153953552,1.0012477605320664,-0.4634857177734375,0.0057220458984375,0.0362396240234375,0.4649355468649203
