timestamp,accel_x,accel_y,accel_z,accel_rms,gyro_x,gyro_y,gyro_z,gyro_rms
1781018420.844105,-0.06640625,0.014160159975290298,0.9780272841453552,0.9803813894104313,-0.7305145263671875,-0.6694793701171875,1.4629364013671875,1.7669286954178878
1781018420.854768,-0.0556640587747097,0.0249023400247097,0.9819335341453552,0.9838252281056672,-0.732421875,-0.8544921875,1.5239715576171875,1.8944888518814798
1781018420.865429,-0.0512695275247097,0.0258789025247097,0.9970702528953552,0.998722870098256,-0.9765625,-1.15966796875,1.7070770263671875,2.283115434686043
1781018420.876249,-0.06689453125,0.013671875,0.9726561903953552,0.9750496721662842,-0.8525848388671875,-0.9784698486328125,1.2798309326171875,1.8227098968934927
1781018420.887066,-0.0449218712747097,0.0268554650247097,0.9941405653953552,0.9955172797521455,-0.9136199951171875,-1.2836456298828125,0.6084442138671875,1.6889795617424244
1781018420.897883,-0.0512695275247097,0.009277347475290298,0.9921874403953552,0.9935545030379918,-1.0356903076171875,-1.1577606201171875,-0.1239776611328125,1.5583435202952787
1781018420.905771,-0.056640625,0.0185546875,0.9819335341453552,0.9837407698717182,-0.6694793701171875,-0.9174346923828125,-0.3070831298828125,1.1765156566993387
1781018420.91366,-0.0654296875,0.014648433774709702,0.9858397841453552,0.9881172504425577,-0.6694793701171875,-0.9784698486328125,-0.6732940673828125,1.3634261156619072
1781018420.921549,-0.06982421875,0.015624996274709702,0.9892577528953552,0.9918419549989808,-0.850677490234375,-1.03759765625,-0.4291534423828125,1.408699317014091
1781018420.929438,-0.06591796875,0.0058593712747097015,0.9912108778953552,0.9934175936100295,-0.667572021484375,-0.8544921875,-0.3681182861328125,1.1451289774312015
1781018420.940116,-0.0634765550494194,0.013671875,0.9863280653953552,0.9884630725492489,-0.667572021484375,-1.03759765625,-0.2460479736328125,1.2580941560364396
1781018420.950794,-0.0610351525247097,0.014160159975290298,0.9736327528953552,0.9756467278092149,-0.8525848388671875,-0.9174346923828125,0.0,1.252432561958421
1781018420.961472,-0.0732421875,0.014648433774709702,0.9912108778953552,0.9940211260833032,-0.9765625,-0.8544921875,0.2422332763671875,1.320040974774786
1781018420.972127,-0.0629882737994194,0.01123046875,0.9931640028953552,0.9952227804424999,-1.155853271484375,-0.67138671875,1.1577606201171875,1.7683796438573811
1781018420.982785,-0.0581054612994194,0.01171875,0.9873046278953552,0.9890824040483011,-1.46484375,-0.30517578125,1.0356903076171875,1.819767535337356
1781018420.993442,-0.0541992112994194,0.00732421875,0.9931640028953552,0.9946687565882936,-1.46484375,-0.54931640625,1.1577606201171875,1.9462593299926945
1781018421.00144,-0.0556640587747097,0.0170898400247097,0.9916991591453552,0.9934071533469794,-1.0967254638671875,-0.6122589111328125,1.2187957763671875,1.750180236960391
1781018421.009439,-0.0541992112994194,0.01171875,0.9877929091453552,0.9893481262755217,-1.0967254638671875,-0.3070831298828125,1.2798309326171875,1.7132057692633136
1781018421.01744,-0.0566406212747097,0.012695308774709702,0.9926757216453552,0.9943713688493837,-1.0356903076171875,-0.6694793701171875,0.8525848388671875,1.4992524629864308
1781018421.02544,-0.06640625,0.0161132775247097,0.9785155653953552,0.9808986387352377,-0.8525848388671875,-0.2460479736328125,0.7305145263671875,1.1493876569845691
1781018421.036119,-0.0693359375,0.0068359337747097015,0.9936522841453552,0.9960918953625001,-0.667572021484375,-0.54931640625,0.6084442138671875,1.0571685198834715
1781018421.046798,-0.0698242112994194,0.00927734375,0.9780272841453552,0.9805604816243519,-0.732421875,-0.54931640625,0.1811981201171875,0.9332861704150198
1781018421.057477,-0.05224609375,0.00439453125,0.9897460341453552,0.9911337842710739,-0.79345703125,-0.1220703125,-0.1239776611328125,0.8123088588054876
1781018421.065529,-0.07080078125,0.0214843712747097,0.9736327528953552,0.9764399962851111,-0.79345703125,-0.54931640625,0.1201629638671875,0.9725028084796596
1781018421.07358,-0.0732421800494194,0.021484375,0.9868163466453552,0.9897638593695054,-1.220703125,-0.54931640625,-0.0629425048828125,1.3400844721438658
1781018421.081631,-0.0678710862994194,0.021484375,0.9838866591453552,0.986458828724652,-1.155853271484375,-0.8544921875,0.3643035888671875,1.4828589914624992
1781018421.089682,-0.0590820237994194,0.0029296875,0.9833983778953552,0.9851759427900676,-1.5850067138671875,-0.9784698486328125,0.2422332763671875,1.8783840096921507
1781018421.10028,-0.0693359375,0.0214843712747097,0.9916991591453552,0.9943521874505421,-1.40380859375,-1.220703125,0.4863739013671875,1.9228505556080682
1781018421.110878,-0.0541992150247097,0.009765621274709702,0.9765624403953552,0.9781140640329774,-1.89208984375,-1.15966796875,0.6084442138671875,2.301094986295679
1781018421.121476,-0.0605468712747097,0.0019531212747097015,0.9809569716453552,0.9828256806389911,-1.7681121826171875,-1.2836456298828125,0.6694793701171875,2.285206647209189
1781018421.132141,-0.06982421875,0.0053710900247097015,0.9975585341453552,1.0000136494960112,-1.6460418701171875,-1.1005401611328125,0.1811981201171875,1.9883347915225764
1781018421.142809,-0.0625,0.00390625,0.9995116591453552,1.0014714501954427,-1.7681121826171875,-0.9784698486328125,0.1811981201171875,2.028905294422792
1781018421.153477,-0.0654296875,0.0048828087747097015,0.9814452528953552,0.9836359439643845,-1.5869140625,-0.732421875,0.0591278076171875,1.7487807588066564
1781018421.161483,-0.05712890625,0.0078125,0.9990233778953552,1.000685993040283,-1.7681121826171875,-0.7953643798828125,-0.0629425048828125,1.9397904386883158
1781018421.16949,-0.0507812462747097,-0.008789066225290298,0.9799804091453552,0.9813345937890007,-1.46484375,-0.8544921875,-0.2460479736328125,1.7136113082439117
1781018421.177497,-0.0556640587747097,0.0205078087747097,0.9868163466453552,0.9885977744596132,-1.4019012451171875,-1.1005401611328125,-0.6732940673828125,1.9052140689435004
1781018421.185503,-0.0595703087747097,0.010742183774709702,0.9838866591453552,0.9857469118612405,-1.5239715576171875,-0.9174346923828125,-0.8563995361328125,1.9742329874415023
1781018421.196158,-0.06884765625,0.015624996274709702,0.9868163466453552,0.9893384872156692,-1.5239715576171875,-1.1005401611328125,-0.9784698486328125,2.1192171194514056
1781018421.206812,-0.0712890625,0.011718746274709702,0.9848632216453552,0.9875095061800914,-1.4019012451171875,-0.9174346923828125,-0.7953643798828125,1.8546207193480388
1781018421.217466,-0.0615234375,0.00341796875,0.9819335341453552,0.983864971096837,-1.3408660888671875,-1.1005401611328125,-1.0395050048828125,2.022296014365019
1781018421.225504,-0.0512695275247097,0.0019531212747097015,0.9819335341453552,0.9832730264857814,-1.2187957763671875,-0.9784698486328125,-0.9784698486328125,1.8439820047542583
1781018421.233545,-0.0502929650247097,0.011718746274709702,0.9873046278953552,0.9886542062869168,-0.9765625,-1.220703125,-1.0395050048828125,1.8773281788135583
1781018421.241585,-0.0537109300494194,0.01220703125,0.9707030653953552,0.9722645302522618,-1.1577606201171875,-0.9174346923828125,-0.8563995361328125,1.7074882821765356
1781018421.249624,-0.0673828050494194,0.0068359375,0.9887694716453552,0.9910863940725182,-1.3408660888671875,-0.6694793701171875,-0.9174346923828125,1.7572168079306663
1781018421.26025,-0.0678710862994194,0.01123046875,0.9887694716453552,0.9911597630259427,-1.0356903076171875,-0.7953643798828125,-0.6122589111328125,1.4422620720035915
1781018421.270875,-0.05224609375,0.0078125,0.9848632216453552,0.986278994411851,-0.9765625,-0.732421875,-0.7953643798828125,1.4569559417398785
1781018421.2815,-0.0678710862994194,0.0107421875,0.9907225966453552,0.9931027854413981,-1.0356903076171875,-0.8525848388671875,-0.7953643798828125,1.5595383347467748
1781018421.289474,-0.07958984375,-0.009277347475290298,0.9711913466453552,0.9744912745649112,-1.2187957763671875,-0.4901885986328125,-0.5512237548828125,1.424638773397384
1781018421.29745,-0.0639648362994194,0.01171875,0.9780272841453552,0.9801868178654074,-1.1577606201171875,-0.7953643798828125,-0.6122589111328125,1.5322777569820827
1781018421.305425,-0.07177734375,0.015624996274709702,0.9814452528953552,0.9841904856353866,-1.4629364013671875,-0.9784698486328125,-0.3070831298828125,1.7865850687239384
1781018421.3134,-0.06201171875,0.013671875,0.9633788466453552,0.9654694068649092,-1.77001953125,-1.0986328125,-0.2460479736328125,2.097737543887925
1781018421.324083,-0.0541992112994194,0.04248046875,0.9785155653953552,0.9809357045452523,-1.953125,-1.220703125,-0.3070831298828125,2.323599241192076
1781018421.334766,-0.0629882737994194,0.00634765625,0.9765624403953552,0.9786122906274121,-2.25830078125,-1.15966796875,-0.1239776611328125,2.54167713858371
1781018421.345449,-0.0654296875,0.011718746274709702,0.9877929091453552,0.990026870533544,-2.1953582763671875,-1.1577606201171875,-0.1239776611328125,2.48503079972221
1781018421.353456,-0.0546874925494194,0.00390625,0.9760741591453552,0.9776127785487041,-2.3174285888671875,-1.2836456298828125,-0.1239776611328125,2.652091972024381
1781018421.361463,-0.0610351525247097,0.010253902524709702,0.9833983778953552,0.9853440018632663,-2.132415771484375,-1.52587890625,0.0,2.6221181245348193
1781018421.36947,-0.0585937462747097,0.009765621274709702,0.9809569716453552,0.9827538728903653,-1.89208984375,-1.8310546875,0.1201629638671875,2.6357549930376627
1781018421.377477,-0.0576171837747097,0.0048828087747097015,0.9731444716453552,0.9748608846299951,-2.0122528076171875,-1.7108917236328125,-0.2460479736328125,2.652706440050863
1781018421.388173,-0.05712890625,0.0078125,0.9916991591453552,0.9933740329479002,-1.8901824951171875,-1.4667510986328125,-0.4291534423828125,2.430703874867734
1781018421.398869,-0.0732421800494194,-0.001953125,0.9829100966453552,0.9856370983901929,-1.8291473388671875,-1.4057159423828125,-0.3070831298828125,2.327255324757629
1781018421.409565,-0.0517578125,0.00830078125,0.9824218153953552,0.9838192910737474,-1.5869140625,-1.220703125,-0.3681182861328125,2.0356628978616227
1781018421.420228,-0.0634765550494194,0.01123046875,0.9951171278953552,0.9972028352847716,-1.5850067138671875,-1.1005401611328125,-0.3681182861328125,1.9644200166603007
1781018421.430891,-0.0712890625,0.0043945349752902985,0.9843749403953552,0.986962747852287,-1.40380859375,-1.220703125,0.1811981201171875,1.8691247807476956
1781018421.441554,-0.0634765550494194,-0.001953125,0.9829100966453552,0.9849595655790084,-1.155853271484375,-1.220703125,0.0591278076171875,1.682144168084149
1781018421.452179,-0.0561523400247097,0.0058593712747097015,0.9892577528953552,0.9908674579304505,-0.732421875,-1.3427734375,0.3032684326171875,1.5593120437090735
1781018421.462805,-0.0678710862994194,0.01220703125,0.9921874403953552,0.9945810237711598,-0.48828125,-1.0986328125,0.7305145263671875,1.4067921342674259
1781018421.473431,-0.0576171875,0.01416015625,0.9868163466453552,0.9885983776675543,-0.79345703125,-0.91552734375,0.7915496826171875,1.4471749298703886
1781018421.479831,-0.06396484375,0.0058593712747097015,0.9912108778953552,0.9932899062840503,-0.8525848388671875,-0.7343292236328125,0.6694793701171875,1.3093291958708717
1781018421.486232,-0.0532226487994194,0.00927734375,0.9799804091453552,0.9814684517400342,-1.46484375,-0.18310546875,0.3643035888671875,1.5205301475017627
1781018421.492633,-0.05126953125,0.00830078125,0.9814452528953552,0.9828185245683879,-1.4019012451171875,0.0591278076171875,0.1811981201171875,1.4147989105978058
1781018421.499034,-0.0576171837747097,0.0214843712747097,0.9726561903953552,0.9745980621720955,-1.8291473388671875,0.2422332763671875,0.0591278076171875,1.846064203947986
1781018421.505435,-0.0532226487994194,0.0068359375,0.9794921278953552,0.9809608600732759,-2.0751953125,0.244140625,-0.0629425048828125,2.0904549717031187
1781018421.517428,-0.06591796875,0.0161132775247097,0.9936522841453552,0.9959667053190061,-2.38037109375,-0.06103515625,-0.2460479736328125,2.39383195725762
1781018421.529423,-0.0605468712747097,-3.725290298461914e-09,0.9804686903953552,0.9823363866144526,-2.44140625,-0.3662109375,-0.1239776611328125,2.471830372162227
1781018421.541417,-0.0625,-0.0009765625,0.9848632216453552,0.9868448555998985,-3.1719207763671875,-0.4291534423828125,-0.6122589111328125,3.2588518013129066
1781018421.553411,-0.0541992150247097,-0.0034179724752902985,0.9980468153953552,0.9995232279271686,-3.2939910888671875,-0.6694793701171875,-0.7343292236328125,3.440613219940613
1781018421.561423,-0.0561523400247097,0.0053710900247097015,0.9912108778953552,0.9928146545838176,-3.292083740234375,-0.8544921875,-0.9784698486328125,3.539120723555161
1781018421.569435,-0.07080078125,0.0009765587747097015,0.9931640028953552,0.9956849104710667,-2.9888153076171875,-0.7953643798828125,-1.2226104736328125,3.3257176383556444
1781018421.577447,-0.0532226487994194,0.00244140625,0.9912108778953552,0.9926417356064496,-3.0517578125,-1.03759765625,-1.4057159423828125,3.5165141764365853
1781018421.585459,-0.0830078050494194,0.00927734375,0.9995116591453552,1.002995474353538,-2.6836395263671875,-0.7343292236328125,-1.1615753173828125,3.015031962370292
1781018421.593451,-0.06494140625,-3.725290298461914e-09,0.9858397841453552,0.9879764502504541,-2.1343231201171875,-0.9784698486328125,-0.8563995361328125,2.4992316001600936
1781018421.601443,-0.07958984375,0.0053710900247097015,0.9960936903953552,0.9992827587232959,-1.46484375,-0.67138671875,-0.6732940673828125,1.7463826153511852
1781018421.609435,-0.0673828050494194,0.004882805049419403,0.9902343153953552,0.9925362882978065,-1.40380859375,-0.67138671875,0.1201629638671875,1.560729903566146
1781018421.617427,-0.0781249925494194,-0.0107421875,0.9916991591453552,0.994829699648506,-1.03759765625,-1.03759765625,0.1201629638671875,1.4722964818256998
1781018421.628114,-0.07861328125,-0.0039062537252902985,0.9794921278953552,0.9826495486265838,-1.1577606201171875,-0.6122589111328125,0.7915496826171875,1.5303011232456971
1781018421.638801,-0.0747070237994194,-0.0068359375,0.9667968153953552,0.9697030224275222,-0.6103515625,-0.6103515625,1.5850067138671875,1.804800360897693
1781018421.649488,-0.08154296875,-0.01123046875,0.9790038466453552,0.9824580962704264,-1.155853271484375,-0.54931640625,2.0122528076171875,2.3847236026717646
1781018421.660162,-0.06689453125,-0.00634765625,0.9902343153953552,0.9925115467527484,-1.2187957763671875,-0.9784698486328125,2.0122528076171875,2.547945790423585
1781018421.670839,-0.0517578087747097,-0.014160159975290298,0.9790038466453552,0.9804733105220598,-1.644134521484375,-1.220703125,1.4629364013671875,2.516640093173157
1781018421.681515,-0.0517578125,-0.01171875,0.9770507216453552,0.9784908343587368,-1.5239715576171875,-1.1005401611328125,1.2798309326171875,2.274125144044666
1781018421.689553,-0.0615234337747097,-0.010253902524709702,0.9809569716453552,0.9829378696743979,-1.6460418701171875,-1.2836456298828125,0.7915496826171875,2.232431598358055
1781018421.697589,-0.0610351525247097,-0.0039062537252902985,0.9838866591453552,0.9857857306261282,-1.5239715576171875,-1.2836456298828125,0.2422332763671875,2.007215078590977
1781018421.705627,-0.06201171875,0.0078125,0.9780272841453552,0.9800223757401249,-1.28173828125,-1.52587890625,-0.1239776611328125,1.9966296398231602
1781018421.713664,-0.0551757737994194,-0.01123046875,0.9951171278953552,0.9967088780950083,-1.0356903076171875,-1.4057159423828125,-0.6732940673828125,1.871367581512054
1781018421.723225,-0.06201171875,-0.01708984375,0.9848632216453552,0.9869615399656648,-0.3643035888671875,-1.3408660888671875,-0.6732940673828125,1.544009026627886
1781018421.732786,-0.0737304612994194,0.00146484375,0.9907225966453552,0.9934634317348335,-0.42724609375,-0.67138671875,-0.5512237548828125,0.9680635199642802
1781018421.742347,-0.0810546875,0.0063476525247097015,0.9790038466453552,0.9823740055623924,-0.0591278076171875,-0.7953643798828125,-0.4291534423828125,0.9056893902045027
1781018421.751908,-0.0751953050494194,0.00341796875,0.9868163466453552,0.9896830393708569,-0.0591278076171875,-0.9784698486328125,-0.1850128173828125,0.9975615694848414
1781018421.761469,-0.07080078125,0.0053710900247097015,0.9804686903953552,0.9830363432138441,-0.244140625,-1.3427734375,0.3643035888671875,1.412572919920409
1781018421.769506,-0.0683593675494194,-0.00244140625,0.9877929091453552,0.9901584696168982,-0.1811981201171875,-1.6460418701171875,0.5474090576171875,1.7441167602182568
1781018421.777545,-0.0854492112994194,0.00830078125,0.9775390028953552,0.9813016727096201,-0.6694793701171875,-1.7719268798828125,1.1577606201171875,2.21998584413457
1781018421.785583,-0.0688476487994194,-0.0068359375,0.9882811903953552,0.9906999748036599,-1.28173828125,-1.89208984375,1.4019012451171875,2.68107890587068
1781018421.793621,-0.07666015625,0.00048827752470970154,0.9824218153953552,0.9854083627288338,-1.2798309326171875,-2.4433135986328125,1.4629364013671875,3.1221677520263036
1781018421.804265,-0.0615234337747097,-0.007812503725290298,0.9838866591453552,0.9858393003741011,-1.40380859375,-2.197265625,1.8291473388671875,3.1850329326363185
1781018421.814909,-0.0600585900247097,0.0024414025247097015,0.9873046278953552,0.9891326619547196,-1.77001953125,-2.5634765625,1.5239715576171875,3.467977874196928
1781018421.825553,-0.0556640587747097,-0.015136715024709702,1.0009765625,1.0026373652798553,-1.40380859375,-2.38037109375,1.4629364013671875,3.12682395191864
1781018421.833522,-0.0444335862994194,-0.0029296875,0.9829100966453552,0.9839182815395072,-1.5850067138671875,-2.4433135986328125,0.5474090576171875,2.963390676341785
1781018421.841492,-0.0478515625,-0.00732421875,0.9804686903953552,0.9816630119646824,-1.6460418701171875,-2.4433135986328125,0.6084442138671875,3.008228638390269
1781018421.849463,-0.0576171837747097,-0.013671878725290298,0.9785155653953552,0.9803057542700642,-1.8291473388671875,-2.1991729736328125,0.3643035888671875,2.8835496978729904
1781018421.865564,-0.0493163987994194,-0.0126953125,0.9907225966453552,0.9920305144771159,-1.5239715576171875,-2.1991729736328125,-0.2460479736328125,2.6868923837236127
1781018421.873691,-0.0644531175494194,0.00341796875,0.9819335341453552,0.9840525150373849,-1.28173828125,-2.3193359375,-0.3070831298828125,2.6676716929298725
1781018421.881818,-0.06298828125,0.0053710900247097015,0.9843749403953552,0.9864027551975115,-1.2187957763671875,-2.4433135986328125,-0.3070831298828125,2.7476434511073564
1781018421.889945,-0.0708007737994194,-0.00634765625,0.9863280653953552,0.9888862901754725,-0.9765625,-2.44140625,-0.1850128173828125,2.635975822450054
1781018421.899278,-0.0732421800494194,-0.00830078125,0.9931640028953552,0.9958956052493038,-1.0986328125,-2.3193359375,0.0591278076171875,2.5670623960695385
1781018421.908611,-0.0688476487994194,-0.00732421875,0.9975585341453552,0.9999583351178867,-0.91552734375,-2.197265625,-0.1239776611328125,2.3835974921157588
1781018421.917943,-0.0532226487994194,-0.00048828125,0.9770507216453552,0.978499361998522,-0.8525848388671875,-1.9550323486328125,0.3032684326171875,2.154303630848958
1781018421.927277,-0.0629882737994194,-0.01318359375,0.9648436903953552,0.9669874232254129,-1.0356903076171875,-1.8291473388671875,0.4863739013671875,2.15754350419829
1781018421.936009,-0.0576171837747097,-0.0229492224752903,0.9838866591453552,0.9858394213676777,-1.89208984375,-1.8310546875,-0.0629425048828125,2.633766695126686
1781018421.944741,-0.0483398362994194,-0.01708984375,0.9687499403953552,0.9701057929673744,-2.8667449951171875,-1.2836456298828125,0.0591278076171875,3.141571114550855
1781018421.953473,-0.0517578087747097,-0.0200195275247097,0.9482421278953552,0.9498646142303561,-4.33349609375,-0.8544921875,-0.7953643798828125,4.48797836334261
1781018421.964122,-0.0424804650247097,-0.0048828087747097015,0.9907225966453552,0.99164494413775,-6.4678192138671875,0.4901885986328125,-1.7719268798828125,6.724038601402464
1781018421.974772,-0.0566406212747097,0.00048827752470970154,0.9892577528953552,0.9908780449969077,-6.404876708984375,0.91552734375,-2.3212432861328125,6.873776717923059
1781018421.985422,-0.0781249925494194,-0.0068359375,0.9985350966453552,1.0016099958241729,-6.7729949951171875,0.8525848388671875,-2.3822784423828125,7.230187597039965
1781018421.996105,-0.0600585900247097,0.0063476525247097015,0.9960936903953552,0.9979228261613061,-6.04248046875,1.03759765625,-2.1381378173828125,6.49305878901487
1781018422.006788,-0.06591796875,0.0166015587747097,0.9926757216453552,0.9950004415586975,-5.3081512451171875,0.7953643798828125,-2.3212432861328125,5.8478410145319595
1781018422.017473,-0.07080078125,0.015136715024709702,0.9946288466453552,0.9972604541173882,-4.39453125,0.79345703125,-1.5277862548828125,4.719704419587679
1781018422.028116,-0.0747070237994194,0.017578125,1.001953125,1.0048881502837756,-2.44140625,0.06103515625,-0.8563995361328125,2.587974098271855
1781018422.03876,-0.07177734375,0.015136715024709702,0.9965819716453552,0.9992781061476772,-1.7070770263671875,-0.2460479736328125,-0.3070831298828125,1.7518423524786917
1781018422.049403,-0.0654296800494194,-0.0009765625,0.9902343153953552,0.9923940729832044,-0.850677490234375,-1.03759765625,0.6694793701171875,1.4994878177762747
1781018422.060109,-0.0683593675494194,-0.0078125,0.9892577528953552,0.9916475885875861,-0.30517578125,-1.220703125,0.9136199951171875,1.554975843003435
1781018422.070817,-0.0698242112994194,-0.0009765625,0.9916991591453552,0.9941547145225973,0.0,-1.8310546875,0.9136199951171875,2.0463290947679096
1781018422.081524,-0.0751953125,-0.0043945349752902985,0.9985350966453552,1.0013720518329692,0.797271728515625,-2.01416015625,0.9746551513671875,2.3753812342868064
1781018422.089508,-0.0751953125,-0.0180664099752903,0.9936522841453552,0.9966572088630321,2.01416015625,-2.0751953125,1.4629364013671875,3.2409041384299186
1781018422.097492,-0.0590820275247097,-0.0283203162252903,0.9858397841453552,0.9880145779750882,2.4433135986328125,-2.2602081298828125,1.6460418701171875,3.713189460535413
1781018422.105478,-0.0532226487994194,-0.02685546875,0.9970702528953552,0.9988508175677768,2.9315948486328125,-2.4433135986328125,1.7070770263671875,4.18068674642637
1781018422.113462,-0.0546874962747097,-0.0292968712747097,0.9907225966453552,0.9926632321280962,3.0536651611328125,-2.6874542236328125,1.7070770263671875,4.41150689610577
1781018422.124135,-0.05712890625,-0.02587890625,0.9819335341453552,0.9839343957791115,3.11279296875,-2.62451171875,1.8901824951171875,4.488912083456631
1781018422.134809,-0.0502929650247097,-0.0234375037252903,1.00537109375,1.0069010552481912,2.86865234375,-2.3193359375,1.5850067138671875,4.015063105766264
1781018422.145484,-0.0312499962747097,-0.0224609412252903,1.00537109375,1.0061073960050024,2.9315948486328125,-1.6460418701171875,1.2187957763671875,3.5761942535605957
1781018422.153526,-0.0488281175494194,-0.02294921875,0.9760741591453552,0.9775641236542836,2.99072265625,-1.3427734375,0.8525848388671875,3.3873829748832374
1781018422.161567,-0.052734375,-0.009765625,0.9882811903953552,0.9897353146309076,2.4433135986328125,-1.1005401611328125,0.1811981201171875,2.685852331433034
1781018422.169608,-0.0390624925494194,-0.01708984375,0.9794921278953552,0.9804196905879358,2.3193359375,-0.1220703125,-0.2460479736328125,2.335542754372453
1781018422.185632,-0.0585937425494194,0.00927734375,0.9804686903953552,0.9822617515808025,1.7719268798828125,0.7305145263671875,-1.0395050048828125,2.1803547867402524
1781018422.193616,-0.0532226525247097,0.010253902524709702,0.9770507216453552,0.9785529653148375,1.285552978515625,0.42724609375,-0.9784698486328125,1.671104105039105
1781018422.201599,-0.0600585900247097,-0.00048827752470970154,0.9804686903953552,0.9823065333674007,0.244140625,0.30517578125,-0.7953643798828125,0.8861948990054667
1781018422.209582,-0.0771484300494194,-0.0087890625,0.9648436903953552,0.967963054447042,0.0629425048828125,-0.3070831298828125,-0.4291534423828125,0.5314456554423652
1781018422.220251,-0.0732421800494194,0.0029296875,0.9741210341453552,0.9768750120520309,-0.6694793701171875,-0.4291534423828125,-0.4901885986328125,0.9341628157613237
1781018422.23092,-0.0786132737994194,0.00439453125,0.9809569716453552,0.9841117512467757,-1.28173828125,-0.91552734375,-0.1850128173828125,1.5859612483826837
1781018422.241589,-0.0654296800494194,0.00341796875,0.9726561903953552,0.9748603952649584,-1.3408660888671875,-0.6122589111328125,0.0591278076171875,1.4752216579786037
1781018422.249555,-0.0678710862994194,0.005859375,0.9829100966453552,0.9852680217678007,-1.5869140625,-1.15966796875,0.2422332763671875,1.9803542611574796
1781018422.257522,-0.0698242112994194,-0.01220703125,0.9843749403953552,0.9869237333116899,-1.89208984375,-1.03759765625,0.6084442138671875,2.2420564744149183
1781018422.265489,-0.0590820237994194,-0.0166015625,0.9799804091453552,0.9819001475314963,-1.8291473388671875,-1.1577606201171875,0.6694793701171875,2.2659197399271567
1781018422.273456,-0.0576171875,-0.01025390625,0.9877929091453552,0.9895249942505939,-1.6460418701171875,-1.1005401611328125,0.8525848388671875,2.155816177671768
1781018422.28411,-0.0712890625,-0.010253902524709702,0.9990233778953552,1.0016161852379188,-1.7070770263671875,-0.9784698486328125,0.9136199951171875,2.169381643259684
1781018422.294764,-0.0722656175494194,-0.0146484375,0.9907225966453552,0.9934627117837416,-1.220703125,-1.3427734375,1.0356903076171875,2.0894523294711744
1781018422.305418,-0.0566406212747097,-0.0219726599752903,0.9897460341453552,0.9916088794838586,-1.0986328125,-1.40380859375,1.1577606201171875,2.1255781044417414
1781018422.316107,-0.0610351525247097,-0.0185546912252903,0.9848632216453552,0.986927115728334,-1.28173828125,-1.15966796875,0.7305145263671875,1.8765218604108855
1781018422.326797,-0.06982421875,-0.009765621274709702,0.9956054091453552,0.9980986522395565,-0.6694793701171875,-1.2836456298828125,0.8525848388671875,1.680133815383744
1781018422.337487,-0.052734375,-0.005859375,0.9819335341453552,0.9833660112395682,-0.9765625,-1.0986328125,0.7305145263671875,1.6414383467987417
1781018422.345567,-0.0625,-0.01220703125,0.9843749403953552,0.9864326053463043,-1.0967254638671875,-1.4667510986328125,0.8525848388671875,2.0201649526465526
1781018422.35365,-0.0551757775247097,-0.009277347475290298,0.9853515028953552,0.9869387112986139,-0.9765625,-1.220703125,0.3032684326171875,1.5924076670291125
1781018422.361732,-0.0644531175494194,0.013671875,0.9804686903953552,0.9826799974424216,-1.155853271484375,-1.220703125,0.4253387451171875,1.7340778392805098
1781018422.369813,-0.06591796875,-0.0063476525247097015,0.9931640028953552,0.995369382663454,-1.338958740234375,-1.52587890625,0.1811981201171875,2.03812406475237
1781018422.379339,-0.0620117150247097,-3.725290298461914e-09,0.9931640028953552,0.9950980803154185,-1.28173828125,-1.64794921875,0.0,2.0877235567000816
1781018422.388865,-0.0610351525247097,-0.0239257849752903,0.9926757216453552,0.9948380880196159,-0.6694793701171875,-1.5888214111328125,-0.2460479736328125,1.7415785106665105
1781018422.398393,-0.06982421875,-0.009765621274709702,0.9907225966453552,0.9932280968572346,-0.5474090576171875,-1.7719268798828125,-0.3681182861328125,1.8907386431228235
1781018422.40792,-0.0722656175494194,-0.0078125,0.9804686903953552,0.9831592991380551,-0.7305145263671875,-1.4057159423828125,-0.2460479736328125,1.6031931852498276
1781018422.417447,-0.0732421800494194,-0.0009765625,0.9819335341453552,0.9846617876671642,-0.48828125,-1.220703125,-0.1239776611328125,1.3205700128907556
1781018422.427113,-0.07080078125,-0.00048827752470970154,0.9746093153953552,0.9771777252352586,-0.5474090576171875,-1.5888214111328125,-0.1850128173828125,1.6906329866151686
1781018422.436779,-0.0629882737994194,-0.00537109375,0.9799804091453552,0.9820172980110888,-0.8525848388671875,-1.4057159423828125,0.3032684326171875,1.6717984209699064
1781018422.446445,-0.07958984375,-0.013671878725290298,0.9731444716453552,0.9764894398763081,-1.40380859375,-1.64794921875,0.1201629638671875,2.168145367209135
1781018422.45611,-0.0629882737994194,0.00732421875,0.9853515028953552,0.9873898678205401,-1.28173828125,-1.64794921875,0.8525848388671875,2.2551032252796386
1781018422.465777,-0.0512695275247097,-0.0019531287252902985,0.9902343153953552,0.9915625943685715,-1.40380859375,-1.708984375,0.9746551513671875,2.416869633630885
1781018422.475316,-0.0493164025247097,-0.008300784975290298,0.9824218153953552,0.9836938720729588,-1.6460418701171875,-1.9550323486328125,0.8525848388671875,2.6941615077507524
1781018422.484859,-0.0644531175494194,-0.00244140625,0.9936522841453552,0.9957434542157927,-1.46484375,-1.64794921875,0.7915496826171875,2.3426597575286445
1781018422.494401,-0.0537109300494194,-0.0009765625,0.9829100966453552,0.9843769988010038,-1.220703125,-1.8310546875,0.7305145263671875,2.3187343231241404
1781018422.503945,-0.0512695275247097,-0.0058593712747097015,0.9873046278953552,0.9886522770660713,-1.3408660888671875,-1.6460418701171875,0.6084442138671875,2.2085244096095784
1781018422.513488,-0.0478515625,-0.01123046875,0.9863280653953552,0.9875519976429495,-0.9765625,-1.708984375,0.3643035888671875,2.001753984699894
1781018422.523089,-0.0512695275247097,0.0029296837747097015,0.9829100966453552,0.9842506822893283,-0.667572021484375,-2.01416015625,-0.4291534423828125,2.164870946731647
1781018422.532689,-0.0541992112994194,-0.02197265625,0.9790038466453552,0.9807491442130153,-0.7305145263671875,-1.6460418701171875,-0.4901885986328125,1.8663842513378548
1781018422.542289,-0.06591796875,-0.012695316225290298,0.9892577528953552,0.9915327787429691,-0.9136199951171875,-1.9550323486328125,-0.4291534423828125,2.2002330914672834
1781018422.551889,-0.0605468675494194,-0.02099609375,0.9775390028953552,0.9796373111026606,-0.850677490234375,-1.52587890625,-0.3681182861328125,1.785348621842667
1781018422.561489,-0.0654296800494194,-0.01171875,0.9877929091453552,0.9900268700852396,-0.7305145263671875,-1.4667510986328125,0.1811981201171875,1.648588189120631
1781018422.569504,-0.0678710862994194,-0.021484375,0.9946288466453552,0.9971733075567524,-0.667572021484375,-1.708984375,0.0591278076171875,1.8356949897781196
1781018422.57752,-0.0585937425494194,-0.01708984375,0.9916991591453552,0.9935756195051042,-1.03759765625,-1.52587890625,0.3643035888671875,1.88085949439497
1781018422.585536,-0.0615234337747097,-0.0244140587747097,0.9716796278953552,0.9739314546908021,-0.42724609375,-1.15966796875,0.4253387451171875,1.30701265122693
1781018422.593552,-0.06591796875,-0.014160159975290298,0.9965819716453552,0.9988600076803532,-0.5474090576171875,-0.9174346923828125,0.7915496826171875,1.329621747415502
1781018422.601568,-0.0678710862994194,-0.01953125,0.9936522841453552,0.9961590314148175,-0.6694793701171875,-0.6694793701171875,0.3643035888671875,1.0144566816215097
1781018422.609584,-0.0522460900247097,0.010253902524709702,0.9785155653953552,0.9799630136698262,-0.42724609375,-0.54931640625,0.5474090576171875,0.88540635595267
1781018422.621547,-0.0532226487994194,-0.005859375,0.9824218153953552,0.9838798737576261,-0.48828125,-0.42724609375,0.6084442138671875,0.8894729704238663
1781018422.63351,-0.0585937425494194,-0.025390625,0.9829100966453552,0.9849823189231468,-0.3643035888671875,-0.8525848388671875,0.6084442138671875,1.1089735676363799
1781018422.645473,-0.0585937425494194,-0.009765625,0.9790038466453552,0.9808043259712869,-0.244140625,-0.8544921875,0.3643035888671875,0.9604575202139023
1781018422.657436,-0.0551757775247097,-0.013183597475290298,0.9975585341453552,0.9991702571204152,-0.0591278076171875,-0.6122589111328125,-0.1239776611328125,0.6274771169971977
1781018422.665497,-0.0478515625,-0.0166015625,0.9892577528953552,0.9905535248408843,-0.79345703125,-1.28173828125,-0.4901885986328125,1.5851536027437114
1781018422.673558,-0.0600585862994194,-0.00634765625,0.9863280653953552,0.9881752775265616,-0.6103515625,-1.52587890625,-0.6732940673828125,1.775995598969147
1781018422.681621,-0.0537109300494194,-0.00537109375,0.9780272841453552,0.9795157381010191,-0.8525848388671875,-1.3408660888671875,-0.6122589111328125,1.7028457798643168
1781018422.689683,-0.0727538987994194,-0.01904296875,0.9824218153953552,0.9852960914436,-0.91552734375,-1.64794921875,-0.3681182861328125,1.920790987410662
1781018422.697677,-0.0527343712747097,-0.014160159975290298,0.9902343153953552,0.9917385862367021,-0.91552734375,-1.64794921875,-0.0629425048828125,1.8862366510206479
1781018422.705671,-0.0600585900247097,-0.0053710900247097015,0.9838866591453552,0.9857326416873989,-1.28173828125,-1.64794921875,0.0,2.0877235567000816
1781018422.713665,-0.0576171837747097,0.0058593712747097015,0.9941405653953552,0.995826057031277,-1.0356903076171875,-1.7108917236328125,0.1811981201171875,2.0081428390484186
1781018422.721659,-0.0581054612994194,-0.01171875,0.9829100966453552,0.9846958067452924,-1.155853271484375,-2.197265625,0.3032684326171875,2.5011886682595255
1781018422.732249,-0.0693359375,-0.0180664099752903,0.9804686903953552,0.983083272283677,-0.91552734375,-2.01416015625,0.6694793701171875,2.311543657210796
1781018422.742839,-0.06591796875,-0.015136715024709702,0.9868163466453552,0.9891313364525214,-0.8525848388671875,-1.8291473388671875,0.7305145263671875,2.1462367921514574
1781018422.753428,-0.0561523400247097,-0.009277347475290298,0.9843749403953552,0.986018852631524,-0.8525848388671875,-1.7719268798828125,0.7915496826171875,2.119711460356998
1781018422.761416,-0.05126953125,-0.00634765625,0.9863280653953552,0.987680064677326,-0.5474090576171875,-1.2226104736328125,0.5474090576171875,1.4470969984625512
1781018422.769403,-0.0493164025247097,-0.0039062537252902985,0.9907225966453552,0.9919569697723086,-0.3643035888671875,-1.1577606201171875,0.4253387451171875,1.2860947890624201
1781018422.77739,-0.0537109337747097,-0.014160159975290298,1.0029296875,1.0044666906405233,-0.4253387451171875,-0.7953643798828125,0.5474090576171875,1.0550707185992663
1781018422.785377,-0.0556640587747097,-0.015624996274709702,0.9858397841453552,0.9875336490224622,-0.0591278076171875,-1.5888214111328125,0.4863739013671875,1.662651240049703
1781018422.793396,-0.0517578087747097,-0.0249023400247097,0.9995116591453552,1.0011606035373977,-0.244140625,-1.52587890625,0.1201629638671875,1.5499516828596414
1781018422.801417,-0.0581054612994194,-0.02294921875,0.9912108778953552,0.9931776858810988,0.2460479736328125,-1.2836456298828125,0.2422332763671875,1.3292714804078352
1781018422.809437,-0.0610351525247097,-0.007812503725290298,0.9804686903953552,0.9823976679042734,0.0,-1.220703125,0.1201629638671875,1.2266031376407418
1781018422.817457,-0.0405273400247097,-0.008789066225290298,0.9824218153953552,0.9832966675115381,0.0629425048828125,-1.2836456298828125,-0.0629425048828125,1.2867282622834895
1781018422.828126,-0.0590820237994194,-0.00244140625,0.9702147841453552,0.9720151096433279,-0.2422332763671875,-1.1005401611328125,-0.2460479736328125,1.1534319276726444
1781018422.838794,-0.0551757775247097,-0.007812503725290298,0.9868163466453552,0.9883885388076896,-0.6694793701171875,-0.6694793701171875,-0.3070831298828125,0.9953418019372222
1781018422.849463,-0.0620117150247097,0.0019531212747097015,0.9853515028953552,0.9873028166379121,-0.7305145263671875,-0.6122589111328125,-0.3070831298828125,1.0014052606980042
1781018422.857453,-0.0639648362994194,-0.00732421875,0.9838866591453552,0.9859909241505815,-0.7305145263671875,-0.3070831298828125,-0.4291534423828125,0.9011793378685058
1781018422.865442,-0.0610351525247097,-0.0009765587747097015,0.9799804091453552,0.981879751201466,-0.6103515625,-0.91552734375,-0.3681182861328125,1.1602717007604215
1781018422.87343,-0.0595703087747097,0.0068359337747097015,0.9853515028953552,0.987174217621298,-0.91552734375,-1.15966796875,0.1811981201171875,1.488574107538044
1781018422.881419,-0.0722656175494194,-0.0068359375,0.9907225966453552,0.9933782326108309,-1.03759765625,-1.03759765625,0.1201629638671875,1.4722964818256998
1781018422.892085,-0.0678710862994194,-0.0107421875,0.9848632216453552,0.9872575369666298,-0.9765625,-1.220703125,0.1201629638671875,1.5678742212551244
1781018422.90275,-0.0566406212747097,-0.0253906212747097,0.9775390028953552,0.9795077058444952,-0.79345703125,-1.3427734375,0.4253387451171875,1.6166408423003218
1781018422.913415,-0.0576171837747097,-0.013671878725290298,0.9775390028953552,0.9793309768998696,-1.155853271484375,-1.3427734375,0.2422332763671875,1.7882153812771775
1781018422.922359,-0.0546874925494194,-0.0068359375,0.9833983778953552,0.9849415320363247,-0.9765625,-1.40380859375,0.0591278076171875,1.7110958424139244
1781018422.931307,-0.0512695275247097,-0.012207034975290298,0.9863280653953552,0.9877351004910371,-0.9765625,-1.28173828125,0.1811981201171875,1.621530171400445
1781018422.940254,-0.0585937425494194,-0.00634765625,0.9814452528953552,0.9832132545061847,-0.9765625,-1.52587890625,0.2422332763671875,1.8277466216969267
1781018422.949201,-0.0566406212747097,-0.015136715024709702,0.9877929091453552,0.9895312584643137,-0.6694793701171875,-1.4667510986328125,0.0591278076171875,1.613399364691422
1781018422.956259,-0.05712890625,-0.02197265625,0.9794921278953552,0.9814027400415045,-1.0986328125,-1.5869140625,0.1811981201171875,1.9385879028808357
1781018422.963316,-0.0624999962747097,-0.0190429724752903,0.9877929091453552,0.9899513703676951,-1.0356903076171875,-1.3408660888671875,-0.1239776611328125,1.6988074470127965
1781018422.970375,-0.0502929612994194,-0.01123046875,0.9951171278953552,0.996450502340839,-0.8525848388671875,-1.3408660888671875,-0.1850128173828125,1.5997038845786749
1781018422.977432,-0.0585937425494194,-0.009765625,0.9916991591453552,0.9934766310020547,-1.0356903076171875,-1.4667510986328125,-0.3681182861328125,1.8329005077248754
1781018422.988074,-0.0551757775247097,-0.014648433774709702,0.9814452528953552,0.9831041284972493,-0.6694793701171875,-1.2836456298828125,0.0,1.4477391789026601
1781018422.998715,-0.0595703050494194,-0.0205078125,0.9814452528953552,0.9834652897016974,-0.8525848388671875,-1.3408660888671875,-0.1239776611328125,1.5937983674857177
1781018423.009356,-0.06689453125,-0.01171875,0.9794921278953552,0.9818436922553868,-0.79345703125,-1.220703125,-0.1850128173828125,1.4676239036009038
1781018423.017379,-0.0610351525247097,-0.009277347475290298,0.9907225966453552,0.992644257790074,-1.1577606201171875,-1.2836456298828125,-0.2460479736328125,1.7460513629158194
1781018423.025402,-0.06494140625,-0.014160159975290298,0.9628905653953552,0.9651819192792829,-0.91552734375,-1.3427734375,0.3032684326171875,1.6532400200308432
1781018423.033425,-0.0581054612994194,-0.0166015625,0.9755858778953552,0.9774557082850919,-0.8525848388671875,-1.4057159423828125,0.3032684326171875,1.6717984209699064
1781018423.041448,-0.0683593675494194,-0.01171875,0.9809569716453552,0.9834057720254368,-1.0356903076171875,-1.8291473388671875,0.4253387451171875,2.144608926745145
1781018423.049448,-0.0595703050494194,-0.01171875,0.9887694716453552,0.9906316259857032,-0.9136199951171875,-1.9550323486328125,0.4253387451171875,2.1994922204401006
1781018423.057448,-0.0610351525247097,-0.0161132775247097,0.9970702528953552,0.9990665727393298,-0.732421875,-2.3193359375,0.3032684326171875,2.4510676727050202
1781018423.065448,-0.0458984337747097,-0.010253902524709702,0.9902343153953552,0.9913504971131378,-0.6103515625,-2.38037109375,0.3643035888671875,2.484232814908513
1781018423.073448,-0.0463867150247097,-0.007812503725290298,0.9848632216453552,0.9859859673924926,-0.6103515625,-2.13623046875,0.1811981201171875,2.229090039499535
1781018423.083046,-0.0439453087747097,-0.008789066225290298,0.9858397841453552,0.9868579015502574,-0.5474090576171875,-1.9550323486328125,-0.1850128173828125,2.038636285156819
1781018423.092643,-0.0454101525247097,-0.007812503725290298,0.9868163466453552,0.9878915017213484,-0.48828125,-1.8310546875,-0.5512237548828125,1.9735823964720582
1781018423.102242,-0.0625,-0.02001953125,0.9790038466453552,0.9812010820305245,-0.732421875,-1.8310546875,-0.4291534423828125,2.0182605750257463
1781018423.11184,-0.0576171875,-0.005859375,0.9843749403953552,0.9860771246962177,-0.6084442138671875,-1.7719268798828125,-0.6732940673828125,1.9907923372900023
1781018423.121438,-0.0624999962747097,-0.013671878725290298,0.9931640028953552,0.9952225411682268,-0.6103515625,-1.8310546875,-0.3070831298828125,1.9543772274360287
1781018423.132108,-0.0571289025247097,-0.012695316225290298,0.9829100966453552,0.9846507709056646,-0.91552734375,-1.89208984375,-0.1239776611328125,2.1056031806671913
1781018423.14278,-0.0737304612994194,0.00439453125,0.9887694716453552,0.9915243622252392,-0.8525848388671875,-1.8291473388671875,-0.1239776611328125,2.0218930128003967
1781018423.15345,-0.04736328125,-0.0205078125,0.9916991591453552,0.9930413249376414,-0.79345703125,-1.5869140625,0.3032684326171875,1.79995612291589
1781018423.161447,-0.0561523400247097,-0.010253902524709702,0.9912108778953552,0.9928530768776,-0.5474090576171875,-1.7108917236328125,0.6084442138671875,1.896578901007035
1781018423.169441,-0.0478515625,-0.01806640625,0.9843749403953552,0.9857028915179465,-0.4253387451171875,-1.2836456298828125,0.7915496826171875,1.566910990218167
1781018423.177437,-0.0605468675494194,-0.0166015625,0.9741210341453552,0.9761420614910028,-0.732421875,-1.3427734375,0.6084442138671875,1.6461125929967675
1781018423.185431,-0.0463867150247097,-0.008300784975290298,0.9809569716453552,0.9820881888005862,-0.6694793701171875,-1.1005401611328125,0.2422332763671875,1.310751018866026
1781018423.196093,-0.04296875,-0.009765625,0.9721679091453552,0.9731660313020871,-0.6694793701171875,-1.1577606201171875,0.1811981201171875,1.349609217233138
1781018423.206753,-0.0512695275247097,-0.0180664099752903,0.9970702528953552,0.9985509745780682,-0.667572021484375,-1.03759765625,0.0591278076171875,1.2352155268445435
1781018423.217415,-0.0546874962747097,-0.009765621274709702,0.9853515028953552,0.986916244605292,-0.6694793701171875,-1.1577606201171875,0.1201629638671875,1.342777501446903
1781018423.22812,-0.0546874925494194,-0.02099609375,0.9804686903953552,0.9822170893645072,-0.79345703125,-1.40380859375,0.1201629638671875,1.6170008553528235
1781018423.238825,-0.07080078125,-0.014648433774709702,0.9897460341453552,0.9923832623256607,-0.91552734375,-1.15966796875,0.1811981201171875,1.488574107538044
1781018423.24953,-0.0585937425494194,-0.00537109375,0.9799804091453552,0.9817452203207901,-0.48828125,-1.220703125,0.2422332763671875,1.3368663578181292
1781018423.260164,-0.0639648362994194,-0.00244140625,0.9868163466453552,0.9888902683077505,-0.3643035888671875,-1.4667510986328125,0.5474090576171875,1.6073993177065282
1781018423.270799,-0.06591796875,-0.0244140587747097,0.9804686903953552,0.9829852886567346,-0.4253387451171875,-1.1005401611328125,0.6084442138671875,1.3275187590962927
1781018423.281433,-0.0673828050494194,-0.00732421875,0.9931640028953552,0.9954741700535233,-0.5474090576171875,-1.2836456298828125,0.9746551513671875,1.702161990988277
1781018423.289439,-0.0571289025247097,-0.012695316225290298,0.9921874403953552,0.9939118670365217,-0.179290771484375,-1.03759765625,0.7305145263671875,1.2815637129024962
1781018423.297446,-0.06591796875,-0.0244140587747097,0.9843749403953552,0.9868815775706526,-0.1220703125,-0.91552734375,0.6694793701171875,1.14074278667905
1781018423.305452,-0.0561523400247097,-0.0185546912252903,0.9926757216453552,0.9944357446315187,-0.3643035888671875,-0.9784698486328125,1.0967254638671875,1.5142414248196123
1781018423.313458,-0.0507812462747097,-0.0234375037252903,0.9965819716453552,0.9981501278678621,0.0,-1.03759765625,0.7305145263671875,1.2689603498490287
1781018423.324098,-0.0673828050494194,-0.01025390625,0.9926757216453552,0.995012901099196,-0.3643035888671875,-0.8525848388671875,0.4863739013671875,1.0469849971507899
1781018423.334738,-0.0595703087747097,-0.0190429724752903,0.9838866591453552,0.9858723114746744,0.1239776611328125,-0.7343292236328125,0.8525848388671875,1.1320383282412834
1781018423.345377,-0.052734375,-0.009765625,0.9775390028953552,0.9790090826544596,0.18310546875,-0.67138671875,0.6084442138671875,0.9243874188826396
1781018423.356061,-0.0595703050494194,-0.00732421875,0.9765624403953552,0.9784050620345902,0.1850128173828125,-0.9784698486328125,0.1811981201171875,1.0121589529384443
1781018423.366745,-0.0541992112994194,-0.01171875,0.9804686903953552,0.9820355067168521,-0.1201629638671875,-1.4667510986328125,0.5474090576171875,1.5701766141384372
1781018423.377429,-0.0600585900247097,-0.014160159975290298,0.9892577528953552,0.9911803297230276,0.244140625,-1.03759765625,0.2422332763671875,1.0931104707258392
1781018423.385973,-0.0488281175494194,-0.01123046875,0.9829100966453552,0.9841862458798873,-0.1220703125,-1.220703125,0.1811981201171875,1.240100818204962
1781018423.394522,-0.0468749962747097,-0.0024414099752902985,0.9873046278953552,0.9884197762196016,-0.1220703125,-1.0986328125,0.2422332763671875,1.1316236910188342
1781018423.40307,-0.0654296800494194,0.00390625,0.9790038466453552,0.9811956143230737,-0.1220703125,-1.708984375,0.1811981201171875,1.7228933553537176
1781018423.411618,-0.0600585862994194,-0.01708984375,0.9770507216453552,0.9790440282313118,-0.30517578125,-1.3427734375,0.3643035888671875,1.424391051214036
1781018423.42079,-0.064453125,-0.009277347475290298,0.9926757216453552,0.9948092092670683,-0.3643035888671875,-1.4667510986328125,0.0,1.5113159465188195
1781018423.429962,-0.0566406212747097,-0.009765621274709702,0.9877929091453552,0.9894636722462883,-0.6103515625,-1.03759765625,0.1811981201171875,1.217362183097408
1781018423.439135,-0.0532226487994194,-0.015625,0.9877929091453552,0.9893490902245123,-0.244140625,-0.732421875,0.7305145263671875,1.0628724857608192
1781018423.448307,-0.05224609375,-0.02587890625,0.9936522841453552,0.9953613584463242,-0.1220703125,-0.8544921875,0.9746551513671875,1.3019257750651447
1781018423.457479,-0.0585937425494194,-0.0078125,0.9999999403953552,1.0017455478378288,-0.0591278076171875,-0.7953643798828125,1.2798309326171875,1.5080012634291013
1781018423.467062,-0.0629882737994194,-0.00927734375,0.9897460341453552,0.9917917139448912,0.3662109375,-1.15966796875,1.0356903076171875,1.5973711722018662
1781018423.476645,-0.0551757737994194,-0.0107421875,0.9887694716453552,0.9903660074257823,0.18310546875,-1.15966796875,1.2798309326171875,1.7367569278729502
1781018423.486228,-0.0419921875,-0.01171875,0.9770507216453552,0.978022896245434,0.244140625,-1.15966796875,1.4019012451171875,1.8356910261755006
1781018423.495811,-0.052734375,-0.02197265625,0.9873046278953552,0.9889560860791076,0.54931640625,-1.03759765625,1.2187957763671875,1.692282646286194
1781018423.505394,-0.0537109337747097,-0.014160159975290298,0.9892577528953552,0.9908159648497014,0.1239776611328125,-1.0395050048828125,0.9746551513671875,1.4303474332213744
1781018423.515004,-0.0493163987994194,-0.00732421875,0.9887694716453552,0.9900256660454193,0.3070831298828125,-0.7953643798828125,0.6694793701171875,1.084023603275086
1781018423.524614,-0.0483398362994194,-0.00341796875,0.9897460341453552,0.9909317001641885,-0.0591278076171875,0.3643035888671875,0.3643035888671875,0.5185849085315158
1781018423.534224,-0.0566406212747097,-0.0170898474752903,0.9848632216453552,0.9866386310168388,-0.1811981201171875,0.2422332763671875,0.0,0.3025057336871236
1781018423.543833,-0.0537109300494194,-0.02197265625,0.9829100966453552,0.9846217140185544,-0.1220703125,0.1220703125,0.0,0.17263349150062196
1781018423.553444,-0.0576171875,-0.01171875,0.9897460341453552,0.991490938689523,-0.06103515625,-0.3662109375,0.6694793701171875,0.765531428522433
1781018423.56304,-0.0512695275247097,-0.0058593712747097015,0.9990233778953552,1.0003552400351525,0.732421875,-0.732421875,0.3032684326171875,1.0792846465039316
1781018423.572638,-0.06591796875,-0.008300784975290298,1.021484375,1.0236427159924857,2.01416015625,-0.67138671875,0.9136199951171875,2.311342198078174
1781018423.582236,-0.0576171837747097,-0.0244140587747097,1.00390625,1.0058546340903571,3.11279296875,-0.8544921875,1.0967254638671875,3.4091705307732365
1781018423.591834,-0.0581054612994194,-0.0166015625,1.00390625,1.00572342883087,4.0283203125,-0.54931640625,0.9136199951171875,4.166991066675503
1781018423.601432,-0.0620117150247097,-0.0195312462747097,1.00048828125,1.002598485586293,4.5185089111328125,-0.4901885986328125,0.9746551513671875,4.648350277926872
1781018423.611029,-0.0488281175494194,-0.02587890625,0.9902343153953552,0.9917751268501465,5.126953125,-0.42724609375,0.7915496826171875,5.205260653475796
1781018423.620628,-0.0478515587747097,-0.0195312462747097,1.00830078125,1.009624537502716,5.1288604736328125,-0.6122589111328125,0.9136199951171875,5.245452528403289
1781018423.630226,-0.07080078125,-0.013671878725290298,1.00244140625,1.0050315636127887,5.069732666015625,-0.18310546875,0.8525848388671875,5.144182911310429
1781018423.639824,-0.0576171875,-0.005859375,1.00146484375,1.0031380293050467,5.67626953125,0.1220703125,1.0356903076171875,5.771272941551381
1781018423.649421,-0.0532226525247097,-0.009277347475290298,0.9843749403953552,0.9858563501830794,5.615234375,0.06103515625,0.6694793701171875,5.6553324396972995
1781018423.657435,-0.0600585900247097,-0.0029296912252902985,0.9931640028953552,0.9949825897841413,5.126953125,-0.06103515625,0.7305145263671875,5.179095008732626
1781018423.665448,-0.0703125,-0.014648433774709702,0.9916991591453552,0.9942965586372642,5.3119659423828125,0.0591278076171875,1.0967254638671875,5.424323461387902
1781018423.67346,-0.068359375,0.014648433774709702,1.0087890625,1.0112086596652896,6.1054229736328125,-0.3070831298828125,1.2187957763671875,6.233454329672469
1781018423.681473,-0.0732421875,-3.725290298461914e-09,1.005859375,1.0085224342101546,7.2040557861328125,-0.4291534423828125,1.7681121826171875,7.430263328923275
1781018423.692117,-0.0600585900247097,0.0024414025247097015,0.9868163466453552,0.9886452835514513,8.9111328125,-0.54931640625,1.5850067138671875,9.06765034610365
1781018423.702764,-0.068359375,-0.0043945349752902985,0.9838866591453552,0.9862683580710921,8.670806884765625,-0.244140625,1.7070770263671875,8.840622639363417
1781018423.713409,-0.06201171875,0.01904296875,0.9902343153953552,0.9923568346656612,8.790969848632812,-0.6122589111328125,1.1577606201171875,8.887993109095376
1781018423.721405,-0.0634765550494194,-0.00146484375,0.9697265028953552,0.9718029168642216,8.790969848632812,-0.8525848388671875,1.0967254638671875,8.900048231899202
1781018423.729399,-0.0605468712747097,0.012207027524709702,0.9677733778953552,0.9697423606840795,8.056640625,-0.6103515625,0.6694793701171875,8.107415729889462
1781018423.737395,-0.0541992112994194,0.013671875,0.9638671278953552,0.9654865689944815,7.080078125,-1.15966796875,0.4863739013671875,7.190889765931571
1781018423.745389,-0.0483398362994194,0.0126953125,0.9521483778953552,0.9534591990545183,6.2255859375,-0.8544921875,0.3032684326171875,6.29126767082107
1781018423.756073,-0.0703125,0.0375976525247097,0.9467772841453552,0.9501287580666493,4.8236846923828125,-0.9784698486328125,0.0,4.921924141655556
1781018423.766758,-0.0507812462747097,0.0312499962747097,0.9472655653953552,0.9491403208294146,3.4809112548828125,-1.2836456298828125,-0.0629425048828125,3.7105863453648404
1781018423.777442,-0.07373046875,0.0351562462747097,0.9467772841453552,0.9502943593686524,2.0160675048828125,-0.9784698486328125,-0.3070831298828125,2.261908812836307
1781018423.78811,-0.07470703125,0.0356445275247097,0.9619140028953552,0.9654689129261561,0.732421875,-1.220703125,-0.1239776611328125,1.4289605952660989
1781018423.79878,-0.0566406212747097,0.0322265587747097,0.9570311903953552,0.9592473145432285,-0.8525848388671875,-1.4667510986328125,-0.1239776611328125,1.7010673570634154
1781018423.809449,-0.0624999962747097,0.0336914025247097,0.9697265028953552,0.9723224005215946,-1.7070770263671875,-1.4057159423828125,0.4863739013671875,2.2642236763515604
1781018423.817433,-0.0541992150247097,0.0161132775247097,0.9999999403953552,1.001597261084812,-3.0517578125,-1.89208984375,0.5474090576171875,3.632201315915463
1781018423.825416,-0.0600585862994194,0.0078125,1.01220703125,1.01401732877524,-2.9888153076171875,-2.0771026611328125,0.9136199951171875,3.7526089462412364
1781018423.833399,-0.05712890625,0.00390625,0.9941405653953552,0.9957883482362004,-2.1953582763671875,-2.1343231201171875,0.9136199951171875,3.1952518896260127
1781018423.841382,-0.0585937425494194,0.013671875,0.9975585341453552,0.9993713903640593,-1.5850067138671875,-2.2602081298828125,0.9136199951171875,2.9078322800447673
1781018423.849406,-0.0590820237994194,-0.00048828125,1.001953125,1.0036936727169699,-1.2187957763671875,-2.1343231201171875,0.9746551513671875,2.644002834651252
1781018423.85743,-0.0581054612994194,0.0068359375,1.001953125,1.003659822535299,-1.155853271484375,-2.197265625,0.9136199951171875,2.64550080466548
1781018423.865453,-0.06201171875,-0.0009765625,0.9790038466453552,0.9809663290261535,-0.91552734375,-1.8310546875,0.8525848388671875,2.217623163036462
1781018423.873478,-0.056640625,0.00830078125,0.9775390028953552,0.9792137486531713,-0.9765625,-1.708984375,0.7305145263671875,2.0995126538399016
1781018423.884105,-0.052734375,0.00927734375,0.9912108778953552,0.9926560269659259,-0.91552734375,-1.52587890625,0.7305145263671875,1.923576935536009
1781018423.894734,-0.0634765550494194,0.0283203125,0.9912108778953552,0.9936449655682458,-1.28173828125,-1.64794921875,1.0356903076171875,2.3305029634164005
1781018423.905362,-0.0600585900247097,0.0219726525247097,0.9916991591453552,0.9937590522578058,-1.220703125,-1.220703125,0.9136199951171875,1.9531855350292406
1781018423.913391,-0.0581054612994194,0.00927734375,1.00048828125,1.0022170995639883,-0.6103515625,-1.15966796875,0.7305145263671875,1.500336729145967
1781018423.92142,-0.0532226525247097,-0.0043945349752902985,1.01416015625,1.015565254035623,-0.1220703125,-1.0986328125,0.9746551513671875,1.4737190648092
1781018423.929449,-0.0478515587747097,0.00048827752470970154,1.01416015625,1.0152885464818044,0.9784698486328125,-1.2836456298828125,1.0967254638671875,1.951398496180485
1781018423.937478,-0.0590820275247097,-0.0239257849752903,1.00048828125,1.0025167979049994,1.8939971923828125,-0.9784698486328125,0.4253387451171875,2.173831101427928
1781018423.948155,-0.06201171875,-0.0068359375,1.02099609375,1.0229003894595954,2.7484893798828125,-0.9784698486328125,0.4863739013671875,2.957728298533059
1781018423.958832,-0.0546874925494194,-0.017578125,1.02294921875,1.0245607919792235,4.150390625,-0.67138671875,0.1201629638671875,4.206060104668873
1781018423.969509,-0.0654296875,-0.0273437537252903,1.0322265625,1.0346595581178881,5.5561065673828125,-0.6122589111328125,-0.0629425048828125,5.590093283774152
1781018423.980139,-0.0546874962747097,-0.0195312462747097,1.03076171875,1.0323961994652509,7.3261260986328125,-0.4901885986328125,-0.0629425048828125,7.342776738688121
1781018423.99077,-0.0522460900247097,-0.0200195275247097,1.01220703125,1.0137521933476252,8.85009765625,0.18310546875,-0.0629425048828125,8.852215423088664
1781018424.0014,-0.0537109300494194,-0.01171875,1.01611328125,1.0175993285379947,9.950637817382812,0.4253387451171875,-0.4291534423828125,9.96896577875237
1781018424.009424,-0.0556640587747097,0.0063476525247097015,1.00146484375,1.003030714085596,12.086868286132812,0.1811981201171875,-0.7343292236328125,12.110510192957946
1781018424.017447,-0.0595703050494194,0.00830078125,0.9838866591453552,0.9857233294678835,12.8173828125,0.42724609375,-0.9174346923828125,12.857275286839844
1781018424.02547,-0.0556640550494194,0.013671875,0.9882811903953552,0.9899419773298942,12.575149536132812,0.7305145263671875,-1.2226104736328125,12.65554478082913
1781018424.033493,-0.0590820237994194,0.017578125,0.9731444716453552,0.9750947844741393,13.063430786132812,0.7305145263671875,-0.9784698486328125,13.1203764664738
1781018424.044137,-0.0556640587747097,0.0346679650247097,0.9609374403953552,0.9631724246425485,12.575149536132812,0.4253387451171875,-1.3446807861328125,12.653990094859168
1781018424.054783,-0.064453125,0.0317382775247097,0.9697265028953552,0.9723841905338427,11.71875,0.30517578125,-1.2836456298828125,11.792793558910407
1781018424.065428,-0.0629882737994194,0.0488281175494194,0.9545897841453552,0.9579109372453821,11.71875,0.42724609375,-1.2226104736328125,11.790098267502323
1781018424.073434,-0.0625,0.0576171875,0.9423827528953552,0.9462088792914799,9.70458984375,0.244140625,-1.5277862548828125,9.827146051667285
1781018424.081439,-0.0576171837747097,0.0546874962747097,0.9775390028953552,0.980761420681182,8.60595703125,-0.06103515625,-1.3446807861328125,8.71059057301022
1781018424.089446,-0.06640625,0.0454101525247097,0.9384765028953552,0.9419182652853036,7.4481964111328125,-0.1239776611328125,-1.5277862548828125,7.604283732205192
1781018424.097451,-0.0615234337747097,0.0732421875,0.9575194716453552,0.9622853472402125,6.2255859375,-0.30517578125,-1.4667510986328125,6.403312526185167
1781018424.108223,-0.0512695275247097,0.0605468712747097,0.9609374403953552,0.9642070588972786,5.615234375,-0.67138671875,-1.5277862548828125,5.857964497409009
1781018424.118996,-0.0585937425494194,0.0629882737994194,0.9438475966453552,0.9477600091771078,4.7607421875,-0.3662109375,-1.9550323486328125,5.159547277696721
1781018424.129768,-0.0703125,0.06494140625,0.9399413466453552,0.9448020792925158,3.47900390625,-0.732421875,-1.9550323486328125,4.057346604233117
1781018424.140308,-0.0629882737994194,0.0517578125,0.9536132216453552,0.9570917251172163,-0.48828125,-0.42724609375,-1.2836456298828125,1.4382989629570895
1781018424.150847,-0.0566406212747097,0.0439453087747097,0.9555663466453552,0.9582517377927581,-2.3174285888671875,-0.4901885986328125,-1.2836456298828125,2.6941615077507524
1781018424.161387,-0.0751953125,0.0507812462747097,0.9750975966453552,0.9793101617867208,-3.72314453125,-0.732421875,-1.1615753173828125,3.9683125156051253
1781018424.169434,-0.0673828050494194,0.04052734375,0.9755858778953552,0.9787495661080058,-4.6367645263671875,-0.7343292236328125,-0.6122589111328125,4.734309417002636
1781018424.17748,-0.0698242112994194,0.02783203125,0.9965819716453552,0.999412661844761,-5.18798828125,-1.03759765625,-0.6122589111328125,5.32603907955099
1781018424.185525,-0.07080078125,0.0166015587747097,1.005859375,1.0084847270309805,-5.0029754638671875,-1.1005401611328125,-0.3681182861328125,5.135802100052989
1781018424.193572,-0.0712890625,0.0322265587747097,1.001953125,1.0050028588117819,-4.5146942138671875,-0.7953643798828125,-0.1239776611328125,4.5858956379285605
1781018424.203132,-0.0615234337747097,0.0327148400247097,1.0029296875,1.0053473786359226,-3.72314453125,-1.708984375,0.1811981201171875,4.100642090368888
1781018424.212691,-0.0576171875,0.0322265625,0.9975585341453552,0.9997406266988486,-3.4770965576171875,-1.7719268798828125,-0.1850128173828125,3.9069367900236704
1781018424.22225,-0.0620117150247097,0.0390624962747097,0.9741210341453552,0.9768741580060012,-3.1719207763671875,-1.6460418701171875,-0.4291534423828125,3.5992649147899254
1781018424.231808,-0.0634765625,0.0341796837747097,0.9873046278953552,0.9899333073663809,-3.60107421875,-1.953125,-0.6732940673828125,4.151597005459925
1781018424.241368,-0.0590820275247097,0.0444335900247097,0.9716796278953552,0.974487726534188,-4.268646240234375,-1.8310546875,-0.7343292236328125,4.702482472222938
1781018424.251022,-0.06640625,0.0356445275247097,0.9648436903953552,0.967782862669747,-4.8828125,-1.5869140625,-0.6122589111328125,5.170591371030787
1781018424.260676,-0.0654296800494194,0.033203125,0.9521483778953552,0.9549712163567503,-5.37109375,-1.89208984375,-0.9784698486328125,5.778066743539268
1781018424.27033,-0.0634765625,0.0297851525247097,0.9565429091453552,0.9591093609875757,-6.221771240234375,-1.708984375,-0.6732940673828125,6.487248250296471
1781018424.279984,-0.0634765625,0.0297851525247097,0.9936522841453552,0.9961231304838867,-6.6509246826171875,-1.5888214111328125,-0.3681182861328125,6.847967850603999
1781018424.289638,-0.05224609375,0.0478515625,0.9809569716453552,0.9835120774883507,-6.1626434326171875,-1.7719268798828125,-0.4291534423828125,6.426668781129148
1781018424.299221,-0.0478515587747097,0.0312499962747097,0.9843749403953552,0.9860326349683858,-5.428314208984375,-1.52587890625,-0.1239776611328125,5.640059578449533
1781018424.308805,-0.07568359375,0.0205078087747097,1.0078125,1.0108583539447578,-5.0640106201171875,-1.4667510986328125,-0.5512237548828125,5.300887659057428
1781018424.318388,-0.06982421875,0.0209960900247097,1.00830078125,1.0109335897029705,-4.4536590576171875,-1.4667510986328125,-0.4901885986328125,4.714522526095912
1781018424.327973,-0.0493163987994194,0.013671875,1.0205078125,1.0217902048513159,-3.6602020263671875,-1.2226104736328125,-0.1239776611328125,3.8609876592031576
1781018424.337556,-0.06201171875,0.0078125,1.0078125,1.009748742794379,-2.6836395263671875,-1.4057159423828125,-0.1850128173828125,3.0351586714281393
1781018424.345592,-0.0512695275247097,0.0073242150247097015,1.0078125,1.009142330761417,-1.89208984375,-1.3427734375,-0.1239776611328125,2.3234489324573993
1781018424.353629,-0.0556640587747097,0.0195312462747097,0.9960936903953552,0.9978389634934864,-1.5869140625,-1.5869140625,-0.7953643798828125,2.3810075557013417
1781018424.361665,-0.04736328125,0.02392578125,0.9853515028953552,0.9867792598536538,-1.0986328125,-1.0986328125,-0.5512237548828125,1.6485859823953457
1781018424.369701,-0.05126953125,0.0234375,0.9902343153953552,0.9918376281566215,-0.91552734375,-0.8544921875,-0.7953643798828125,1.4835604849276744
1781018424.380261,-0.0522460900247097,0.0214843712747097,0.9882811903953552,0.989894410238385,-0.48828125,-0.9765625,-1.0395050048828125,1.5075355885299122
1781018424.390821,-0.0556640587747097,0.0205078087747097,0.9809569716453552,0.9827490207981082,-0.5474090576171875,-0.6694793701171875,-1.2836456298828125,1.5477743396539063
1781018424.401381,-0.0605468712747097,0.0371093712747097,0.9887694716453552,0.9913163456310984,-1.0967254638671875,-0.4901885986328125,-0.7343292236328125,1.40795277406789
1781018424.412078,-0.0566406212747097,0.0209960900247097,0.9902343153953552,0.9920750955251415,-1.4019012451171875,-0.3070831298828125,-0.5512237548828125,1.5373596773907048
1781018424.422774,-0.0488281175494194,0.0263671875,0.9711913466453552,0.9727754342287322,-2.0122528076171875,-0.2460479736328125,-0.0629425048828125,2.0282166368544043
1781018424.43347,-0.0629882737994194,0.025390625,0.9726561903953552,0.9750242413337868,-2.44140625,-0.06103515625,-0.6732940673828125,2.533281403439108
1781018424.441468,-0.0595703050494194,0.01904296875,0.9775390028953552,0.9795375225503817,-3.0517578125,0.06103515625,-0.4901885986328125,3.0914779473065708
1781018424.449467,-0.0615234337747097,0.0327148400247097,0.9760741591453552,0.9785582035896412,-2.9296875,0.30517578125,-0.4291534423828125,2.9766379998627337
1781018424.457466,-0.06884765625,0.0439453087747097,0.9848632216453552,0.9882442791557616,-3.0517578125,-0.18310546875,-0.5512237548828125,3.1065416441419305
1781018424.465465,-0.0590820237994194,0.02880859375,1.001953125,1.0041069093016706,-3.5400390625,-0.54931640625,-0.4901885986328125,3.6157862133194345
1781018424.47613,-0.0517578125,0.02783203125,0.9843749403953552,0.9861275355635524,-3.2939910888671875,-0.3070831298828125,-0.7343292236328125,3.388792816162746
1781018424.486794,-0.0566406212747097,0.0312499962747097,0.9882811903953552,0.9903960993132065,-2.9888153076171875,-0.2460479736328125,-0.8563995361328125,3.118810143927349
1781018424.49746,-0.0688476487994194,0.037109375,0.9848632216453552,0.987963901065098,-3.5400390625,-0.3662109375,-1.3446807861328125,3.8044912184634185
1781018424.508169,-0.0634765625,0.00048827752470970154,0.9975585341453552,0.9995761809126843,-2.6836395263671875,-0.4291534423828125,-0.8563995361328125,2.849476083436711
1781018424.518882,-0.0771484300494194,0.00830078125,1.00390625,1.0069004628152243,-2.315521240234375,-0.3662109375,-0.8563995361328125,2.4958303688771926
1781018424.529594,-0.06884765625,0.010253902524709702,0.9819335341453552,0.9843975862258562,-1.6460418701171875,-0.4901885986328125,-0.4901885986328125,1.7860637062092968
1781018424.54019,-0.0825195237994194,0.00341796875,0.9941405653953552,0.9975653452696999,-1.155853271484375,-0.8544921875,-0.4291534423828125,1.5001087829916486
1781018424.550788,-0.0732421875,0.010742183774709702,0.9882811903953552,0.9910497080526764,-1.0986328125,-1.0986328125,-0.2460479736328125,1.573063164253786
1781018424.561385,-0.06689453125,0.0161132775247097,0.9838866591453552,0.9862897515780816,-0.9136199951171875,-0.9784698486328125,0.0,1.3386951632696102
1781018424.569405,-0.0585937425494194,0.017578125,0.9804686903953552,0.9823752185341639,-1.0986328125,-1.220703125,-0.1239776611328125,1.6469610306702427
1781018424.577424,-0.0581054612994194,0.021484375,0.9711913466453552,0.973165173442195,-1.4629364013671875,-0.9784698486328125,-0.4291534423828125,1.811562539974183
1781018424.585443,-0.0703124925494194,0.03271484375,0.9682616591453552,0.9713623156068054,-1.8291473388671875,-1.1005401611328125,-0.7343292236328125,2.257478248451648
1781018424.593462,-0.0488281212747097,0.015624996274709702,0.9755858778953552,0.9769319992121527,-2.5005340576171875,-1.2836456298828125,-0.9784698486328125,2.9762089847831987
1781018424.604141,-0.064453125,0.0351562462747097,0.9565429091453552,0.9593562966962029,-2.74658203125,-1.03759765625,-1.1005401611328125,3.135523942965052
1781018424.614822,-0.0595703087747097,0.0317382775247097,0.9672850966453552,0.9696372508005063,-3.9653778076171875,-1.1005401611328125,-1.2836456298828125,4.310818472926734
1781018424.625502,-0.06689453125,0.0195312462747097,0.9653319716453552,0.9678440800939526,-3.90625,-1.28173828125,-1.3446807861328125,4.3254836146628115
1781018424.633511,-0.0737304612994194,0.01416015625,0.9731444716453552,0.9760362972975786,-4.7588348388671875,-1.2836456298828125,-1.4667510986328125,5.142529913580853
1781018424.64152,-0.0585937462747097,0.010742183774709702,0.9843749403953552,0.9861757677478766,-5.3691864013671875,-1.2836456298828125,-1.3446807861328125,5.681907701849647
1781018424.649529,-0.0737304612994194,0.01904296875,0.9887694716453552,0.9916974758665434,-5.4931640625,-1.03759765625,-1.4667510986328125,5.779517202945032
1781018424.657537,-0.0712890625,0.01806640625,0.9716796278953552,0.9744587342385387,-5.859375,-1.3427734375,-1.4057159423828125,6.173439333608922
1781018424.668346,-0.07470703125,0.0209960900247097,0.9838866591453552,0.9869422142956105,-6.4678192138671875,-1.1577606201171875,-1.2836456298828125,6.694836901663919
1781018424.679154,-0.0727538987994194,0.02685546875,0.9760741591453552,0.9791501979490228,-6.4697265625,-1.220703125,-1.5277862548828125,6.758817112003526
1781018424.689961,-0.0581054650247097,0.009765621274709702,0.9682616591453552,0.9700527062977222,-7.2021484375,-1.28173828125,-1.7108917236328125,7.512718923758605
1781018424.700445,-0.0703125,0.0048828087747097015,0.9667968153953552,0.9693625594876155,-8.48388671875,-1.03759765625,-2.3822784423828125,8.872890922911203
1781018424.710928,-0.0678710862994194,0.0185546875,0.9716796278953552,0.9742238244112806,-8.909225463867188,-1.4667510986328125,-2.7484893798828125,9.438212278958801
1781018424.721411,-0.06494140625,0.0053710900247097015,0.9765624403953552,0.9787340981312099,-9.885787963867188,-1.5888214111328125,-2.9315948486328125,10.432995998252172
1781018424.72943,-0.0673828050494194,-0.00732421875,0.9716796278953552,0.9740407516441403,-10.862350463867188,-1.6460418701171875,-3.1757354736328125,11.436144771580343
1781018424.737452,-0.06640625,0.011230465024709702,0.9838866591453552,0.9861890647476994,-11.29150390625,-2.0751953125,-3.2367706298828125,11.928167510575669
1781018424.745472,-0.0644531175494194,0.0029296875,0.9980468153953552,1.0001301081116882,-11.29150390625,-2.3193359375,-3.4809112548828125,12.041350539711393
1781018424.753494,-0.0737304612994194,-0.01806640625,0.9907225966453552,0.9936266096788725,-10.7421875,-2.8076171875,-3.6029815673828125,11.672993734753822
1781018424.761503,-0.080078125,-0.0292968712747097,1.00439453125,1.0080075332927376,-10.496139526367188,-3.4198760986328125,-3.9081573486328125,11.710601664672923
1781018424.769512,-0.0688476487994194,-0.01953125,1.021484375,1.02398818198303,-9.397506713867188,-4.2133331298828125,-3.3588409423828125,10.832687615581555
1781018424.777521,-0.0703124925494194,-0.02587890625,1.01953125,1.0222805554855139,-8.4228515625,-5.31005859375,-3.4198760986328125,10.527901179388364
1781018424.78553,-0.0673828050494194,-0.0400390625,1.00390625,1.0069614330902994,-7.26318359375,-5.615234375,-3.1147003173828125,9.694640326995396
1781018424.794043,-0.0537109300494194,-0.021484375,1.0068359375,1.0084964290553626,-6.221771240234375,-5.9814453125,-3.1757354736328125,9.196380874600923
1781018424.802556,-0.0488281175494194,-0.0283203125,1.0078125,1.0093920250922173,-5.3081512451171875,-5.9185028076171875,-2.3822784423828125,8.29942140765569
1781018424.811069,-0.0454101525247097,-0.0336914025247097,1.00244140625,1.0040348427822996,-4.6367645263671875,-5.8612823486328125,-2.1991729736328125,7.790415766268748
1781018424.819582,-0.0634765550494194,-0.025390625,0.9902343153953552,0.9925915354592444,-3.8433074951171875,-5.1898956298828125,-2.0160675048828125,6.7653941005195755
1781018424.828764,-0.0600585862994194,-0.01220703125,0.9921874403953552,0.9940784487546794,-3.4160614013671875,-4.5795440673828125,-1.6498565673828125,5.946740792732442
1781018424.837946,-0.0502929650247097,-0.0234375037252903,0.9877929091453552,0.9893500544648964,-3.108978271484375,-4.150390625,-1.4667510986328125,5.389141584518858
1781018424.847127,-0.0595703087747097,-0.008300784975290298,0.9765624403953552,0.9784128600491983,-3.35693359375,-3.84521484375,-1.1615753173828125,5.234877034410227
1781018424.856309,-0.0361328087747097,-0.0161132775247097,0.9897460341453552,0.9905364353162365,-3.23486328125,-2.99072265625,-1.0395050048828125,4.52651445487176
1781018424.865492,-0.0449218712747097,-0.012695316225290298,0.9824218153953552,0.9835302582725084,-3.292083740234375,-2.99072265625,-0.7953643798828125,4.518278638608843
1781018424.875124,-0.0390624962747097,-0.008789066225290298,0.9770507216453552,0.9778707680302309,-3.5381317138671875,-1.4667510986328125,-0.9174346923828125,3.9384541669036683
1781018424.884758,-0.0473632775247097,-0.007812503725290298,0.9931640028953552,0.9943234141462552,-3.60107421875,-0.8544921875,-0.7953643798828125,3.785564280821398
1781018424.894391,-0.04736328125,-0.00634765625,0.9887694716453552,0.9899235532143226,-3.7212371826171875,-0.0019073486328125,-0.9174346923828125,3.832661767239454
1781018424.904024,-0.04248046875,-0.015625,0.9921874403953552,0.9932193351563925,-3.41796875,0.48828125,-1.2226104736328125,3.662745599316826
1781018424.913656,-0.0419921875,-0.01123046875,1.00146484375,1.0024077516193657,-3.108978271484375,0.9765625,-1.0395050048828125,3.420524939851285
1781018424.923438,-0.0483398362994194,-0.0224609375,1.01611328125,1.0175104096860508,-1.77001953125,1.0986328125,-1.1615753173828125,2.3852086733996907
1781018424.933218,-0.0605468712747097,-0.014160159975290298,1.0068359375,1.0087542013757296,-1.3408660888671875,0.9784698486328125,-1.6498565673828125,2.3403742875646416
1781018424.943,-0.04248046875,-0.01171875,1.00439453125,1.0053607778960194,-0.8525848388671875,1.2187957763671875,-1.3446807861328125,2.0051260480457187
1781018424.95278,-0.0551757775247097,-0.0195312462747097,1.00830078125,1.0099981690457958,-0.48828125,1.220703125,-1.7108917236328125,2.157703684123838
1781018424.962562,-0.0771484300494194,-0.017578125,0.9873046278953552,0.9904702413506382,-0.30517578125,1.0986328125,-1.5277862548828125,1.9063727743471521
1781018424.971953,-0.06884765625,-0.0043945349752902985,0.9868163466453552,0.9892248549825531,-0.42724609375,0.9765625,-1.4057159423828125,1.7641572638798624
1781018424.981344,-0.06298828125,0.0053710900247097015,0.9721679091453552,0.9742211328825372,-0.6103515625,0.54931640625,-1.1005401611328125,1.373122787768029
1781018424.990735,-0.0737304612994194,0.00341796875,0.9736327528953552,0.9764264442058034,-0.7305145263671875,0.1811981201171875,-0.8563995361328125,1.140133499839372
1781018425.000126,-0.0610351525247097,0.0053710900247097015,0.9790038466453552,0.9809192985144957,-1.40380859375,-0.3662109375,-0.2460479736328125,1.4715055636863201
1781018425.009516,-0.076171875,0.008789066225290298,0.9736327528953552,0.976647397854884,-1.644134521484375,-0.54931640625,-0.1850128173828125,1.743317693797661
1781018425.017494,-0.0522460900247097,0.0019531212747097015,0.9843749403953552,0.9857623911896533,-2.315521240234375,-0.8544921875,0.1201629638671875,2.4710796527753653
1781018425.025474,-0.0693359300494194,0.00732421875,0.9877929091453552,0.9902504464699624,-2.38037109375,-1.220703125,-0.1239776611328125,2.6779942352076302
1781018425.033453,-0.0600585862994194,-0.005859375,0.9858397841453552,0.9876848920923292,-2.6836395263671875,-1.2226104736328125,-0.3070831298828125,2.9649616399500984
1781018425.041432,-0.0483398362994194,-0.013671875,0.9692382216453552,0.9705392265321999,-2.5615692138671875,-0.9784698486328125,-0.3070831298828125,2.7592281766418494
1781018425.052098,-0.0610351525247097,-0.0224609412252903,0.9868163466453552,0.9889571708273955,-2.5615692138671875,-1.4667510986328125,-0.8563995361328125,3.0735022024168486
1781018425.062763,-0.0634765550494194,-0.02587890625,0.9848632216453552,0.9872459451318635,-2.44140625,-1.52587890625,-1.1005401611328125,3.08220044129904
1781018425.07343,-0.0454101487994194,-0.02587890625,1.0009765625,1.0023402007686801,-2.197265625,-2.197265625,-1.1005401611328125,3.296534710856162
1781018425.084095,-0.0590820237994194,-0.03076171875,0.9999999403953552,1.0022159695731272,-1.8901824951171875,-1.7719268798828125,-1.5888214111328125,3.0392216452527343
1781018425.094763,-0.0576171837747097,-0.0229492224752903,0.9926757216453552,0.9946112280798342,-1.46484375,-1.8310546875,-1.6498565673828125,2.8671510552229336
1781018425.105429,-0.0610351525247097,-0.0327148474752903,0.9887694716453552,0.9911915148682826,-1.2187957763671875,-1.5888214111328125,-1.6498565673828125,2.5945796025369416
1781018425.113435,-0.0532226487994194,-0.017578125,1.009765625,1.011320057279288,-0.7305145263671875,-1.5888214111328125,-1.8329620361328125,2.533328793428063
1781018425.121439,-0.0576171875,-0.0224609375,0.9936522841453552,0.9955747565080539,-0.8525848388671875,-1.2836456298828125,-1.9550323486328125,2.489336958867594
1781018425.129445,-0.0654296875,-0.0229492224752903,0.9990233778953552,1.0014266924742987,-0.79345703125,-1.28173828125,-1.9550323486328125,2.4687200258965167
1781018425.13745,-0.0625,-0.01611328125,0.9790038466453552,0.9811291554015933,-0.9136199951171875,-0.9784698486328125,-1.9550323486328125,2.369442175779392
1781018425.145452,-0.07421875,-0.0039062537252902985,0.9819335341453552,0.9847421729310248,-0.5474090576171875,-0.9784698486328125,-1.1615753173828125,1.6144092229041056
1781018425.153456,-0.0644531175494194,-0.00732421875,0.9912108778953552,0.9933311899866116,-1.0356903076171875,-0.6694793701171875,-0.9174346923828125,1.5370567507714985
1781018425.161459,-0.0629882737994194,-0.0234375,0.9819335341453552,0.9842308187217408,-0.667572021484375,-0.54931640625,-0.1850128173828125,0.8840987844353569
1781018425.169461,-0.0727538987994194,-0.013671875,0.9848632216453552,0.9876414406586025,-0.667572021484375,-0.3662109375,0.0,0.761421601094534
1781018425.180099,-0.0781249925494194,-0.02294921875,0.9877929091453552,0.9911432855344005,-0.8525848388671875,-0.4901885986328125,0.3643035888671875,1.0487625444099828
1781018425.190736,-0.0581054612994194,-0.0224609375,0.9936522841453552,0.9956031338507724,-0.6694793701171875,-0.6122589111328125,0.6084442138671875,1.0923680527471056
1781018425.201373,-0.0595703050494194,-0.01513671875,0.9897460341453552,0.9916526375725807,-0.7305145263671875,-0.6694793701171875,0.4253387451171875,1.07831681260372
1781018425.212055,-0.0556640587747097,-0.0205078087747097,0.9863280653953552,0.9881103735142944,-0.732421875,-0.8544921875,0.1811981201171875,1.1399260766431538
1781018425.222738,-0.0556640550494194,-0.02099609375,0.9902343153953552,0.9920198195418333,-0.79345703125,-0.54931640625,0.1811981201171875,0.9819141170945049
1781018425.233419,-0.0551757737994194,-0.02099609375,0.9877929091453552,0.9895554725860332,-1.0356903076171875,-1.1005401611328125,0.0591278076171875,1.5123951722985751
1781018425.244107,-0.0605468712747097,-0.0288085974752903,0.9833983778953552,0.9856816060761535,-1.0986328125,-1.64794921875,-0.0629425048828125,1.981588363712635
1781018425.254797,-0.0502929612994194,-0.02587890625,0.9936522841453552,0.9952607505233203,-1.3408660888671875,-1.8291473388671875,-0.3070831298828125,2.2886681507412834
1781018425.265486,-0.0478515625,-0.0205078125,0.9902343153953552,0.9916019069131192,-1.28173828125,-2.01416015625,-0.4901885986328125,2.437207217057329
1781018425.276181,-0.0605468712747097,-0.0307617150247097,0.9902343153953552,0.9925604294545122,-1.28173828125,-2.25830078125,-0.7953643798828125,2.7157650739713173
1781018425.286876,-0.0673828050494194,-0.01416015625,0.9858397841453552,0.9882413836938387,-1.5869140625,-2.3193359375,-0.3681182861328125,2.8342770692585115
1781018425.29757,-0.0693359375,-0.0195312462747097,0.9780272841453552,0.9806764554850833,-1.40380859375,-2.01416015625,-0.2460479736328125,2.4673993005268096
1781018425.305553,-0.0781249925494194,-0.009765625,0.9995116591453552,1.0026078189701038,-1.40380859375,-2.197265625,0.1201629638671875,2.6101904015949375
1781018425.313539,-0.0747070237994194,-0.021484375,0.9809569716453552,0.9840321630890597,-1.28173828125,-2.25830078125,0.5474090576171875,2.653758111919284
1781018425.321524,-0.06689453125,-0.013183597475290298,0.9936522841453552,0.9959887285209755,-1.0986328125,-2.0751953125,0.9136199951171875,2.5195497885935025
1781018425.329511,-0.0629882737994194,-0.02587890625,0.9838866591453552,0.9862404364398852,-0.732421875,-1.8310546875,1.6460418701171875,2.5687851038522327
1781018425.340137,-0.0576171875,-0.0322265625,0.9926757216453552,0.9948685239618869,-0.6103515625,-1.64794921875,1.2798309326171875,2.1739900812811235
1781018425.350765,-0.0463867150247097,-0.0273437537252903,0.9995116591453552,1.0009610207026414,-0.7915496826171875,-1.4667510986328125,1.7070770263671875,2.385795812583837
1781018425.361392,-0.0507812462747097,-0.0307617150247097,0.9999999403953552,1.0017608990548534,-0.5474090576171875,-0.9174346923828125,1.0356903076171875,1.487950773527494
1781018425.372069,-0.0600585862994194,-0.01708984375,0.9990233778953552,1.0009729297683978,-0.3643035888671875,-0.6694793701171875,0.6694793701171875,1.0144566816215097
1781018425.382744,-0.0566406212747097,-0.0332031287252903,0.9921874403953552,0.9943573425151644,-0.4253387451171875,-0.6122589111328125,0.3643035888671875,0.8297536545390528
1781018425.393419,-0.046875,-0.0263671875,0.9829100966453552,0.9843803900368199,-0.5474090576171875,-0.4901885986328125,0.0,0.7348071438077735
1781018425.401418,-0.0502929650247097,-0.0278320349752903,0.9843749403953552,0.9860517368678996,-0.5474090576171875,-0.9784698486328125,0.1201629638671875,1.1276076706595266
1781018425.409417,-0.0625,-0.0166015625,0.9848632216453552,0.9869840055578963,-0.91552734375,-0.8544921875,-0.1850128173828125,1.2659292864328529
1781018425.417417,-0.0395507737994194,-0.0126953125,0.9892577528953552,0.9901294543296716,-1.1577606201171875,-0.9174346923828125,-0.2460479736328125,1.4975432126020582
1781018425.425416,-0.0561523400247097,-0.0209960900247097,0.9780272841453552,0.979862893276052,-0.732421875,-0.8544921875,0.0,1.1254326730093858
1781018425.436072,-0.0610351525247097,-0.0058593712747097015,0.9804686903953552,0.9823840770905402,-1.28173828125,-0.8544921875,-0.0629425048828125,1.5417430651834183
1781018425.446728,-0.0576171837747097,-0.0039062537252902985,0.9663085341453552,0.9680326347011449,-0.9765625,-0.91552734375,0.0,1.338605480924152
1781018425.457384,-0.0639648362994194,-0.0078125,0.9790038466453552,0.9811223507725546,-1.3408660888671875,-0.7953643798828125,0.2422332763671875,1.5777209275533939
1781018425.468127,-0.0546874925494194,-0.01513671875,0.9790038466453552,0.9806469159907971,-1.8291473388671875,-1.1577606201171875,0.1811981201171875,2.1723310980403174
1781018425.478871,-0.0610351525247097,-0.0190429724752903,0.9853515028953552,0.9874236724438727,-2.0122528076171875,-1.7108917236328125,0.3032684326171875,2.658624380009443
1781018425.489614,-0.0566406212747097,-0.0297851525247097,1.001953125,1.0039947111347605,-2.25830078125,-1.52587890625,-0.3681182861328125,2.7502254321634103
1781018425.500214,-0.0537109300494194,-0.0322265625,0.9892577528953552,0.9912387790037815,-2.44140625,-1.40380859375,-0.6122589111328125,2.882013882632586
1781018425.510812,-0.0400390550494194,-0.02734375,0.9809569716453552,0.9821544617894576,-2.86865234375,-1.52587890625,-1.1005401611328125,3.4305482582390967
1781018425.52141,-0.0351562425494194,-0.0205078125,0.9770507216453552,0.9778980746639386,-3.5400390625,-1.89208984375,-1.7108917236328125,4.3633738128703845
1781018425.529446,-0.0283203125,-0.025390625,0.9775390028953552,0.9782787057478219,-3.84521484375,-2.197265625,-2.9315948486328125,5.311111162264674
1781018425.537485,-0.0214843712747097,-0.0297851525247097,0.9877929091453552,0.9884753739359589,-3.9653778076171875,-2.2602081298828125,-3.7860870361328125,5.930195358730115
1781018425.545524,-0.024902336299419403,-0.025390625,0.9819335341453552,0.9825773637074322,-4.33349609375,-2.197265625,-4.9457550048828125,6.933084247986356
1781018425.553563,-0.046875,-0.02587890625,1.01416015625,1.0155726492667674,-4.57763671875,-2.01416015625,-5.4340362548828125,7.3851438092466495
1781018425.564193,-0.0478515587747097,-0.06396484375,1.01953125,1.0226559747244885,-3.475189208984375,-2.01416015625,-5.4950714111328125,6.806584384749493
1781018425.574823,-0.07421875,-0.0234375037252903,0.9912108778953552,0.9942619091016794,-2.6836395263671875,-0.7953643798828125,-5.8002471923828125,6.440294488376395
1781018425.585453,-0.0888671800494194,-0.03662109375,0.9833983778953552,0.9880844345725713,-2.38037109375,-0.244140625,-4.8236846923828125,5.38458031793233
1781018425.593449,-0.115234375,-0.0073242224752902985,1.00732421875,1.013920454028227,-1.644134521484375,0.79345703125,-3.2367706298828125,3.716105016768054
1781018425.601446,-0.1225585862994194,-0.0205078125,0.9619140028953552,0.9699070710204214,-1.3408660888671875,1.5239715576171875,-0.2460479736328125,2.04473733815103
1781018425.609442,-0.1474609375,-0.00634765625,0.9790038466453552,0.9900674484976513,-1.2798309326171875,2.1343231201171875,2.6226043701171875,3.6154330417404106
1781018425.617438,-0.12548828125,-0.0205078125,0.9858397841453552,0.9940060156298728,-1.28173828125,2.0751953125,5.7964324951171875,6.288713562970899
1781018425.628103,-0.12451171875,-0.0234375037252903,0.9863280653953552,0.9944322688215101,-1.0986328125,1.89208984375,8.543014526367188,8.818735466677994
1781018425.638768,-0.1005859300494194,-0.03125,0.9799804091453552,0.9856245198515531,-1.155853271484375,1.40380859375,10.618209838867188,10.772792374092402
1781018425.649433,-0.076171875,-0.0195312462747097,1.0048828125,1.0079549052313646,-1.6460418701171875,1.1577606201171875,11.289596557617188,11.467556580433117
1781018425.657429,-0.0385742112994194,-0.0302734375,0.9999999403953552,1.0012014440591626,-1.46484375,0.42724609375,11.045455932617188,11.150354397772608
1781018425.665427,-0.0244140587747097,-0.0390624962747097,0.9829100966453552,0.9839889140475355,-1.40380859375,-0.06103515625,9.397506713867188,9.50197538911587
1781018425.673424,0.00048828125,-0.05029296875,1.0009765625,1.0022393425717153,-1.77001953125,-0.6103515625,7.3833465576171875,7.617040406925136
1781018425.681421,-0.0024414025247097015,-0.0424804724752903,1.005859375,1.0067589747617858,-2.0751953125,-1.40380859375,4.3926239013671875,5.056902104230476
1781018425.689424,-0.005371086299419403,-0.05126953125,0.9775390028953552,0.9788972957283495,-1.708984375,-1.3427734375,1.6460418701171875,2.7263752376788846
1781018425.697427,-0.011718746274709702,-0.0498046837747097,0.9951171278953552,0.9964316001466687,-1.46484375,-1.708984375,-1.0395050048828125,2.479307455940997
1781018425.70543,-0.0268554650247097,-0.0429687537252903,1.0068359375,1.0081101799108578,-1.0967254638671875,-1.7719268798828125,-2.9315948486328125,3.5967735496242157
1781018425.713433,-0.04248046875,-0.04736328125,1.00537109375,1.0073822049173082,-0.9136199951171875,-1.5888214111328125,-4.3354034423828125,4.706886229788939
1781018425.724107,-0.0512695275247097,-0.0170898474752903,0.9824218153953552,0.9839071352033387,-0.1220703125,-1.40380859375,-4.8847198486328125,5.083902804805336
1781018425.734781,-0.0810546875,-0.0219726599752903,0.9721679091453552,0.9757884523420863,-0.6084442138671875,-1.4667510986328125,-4.3354034423828125,4.617064668699558
1781018425.745455,-0.09033203125,-0.0043945349752902985,0.9799804091453552,0.9841446997856046,-0.48828125,-1.28173828125,-3.4198760986328125,3.6846742231469056
1781018425.756109,-0.095703125,-0.0068359412252902985,0.9741210341453552,0.9788348213011313,-0.9765625,-0.8544921875,-0.4901885986328125,1.3871251122859776
1781018425.766767,-0.08642578125,-0.0024414099752902985,0.9716796278953552,0.975518669946504,-1.3408660888671875,-1.1577606201171875,1.5239715576171875,2.3368399239559134
1781018425.777424,-0.080078125,-0.013671878725290298,0.9804686903953552,0.9838283789447109,-1.8291473388671875,-0.7953643798828125,2.7446746826171875,3.392878364673724
1781018425.78543,-0.0771484300494194,-0.03076171875,0.9731444716453552,0.976682305713307,-2.74658203125,-0.91552734375,3.4770965576171875,4.524610882996747
1781018425.793439,-0.0581054612994194,-0.03369140625,0.9912108778953552,0.9934839505226049,-2.8057098388671875,-0.6122589111328125,3.9653778076171875,4.896027964720031
1781018425.801447,-0.0654296875,-0.0566406287252903,0.9853515028953552,0.9891444733136202,-2.8667449951171875,-0.4901885986328125,3.4160614013671875,4.4864225422010575
1781018425.809455,-0.0405273400247097,-0.0634765625,0.9936522841453552,0.996502183170502,-2.74658203125,-0.8544921875,3.0498504638671875,4.192309340308133
1781018425.820114,-0.0449218712747097,-0.0395507775247097,0.9960936903953552,0.9978902136843855,-2.38037109375,-1.3427734375,2.3784637451171875,3.623023162395324
1781018425.830772,-0.0498046800494194,-0.05224609375,1.001953125,1.0045497624131043,-1.89208984375,-1.15966796875,1.2798309326171875,2.561796438175842
1781018425.841432,-0.0400390550494194,-0.05712890625,1.00244140625,1.0048659665960675,-1.5850067138671875,-1.4667510986328125,0.3032684326171875,2.1807285045522535
1781018425.849437,-0.0478515625,-0.037109375,0.9951171278953552,0.9969578606828289,-0.6694793701171875,-2.1343231201171875,-1.3446807861328125,2.6099241798707546
1781018425.857441,-0.0590820237994194,-0.041015625,0.9926757216453552,0.9952778784713857,-0.48828125,-2.25830078125,-2.1991729736328125,3.1897809902331713
1781018425.865447,-0.06201171875,-0.041015625,0.9760741591453552,0.9789016798983348,0.1239776611328125,-2.2602081298828125,-2.4433135986328125,3.3307195306888793
1781018425.884181,-0.0654296875,-0.0239257849752903,0.9824218153953552,0.9848888823404074,0.18310546875,-2.25830078125,-2.5043487548828125,3.3771604518239298
1781018425.89491,-0.056640625,-0.02685546875,0.9863280653953552,0.9883179797963392,0.244140625,-2.197265625,-3.1147003173828125,3.8195469546382887
1781018425.905639,-0.0605468675494194,-0.0263671875,0.9804686903953552,0.9826901874916071,0.2460479736328125,-2.2602081298828125,-2.5043487548828125,3.3824315339412663
1781018425.913584,-0.07568359375,-0.0336914025247097,0.9902343153953552,0.9936936732985195,0.06103515625,-2.13623046875,-2.1991729736328125,3.066523711610803
1781018425.921529,-0.0605468712747097,-0.0424804724752903,0.9770507216453552,0.9798462261143784,0.0,-1.953125,-1.9550323486328125,2.7634848922738353
1781018425.929474,-0.0722656175494194,-0.05615234375,1.00048828125,1.0046652209104265,0.0,-1.52587890625,-1.8939971923828125,2.432186629618022
1781018425.937418,-0.06396484375,-0.0488281212747097,1.00146484375,1.0046927490185205,0.244140625,-1.3427734375,-1.5888214111328125,2.0945163226160397
1781018425.946106,-0.0649413987994194,-0.0419921875,0.9838866591453552,0.986921317599974,0.244140625,-1.03759765625,-1.5277862548828125,1.8628860356016774
1781018425.954793,-0.0629882737994194,-0.03759765625,0.9926757216453552,0.9953824364212233,0.244140625,-1.03759765625,-1.4667510986328125,1.8131663813261722
1781018425.96348,-0.0634765550494194,-0.048828125,0.9936522841453552,0.9968742752319568,0.3070831298828125,-1.1577606201171875,-1.2226104736328125,1.711574150421012
1781018425.972167,-0.0605468675494194,-0.04638671875,0.9780272841453552,0.9809969517685454,0.3681182861328125,-1.4667510986328125,-1.7108917236328125,2.28342294547488
1781018425.982097,-0.0595703050494194,-0.0263671875,0.9838866591453552,0.9860409767674716,0.308990478515625,-1.8310546875,-1.8329620361328125,2.6092117986727685
1781018425.992027,-0.0502929650247097,-0.0249023400247097,0.9726561903953552,0.9742738699072702,-0.0591278076171875,-1.7719268798828125,-1.8939971923828125,2.5943103765815745
1781018426.001957,-0.0625,-0.0205078125,0.9912108778953552,0.9933910734608078,-0.1201629638671875,-2.4433135986328125,-2.0160675048828125,3.169976129782964
1781018426.012429,-0.052734375,-0.0263671875,0.9794921278953552,0.981264985359343,-0.5474090576171875,-2.1991729736328125,-2.2602081298828125,3.2007123011459004
1781018426.022905,-0.0532226487994194,-0.0361328125,0.9843749403953552,0.9864746594630526,-0.5474090576171875,-2.6874542236328125,-2.3822784423828125,3.632811233401078
1781018426.03338,-0.0654296875,-0.0229492224752903,0.9790038466453552,0.9814561847402921,-1.0986328125,-2.86865234375,-2.5043487548828125,3.9633222190590462
1781018426.044105,-0.0634765550494194,-0.0390625,0.9868163466453552,0.9896270276996671,-1.2798309326171875,-2.9315948486328125,-2.7484893798828125,4.217393679032446
1781018426.054829,-0.07177734375,-0.03125,0.9853515028953552,0.9884564400285634,-1.3408660888671875,-2.7484893798828125,-2.5653839111328125,3.991655089195669
1781018426.065553,-0.0629882737994194,-0.021484375,0.9975585341453552,0.9997760399467478,-1.3408660888671875,-2.6874542236328125,-2.2602081298828125,3.758839297281036
1781018426.076186,-0.0712890625,-0.0434570275247097,0.9882811903953552,0.991801570357031,-1.40380859375,-2.685546875,-1.8939971923828125,3.5735229047065857
1781018426.08682,-0.0747070237994194,-0.03076171875,0.9838866591453552,0.9871982479672609,-1.1577606201171875,-2.6226043701171875,-0.9784698486328125,3.0291692888208517
1781018426.097454,-0.0595703050494194,-0.02587890625,0.9946288466453552,0.9967471502901057,-1.28173828125,-2.25830078125,-0.6122589111328125,2.667889880500618
1781018426.105447,-0.0595703050494194,-0.0224609375,0.9995116591453552,1.0015371544403935,-0.5474090576171875,-1.8939971923828125,0.3032684326171875,1.9947064403910164
1781018426.113441,-0.0532226487994194,-0.0439453125,0.9868163466453552,0.9892271442102845,-0.6694793701171875,-2.4433135986328125,-0.0629425048828125,2.534155821412222
1781018426.121435,-0.0439453050494194,-0.02685546875,0.9863280653953552,0.9876717362687933,-0.179290771484375,-2.50244140625,0.2422332763671875,2.520522789548534
1781018426.129428,-0.0410156212747097,-0.0322265662252903,0.9848632216453552,0.9862435795019867,0.0,-2.3193359375,-0.1850128173828125,2.3267034477077067
1781018426.140133,-0.0415039025247097,-0.0371093787252903,0.9941405653953552,0.9956983196122982,0.0,-2.5634765625,-0.9174346923828125,2.7227005897223373
1781018426.150836,-0.0410156212747097,-0.0258789025247097,0.9902343153953552,0.9914212011909679,-0.0591278076171875,-2.3174285888671875,-1.1005401611328125,2.5661566609228705
1781018426.161541,-0.0449218675494194,-0.02734375,0.9868163466453552,0.988216654815469,-0.0591278076171875,-2.3822784423828125,-1.5888214111328125,2.86410547137314
1781018426.169503,-0.046875,-0.03564453125,0.9897460341453552,0.991496349130692,-0.0591278076171875,-2.1343231201171875,-1.7108917236328125,2.736052223312932
1781018426.177466,-0.0551757775247097,-0.0278320349752903,0.9902343153953552,0.9921607672060158,0.06103515625,-2.38037109375,-1.8329620361328125,3.0049362156563624
1781018426.185428,-0.0488281175494194,-0.0224609375,0.9838866591453552,0.9853535592978833,-0.1220703125,-2.13623046875,-1.7108917236328125,2.739622650440193
1781018426.19339,-0.0654296875,-0.0244140587747097,0.9902343153953552,0.9926938549516212,-0.3643035888671875,-2.0771026611328125,-1.3446807861328125,2.5010475777844134
1781018426.201945,-0.06689453125,-0.0336914025247097,0.9907225966453552,0.9935498238231208,-0.5474090576171875,-1.8291473388671875,-0.9784698486328125,2.1454230138436032
1781018426.2105,-0.0849609375,-0.0346679650247097,0.9912108778953552,0.9954492619706512,-0.7305145263671875,-1.6460418701171875,-0.3681182861328125,1.8381012986225007
1781018426.219055,-0.0595703050494194,-0.0419921875,0.9843749403953552,0.9870693938792121,-0.6084442138671875,-1.4667510986328125,0.4863739013671875,1.6607596811881487
1781018426.22761,-0.0502929612994194,-0.03173828125,0.9907225966453552,0.9925059012200805,-0.6103515625,-1.52587890625,0.5474090576171875,1.7321928711163272
1781018426.237528,-0.0615234375,-0.02587890625,0.9907225966453552,0.9929683351719872,-0.8525848388671875,-1.5888214111328125,0.9746551513671875,2.0496846216008073
1781018426.247446,-0.0439453087747097,-0.0336914025247097,0.9882811903953552,0.989831304847774,-0.79345703125,-1.3427734375,0.9136199951171875,1.8075718686607067
1781018426.257364,-0.0371093712747097,-0.0322265662252903,0.9887694716453552,0.9899902651364366,-0.7305145263671875,-1.1005401611328125,1.0967254638671875,1.716871242287671
1781018426.265393,-0.0336913987994194,-0.04150390625,0.9975585341453552,0.9989898466117161,-0.5474090576171875,-0.6122589111328125,0.5474090576171875,0.9870026985698731
1781018426.273422,-0.0390624925494194,-0.0322265625,0.9907225966453552,0.9920159742456041,-0.4253387451171875,-0.4901885986328125,0.0591278076171875,0.6516855130820997
1781018426.281451,-0.0454101525247097,-0.0424804724752903,0.9833983778953552,0.9853623912760509,-0.30517578125,-0.91552734375,-0.2460479736328125,0.9959227781029469
1781018426.28948,-0.0434570237994194,-0.03271484375,0.9873046278953552,0.9888019023963678,0.06103515625,-1.15966796875,-0.4291534423828125,1.2380338303746916
1781018426.300145,-0.0444335900247097,-0.0444335900247097,0.9907225966453552,0.992713428613053,-0.48828125,-0.79345703125,-0.3070831298828125,0.9809651819510468
1781018426.31081,-0.0527343712747097,-0.0341796837747097,0.9824218153953552,0.9844296765444362,-0.244140625,-1.03759765625,-0.6732940673828125,1.26076898843673
1781018426.321475,-0.0756835862994194,-0.03125,0.9755858778953552,0.979016022792269,-0.1811981201171875,-0.9174346923828125,-0.6122589111328125,1.117756748037374
1781018426.332116,-0.0712890625,-0.0498046837747097,0.9765624403953552,0.98042686466098,-0.42724609375,-0.54931640625,0.0,0.6959078522333606
1781018426.342758,-0.0605468675494194,-0.04150390625,0.9902343153953552,0.9929514070640937,-0.79345703125,-0.732421875,0.4863739013671875,1.1843037766340685
1781018426.3534,-0.06591796875,-0.0371093787252903,0.9995116591453552,1.0023701119651383,-0.6103515625,-0.3662109375,0.8525848388671875,1.1106486339328963
1781018426.361417,-0.0561523400247097,-0.0410156212747097,0.9775390028953552,0.9800091166210886,-0.6103515625,-0.6103515625,0.8525848388671875,1.2132431607713974
1781018426.369435,-0.0498046800494194,-0.02099609375,0.9829100966453552,0.9843950427521287,-0.91552734375,-0.8544921875,0.8525848388671875,1.5150076313730747
1781018426.377453,-0.0395507737994194,-0.0419921875,0.9755858778953552,0.9772898304331314,-1.0986328125,-0.91552734375,0.7915496826171875,1.6345443627833909
1781018426.385471,-0.0458984337747097,-0.0395507775247097,0.9775390028953552,0.9794148418353817,-0.667572021484375,-1.03759765625,0.7305145263671875,1.4338454496066528
1781018426.396166,-0.0473632775247097,-0.0385742150247097,0.9853515028953552,0.9872430472689034,-0.8525848388671875,-1.3408660888671875,0.2422332763671875,1.607326891431783
1781018426.406861,-0.0478515587747097,-0.0390624962747097,0.9863280653953552,0.9882604428382861,-0.6694793701171875,-1.6460418701171875,-0.1239776611328125,1.7812992240640977
1781018426.417556,-0.0390624925494194,-0.03955078125,0.9916991591453552,0.9932559412715654,-0.8525848388671875,-1.4667510986328125,-0.6732940673828125,1.825262883526546
1781018426.428211,-0.0468749962747097,-0.0273437537252903,0.9916991591453552,0.993182847411869,-0.6694793701171875,-1.1005401611328125,-0.8563995361328125,1.5468715004056541
1781018426.438866,-0.0493163987994194,-0.0419921875,0.9814452528953552,0.9835803146832526,-0.9765625,-1.28173828125,-0.6732940673828125,1.7463826153511852
1781018426.449521,-0.0556640587747097,-0.0332031287252903,1.00048828125,1.0025855255862224,-0.91552734375,-0.8544921875,-0.6732940673828125,1.421855167316755
1781018426.460154,-0.0581054612994194,-0.029296875,0.9907225966453552,0.9928573991371062,-0.9765625,-0.9765625,-0.6732940673828125,1.536448350575245
1781018426.470788,-0.0649413987994194,-0.04052734375,0.9809569716453552,0.9839392415637676,-0.79345703125,-1.03759765625,-0.3070831298828125,1.3418207798935673
1781018426.481421,-0.0541992150247097,-0.0390624962747097,0.9794921278953552,0.9817679268205278,-0.8525848388671875,-0.7343292236328125,0.2422332763671875,1.1510070704938955
1781018426.48945,-0.05224609375,-0.03564453125,0.9858397841453552,0.9878665228278194,-0.79345703125,-0.79345703125,0.2422332763671875,1.1479656271246579
1781018426.497479,-0.0444335900247097,-0.0283203162252903,0.9980468153953552,0.9994367563554958,-0.3643035888671875,-0.8525848388671875,-0.5512237548828125,1.0786406446425092
1781018426.505507,-0.0502929612994194,-0.03564453125,0.9902343153953552,0.992151154789836,0.0,-0.6103515625,-1.5277862548828125,1.6451929584261664
1781018426.513536,-0.0483398362994194,-0.029296875,0.9990233778953552,1.0006211851843163,0.0,-0.54931640625,-1.8939971923828125,1.9720481431571064
1781018426.523149,-0.0449218675494194,-0.03125,0.9736327528953552,0.97516935667335,0.06103515625,-0.8544921875,-2.3212432861328125,2.4742781941838423
1781018426.532763,-0.04736328125,-0.03662109375,0.9868163466453552,0.9886308142702709,-0.1220703125,-1.0986328125,-2.5043487548828125,2.737454639620281
1781018426.542376,-0.0644531175494194,-0.03564453125,0.9916991591453552,0.9944304697762816,-0.06103515625,-1.52587890625,-2.6874542236328125,3.091026032073978
1781018426.551988,-0.0595703050494194,-0.03564453125,0.9863280653953552,0.9887680245832473,0.0,-1.708984375,-2.5043487548828125,3.0318954929346154
1781018426.561602,-0.0527343712747097,-0.0288085974752903,0.9843749403953552,0.9862073171907575,0.0,-1.46484375,-2.3212432861328125,2.744801924607807
1781018426.569586,-0.0541992112994194,-0.04248046875,0.9780272841453552,0.9804486285693087,-0.1220703125,-1.5869140625,-2.5653839111328125,3.019005136539716
1781018426.577569,-0.0625,-0.03759765625,0.9907225966453552,0.993403793660568,-0.3643035888671875,-1.8291473388671875,-2.0771026611328125,2.7915681179278855
1781018426.585554,-0.0590820237994194,-0.04150390625,0.9936522841453552,0.996272112205057,-0.1220703125,-1.5869140625,-2.3212432861328125,2.8144924580411934
1781018426.593538,-0.0585937425494194,-0.0439453125,0.9819335341453552,0.9846613035129682,-0.244140625,-1.52587890625,-2.4433135986328125,2.890967385249808
1781018426.601522,-0.0468749962747097,-0.0288085974752903,0.9863280653953552,0.9878614544311319,0.0,-1.8310546875,-2.3212432861328125,2.9565066653116783
1781018426.609506,-0.0595703050494194,-0.037109375,0.9746093153953552,0.977133074157238,-0.1220703125,-1.708984375,-2.4433135986328125,2.9841766195136663
1781018426.619112,-0.0590820237994194,-0.03466796875,0.9877929091453552,0.9901653321296046,0.3070831298828125,-1.8939971923828125,-2.2602081298828125,2.964804581047621
1781018426.628718,-0.0585937462747097,-0.0385742150247097,0.9892577528953552,0.9917419517348478,0.3070831298828125,-2.2602081298828125,-1.8939971923828125,2.964804581047621
1781018426.638324,-0.0449218675494194,-0.03076171875,0.9868163466453552,0.9883171350993908,0.0,-2.44140625,-2.1991729736328125,3.2858524381803953
1781018426.64793,-0.0507812462747097,-0.0302734337747097,1.001953125,1.0036958107230447,0.06103515625,-2.50244140625,-1.8939971923828125,3.138974935670388
1781018426.657536,-0.0556640587747097,-0.0258789025247097,0.9892577528953552,0.9911604848351883,0.3681182861328125,-2.7484893798828125,-2.0771026611328125,3.4646876350977123
1781018426.667114,-0.0498046800494194,-0.03662109375,0.9858397841453552,0.9877761338815754,0.0,-2.99072265625,-1.8939971923828125,3.540006690863879
1781018426.676692,-0.0410156212747097,-0.0390624962747097,0.9853515028953552,0.9869780869208279,-0.2422332763671875,-2.9315948486328125,-2.1381378173828125,3.6365586263433953
1781018426.68627,-0.0498046800494194,-0.03662109375,0.9926757216453552,0.9945987628216707,-0.179290771484375,-2.685546875,-2.1381378173828125,3.437432257468395
1781018426.695848,-0.0512695275247097,-0.0463867224752903,0.9838866591453552,0.9863129576958902,-0.1811981201171875,-2.7484893798828125,-2.3822784423828125,3.6417409582649465
1781018426.705426,-0.0541992112994194,-0.04248046875,0.9843749403953552,0.9867807091796322,-0.1220703125,-2.99072265625,-2.6264190673828125,3.982135141518041
1781018426.715018,-0.0410156212747097,-0.0385742150247097,0.9926757216453552,0.9942712605710021,-0.1201629638671875,-2.9315948486328125,-2.9315948486328125,4.1476422038245095
1781018426.724607,-0.0488281175494194,-0.03759765625,0.9882811903953552,0.9902007271801881,0.06103515625,-2.86865234375,-3.2978057861328125,4.37131725714937
1781018426.734198,-0.0546874962747097,-0.0375976599752903,0.9780272841453552,0.9802763257455284,-0.0591278076171875,-2.8705596923828125,-3.1147003173828125,4.236150034202178
1781018426.743788,-0.0493164025247097,-0.0341796837747097,0.9877929091453552,0.989613656786709,-0.0591278076171875,-2.8057098388671875,-3.4198760986328125,4.4239186619500295
1781018426.753377,-0.0537109300494194,-0.029296875,0.9858397841453552,0.9877364278466699,0.06103515625,-2.86865234375,-3.3588409423828125,4.417545023633363
1781018426.761729,-0.0493164025247097,-0.0483398400247097,0.9858397841453552,0.9882554971743664,0.3662109375,-2.62451171875,-2.9315948486328125,3.951761704497268
1781018426.770079,-0.0512695275247097,-0.0463867224752903,0.9868163466453552,0.9892354595752684,0.3070831298828125,-2.5653839111328125,-2.8705596923828125,3.8620729676807786
1781018426.778431,-0.0654296875,-0.0385742150247097,0.9770507216453552,0.9799985340493268,0.3662109375,-2.3193359375,-2.3212432861328125,3.301757113286847
1781018426.786782,-0.0541992112994194,-0.03466796875,0.9741210341453552,0.9762434182759678,0.308990478515625,-2.685546875,-1.9550323486328125,3.336133782964393
1781018426.797016,-0.05712890625,-0.02587890625,0.9897460341453552,0.9917311338384392,0.42724609375,-2.50244140625,-1.8329620361328125,3.131214148256752
1781018426.80725,-0.0473632775247097,-0.0390624962747097,0.9755858778953552,0.9775157102686101,0.4291534423828125,-2.3174285888671875,-1.6498565673828125,2.8769210337692934
1781018426.817483,-0.0434570237994194,-0.037109375,0.9790038466453552,0.9806702556806728,0.1239776611328125,-2.5653839111328125,-2.0160675048828125,3.2651329614892344
1781018426.825479,-0.03759765625,-0.0361328125,0.9868163466453552,0.9881931318832059,0.0,-2.13623046875,-1.7108917236328125,2.7369017347378586
1781018426.833473,-0.0322265587747097,-0.0400390587747097,0.9956054091453552,0.9969311952374219,0.18310546875,-2.50244140625,-1.8329620361328125,3.1073285037640903
1781018426.841469,-0.0517578087747097,-0.0292968712747097,0.9814452528953552,0.9832456264161433,0.0629425048828125,-2.5653839111328125,-2.1381378173828125,3.3401780935367125
1781018426.849463,-0.0424804650247097,-0.0478515662252903,0.9868163466453552,0.9888887016775016,0.06103515625,-2.3193359375,-2.1991729736328125,3.1967806069911107
1781018426.860138,-0.0561523400247097,-0.0424804724752903,0.9902343153953552,0.9927344434532743,-0.0591278076171875,-2.8705596923828125,-1.7719268798828125,3.3739196660290776
1781018426.870814,-0.0361328087747097,-0.0351562462747097,0.9873046278953552,0.9885909011242535,-0.1201629638671875,-2.9315948486328125,-2.1381378173828125,3.6304711568250103
1781018426.881489,-0.0468749962747097,-0.0224609412252903,0.9799804091453552,0.9813579171052618,-0.1220703125,-2.685546875,-2.1991729736328125,3.473244153089889
1781018426.889464,-0.0429687462747097,-0.0332031287252903,0.9873046278953552,0.988796839182425,-0.1811981201171875,-2.5653839111328125,-2.0771026611328125,3.3058104656979506
1781018426.897439,-0.0434570237994194,-0.03759765625,0.9995116591453552,1.0011621514222844,-0.48828125,-2.3193359375,-1.9550323486328125,3.0724402767639436
1781018426.905416,-0.046875,-0.03173828125,0.9790038466453552,0.9806391364146683,-0.1811981201171875,-2.8705596923828125,-1.7108917236328125,3.3466544781710237
1781018426.913392,-0.04248046875,-0.04052734375,0.9882811903953552,0.9900236194687028,-0.30517578125,-2.25830078125,-1.7719268798828125,2.8866554251775787
1781018426.924088,-0.0400390550494194,-0.0419921875,0.9882811903953552,0.9899829195645478,0.0,-1.89208984375,-1.5277862548828125,2.4318994258461326
1781018426.934786,-0.0415039025247097,-0.0356445275247097,0.9804686903953552,0.9819938691829105,0.06103515625,-1.3427734375,-1.7108917236328125,2.1757564856273057
1781018426.945482,-0.0541992112994194,-0.03515625,0.9814452528953552,0.9835691642433537,-0.30517578125,-1.28173828125,-1.8329620361328125,2.2573734970065096
1781018426.956133,-0.04248046875,-0.0302734375,0.9868163466453552,0.9881940969514906,-0.1811981201171875,-1.5888214111328125,-1.5888214111328125,2.254227076335063
1781018426.966781,-0.0458984337747097,-0.0400390587747097,0.9790038466453552,0.9808966939473994,-0.244140625,-1.708984375,-0.9784698486328125,1.9843476216260725
1781018426.977428,-0.0581054612994194,-0.0283203125,0.9897460341453552,0.9918545744409181,-0.3643035888671875,-1.8939971923828125,-0.7953643798828125,2.0862758605711424
1781018426.985468,-0.0541992112994194,-0.0419921875,0.9853515028953552,0.9877340140820551,-0.1220703125,-1.64794921875,0.3643035888671875,1.6921450569127032
1781018426.993509,-0.0551757775247097,-0.0297851525247097,0.9921874403953552,0.9941667056458202,0.1239776611328125,-1.1005401611328125,0.6694793701171875,1.294125856993324
1781018427.001549,-0.0400390550494194,-0.02587890625,0.9912108778953552,0.9923567141789426,-0.30517578125,-0.8544921875,0.6694793701171875,1.1276044443742625
1781018427.009591,-0.0327148400247097,-0.0292968712747097,0.9931640028953552,0.9941344496955401,0.1239776611328125,-0.6694793701171875,0.4863739013671875,0.8367393019355595
1781018427.020215,-0.04296875,-0.04541015625,0.9882811903953552,0.9902565864746734,0.0,-0.67138671875,0.0591278076171875,0.6739853290298734
1781018427.030838,-0.04296875,-0.03515625,0.9916991591453552,0.9932519809394943,0.0,-0.244140625,-0.1850128173828125,0.3063239908517068
1781018427.041462,-0.02880859375,-0.0234375,0.9838866591453552,0.9845873295570642,-0.179290771484375,-0.54931640625,-0.1239776611328125,0.5909857488762651
1781018427.049471,-0.0498046837747097,-0.0429687537252903,0.9833983778953552,0.9855958552925328,-0.30517578125,-0.54931640625,0.1201629638671875,0.6397811418933117
1781018427.057479,-0.0585937425494194,-0.02587890625,0.9819335341453552,0.9840205332887273,-0.5474090576171875,-0.7343292236328125,-0.1850128173828125,0.9344120224175374
1781018427.065487,-0.0590820275247097,-0.0332031287252903,0.9819335341453552,0.9842695764945527,-0.91552734375,-1.15966796875,0.2422332763671875,1.4972298003574014
1781018427.073494,-0.0419921875,-0.03076171875,0.9868163466453552,0.9881883065276451,-0.9765625,-1.3427734375,0.6084442138671875,1.7683096963626808
1781018427.083102,-0.0385742112994194,-0.033203125,0.9853515028953552,0.9866650908719093,-1.155853271484375,-1.220703125,1.2187957763671875,2.0764334925723946
1781018427.09271,-0.0522460900247097,-0.0341796837747097,0.9741210341453552,0.9761197128786128,-0.732421875,-1.220703125,1.2187957763671875,1.8740387047373852
1781018427.102318,-0.04736328125,-0.03515625,0.9965819716453552,0.9983260331842362,-1.0986328125,-1.0986328125,1.6460418701171875,2.26350214304785
1781018427.111926,-0.0478515625,-0.0263671875,0.9912108778953552,0.9927154703480914,-1.0986328125,-1.15966796875,1.5850067138671875,2.250348892383239
1781018427.121534,-0.0410156212747097,-0.0405273400247097,0.9960936903953552,0.9977611871201779,-0.79345703125,-0.8544921875,1.4019012451171875,1.823474173110143
1781018427.129508,-0.0517578087747097,-0.0327148474752903,0.9829100966453552,0.9848154091513153,-0.7305145263671875,-0.9174346923828125,1.4629364013671875,1.8749722137851
1781018427.137481,-0.0395507737994194,-0.0302734375,0.9941405653953552,0.9953874665128126,-0.5474090576171875,-0.7953643798828125,1.3408660888671875,1.6523265541114132
1781018427.145456,-0.0493163987994194,-0.03125,0.9970702528953552,0.9987781329701562,-0.48828125,-1.15966796875,1.4629364013671875,1.9296194680017846
1781018427.15343,-0.0566406212747097,-0.0385742150247097,0.9907225966453552,0.9930898214899158,-0.48828125,-1.0986328125,1.5239715576171875,1.9411084318577825
1781018427.16416,-0.0512695275247097,-0.0375976599752903,0.9873046278953552,0.989349572573724,-0.1811981201171875,-1.1005401611328125,1.7070770263671875,2.0391501609618845
1781018427.174891,-0.0419921837747097,-0.0371093787252903,0.9873046278953552,0.9888937646436708,-0.48828125,-1.28173828125,1.2798309326171875,1.875963436959006
1781018427.185622,-0.0454101487994194,-0.04150390625,0.9843749403953552,0.9862954319707423,-0.4253387451171875,-0.9784698486328125,1.4629364013671875,1.8106626431300115
1781018427.196244,-0.0351562425494194,-0.03125,0.9946288466453552,0.9957404614000895,-0.3643035888671875,-0.8525848388671875,1.1577606201171875,1.483249023536451
1781018427.206868,-0.0322265587747097,-0.0390624962747097,0.9897460341453552,0.9910406862546715,-0.5474090576171875,-0.6694793701171875,1.2187957763671875,1.4944304760892488
1781018427.217491,-0.0551757737994194,-0.03125,0.9946288466453552,0.9966481179902134,-0.5474090576171875,-0.7343292236328125,0.8525848388671875,1.251318102046276
1781018427.225488,-0.0517578087747097,-0.0468750037252903,0.9980468153953552,1.0004866728068973,-0.3643035888671875,-0.9174346923828125,1.0356903076171875,1.4307543230552346
1781018427.233485,-0.0380859375,-0.03466796875,1.00146484375,1.0027882328586215,-0.362396240234375,-1.52587890625,1.0356903076171875,1.8794392474264476
1781018427.241482,-0.0483398362994194,-0.03564453125,0.9892577528953552,0.9910792975564844,-0.179290771484375,-1.52587890625,1.3408660888671875,2.0392090342954416
1781018427.249479,-0.0468749962747097,-0.0297851525247097,0.9882811903953552,0.9898404577889988,0.0,-1.15966796875,1.4629364013671875,1.8668188750357995
1781018427.26018,-0.0546874925494194,-0.0322265625,0.9965819716453552,0.9986014717495928,-0.1220703125,-1.15966796875,1.2798309326171875,1.731386200425075
1781018427.270883,-0.0463867150247097,-0.0371093787252903,0.9936522841453552,0.9954263885930704,0.0,-1.40380859375,1.2187957763671875,1.8590701203496462
1781018427.281585,-0.0400390587747097,-0.0332031287252903,0.9863280653953552,0.9876986517006373,0.18310546875,-1.220703125,1.4629364013671875,1.9141124957839075
1781018427.292212,-0.0502929650247097,-0.0322265662252903,0.9755858778953552,0.9774127782316439,-0.0591278076171875,-1.2836456298828125,1.7681121826171875,2.185740810588065
1781018427.302843,-0.0546874962747097,-0.0180664099752903,0.9848632216453552,0.9865458340938142,-0.0591278076171875,-1.4057159423828125,2.2563934326171875,2.6591060022234516
1781018427.313473,-0.0419921875,-0.0419921875,0.9882811903953552,0.9900638357759214,-0.0591278076171875,-1.7108917236328125,2.1343231201171875,2.736052223312932
1781018427.321471,-0.0351562462747097,-0.0439453087747097,0.9882811903953552,0.9898822470903764,0.1239776611328125,-1.8291473388671875,2.3784637451171875,3.003038500349563
1781018427.329469,-0.03759765625,-0.03564453125,0.9863280653953552,0.9876877892077383,0.06103515625,-1.220703125,2.2563934326171875,2.5661552432464414
1781018427.337467,-0.04296875,-0.03759765625,0.9990233778953552,1.0006535898169262,0.1239776611328125,-1.4057159423828125,2.0732879638671875,2.507973435314997
1781018427.345464,-0.0336913987994194,-0.0205078125,0.9838866591453552,0.9846769210105439,-0.1220703125,-1.40380859375,1.8901824951171875,2.3576194760664064
1781018427.356134,-0.0419921837747097,-0.0283203162252903,0.9936522841453552,0.9949423327995202,0.0,-1.52587890625,1.6460418701171875,2.2444955501665813
1781018427.366803,-0.0366210900247097,-0.0395507775247097,0.9868163466453552,0.9882873419425612,-0.244140625,-1.3427734375,1.4629364013671875,2.0007068909953136
1781018427.377471,-0.0478515625,-0.02587890625,0.9868163466453552,0.9883147230659237,-0.2422332763671875,-1.4057159423828125,1.3408660888671875,1.9577119653112327
1781018427.38546,-0.0468749962747097,-0.0395507775247097,0.9819335341453552,0.9838470382929201,-0.179290771484375,-1.220703125,1.3408660888671875,1.8221369784948156
1781018427.39345,-0.0410156212747097,-0.0327148474752903,0.9887694716453552,0.9901603963458228,-0.6103515625,-0.8544921875,1.4019012451171875,1.7515744430100157
1781018427.401442,-0.046875,-0.03564453125,0.9916991591453552,0.9934460329995972,-0.6694793701171875,-0.9174346923828125,1.6460418701171875,1.9998357132472007
1781018427.409433,-0.0385742112994194,-0.04248046875,0.9858397841453552,0.9875082987025235,-0.48828125,-0.67138671875,1.7070770263671875,1.8982335681275089
1781018427.420118,-0.0400390587747097,-0.0249023400247097,0.9970702528953552,0.9981845230091871,-0.667572021484375,-0.54931640625,1.9512176513671875,2.1341628899995038
1781018427.430803,-0.0375976525247097,-0.0292968712747097,0.9936522841453552,0.9947948290623235,-0.7915496826171875,-0.4901885986328125,1.7681121826171875,1.998263359169728
1781018427.441488,-0.0493164025247097,-0.0341796837747097,0.9956054091453552,0.9974118953874616,-0.6694793701171875,-0.1239776611328125,1.7681121826171875,1.8946751114087563
1781018427.449478,-0.0473632775247097,-0.0390624962747097,0.9843749403953552,0.9862875756854355,-0.30517578125,-0.3662109375,1.4019012451171875,1.4807328622230607
1781018427.457468,-0.0366210900247097,-0.0454101525247097,0.9819335341453552,0.9836649082213428,0.0,-0.48828125,1.5239715576171875,1.60028368970246
1781018427.465458,-0.0458984337747097,-0.0346679650247097,0.9902343153953552,0.9919034899668585,-0.0591278076171875,-0.3070831298828125,1.4629364013671875,1.495987653938834
1781018427.473448,-0.0576171875,-0.02197265625,0.9848632216453552,0.986791823672936,0.06103515625,-0.3662109375,1.4019012451171875,1.450228548231006
1781018427.484149,-0.0541992112994194,-0.03564453125,0.9873046278953552,0.9894334315036546,-0.3032684326171875,-0.4901885986328125,1.1577606201171875,1.2933159930758689
1781018427.494849,-0.0419921837747097,-0.0297851525247097,0.9980468153953552,0.9993737761868177,-0.1220703125,-0.244140625,0.8525848388671875,0.8952132223305386
1781018427.505551,-0.0415039025247097,-0.0268554724752903,0.9907225966453552,0.9919551672481811,0.0629425048828125,-0.6122589111328125,0.9746551513671875,1.152725204577854
1781018427.513541,-0.0449218712747097,-0.0346679650247097,0.9873046278953552,0.9889339060732835,-0.1201629638671875,-0.4901885986328125,1.1577606201171875,1.2629860068936165
1781018427.521531,-0.0517578087747097,-0.0273437537252903,0.9780272841453552,0.9797774850289672,-0.1811981201171875,-0.6694793701171875,0.6084442138671875,0.9226265480328261
1781018427.529521,-0.0458984337747097,-0.0317382849752903,0.9760741591453552,0.9776680157944497,-0.1201629638671875,-0.9784698486328125,0.8525848388671875,1.3033584656705361
1781018427.537511,-0.0454101487994194,-0.02685546875,0.9931640028953552,0.9945642435071215,-0.1201629638671875,-0.9784698486328125,0.7305145263671875,1.226985678727483
1781018427.548314,-0.0468749962747097,-0.0302734337747097,0.9970702528953552,0.9986304798458103,-0.179290771484375,-1.03759765625,0.6084442138671875,1.2161243515296516
1781018427.559117,-0.0419921875,-0.041015625,0.9916991591453552,0.9934348733333154,-0.3643035888671875,-1.1577606201171875,0.5474090576171875,1.3314591374567168
1781018427.56992,-0.0595703050494194,-0.0322265625,0.9897460341453552,0.9920606759068247,-0.30517578125,-1.15966796875,0.6084442138671875,1.3446807861328125
1781018427.580449,-0.03759765625,-0.03759765625,0.9985350966453552,0.9999497521093423,-0.48828125,-1.3427734375,0.9136199951171875,1.6959246973362523
1781018427.590979,-0.0502929650247097,-0.015136715024709702,0.9877929091453552,0.9891882196177632,-0.30517578125,-1.0986328125,0.8525848388671875,1.423737061970853
1781018427.601509,-0.03759765625,-0.03662109375,0.9843749403953552,0.9857731541999399,-0.48828125,-1.15966796875,0.9746551513671875,1.5916032925741606
1781018427.612156,-0.0439453050494194,-0.0322265625,1.00244140625,1.0039215677187787,-0.3032684326171875,-0.9784698486328125,0.7915496826171875,1.2945755624748116
1781018427.622804,-0.0385742112994194,-0.021484375,0.9838866591453552,0.9848768990034852,-0.0591278076171875,-1.1577606201171875,0.6694793701171875,1.3386965220468214
1781018427.633451,-0.0507812462747097,-0.0234375037252903,0.9892577528953552,0.990837500914077,-0.30517578125,-1.03759765625,0.4863739013671875,1.1858755101814775
1781018427.641476,-0.0405273362994194,-0.0458984375,0.9824218153953552,0.9843280728076249,-0.2422332763671875,-0.9174346923828125,0.1811981201171875,0.9660207729138803
1781018427.649499,-0.046875,-0.03564453125,0.9794921278953552,0.9812607333639736,-0.179290771484375,-1.03759765625,0.0591278076171875,1.0546327202531556
1781018427.657522,-0.05224609375,-0.02685546875,0.9843749403953552,0.9861262058135739,-0.30517578125,-0.8544921875,0.1201629638671875,0.9152749826393323
1781018427.665545,-0.0434570237994194,-0.02685546875,0.9848632216453552,0.9861872512200478,-0.1220703125,-1.3427734375,0.4863739013671875,1.433353144755525
1781018427.675138,-0.0541992112994194,-0.02734375,0.9736327528953552,0.9755234352285594,-0.1811981201171875,-1.4057159423828125,0.3032684326171875,1.4494280981219065
1781018427.684729,-0.0576171875,-0.02685546875,0.9770507216453552,0.9791164737480939,-0.30517578125,-1.220703125,0.8525848388671875,1.519917525496861
1781018427.69432,-0.05224609375,-0.02734375,0.9838866591453552,0.9856522170727384,-0.0591278076171875,-1.1005401611328125,0.6084442138671875,1.2589237885147424
1781018427.703911,-0.03759765625,-0.03515625,0.9902343153953552,0.9915712506199761,-0.1220703125,-1.15966796875,0.3643035888671875,1.221657916030552
1781018427.713502,-0.0400390587747097,-0.0292968712747097,0.9970702528953552,0.9983038225424459,-0.3032684326171875,-0.9784698486328125,0.5474090576171875,1.161478223328764
1781018427.723118,-0.0439453050494194,-0.03662109375,0.9848632216453552,0.9865231166541415,-0.42724609375,-0.244140625,0.6084442138671875,0.7825268243252012
1781018427.732734,-0.0532226487994194,-0.03369140625,0.9809569716453552,0.9829772842848176,-0.2422332763671875,-0.7953643798828125,0.9746551513671875,1.281106600190846
