timestamp,accel_x,accel_y,accel_z,accel_rms,gyro_x,gyro_y,gyro_z,gyro_rms
1783078963.857581,-0.0859375,-0.2041015625,0.9658202528953552,0.9908841822453517,1.811981201171875,0.591278076171875,17.724990844726562,17.827175493678247
1783078963.865592,-0.0893554612994194,-0.1982421875,0.9653319716453552,0.9895201760699607,2.117156982421875,0.835418701171875,16.565322875976562,16.72095093228366
1783078963.873605,-0.0859375,-0.19384765625,0.9755858778953552,0.9983636476198035,2.2411346435546875,0.7762908935546875,16.077041625976562,16.25104856571846
1783078963.881616,-0.0947265625,-0.19580078125,0.9726561903953552,0.9966800551308239,2.666473388671875,1.079559326171875,15.466690063476562,15.731942988418963
1783078963.892272,-0.08544921875,-0.1943359375,0.9707030653953552,0.9936460470192233,2.5463104248046875,1.0166168212890625,14.368057250976562,14.627312661871185
1783078963.902928,-0.08837890625,-0.19140625,0.9692382216453552,0.9919021695244242,2.7313232421875,1.079559326171875,13.269424438476562,13.59055554127488
1783078963.913584,-0.07958984375,-0.19482421875,0.9912108778953552,1.0133064807341252,3.0345916748046875,1.0166168212890625,12.048721313476562,12.466512811686602
1783078963.924291,-0.0893554612994194,-0.1884765625,0.9697265028953552,0.991905894474624,3.1566619873046875,1.0166168212890625,10.950088500976562,11.44126141833327
1783078963.934994,-0.08447265625,-0.2060546875,0.9672850966453552,0.9925898559258338,3.2176971435546875,1.5048980712890625,9.485244750976562,10.12858139615504
1783078963.945698,-0.0849609300494194,-0.19287109375,0.9663085341453552,0.9890246718870711,3.337860107421875,1.079559326171875,8.203506469726562,8.92212288832028
1783078963.956327,-0.0859375,-0.18408203125,0.9541015028953552,0.975490197778815,3.4027099609375,1.079559326171875,5.8231353759765625,6.830284695672477
1783078963.966959,-0.1015624925494194,-0.1943359375,0.9707030653953552,0.9951612118972453,3.1566619873046875,1.1386871337890625,4.4803619384765625,5.597746545753978
1783078963.97759,-0.0732421800494194,-0.193359375,0.9648436903953552,0.9867500249478133,3.3397674560546875,0.8335113525390625,2.8934478759765625,4.496757548092489
1783078963.988256,-0.0810546875,-0.1904296875,0.9672850966453552,0.9891783390467487,3.093719482421875,0.774383544921875,1.6117095947265625,3.573286712299491
1783078963.99892,-0.0839843675494194,-0.18310546875,0.9741210341453552,0.9947325147210427,3.7059783935546875,0.7114410400390625,0.0247955322265625,3.7737301208968885
1783078964.009585,-0.07958984375,-0.1875,0.9682616591453552,0.9894551196487213,4.1942596435546875,0.2231597900390625,-1.5621185302734375,4.481275326518715
1783078964.01759,-0.0727538987994194,-0.18603515625,0.9843749403953552,1.00443826710746,5.4759979248046875,-0.3261566162109375,-5.5294036865234375,7.7889175460587845
1783078964.025594,-0.07568359375,-0.19140625,0.9956054091453552,1.0166584921306996,6.5155029296875,-0.751495361328125,-7.6656341552734375,10.08853164277928
1783078964.033597,-0.0747070237994194,-0.193359375,0.9892577528953552,1.0107422465539497,7.7953338623046875,-0.8144378662109375,-9.740829467773438,12.50257164678354
1783078964.041601,-0.076171875,-0.18994140625,0.9956054091453552,1.0164202000495333,8.893966674804688,-1.4858245849609375,-11.693954467773438,14.766817158892739
1783078964.052341,-0.0673828050494194,-0.18359375,0.9897460341453552,1.0088827085255496,9.563446044921875,-1.728057861328125,-13.708114624023438,16.8035142387417
1783078964.063082,-0.08544921875,-0.1865234375,0.9877929091453552,1.0088743197641843,10.725021362304688,-2.0961761474609375,-15.356063842773438,18.84751268487197
1783078964.073822,-0.0810546875,-0.19921875,0.9760741591453552,0.999489237995386,11.516571044921875,-2.216339111328125,-16.759872436523438,20.45573004753616
1783078964.084397,-0.0722656175494194,-0.18896484375,0.9726561903953552,0.9934737522288479,11.7645263671875,-2.216339111328125,-17.675399780273438,21.347974074678444
1783078964.094971,-0.0917968675494194,-0.18212890625,0.9663085341453552,0.9875979883261469,11.884689331054688,-2.3365020751953125,-19.079208374023438,22.599143227620004
1783078964.105546,-0.08642578125,-0.18798828125,0.9765624403953552,0.9982400560701488,12.189865112304688,-1.9130706787109375,-19.811630249023438,23.339951670942828
1783078964.113636,-0.0859375,-0.17919921875,0.9648436903953552,0.9850994674664018,12.372970581054688,-2.0961761474609375,-21.154403686523438,24.596608521770342
1783078964.121725,-0.1020507737994194,-0.1767578125,0.9692382216453552,0.9904950353288481,12.432098388671875,-1.605987548828125,-21.947860717773438,25.27538044104166
1783078964.129816,-0.09521484375,-0.18701171875,0.9741210341453552,0.9964692863227558,12.861251831054688,-1.3599395751953125,-22.375106811523438,25.843889783410557
1783078964.137905,-0.1035156175494194,-0.1845703125,0.9741210341453552,0.996841748973929,12.556076049804688,-1.6078948974609375,-22.741317749023438,26.027061008339153
1783078964.148501,-0.1108398362994194,-0.17431640625,0.9750975966453552,0.9967381811601003,12.798309326171875,-1.605987548828125,-22.741317749023438,26.144663902552224
1783078964.159098,-0.0922851487994194,-0.1689453125,0.9643554091453552,0.9833821344993812,12.678146362304688,-1.3599395751953125,-22.802352905273438,26.125315861226138
1783078964.169693,-0.1015624850988388,-0.16650390625,0.9760741591453552,0.9953689031345478,12.617111206054688,-1.4858245849609375,-23.046493530273438,26.31615537885731
1783078964.180383,-0.1123046800494194,-0.17333984375,0.9711913466453552,0.9929107081661952,12.556076049804688,-1.4858245849609375,-22.558212280273438,25.85992385425047
1783078964.191072,-0.1113281100988388,-0.166015625,0.9663085341453552,0.9867660913329283,12.310028076171875,-1.544952392578125,-22.130966186523438,25.37130925830428
1783078964.201761,-0.119140625,-0.1748046875,0.9707030653953552,0.9934865919907035,11.762619018554688,-1.4858245849609375,-21.581649780273438,24.623860138315344
1783078964.209718,-0.1157226413488388,-0.15185546875,0.9653319716453552,0.9840313148425426,11.7645263671875,-1.422882080078125,-20.483016967773438,23.663952716318377
1783078964.217674,-0.1044921875,-0.15087890625,0.9707030653953552,0.9879005530759009,11.7645263671875,-1.361846923828125,-20.299911499023438,23.50202362683635
1783078964.225629,-0.10986328125,-0.1591796875,0.9682616591453552,0.9873898693274761,11.455535888671875,-1.361846923828125,-19.323348999023438,22.505016020404195
1783078964.233585,-0.1162109225988388,-0.16162109375,0.9750975966453552,0.9952093646362897,11.0931396484375,-1.056671142578125,-18.896102905273438,21.93711480960923
1783078964.244471,-0.1166992112994194,-0.1474609375,0.9726561903953552,0.9906682081911637,11.396408081054688,-1.3599395751953125,-18.102645874023438,21.434396199529594
1783078964.255355,-0.103515625,-0.15087890625,0.9736327528953552,0.9906768728909163,11.335372924804688,-1.3027191162109375,-17.553329467773438,20.935785914179096
1783078964.266241,-0.1220703050494194,-0.1455078125,0.9755858778953552,0.9939021521368411,11.2762451171875,-1.056671142578125,-16.881942749023438,20.32904938327804
1783078964.274078,-0.1137695237994194,-0.15478515625,0.9731444716453552,0.9919234405108094,11.213302612304688,-1.1196136474609375,-15.905380249023438,19.492891295565283
1783078964.281915,-0.1035156175494194,-0.13037109375,0.9746093153953552,0.9887241388868848,11.030197143554688,-0.9975433349609375,-15.111923217773438,18.73580969882772
1783078964.289752,-0.09912109375,-0.1474609375,0.9721679091453552,0.9882713002443342,11.455535888671875,-1.056671142578125,-14.562606811523438,18.55843133314978
1783078964.29759,-0.1030273362994194,-0.1298828125,0.9609374403953552,0.9751332941508256,11.028289794921875,-1.239776611328125,-13.647079467773438,17.589855026307
1783078964.308383,-0.09326171875,-0.14599609375,0.9692382216453552,0.9845990746860945,10.967254638671875,-0.934600830078125,-13.586044311523438,17.48527246158123
1783078964.319177,-0.1123046800494194,-0.12939453125,0.9819335341453552,0.9967691565039506,10.478973388671875,-1.239776611328125,-13.097763061523438,16.819551912649082
1783078964.329972,-0.0986328125,-0.1357421875,0.9521483778953552,0.966819997051003,10.419845581054688,-1.1768341064453125,-12.548446655273438,16.35303133695282
1783078964.340492,-0.1020507737994194,-0.134765625,0.9633788466453552,0.9780976108131723,9.502410888671875,-1.178741455078125,-11.999130249023438,15.351363810687921
1783078964.351017,-0.10009765625,-0.1328125,0.9682616591453552,0.9824405027857459,9.1400146484375,-0.934600830078125,-11.510848999023438,14.727966294215697
1783078964.361541,-0.0986328125,-0.130859375,0.9658202528953552,0.9796230747741188,8.525848388671875,-0.873565673828125,-11.022567749023438,13.96245707298401
1783078964.369601,-0.0917968675494194,-0.1206054612994194,0.9746093153953552,0.9863243177791645,8.283615112304688,-0.9975433349609375,-11.022567749023438,13.824267496534462
1783078964.377663,-0.09326171875,-0.1220703125,0.9848632216453552,0.9967720274605021,8.342742919921875,-1.056671142578125,-10.595321655273438,13.526963972383832
1783078964.385725,-0.0976562425494194,-0.1337890625,0.9750975966453552,0.9890660129319214,7.9174041748046875,-0.9365081787109375,-10.351181030273438,13.065576342339432
1783078964.393787,-0.0878906175494194,-0.115234375,0.9804686903953552,0.9911218768044835,8.161544799804688,-0.8144378662109375,-9.801864624023438,12.78087135780731
1783078964.404521,-0.10400390625,-0.123046875,0.9794921278953552,0.9926541062079456,8.283615112304688,-0.6313323974609375,-9.557723999023438,12.663607225683958
1783078964.415253,-0.10009765625,-0.1357421875,0.9648436903953552,0.9794737511285111,8.342742919921875,-0.812530517578125,-9.374618530273438,12.575573062809045
1783078964.425987,-0.0869140550494194,-0.134765625,0.9868163466453552,0.9997611357985766,8.466720581054688,-0.8144378662109375,-9.435653686523438,12.703551744593973
1783078964.436805,-0.0903320237994194,-0.1201171875,0.9809569716453552,0.9924034428982172,8.588790893554688,-0.7534027099609375,-9.008407592773438,12.469416666954494
1783078964.447624,-0.0986328125,-0.1162109375,0.9755858778953552,0.9874215000926099,8.831024169921875,-0.934600830078125,-8.153915405273438,12.055986191004141
1783078964.458445,-0.0932617112994194,-0.12939453125,0.9770507216453552,0.9899842444097849,8.771896362304688,-0.6313323974609375,-7.9097747802734375,11.82832547158505
1783078964.468832,-0.0888671875,-0.12548828125,0.9814452528953552,0.9934180742145107,8.708953857421875,-0.568389892578125,-7.3604583740234375,11.416886258363972
1783078964.479218,-0.0937499925494194,-0.1103515625,0.9755858778953552,0.986272950859983,8.771896362304688,-1.0547637939453125,-7.4214935302734375,11.538511978237167
1783078964.489605,-0.0722656175494194,-0.1083984375,0.9799804091453552,0.988602115636487,8.771896362304688,-0.9365081787109375,-6.9942474365234375,11.258006509285796
1783078964.49759,-0.0825195237994194,-0.1118163987994194,0.9741210341453552,0.9839838250769014,8.588790893554688,-0.6885528564453125,-6.5670013427734375,10.833602387263207
1783078964.505574,-0.08984375,-0.111328125,0.9765624403953552,0.9869853346534637,8.708953857421875,-1.056671142578125,-5.7125091552734375,10.46877223189728
1783078964.51356,-0.07421875,-0.10205078125,0.9785155653953552,0.9866182121399795,8.283615112304688,-0.4482269287109375,-5.5904388427734375,10.003609006914168
1783078964.521544,-0.09423828125,-0.1083984375,0.9892577528953552,0.9996309201745228,7.9803466796875,-0.385284423828125,-5.1631927490234375,9.512777542800634
1783078964.529596,-0.08984375,-0.10888671875,0.9658202528953552,0.9760824646704048,7.7972412109375,-0.080108642578125,-5.2242279052734375,9.385944017646572
1783078964.537648,-0.09033203125,-0.11328125,0.9746093153953552,0.9853201688419437,6.877899169921875,0.286102294921875,-4.9190521240234375,8.460757963305124
1783078964.545701,-0.0810546875,-0.09033203125,0.9692382216453552,0.9768072832108309,6.6356658935546875,0.3452301025390625,-4.7969818115234375,8.195259616062858
1783078964.553753,-0.0888671875,-0.11572265625,0.9638671278953552,0.9748481678810075,5.901336669921875,0.774383544921875,-4.5528411865234375,7.493584405083759
1783078964.564466,-0.0776367112994194,-0.1059570237994194,0.9716796278953552,0.9805180513895071,5.6591033935546875,0.6504058837890625,-4.4918060302734375,7.254295310104933
1783078964.575181,-0.0849609300494194,-0.095703125,0.9746093153953552,0.9829754653220145,5.4759979248046875,0.3452301025390625,-4.3697357177734375,7.014294500471827
1783078964.585894,-0.0771484300494194,-0.10888671875,0.9809569716453552,0.9899923120907849,4.6215057373046875,0.6504058837890625,-4.0645599365234375,6.188860199681278
1783078964.596476,-0.0859375,-0.08984375,0.9750975966453552,0.9829915952356156,4.3163299560546875,0.6504058837890625,-3.8814544677734375,5.841183175402127
1783078964.60706,-0.0859375,-0.09765625,0.9736327528953552,0.9822844468792633,3.826141357421875,0.591278076171875,-3.5762786865234375,5.27055373694429
1783078964.617645,-0.0888671875,-0.0986328125,0.9697265028953552,0.9787723428527574,3.5228729248046875,0.3452301025390625,-3.4542083740234375,4.945844008780979
1783078964.62563,-0.0922851487994194,-0.1025390625,0.9750975966453552,0.9848076619375267,3.093719482421875,0.286102294921875,-3.2100677490234375,4.467380632137432
1783078964.633618,-0.0830078050494194,-0.10009765625,0.9687499403953552,0.9774386341361129,2.4852752685546875,0.4673004150390625,-3.2100677490234375,4.086501901590853
1783078964.641606,-0.0908203125,-0.10595703125,0.9760741591453552,0.9859999927916954,2.7294158935546875,0.5283355712890625,-3.0879974365234375,4.155066517380148
1783078964.649595,-0.08984375,-0.099609375,0.9775390028953552,0.9866997664860362,2.605438232421875,0.347137451171875,-2.7828216552734375,3.8279118534823295
1783078964.660257,-0.0849609300494194,-0.095703125,0.9946288466453552,1.0028279963925506,2.300262451171875,0.102996826171875,-3.0269622802734375,3.8031981721533903
1783078964.670918,-0.0888671800494194,-0.09521484375,0.9912108778953552,0.9997310871521169,2.4242401123046875,-0.3261566162109375,-2.3555755615234375,3.395887878957677
1783078964.681581,-0.0917968600988388,-0.09228515625,0.9848632216453552,0.993427792513256,2.3632049560546875,-0.5092620849609375,-2.3555755615234375,3.3753254304654323
1783078964.69226,-0.09130859375,-0.09619140625,0.9848632216453552,0.9937532949774924,2.1800994873046875,-0.6313323974609375,-2.1114349365234375,3.099930944682747
1783078964.702939,-0.0898437425494194,-0.095703125,0.9926757216453552,1.0013171698089365,2.178192138671875,-0.873565673828125,-2.2335052490234375,3.239781424244233
1783078964.713617,-0.0878906175494194,-0.099609375,0.9775390028953552,0.9865238417913448,1.811981201171875,-0.690460205078125,-1.9283294677734375,2.734678354849101
1783078964.724267,-0.0825195237994194,-0.1064453050494194,0.9750975966453552,0.9843553208870742,1.811981201171875,-0.751495361328125,-1.6841888427734375,2.585442555853928
1783078964.734918,-0.08642578125,-0.09423828125,0.9838866591453552,0.9921608878411986,1.445770263671875,-0.751495361328125,-1.8672943115234375,2.4782624920018703
1783078964.745569,-0.0820312425494194,-0.09375,0.9633788466453552,0.9713995004208806,1.506805419921875,-0.385284423828125,-1.6231536865234375,2.248006795102082
1783078964.756246,-0.0961913913488388,-0.10302734375,0.9721679091453552,0.982332866650535,1.1425018310546875,-0.5092620849609375,-1.5621185302734375,2.001217781193671
1783078964.766922,-0.076171875,-0.0908203125,0.9799804091453552,0.9871231361954349,0.957489013671875,-0.141143798828125,-1.5010833740234375,1.7860453742891196
1783078964.777597,-0.0986328050494194,-0.08544921875,0.9873046278953552,0.9958917749838523,1.018524169921875,-0.202178955078125,-1.3179779052734375,1.6778955788071215
1783078964.785659,-0.07275390625,-0.08251953125,0.9707030653953552,0.9769171126970255,0.8373260498046875,-0.3261566162109375,-0.8907318115234375,1.265265273387172
1783078964.793722,-0.080078125,-0.1025390625,0.9760741591453552,0.9847068241833234,0.652313232421875,-0.385284423828125,-1.2569427490234375,1.4676040728888162
1783078964.801784,-0.0732421800494194,-0.09912109375,0.9863280653953552,0.993998219692134,0.835418701171875,-0.568389892578125,-0.8907318115234375,1.3469946682568938
1783078964.809845,-0.08447265625,-0.08447265625,0.9785155653953552,0.9857808940270921,0.7152557373046875,-0.5092620849609375,-1.0738372802734375,1.387106753437199
1783078964.8204,-0.07666015625,-0.0966796875,0.9750975966453552,0.9828728628438776,0.8373260498046875,-0.5092620849609375,-0.6465911865234375,1.1741136858712065
1783078964.830956,-0.0732421875,-0.09716796875,0.9736327528953552,0.981206792522032,0.5931854248046875,-0.2002716064453125,-0.8296966552734375,1.0394105080865947
1783078964.84151,-0.0874023362994194,-0.10400390625,0.9829100966453552,0.9922541201694438,0.6542205810546875,-0.0209808349609375,-0.7686614990234375,1.0095965848754387
1783078964.852199,-0.07177734375,-0.09521484375,0.9838866591453552,0.9910856731838832,0.8983612060546875,-0.4482269287109375,-0.5245208740234375,1.1327322646821636
1783078964.86289,-0.0947265550494194,-0.08642578125,0.9775390028953552,0.9859133015016325,0.469207763671875,-0.507354736328125,-0.4634857177734375,0.8320960068072084
1783078964.87358,-0.0908203125,-0.09619140625,0.9799804091453552,0.9888694140823894,0.652313232421875,-0.446319580078125,-0.5245208740234375,0.9485967889678416
1783078964.881584,-0.0820312425494194,-0.08935546875,0.9838866591453552,0.9913357063043489,0.164031982421875,-0.629425048828125,-0.9517669677734375,1.1527977898548303
1783078964.889591,-0.09130859375,-0.0751953125,0.9799804091453552,0.9870933069488785,0.164031982421875,-0.629425048828125,-0.7076263427734375,0.9611542146484342
1783078964.897596,-0.0771484300494194,-0.083984375,0.9750975966453552,0.9817436419385555,-0.0782012939453125,-0.3833770751953125,-0.7686614990234375,0.8625160428890535
1783078964.905602,-0.0727538987994194,-0.099609375,0.9687499403953552,0.9765713514098245,-0.019073486328125,-0.324249267578125,-0.7076263427734375,0.778611858625702
1783078964.916251,-0.0751953125,-0.09814453125,0.9726561903953552,0.980482916093218,-0.324249267578125,-0.568389892578125,-0.7076263427734375,0.963815178598487
1783078964.926898,-0.0927734300494194,-0.0908203125,0.9755858778953552,0.9841864882402029,-0.5664825439453125,-0.5092620849609375,-0.5855560302734375,0.9607945713642958
1783078964.937546,-0.076171875,-0.08203125,0.9868163466453552,0.9931453984810401,-0.7495880126953125,-0.6313323974609375,-0.8296966552734375,1.2840791738176476
1783078964.948256,-0.0698242112994194,-0.1005859375,0.9858397841453552,0.9934148334457767,-0.7495880126953125,-0.3833770751953125,-0.8907318115234375,1.225668523958107
1783078964.95897,-0.0888671875,-0.09326171875,0.9785155653953552,0.9869588830946079,-0.8697509765625,-0.263214111328125,-0.7686614990234375,1.1902054149240942
1783078964.969682,-0.0727538987994194,-0.0986328125,0.9882811903953552,0.9958520335779993,-1.1157989501953125,-0.1430511474609375,-0.8296966552734375,1.3978080940596895
1783078964.980306,-0.0732421800494194,-0.08544921875,0.9736327528953552,0.9801156683952995,-1.117706298828125,-0.202178955078125,-1.1959075927734375,1.6493449217097393
1783078964.99093,-0.09326171875,-0.09619140625,0.9746093153953552,0.9837753058884735,-1.3580322265625,-0.080108642578125,-1.3790130615234375,1.937097299272872
1783078965.001554,-0.0786132737994194,-0.09375,0.9780272841453552,0.9856502817177104,-1.2989044189453125,-0.0209808349609375,-1.4400482177734375,1.9394153125372018
1783078965.009561,-0.07666015625,-0.09716796875,0.9877929091453552,0.9955165619240693,-1.4209747314453125,0.1621246337890625,-1.1959075927734375,1.864309136044898
1783078965.017566,-0.07958984375,-0.09912109375,0.9780272841453552,0.9862539748903855,-1.3580322265625,-0.080108642578125,-1.1959075927734375,1.8113155146056605
1783078965.025573,-0.0688476487994194,-0.0908203125,0.9863280653953552,0.9928904171631178,-1.4209747314453125,0.3452301025390625,-1.5621185302734375,2.139758704557328
1783078965.033578,-0.0781249925494194,-0.099609375,0.9873046278953552,0.9953873468717207,-1.483917236328125,-0.080108642578125,-1.6841888427734375,2.246089895131079
1783078965.044475,-0.0712890625,-0.099609375,0.9897460341453552,0.9972970320453571,-1.2378692626953125,0.5283355712890625,-1.5621185302734375,2.061958556818934
1783078965.055371,-0.0830078125,-0.0927734375,0.9848632216453552,0.9926997395946419,-1.1749267578125,0.102996826171875,-1.5621185302734375,1.9573644359313667
1783078965.066267,-0.08642578125,-0.0927734375,0.9829100966453552,0.9910542792691129,-1.3599395751953125,0.1621246337890625,-1.6841888427734375,2.1707630232676656
1783078965.074148,-0.087890625,-0.1015625,0.9814452528953552,0.9905929980572084,-1.0547637939453125,0.1621246337890625,-1.6231536865234375,1.9425341561923108
1783078965.082029,-0.08154296875,-0.10107421875,0.9912108778953552,0.9996820784162168,-1.2989044189453125,-0.0209808349609375,-1.5621185302734375,2.0317005654414144
1783078965.08991,-0.08837890625,-0.11181640625,0.9785155653953552,0.9888409637032656,-1.1157989501953125,-0.0209808349609375,-1.5010833740234375,1.8704808976469678
1783078965.09779,-0.08642578125,-0.1015625,0.9970702528953552,1.0059490276747278,-1.2378692626953125,-0.1430511474609375,-1.1348724365234375,1.6854433806854419
1783078965.108442,-0.0917968600988388,-0.09716796875,0.9848632216453552,0.9938932754700953,-1.0528564453125,-0.080108642578125,-1.3790130615234375,1.736836524519227
1783078965.119092,-0.1005859375,-0.1005859375,0.9799804091453552,0.9902508086107306,-1.300811767578125,0.041961669921875,-1.2569427490234375,1.8093582040975067
1783078965.129744,-0.099609375,-0.09814453125,0.9770507216453552,0.9870068334463963,-1.2378692626953125,-0.2651214599609375,-0.8907318115234375,1.5479059597137934
1783078965.137693,-0.09423828125,-0.1064453125,0.9868163466453552,0.9970044935769661,-1.5430450439453125,-0.2002716064453125,-0.8296966552734375,1.7633755311232793
1783078965.145644,-0.0776367112994194,-0.1044921875,0.9858397841453552,0.9943973834406872,-1.5430450439453125,-0.2002716064453125,-0.8296966552734375,1.7633755311232793
1783078965.153595,-0.0844726487994194,-0.095703125,0.9931640028953552,1.0013338370279319,-1.2378692626953125,-0.2002716064453125,-0.8296966552734375,1.5036041924808377
1783078965.161546,-0.0869140550494194,-0.10400390625,0.9829100966453552,0.9922112293094519,-1.5430450439453125,-0.3833770751953125,-0.6465911865234375,1.7164050081257891
1783078965.172235,-0.0883788987994194,-0.109375,0.9921874403953552,1.002102608147631,-1.2378692626953125,-0.3833770751953125,-0.8907318115234375,1.5724825764920174
1783078965.182923,-0.08935546875,-0.09619140625,0.9853515028953552,0.9940597420125311,-1.483917236328125,-0.751495361328125,-0.4024505615234375,1.7113509566538125
1783078965.19361,-0.0991210862994194,-0.0908203125,0.9785155653953552,0.9877074620720279,-1.6040802001953125,-0.6313323974609375,-0.0972747802734375,1.7265909381262414
1783078965.204468,-0.0849609375,-0.1015625,0.9833983778953552,0.9922729825780529,-1.1157989501953125,-0.6313323974609375,-0.0972747802734375,1.2857100280459752
1783078965.215325,-0.0781249925494194,-0.09814453125,0.9711913466453552,0.9792591563390907,-1.117706298828125,-0.690460205078125,-0.0362396240234375,1.3142739347586379
1783078965.226182,-0.0908203125,-0.10205078125,0.9838866591453552,0.9933255504418184,-1.0547637939453125,-0.6885528564453125,0.2079010009765625,1.2766575591535756
1783078965.236743,-0.08935546875,-0.1171875,0.9755858778953552,0.9866534929247619,-0.9326934814453125,-0.8144378662109375,0.3299713134765625,1.28144732079249
1783078965.247304,-0.0937499925494194,-0.10400390625,0.9873046278953552,0.9971841865382046,-0.995635986328125,-0.629425048828125,0.3299713134765625,1.2232530306855216
1783078965.257865,-0.0673828050494194,-0.0986328125,0.9902343153953552,0.9974130907023909,-1.1157989501953125,-0.8144378662109375,0.2689361572265625,1.4073531866020614
1783078965.268475,-0.07568359375,-0.099609375,0.9721679091453552,0.980183899848828,-1.1749267578125,-0.263214111328125,0.1468658447265625,1.212973260617601
1783078965.279083,-0.0732421800494194,-0.09814453125,0.9750975966453552,0.9827573906800302,-1.1768341064453125,-0.5092620849609375,0.5741119384765625,1.4049522778987955
1783078965.289691,-0.07421875,-0.0986328125,0.9809569716453552,0.9886927908975816,-1.117706298828125,-0.202178955078125,0.6351470947265625,1.3013667938963793
1783078965.297662,-0.0781249925494194,-0.09912109375,0.9863280653953552,0.9943699302943484,-1.605987548828125,-0.385284423828125,0.0858306884765625,1.653785657611016
1783078965.305634,-0.0825195237994194,-0.10791015625,0.9907225966453552,0.9999926685399736,-1.6040802001953125,-0.1430511474609375,0.5130767822265625,1.69020256298128
1783078965.313605,-0.0830078050494194,-0.10009765625,0.9750975966453552,0.9837302269776066,-1.728057861328125,-0.568389892578125,0.5741119384765625,1.9075784544768328
1783078965.321578,-0.08544921875,-0.103515625,0.9687499403953552,0.9780048571556944,-1.8463134765625,-0.080108642578125,0.1468658447265625,1.8538771331183903
1783078965.329616,-0.0869140550494194,-0.12451171875,0.9882811903953552,0.9998784587941041,-1.789093017578125,-0.263214111328125,0.4520416259765625,1.8639949371080893
1783078965.337656,-0.0820312350988388,-0.09716796875,0.9838866591453552,0.9920704086540685,-1.972198486328125,-0.446319580078125,0.2079010009765625,2.032729904154292
1783078965.345695,-0.0820312425494194,-0.1005859375,0.9882811903953552,0.9967679603930977,-1.9092559814453125,-0.3261566162109375,0.0858306884765625,1.9388149597285536
1783078965.353733,-0.08935546875,-0.09716796875,0.9814452528953552,0.9902831910001103,-1.972198486328125,-0.324249267578125,0.2689361572265625,2.016688154788362
1783078965.364359,-0.0810546875,-0.111328125,0.9902343153953552,0.9997638787074907,-1.8482208251953125,-0.1430511474609375,0.3910064697265625,1.894536858665875
1783078965.374985,-0.07373046875,-0.10693359375,0.9853515028953552,0.993875525280968,-1.8463134765625,-0.568389892578125,0.0858306884765625,1.9337288927886551
1783078965.385612,-0.0810546875,-0.10986328125,0.9780272841453552,0.9875105930902608,-2.0313262939453125,-0.4482269287109375,0.2689361572265625,2.097503408521433
1783078965.396262,-0.0844726487994194,-0.10498046875,0.9892577528953552,0.9983924222858102,-2.0923614501953125,-0.6313323974609375,0.5741119384765625,2.259681736937422
1783078965.406914,-0.0966796800494194,-0.0986328125,0.9868163466453552,0.9964345910508146,-2.0923614501953125,-0.6313323974609375,0.6961822509765625,2.293736419234346
1783078965.417567,-0.080078125,-0.111328125,0.9799804091453552,0.989529211205121,-2.155303955078125,-0.629425048828125,0.9403228759765625,2.4342797994381273
1783078965.425573,-0.0791015625,-0.09765625,0.9833983778953552,0.9913960712052574,-1.789093017578125,-0.446319580078125,1.1234283447265625,2.1592003702396356
1783078965.433579,-0.07080078125,-0.1142578125,0.9790038466453552,0.9881883069988724,-1.8482208251953125,-0.6885528564453125,1.0013580322265625,2.2119546024973693
1783078965.441585,-0.08544921875,-0.10888671875,0.9829100966453552,0.9926077496133648,-2.094268798828125,-0.202178955078125,1.0013580322265625,2.3301407769330447
1783078965.449592,-0.0624999962747097,-0.1015625,0.9858397841453552,0.9930263193613497,-1.972198486328125,0.225067138671875,1.1234283447265625,2.280858025419372
1783078965.460251,-0.095703125,-0.11865234375,0.9892577528953552,1.0009337482949117,-2.277374267578125,-0.080108642578125,1.0623931884765625,2.5142653472066363
1783078965.470912,-0.0771484300494194,-0.107421875,0.9716796278953552,0.9806388931479628,-2.5196075439453125,0.1049041748046875,1.0013580322265625,2.713327287686142
1783078965.481572,-0.0747070237994194,-0.10986328125,0.9775390028953552,0.9865260169674335,-2.765655517578125,0.286102294921875,0.8182525634765625,2.898317136323397
1783078965.492332,-0.07763671875,-0.10693359375,0.9775390028953552,0.986430309627701,-2.8247833251953125,-0.2002716064453125,0.8182525634765625,2.9477189160918376
1783078965.503094,-0.0751953125,-0.11865234375,0.9687499403953552,0.978881586666817,-3.070831298828125,0.102996826171875,0.6961822509765625,3.150441705323033
1783078965.513856,-0.07666015625,-0.103515625,0.9975585341453552,1.0058405903629286,-3.2520294189453125,-0.0209808349609375,0.5741119384765625,3.3023839956950436
1783078965.521784,-0.0859375,-0.109375,0.9819335341453552,0.9917366636413305,-3.253936767578125,0.041961669921875,0.8792877197265625,3.3709067271583395
1783078965.529712,-0.0776367112994194,-0.1206054612994194,0.9687499403953552,0.9793107694969149,-3.4961700439453125,-0.0209808349609375,0.8182525634765625,3.5907077894549135
1783078965.537639,-0.07421875,-0.11767578125,0.9873046278953552,0.9970588952554138,-3.1909942626953125,-0.0209808349609375,0.8792877197265625,3.309989648632152
1783078965.545568,-0.0771484300494194,-0.1215820237994194,0.9741210341453552,0.984705975372684,-3.620147705078125,-0.202178955078125,0.7572174072265625,3.704014570471587
1783078965.556287,-0.07568359375,-0.10302734375,0.9858397841453552,0.9940939190674372,-3.620147705078125,-0.202178955078125,0.2689361572265625,3.6357492203289663
1783078965.567005,-0.0795898362994194,-0.1201171875,0.9731444716453552,0.9837544629982606,-3.9844512939453125,-0.1430511474609375,0.0247955322265625,3.9870955046287473
1783078965.577724,-0.0688476487994194,-0.11865234375,0.9785155653953552,0.9880845556649329,-3.8623809814453125,-0.2002716064453125,0.2079010009765625,3.873153545676404
1783078965.585785,-0.06689453125,-0.1181640625,0.9819335341453552,0.9912775037580791,-4.1675567626953125,0.0400543212890625,-0.5855560302734375,4.208682642292116
1783078965.593844,-0.0634765625,-0.12255859375,0.9702147841453552,0.9799829642718347,-4.1675567626953125,-0.4482269287109375,-0.9517669677734375,4.2982900217241875
1783078965.601904,-0.0551757775247097,-0.11962890625,0.9902343153953552,0.9989591788569417,-3.8623809814453125,-0.1430511474609375,-1.6231536865234375,4.192025568468658
1783078965.609965,-0.06201171875,-0.125,0.9926757216453552,1.0024348066614885,-4.1675567626953125,-0.3261566162109375,-2.5386810302734375,4.890788165731143
1783078965.620502,-0.06689453125,-0.126953125,0.9907225966453552,1.0010610559611925,-3.7994384765625,-0.202178955078125,-2.8438568115234375,4.75017164232076
1783078965.631041,-0.0537109337747097,-0.1171875,0.9770507216453552,0.9855180806210054,-4.1675567626953125,-0.3261566162109375,-4.1255950927734375,5.873282078880758
1783078965.641578,-0.0571289025247097,-0.1083984375,0.9741210341453552,0.9817971898108772,-3.9844512939453125,0.0400543212890625,-5.0411224365234375,6.425758467488208
1783078965.649605,-0.0624999962747097,-0.12744140625,0.9833983778953552,0.9935894178223378,-4.413604736328125,0.102996826171875,-6.8111419677734375,8.11678323105306
1783078965.657631,-0.07470703125,-0.12548828125,0.9868163466453552,0.9975645098216723,-4.535675048828125,-0.080108642578125,-8.092880249023438,9.277579224572074
1783078965.665659,-0.0561523400247097,-0.12158203125,0.9809569716453552,0.9900564912330775,-4.8389434814453125,0.0400543212890625,-9.191513061523438,10.387535353751243
1783078965.673686,-0.0566406212747097,-0.123046875,0.9707030653953552,0.9801087361071679,-4.9591064453125,0.225067138671875,-10.229110717773438,11.370052683664985
1783078965.684347,-0.0532226487994194,-0.123046875,0.9672850966453552,0.9765314342020466,-5.084991455078125,0.164031982421875,-11.144638061523438,12.25100004537718
1783078965.695009,-0.0522460900247097,-0.13037109375,0.9746093153953552,0.9846774058867424,-5.268096923828125,0.469207763671875,-12.060165405273438,13.168925192546714
1783078965.705671,-0.0517578087747097,-0.12158203125,0.9658202528953552,0.9748178404168049,-5.3272247314453125,0.7114410400390625,-13.036727905273438,14.101125705733908
1783078965.716297,-0.06396484375,-0.12109375,0.9873046278953552,0.9967575561733205,-5.6324005126953125,0.9555816650390625,-14.379501342773438,15.472786779400547
1783078965.726925,-0.0595703087747097,-0.1337890625,0.9887694716453552,0.9995565031502611,-5.5713653564453125,0.4673004150390625,-15.172958374023438,16.17025502064648
1783078965.737552,-0.0610351525247097,-0.1279296875,0.9770507216453552,0.9872787891245672,-5.390167236328125,0.102996826171875,-16.027450561523438,16.909869386954608
1783078965.74558,-0.0551757775247097,-0.12744140625,0.9877929091453552,0.9975071477489662,-5.268096923828125,0.164031982421875,-17.736434936523438,18.502996404572794
1783078965.753609,-0.0561523400247097,-0.13720703125,0.9848632216453552,0.9959590453750381,-5.1422119140625,-0.080108642578125,-18.346786499023438,19.0539585284657
1783078965.761638,-0.0585937462747097,-0.12744140625,0.9936522841453552,1.0035035629815992,-5.023956298828125,-0.080108642578125,-18.896102905273438,19.552730226079266
1783078965.769668,-0.0585937462747097,-0.13134765625,0.9907225966453552,1.0011077351656956,-4.7168731689453125,-0.1430511474609375,-19.323348999023438,19.891233563074117
1783078965.779247,-0.07568359375,-0.13720703125,0.9785155653953552,0.990982586884525,-4.8389434814453125,-0.0209808349609375,-20.299911499023438,20.868689970389653
1783078965.788827,-0.06982421875,-0.1259765625,0.9702147841453552,0.9808477166194467,-4.901885986328125,-0.141143798828125,-20.544052124023438,21.12123304803722
1783078965.798406,-0.0683593675494194,-0.14013671875,0.9809569716453552,0.9932713039715783,-4.8389434814453125,-0.1430511474609375,-20.666122436523438,21.225561340251744
1783078965.807986,-0.06640625,-0.14306640625,0.9819335341453552,0.9945206142235263,-4.8389434814453125,-0.0209808349609375,-21.093368530273438,21.641303337968985
1783078965.817566,-0.0693359375,-0.13671875,0.9721679091453552,0.9841798272686847,-5.023956298828125,-0.080108642578125,-21.093368530273438,21.683559445835463
1783078965.828411,-0.0629882737994194,-0.14892578125,0.9702147841453552,0.9835970406275996,-5.0220489501953125,-0.1430511474609375,-21.520614624023438,22.0992826373319
1783078965.839257,-0.076171875,-0.14990234375,0.9775390028953552,0.9918948378655895,-5.3272247314453125,0.1049041748046875,-22.069931030273438,22.70401250674075
1783078965.850101,-0.0576171837747097,-0.14697265625,0.9868163466453552,0.9993633991485756,-5.268096923828125,0.041961669921875,-22.069931030273438,22.690007969624347
1783078965.860654,-0.0722656175494194,-0.15478515625,0.9833983778953552,0.9981248086899512,-5.268096923828125,0.225067138671875,-22.436141967773438,23.047428637786076
1783078965.871204,-0.06982421875,-0.142578125,0.9785155653953552,0.9913105744283953,-5.4492950439453125,0.6504058837890625,-22.802352905273438,23.45346759663198
1783078965.881754,-0.0722656175494194,-0.14892578125,0.9746093153953552,0.9885669048962366,-5.329132080078125,0.408172607421875,-22.741317749023438,23.36094575496497
1783078965.89235,-0.07373046875,-0.14306640625,0.9711913466453552,0.984437306494529,-5.3272247314453125,0.7762908935546875,-22.802352905273438,23.42923918754876
1783078965.902948,-0.0751953125,-0.14794921875,0.9726561903953552,0.9867134189140804,-5.268096923828125,0.835418701171875,-22.619247436523438,23.239645526551975
1783078965.913544,-0.0776367112994194,-0.15771484375,0.9794921278953552,0.9951413263900998,-5.268096923828125,1.140594482421875,-22.558212280273438,23.19324777287687
1783078965.921563,-0.0590820237994194,-0.138671875,0.9633788466453552,0.9750996752209415,-5.8765411376953125,1.1386871337890625,-22.008895874023438,22.808372184908066
1783078965.929584,-0.06494140625,-0.1533203125,0.9677733778953552,0.9819927776892309,-6.3648223876953125,1.3217926025390625,-21.947860717773438,22.890318691486513
1783078965.937605,-0.0693359300494194,-0.15869140625,0.9682616591453552,0.9836264911969057,-6.244659423828125,1.201629638671875,-21.520614624023438,22.440511110575702
1783078965.945626,-0.0751953125,-0.15380859375,0.9721679091453552,0.9871280879933347,-6.3037872314453125,1.2645721435546875,-21.398544311523438,22.34355779229932
1783078965.956303,-0.07470703125,-0.15576171875,0.9799804091453552,0.9950901747353555,-6.6699981689453125,1.3217926025390625,-20.971298217773438,22.04611893727892
1783078965.96698,-0.0771484300494194,-0.166015625,0.9760741591453552,0.9930930631892174,-6.3648223876953125,0.9555816650390625,-20.727157592773438,21.703436645405535
1783078965.977657,-0.07373046875,-0.15771484375,0.9926757216453552,1.007826990264355,-6.244659423828125,1.079559326171875,-20.299911499023438,21.266114514092934
1783078965.988297,-0.080078125,-0.16943359375,0.9741210341453552,0.9919838899694753,-5.9356689453125,0.774383544921875,-19.933700561523438,20.813078911575595
1783078965.998937,-0.0908203125,-0.1630859375,0.9814452528953552,0.9990396071246022,-5.756378173828125,1.018524169921875,-19.201278686523438,20.071432045630903
1783078966.009577,-0.0786132737994194,-0.1533203125,0.9775390028953552,0.9926075091516311,-5.3272247314453125,0.4673004150390625,-18.835067749023438,19.57951659585908
1783078966.017601,-0.0825195237994194,-0.185546875,0.9804686903953552,1.001277168158713,-4.8389434814453125,0.4673004150390625,-17.309188842773438,17.97892549874186
1783078966.025627,-0.08642578125,-0.17333984375,0.9775390028953552,0.9965433353736267,-4.5337677001953125,0.5283355712890625,-16.515731811523438,17.134864612986906
1783078966.033651,-0.08837890625,-0.1708984375,0.9902343153953552,1.008752252238574,-4.108428955078125,0.835418701171875,-15.783309936523438,16.330645591572658
1783078966.041677,-0.0849609375,-0.16943359375,0.9707030653953552,0.9890351585054286,-4.2877197265625,0.713348388671875,-15.111923217773438,15.72461858733158
1783078966.052299,-0.08154296875,-0.158203125,0.9736327528953552,0.9897667513222077,-4.108428955078125,0.835418701171875,-14.074325561523438,14.685494642569724
1783078966.062922,-0.0732421800494194,-0.1640625,0.9624022841453552,0.9790296611302635,-4.0454864501953125,0.6504058837890625,-13.586044311523438,14.19047527276869
1783078966.073545,-0.08837890625,-0.17578125,0.9790038466453552,0.9985781945686132,-3.9825439453125,0.896453857421875,-12.853622436523438,13.486285460998166
1783078966.08156,-0.0820312425494194,-0.162109375,0.9799804091453552,0.9966795756539762,-3.8623809814453125,0.9555816650390625,-11.938095092773438,12.583689348060469
1783078966.089574,-0.07470703125,-0.1728515625,0.9804686903953552,0.998387527978221,-3.8623809814453125,0.9555816650390625,-11.571884155273438,12.236814375786604
1783078966.097589,-0.0595703050494194,-0.17333984375,0.9858397841453552,1.0027339640596182,-3.925323486328125,0.896453857421875,-11.388778686523438,12.079572590179517
1783078966.105605,-0.0712890625,-0.177734375,0.9643554091453552,0.9831851268386209,-3.6792755126953125,1.1997222900390625,-10.717391967773438,11.394687027840234
1783078966.116291,-0.0581054612994194,-0.1787109375,0.9760741591453552,0.993999299781574,-3.6792755126953125,0.9555816650390625,-10.534286499023438,11.199169462972941
1783078966.126976,-0.0629882737994194,-0.1748046875,0.9663085341453552,0.9840103579588725,-3.8013458251953125,1.1386871337890625,-10.473251342773438,11.199813934181773
1783078966.137662,-0.0517578087747097,-0.16455078125,0.9682616591453552,0.9835072297395993,-3.437042236328125,1.079559326171875,-10.351181030273438,10.960185052932308
1783078966.148298,-0.06494140625,-0.17724609375,0.9731444716453552,0.9912838779528692,-3.4961700439453125,0.9555816650390625,-10.229110717773438,10.852236975444592
1783078966.158933,-0.0585937425494194,-0.17529296875,0.9780272841453552,0.9953382440617237,-3.131866455078125,0.591278076171875,-9.862899780273438,10.365085109709566
1783078966.169569,-0.0546874925494194,-0.17919921875,0.9721679091453552,0.9900573344074598,-3.3111572265625,0.591278076171875,-9.801864624023438,10.362910886911106
1783078966.177573,-0.0634765625,-0.1767578125,0.9770507216453552,0.9949375412227197,-3.1909942626953125,0.4062652587890625,-9.740829467773438,10.258228627072839
1783078966.185579,-0.07861328125,-0.1806640625,0.9780272841453552,0.997675758952093,-2.7637481689453125,0.4673004150390625,-9.618759155273438,10.018842313680798
1783078966.193584,-0.0742187425494194,-0.17431640625,0.9809569716453552,0.9990851872854277,-2.887725830078125,0.408172607421875,-9.374618530273438,9.817791907312767
1783078966.201591,-0.0678710862994194,-0.17236328125,0.9711913466453552,0.9887002664496194,-2.7027130126953125,0.2231597900390625,-9.435653686523438,9.817638128026832
1783078966.212269,-0.0615234337747097,-0.1826171875,0.9653319716453552,0.9843779688486278,-2.582550048828125,0.225067138671875,-8.947372436523438,9.315347201767171
1783078966.222947,-0.0649413987994194,-0.173828125,0.9726561903953552,0.9901988017733845,-2.643585205078125,0.347137451171875,-8.825302124023438,9.219273546587424
1783078966.233624,-0.06494140625,-0.177734375,0.9760741591453552,0.9942472823466406,-2.582550048828125,0.408172607421875,-8.337020874023438,8.737395875548632
1783078966.24428,-0.0791015625,-0.166015625,0.9624022841453552,0.9798144729806144,-2.8247833251953125,0.6504058837890625,-7.7266693115234375,8.252505516363318
1783078966.254934,-0.0673828050494194,-0.181640625,0.9799804091453552,0.9989471264163167,-2.3345947265625,0.591278076171875,-7.3604583740234375,7.744436052830877
1783078966.265588,-0.0620117150247097,-0.16650390625,0.9624022841453552,0.9786660105086983,-2.3975372314453125,0.2880096435546875,-7.1163177490234375,7.514859455506334
1783078966.27383,-0.0830078050494194,-0.177734375,0.9711913466453552,0.9908039339620032,-2.5806427001953125,0.4673004150390625,-6.8721771240234375,7.355603635862803
1783078966.282073,-0.0581054612994194,-0.20068359375,0.9628905653953552,0.9852960927358944,-2.2144317626953125,0.3452301025390625,-6.2007904052734375,6.59338255415717
1783078966.290314,-0.07861328125,-0.185546875,0.9658202528953552,0.986618696211462,-2.765655517578125,0.286102294921875,-6.0176849365234375,6.6289695247701195
1783078966.298556,-0.0751953125,-0.18017578125,0.9633788466453552,0.9829630966291437,-2.3345947265625,0.225067138671875,-5.6514739990234375,6.1188353561638955
1783078966.309118,-0.076171875,-0.1943359375,0.9672850966453552,0.9895499327154915,-2.643585205078125,0.469207763671875,-4.9190521240234375,5.604085336685855
1783078966.319679,-0.0771484300494194,-0.193359375,0.9824218153953552,1.0042371988351089,-2.5196075439453125,0.2880096435546875,-4.1866302490234375,4.894818134754822
1783078966.33024,-0.07421875,-0.19677734375,0.9868163466453552,1.0089778232802513,-2.460479736328125,0.041961669921875,-3.3931732177734375,4.191580346413378
1783078966.340932,-0.07958984375,-0.1845703125,0.9877929091453552,1.0080355027687968,-2.2144317626953125,-0.1430511474609375,-2.5997161865234375,3.4179958912929846
1783078966.351624,-0.06884765625,-0.1875,0.9643554091453552,0.984823641531327,-1.8482208251953125,-0.0209808349609375,-2.0503997802734375,2.760525253111563
1783078966.362315,-0.0673828050494194,-0.1796875,0.9755858778953552,0.994281572403627,-1.789093017578125,0.286102294921875,-1.6841888427734375,2.47370176190035
1783078966.370129,-0.0703125,-0.18994140625,0.9707030653953552,0.9916077987956815,-1.7871856689453125,0.4673004150390625,-1.1348724365234375,2.1680262314741094
1783078966.377944,-0.06591796875,-0.20166015625,0.9814452528953552,1.004114924524941,-1.789093017578125,0.408172607421875,-0.9517669677734375,2.067200779784348
1783078966.385757,-0.0693359300494194,-0.20361328125,0.9594725966453552,0.9832870909406826,-2.155303955078125,0.164031982421875,-0.6465911865234375,2.256174149422523
1783078966.393572,-0.06494140625,-0.1865234375,0.9687499403953552,0.9886783228121007,-2.277374267578125,0.713348388671875,-0.5245208740234375,2.443444622972674
1783078966.404244,-0.0595703087747097,-0.1962890625,0.9746093153953552,0.9959625170658011,-2.460479736328125,0.225067138671875,-0.4024505615234375,2.5033142440096876
1783078966.414917,-0.0610351525247097,-0.19873046875,0.9692382216453552,0.9912829158981608,-2.3975372314453125,0.4673004150390625,-0.6465911865234375,2.526783452643285
1783078966.425591,-0.0449218712747097,-0.18701171875,0.9682616591453552,0.9871788075316279,-2.460479736328125,0.102996826171875,-0.0362396240234375,2.4629011732978974
1783078966.436239,-0.07177734375,-0.1962890625,0.9750975966453552,0.997244556824695,-2.2144317626953125,0.2880096435546875,-0.4024505615234375,2.2690579633153707
1783078966.446885,-0.0551757775247097,-0.19140625,0.9633788466453552,0.9837578569588421,-1.7871856689453125,0.1621246337890625,-0.5855560302734375,1.8876421474300495
1783078966.457532,-0.0605468712747097,-0.18408203125,0.9716796278953552,0.9908145220560396,-1.667022705078125,0.347137451171875,-0.8907318115234375,1.9216847476399244
1783078966.468277,-0.07080078125,-0.18994140625,0.9628905653953552,0.9839963055627926,-1.605987548828125,0.102996826171875,-0.5855560302734375,1.7125069978782672
1783078966.479023,-0.0405273400247097,-0.189453125,0.9755858778953552,0.9946369976079691,-1.300811767578125,0.102996826171875,-0.6465911865234375,1.4562965918249593
1783078966.489769,-0.064453125,-0.185546875,0.9736327528953552,0.9932485014613005,-1.5430450439453125,0.3452301025390625,-0.7686614990234375,1.758127507157624
1783078966.497723,-0.0556640587747097,-0.189453125,0.9609374403953552,0.9810156667276608,-0.995635986328125,0.225067138671875,-1.1348724365234375,1.5263949951969074
1783078966.505677,-0.0541992112994194,-0.203125,0.9721679091453552,0.9946395144485919,-0.812530517578125,-0.141143798828125,-0.9517669677734375,1.2593600656238284
1783078966.51363,-0.0634765550494194,-0.2099609375,0.9614257216453552,0.9861299541937223,-0.8106231689453125,-0.3261566162109375,-1.1348724365234375,1.4322791304455125
1783078966.521584,-0.0595703087747097,-0.19189453125,0.9750975966453552,0.9955839772689792,-0.6866455078125,0.225067138671875,-1.0738372802734375,1.294319811643971
1783078966.532247,-0.0693359300494194,-0.1884765625,0.9780272841453552,0.9984328992678345,-0.629425048828125,-0.385284423828125,-0.8296966552734375,1.1104127696981818
1783078966.542909,-0.0634765550494194,-0.203125,0.9633788466453552,0.9866041966410222,-0.324249267578125,-0.202178955078125,-0.9517669677734375,1.0256092230211644
1783078966.553573,-0.0493163987994194,-0.20703125,0.9677733778953552,0.9908982574563807,-0.6866455078125,-0.263214111328125,-0.7686614990234375,1.0637688761579267
1783078966.564286,-0.0712890625,-0.19384765625,0.9736327528953552,0.9952988404375517,-0.507354736328125,0.041961669921875,-0.5855560302734375,0.7759158941578659
1783078966.575001,-0.07080078125,-0.1943359375,0.9863280653953552,1.0077808590244997,-0.3833770751953125,-0.2002716064453125,-0.3414154052734375,0.5510455308697495
1783078966.585714,-0.06689453125,-0.19677734375,0.9750975966453552,0.9970012659510572,-0.507354736328125,-0.263214111328125,-0.0972747802734375,0.5797869261669164
1783078966.593707,-0.0693359300494194,-0.193359375,0.9765624403953552,0.9979326225187451,-0.4444122314453125,-0.0209808349609375,-0.0362396240234375,0.4463807088609679
1783078966.6017,-0.0747070237994194,-0.19775390625,0.9648436903953552,0.9877302737781346,-0.4444122314453125,-0.0209808349609375,0.5130767822265625,0.6791098669242139
1783078966.609692,-0.06982421875,-0.1904296875,0.9711913466453552,0.992144908369848,-0.3223419189453125,-0.0209808349609375,0.2689361572265625,0.42032269128467814
1783078966.617686,-0.0571289025247097,-0.19677734375,0.9765624403953552,0.9978272568475544,-0.2613067626953125,-0.0209808349609375,0.5130767822265625,0.5761676875059256
1783078966.62832,-0.0644531175494194,-0.197265625,0.9672850966453552,0.9892969166841136,-0.324249267578125,-0.263214111328125,0.3910064697265625,0.5721060350103242
1783078966.638956,-0.076171875,-0.18994140625,0.9711913466453552,0.9925182739617753,0.041961669921875,-0.080108642578125,0.8792877197265625,0.883925941705684
1783078966.64959,-0.0419921837747097,-0.20166015625,0.9736327528953552,0.9951838521738239,-0.0782012939453125,0.1621246337890625,0.7572174072265625,0.7783174423478357
1783078966.657588,-0.0634765625,-0.19677734375,0.9907225966453552,1.01206811060513,0.041961669921875,0.102996826171875,0.5741119384765625,0.58478512792771
1783078966.665584,-0.0581054612994194,-0.1845703125,0.9726561903953552,0.9917169503460004,0.225067138671875,0.408172607421875,0.7572174072265625,0.889178438878516
1783078966.673582,-0.0561523400247097,-0.1865234375,0.9731444716453552,0.9924486086044881,0.164031982421875,-0.141143798828125,0.3910064697265625,0.44689386052273505
1783078966.681578,-0.076171875,-0.1943359375,0.9697265028953552,0.991936541096594,0.1049041748046875,0.1621246337890625,0.3299713134765625,0.38232231231009517
1783078966.692221,-0.0610351525247097,-0.18359375,0.9599608778953552,0.9792634180711532,0.2880096435546875,-0.0209808349609375,0.7572174072265625,0.8104122111759385
1783078966.702864,-0.0615234337747097,-0.1943359375,0.9682616591453552,0.9894858412722999,-0.019073486328125,-0.141143798828125,0.5130767822265625,0.5324783134441315
1783078966.713508,-0.0620117150247097,-0.20654296875,0.9560546278953552,0.9800744371018435,0.1049041748046875,-0.3261566162109375,0.3910064697265625,0.5198741035651329
1783078966.722008,-0.0556640550494194,-0.1982421875,0.9726561903953552,0.994212510806284,-0.3833770751953125,-0.5092620849609375,0.1468658447265625,0.6541371639888076
1783078966.730509,-0.0605468675494194,-0.18798828125,0.9760741591453552,0.9958545482191102,-0.2002716064453125,-0.6313323974609375,0.2689361572265625,0.7148538095972852
1783078966.73901,-0.0546874962747097,-0.185546875,0.9790038466453552,0.9979313086668161,-0.2613067626953125,-0.4482269287109375,0.0247955322265625,0.5194260508198859
1783078966.74751,-0.0561523400247097,-0.171875,0.9726561903953552,0.9893200521720239,-0.324249267578125,-0.446319580078125,0.0858306884765625,0.5583060649593778
1783078966.756753,-0.0585937425494194,-0.18310546875,0.9799804091453552,0.9986603234637905,-0.629425048828125,-0.263214111328125,0.0247955322265625,0.6826949383970418
1783078966.765996,-0.0537109300494194,-0.1845703125,0.9687499403953552,0.9876373379328698,-0.2613067626953125,-0.3833770751953125,0.0858306884765625,0.47183271728439663
1783078966.775239,-0.0595703087747097,-0.19482421875,0.9838866591453552,1.0047577100690845,-0.446319580078125,-0.263214111328125,0.0247955322265625,0.5187462331253759
1783078966.784482,-0.0786132737994194,-0.1982421875,0.9589843153953552,0.9824107740128595,-0.507354736328125,0.286102294921875,0.3299713134765625,0.6694358963721565
1783078966.793725,-0.0693359375,-0.185546875,0.9692382216453552,0.9892713709339416,0.041961669921875,0.102996826171875,0.3910064697265625,0.40651591274160603
1783078966.803326,-0.05126953125,-0.18798828125,0.9731444716453552,0.9924607404909483,-0.1983642578125,0.102996826171875,0.5130767822265625,0.5596467720258439
1783078966.81293,-0.06494140625,-0.201171875,0.9658202528953552,0.9886841105426906,-0.3814697265625,0.102996826171875,0.5130767822265625,0.6475919108088916
1783078966.822533,-0.0566406212747097,-0.2021484225988388,0.9643554091453552,0.9869414875692932,-0.3223419189453125,-0.0209808349609375,0.4520416259765625,0.5555953021404509
1783078966.832135,-0.0600585862994194,-0.18310546875,0.9707030653953552,0.9896459405476189,-0.0782012939453125,0.1621246337890625,0.8792877197265625,0.8975225530970777
1783078966.841738,-0.0615234337747097,-0.20556640625,0.9682616591453552,0.991752651044043,-0.3223419189453125,-0.0209808349609375,0.6961822509765625,0.7674726279938575
1783078966.8524,-0.0727538987994194,-0.19580078125,0.9653319716453552,0.9876724615019573,-0.2002716064453125,-0.1430511474609375,0.8792877197265625,0.9130822751537865
1783078966.863063,-0.0708007737994194,-0.19287109375,0.9633788466453552,0.9850435576859801,-0.324249267578125,-0.141143798828125,1.1234283447265625,1.1777734948654808
1783078966.873724,-0.0644531175494194,-0.19873046875,0.9628905653953552,0.9852950037926818,-0.324249267578125,-0.446319580078125,1.2454986572265625,1.3622061739102618
1783078966.881693,-0.064453125,-0.19970703125,0.9692382216453552,0.9916954340679425,-0.2613067626953125,-0.2002716064453125,1.7948150634765625,1.8247605466638266
1783078966.889663,-0.0649413987994194,-0.1884765625,0.9809569716453552,1.0010081818394232,-0.263214111328125,-0.263214111328125,1.6727447509765625,1.7136622592343427
1783078966.897634,-0.0590820275247097,-0.201171875,0.9804686903953552,1.002636355870377,-0.080108642578125,-0.080108642578125,1.6117095947265625,1.6156864197501568
1783078966.905604,-0.06689453125,-0.19482421875,0.9785155653953552,0.9999620324010791,0.041961669921875,-0.385284423828125,1.6727447509765625,1.7170555817756292
1783078966.916265,-0.0585937425494194,-0.19921875,0.9794921278953552,1.0012622861301035,-0.141143798828125,-0.446319580078125,1.8558502197265625,1.9139756470676106
1783078966.926926,-0.0615234337747097,-0.19677734375,0.9804686903953552,1.001910828747908,0.0438690185546875,-0.3261566162109375,1.7337799072265625,1.7647366363822303
1783078966.937587,-0.0673828050494194,-0.193359375,0.9707030653953552,0.9920648826990389,0.5321502685546875,-0.3261566162109375,2.3441314697265625,2.425801804349112
1783078966.948235,-0.0532226487994194,-0.21044921875,0.9672850966453552,0.9913435238149921,0.347137451171875,-0.202178955078125,1.9779205322265625,2.0183038353246014
1783078966.958885,-0.0703124925494194,-0.19287109375,0.9750975966453552,0.9964729943136348,0.2880096435546875,-0.0209808349609375,2.3441314697265625,2.361851413103409
1783078966.969534,-0.06640625,-0.19775390625,0.9702147841453552,0.9923875880171086,0.469207763671875,-0.019073486328125,2.3441314697265625,2.3907053500448536
1783078966.977563,-0.0590820275247097,-0.20556640625,0.9658202528953552,0.9892203972107624,0.347137451171875,-0.385284423828125,2.7103424072265625,2.759511634630547
1783078966.985593,-0.06201171875,-0.20751953125,0.9775390028953552,1.001245380161224,0.347137451171875,-0.141143798828125,2.7103424072265625,2.7361253528236635
1783078966.993622,-0.0610351525247097,-0.1923827975988388,0.9755858778953552,0.9962450681456452,0.2899169921875,-0.263214111328125,3.0765533447265625,3.1013729239982575
1783078967.00165,-0.06591796875,-0.19580078125,0.9628905653953552,0.9848052424056358,0.2269744873046875,-0.3261566162109375,2.8324127197265625,2.8601498861168477
1783078967.012275,-0.0561523400247097,-0.193359375,0.9682616591453552,0.9889750116972407,0.2269744873046875,-0.4482269287109375,3.0155181884765625,3.0570859887385953
1783078967.022898,-0.0620117150247097,-0.201171875,0.9677733778953552,0.9904044058132554,0.1049041748046875,-0.1430511474609375,3.1986236572265625,3.203538952042065
1783078967.033522,-0.0673828050494194,-0.197265625,0.9565429091453552,0.9789936191105783,0.2899169921875,-0.385284423828125,2.8934478759765625,2.933349034908205
1783078967.041527,-0.0546874962747097,-0.19140625,0.9716796278953552,0.9918610659032417,0.2269744873046875,-0.0209808349609375,2.9544830322265625,2.9632629989654222
1783078967.049531,-0.0600585900247097,-0.189453125,0.9790038466453552,0.9989734994254973,0.1049041748046875,-0.2651214599609375,2.7713775634765625,2.7860057203395256
1783078967.057534,-0.0473632775247097,-0.19091796875,0.9736327528953552,0.9933044288434923,0.347137451171875,0.041961669921875,2.7713775634765625,2.793349027796209
1783078967.065539,-0.06689453125,-0.1923828125,0.9750975966453552,0.9961432366081272,0.2269744873046875,-0.2002716064453125,3.1375885009765625,3.152156045581463
1783078967.076223,-0.0610351525247097,-0.18505859375,0.9692382216453552,0.9886327443811948,0.347137451171875,-0.080108642578125,2.7103424072265625,2.7336564833629873
1783078967.086908,-0.0620117150247097,-0.18603515625,0.9560546278953552,0.9759584948559,0.652313232421875,-0.263214111328125,2.8934478759765625,2.977723095351247
1783078967.097594,-0.0581054612994194,-0.18359375,0.9765624403953552,0.9953678263148817,0.652313232421875,-0.141143798828125,2.4051666259765625,2.4960490026944164
1783078967.108677,-0.0610351525247097,-0.19384765625,0.9643554091453552,0.9855371930197451,0.652313232421875,-0.324249267578125,2.0999908447265625,2.222748678697843
1783078967.119765,-0.0590820237994194,-0.19384765625,0.9716796278953552,0.9925869728324613,0.5321502685546875,-0.0209808349609375,1.5506744384765625,1.6395777864752519
1783078967.130852,-0.0507812425494194,-0.18798828125,0.9731444716453552,0.9924356357850667,0.347137451171875,-0.141143798828125,1.1844635009765625,1.24232836524785
1783078967.138725,-0.0454101487994194,-0.1787109375,0.9702147841453552,0.9875810894151085,-0.019073486328125,0.164031982421875,0.8792877197265625,0.894660373102496
1783078967.146601,-0.0747070237994194,-0.18408203125,0.9731444716453552,0.9932157350384712,-0.0782012939453125,0.1621246337890625,0.4520416259765625,0.48656086039825813
1783078967.154478,-0.0571289025247097,-0.19189453125,0.9711913466453552,0.9916147711819109,-0.629425048828125,0.102996826171875,0.1468658447265625,0.654487444219531
1783078967.162354,-0.0678710862994194,-0.18212890625,0.9785155653953552,0.9976322641977234,-0.263214111328125,0.591278076171875,-0.2193450927734375,0.6833766907698536
1783078967.174168,-0.046875,-0.1884765625,0.9648436903953552,0.9841971485086433,-0.6885528564453125,0.3452301025390625,-0.8296966552734375,1.1321154532953166
1783078967.185983,-0.0488281212747097,-0.1953125,0.9628905653953552,0.9837120508618641,-0.2613067626953125,0.0400543212890625,-1.2569427490234375,1.2844417648172408
1783078967.197799,-0.0600585900247097,-0.1962890625,0.9726561903953552,0.9940807286167912,-0.1392364501953125,0.3452301025390625,-1.5621185302734375,1.6058595565571006
1783078967.209616,-0.0703125,-0.1904296875,0.9750975966453552,0.9960033315813485,-0.1392364501953125,-0.0209808349609375,-1.5010833740234375,1.507673134425442
1783078967.217597,-0.0610351525247097,-0.1796875,0.9697265028953552,0.9881206292339109,-0.019073486328125,0.164031982421875,-1.5621185302734375,1.5708229027365255
1783078967.22558,-0.06201171875,-0.203125,0.9760741591453552,0.9989124000825305,0.164031982421875,0.286102294921875,-1.3179779052734375,1.3586120760562126
1783078967.233563,-0.0683593675494194,-0.197265625,0.9785155653953552,1.0005395752589643,0.2269744873046875,0.2880096435546875,-1.4400482177734375,1.486003311631632
1783078967.241545,-0.0610351525247097,-0.1962890625,0.9726561903953552,0.9941402067189763,0.0438690185546875,0.1621246337890625,-1.1959075927734375,1.207643928533302
1783078967.252311,-0.0615234337747097,-0.20166015625,0.9550780653953552,0.9780726264043688,0.2269744873046875,0.1621246337890625,-0.8296966552734375,0.8753275698505062
1783078967.263077,-0.0654296800494194,-0.18798828125,0.9628905653953552,0.9832491433233417,-0.0782012939453125,0.1049041748046875,-0.8296966552734375,0.8399505152317623
1783078967.273844,-0.0654296875,-0.189453125,0.9741210341453552,0.9945276867654462,-0.080108642578125,-0.080108642578125,-1.0128021240234375,1.019118703418697
1783078967.284422,-0.0576171875,-0.193359375,0.9633788466453552,0.9842796301659075,-0.1392364501953125,-0.3261566162109375,-0.3414154052734375,0.49226964797678324
1783078967.295002,-0.06591796875,-0.189453125,0.9790038466453552,0.9993428825597318,0.041961669921875,-0.080108642578125,-0.0362396240234375,0.09742426139161785
1783078967.305581,-0.0595703050494194,-0.17431640625,0.9804686903953552,0.9976240191460803,-0.141143798828125,0.041961669921875,-0.0362396240234375,0.15164321296921507
1783078967.313663,-0.06640625,-0.18603515625,0.9760741591453552,0.9958612521588219,-0.1392364501953125,0.3452301025390625,0.1468658447265625,0.40017519801878043
1783078967.321748,-0.064453125,-0.177734375,0.9750975966453552,0.9932567826913915,-0.324249267578125,0.530242919921875,0.0858306884765625,0.6274249347424655
1783078967.329831,-0.0600585900247097,-0.1962890625,0.9638671278953552,0.9854827601384644,-0.6275177001953125,0.4673004150390625,-0.2193450927734375,0.8125640969658222
1783078967.337915,-0.06884765625,-0.1875,0.9721679091453552,0.9924750341158057,-0.751495361328125,0.408172607421875,-0.0972747802734375,0.8607046754982262
1783078967.348453,-0.0742187425494194,-0.19873046875,0.9697265028953552,0.9926589098843908,-0.995635986328125,0.347137451171875,-0.3414154052734375,1.108313992619289
1783078967.358989,-0.0625,-0.193359375,0.9721679091453552,0.9931790077687115,-1.117706298828125,0.102996826171875,-0.3414154052734375,1.1732178807022893
1783078967.369527,-0.0629882737994194,-0.1884765625,0.9648436903953552,0.9850960786358735,-0.995635986328125,-0.080108642578125,-0.4024505615234375,1.0768820113447055
1783078967.377537,-0.06689453125,-0.18408203125,0.9614257216453552,0.9811730177606676,-0.7495880126953125,0.0400543212890625,-0.2803802490234375,0.801311188910326
1783078967.385545,-0.0688476487994194,-0.18896484375,0.9663085341453552,0.9870156503727867,-0.995635986328125,0.164031982421875,-0.1583099365234375,1.0214007756658907
1783078967.393552,-0.07080078125,-0.20361328125,0.9667968153953552,0.9905388438550012,-0.995635986328125,0.102996826171875,-0.3414154052734375,1.057574509162869
1783078967.409565,-0.0595703087747097,-0.18603515625,0.9531249403953552,0.9729362019434397,-0.6866455078125,-0.080108642578125,-0.3414154052734375,0.7710148681918016
1783078967.417568,-0.0683593675494194,-0.18994140625,0.9780272841453552,0.9986431341939539,-0.7495880126953125,-0.0209808349609375,-0.4024505615234375,0.8510516075319382
1783078967.425572,-0.0615234337747097,-0.19482421875,0.9721679091453552,0.9934042745463856,-0.6275177001953125,-0.1430511474609375,-0.5855560302734375,0.870125255028201
1783078967.433574,-0.0561523400247097,-0.18896484375,0.9550780653953552,0.9752101868125901,-0.507354736328125,-0.202178955078125,-0.4024505615234375,0.6784184643872792
1783078967.444293,-0.0634765550494194,-0.1904296875,0.9819335341453552,1.0022405920743167,-0.4444122314453125,-0.1430511474609375,-0.6465911865234375,0.7975249367498671
1783078967.455011,-0.0546874962747097,-0.20166015625,0.9702147841453552,0.9924586985067888,-0.2613067626953125,-0.1430511474609375,-0.3414154052734375,0.4531107303719708
1783078967.465729,-0.0644531175494194,-0.1982421875,0.9755858778953552,0.9976081266787452,-0.1983642578125,-0.446319580078125,-0.4634857177734375,0.673326486125844
1783078967.47374,-0.0683593675494194,-0.19873046875,0.9765624403953552,0.9989199178774458,-0.141143798828125,-0.141143798828125,-0.5855560302734375,0.618642876371219
1783078967.48175,-0.0595703050494194,-0.197265625,0.9824218153953552,1.0038002647016122,0.041961669921875,-0.202178955078125,-0.4024505615234375,0.4523312570336534
1783078967.489762,-0.0576171837747097,-0.20458984375,0.9755858778953552,0.9984711058316255,0.164031982421875,-0.202178955078125,-0.8296966552734375,0.8695857409742079
1783078967.497772,-0.0693359300494194,-0.18310546875,0.9785155653953552,0.9979117173392479,0.041961669921875,0.041961669921875,-0.9517669677734375,0.9536151867655571
1783078967.508644,-0.0654296875,-0.19970703125,0.9707030653953552,0.9931910105840545,-0.019073486328125,0.102996826171875,-0.9517669677734375,0.9575137100986243
1783078967.519515,-0.0615234337747097,-0.185546875,0.9755858778953552,0.9949776785810562,0.1049041748046875,0.0400543212890625,-0.8296966552734375,0.8372608759026718
1783078967.530385,-0.06591796875,-0.18896484375,0.9755858778953552,0.9959019509602534,-0.263214111328125,0.591278076171875,-0.7686614990234375,1.004854184369417
1783078967.538226,-0.0615234337747097,-0.21337890625,0.9633788466453552,0.9886427528180299,-0.141143798828125,0.286102294921875,-0.6465911865234375,0.7210105807801883
1783078967.546068,-0.07470703125,-0.19921875,0.9677733778953552,0.9908857461043311,-0.1392364501953125,0.1621246337890625,-0.7076263427734375,0.7391929564945406
1783078967.55391,-0.078125,-0.19140625,0.9633788466453552,0.9853114585387696,0.041961669921875,0.408172607421875,-0.5855560302734375,0.7150115549987925
1783078967.561753,-0.0634765625,-0.1865234375,0.9814452528953552,1.0010269982145639,-0.019073486328125,-0.141143798828125,-0.5245208740234375,0.5435140450022007
1783078967.572389,-0.0693359375,-0.20556640625,0.9824218153953552,1.0060902757567283,-0.2613067626953125,0.1621246337890625,-0.1583099365234375,0.34587231330882323
1783078967.583025,-0.0605468712747097,-0.19384765625,0.9741210341453552,0.995065136872552,-0.0782012939453125,0.2231597900390625,-0.2803802490234375,0.366781703888627
1783078967.59366,-0.06640625,-0.181640625,0.9731444716453552,0.992176027418205,0.347137451171875,0.225067138671875,-0.0362396240234375,0.4152986121640801
1783078967.604317,-0.0786132737994194,-0.203125,0.9580077528953552,0.9824554275131623,0.4100799560546875,0.0400543212890625,-0.3414154052734375,0.5351022313257229
1783078967.614974,-0.0751953125,-0.2001953125,0.9633788466453552,0.9868289113786037,0.7762908935546875,0.3452301025390625,0.1468658447265625,0.8621954253313535
1783078967.625629,-0.0600585900247097,-0.2001953125,0.9746093153953552,0.9967690379612179,0.5321502685546875,-0.1430511474609375,-0.2193450927734375,0.5930934233630524
1783078967.633621,-0.07373046875,-0.201171875,0.9658202528953552,0.9893002912240338,0.652313232421875,0.041961669921875,-0.2803802490234375,0.7112569289488521
1783078967.641615,-0.0703125,-0.185546875,0.9755858778953552,0.9955597900816237,0.1049041748046875,-0.0209808349609375,0.0247955322265625,0.10981757484805894
1783078967.649607,-0.0849609375,-0.1904296875,0.9619140028953552,0.9842562551228171,0.347137451171875,-0.385284423828125,0.0858306884765625,0.5256571166977927
1783078967.6576,-0.07568359375,-0.193359375,0.9653319716453552,0.9874116009770265,0.5321502685546875,-0.5092620849609375,0.2079010009765625,0.765346069244916
1783078967.667216,-0.0732421875,-0.19091796875,0.9741210341453552,0.9953521376808449,-0.141143798828125,-0.446319580078125,0.4520416259765625,0.6507414011143616
1783078967.676832,-0.06494140625,-0.1767578125,0.9804686903953552,0.9983884831923371,0.2269744873046875,-0.5092620849609375,0.7572174072265625,0.940342220084212
1783078967.686448,-0.06591796875,-0.169921875,0.9775390028953552,0.9943847969419519,0.2880096435546875,-0.4482269287109375,1.0623931884765625,1.1885016707281209
1783078967.696064,-0.0712890625,-0.1982421875,0.9609374403953552,0.9837595537988391,0.3490447998046875,-0.8144378662109375,1.4896392822265625,1.733253155583854
1783078967.70568,-0.0820312425494194,-0.1923828125,0.9824218153953552,1.0044366055975444,0.2269744873046875,-0.4482269287109375,1.7337799072265625,1.8051087402733978
1783078967.715281,-0.0771484300494194,-0.19482421875,0.9521483778953552,0.9749332746395489,0.164031982421875,-0.324249267578125,1.9779205322265625,2.0110230507345284
1783078967.724882,-0.0727538987994194,-0.20458984375,0.9667968153953552,0.9908815349045345,0.164031982421875,-0.080108642578125,2.2220611572265625,2.2295469657147864
1783078967.734483,-0.0810546875,-0.1953125,0.9604491591453552,0.9834528063537123,0.2880096435546875,0.0400543212890625,3.0765533447265625,3.0902644524995955
1783078967.744085,-0.0722656175494194,-0.20654296875,0.9726561903953552,0.9969665902798689,0.530242919921875,-0.263214111328125,3.3206939697265625,3.3730472370110514
1783078967.753685,-0.0727538987994194,-0.19287109375,0.9814452528953552,1.0028594981480035,0.2880096435546875,0.0400543212890625,3.6258697509765625,3.6375108734519634
1783078967.763301,-0.0747070237994194,-0.19287109375,0.9711913466453552,0.9929718173282195,0.7152557373046875,0.2880096435546875,5.0907135009765625,5.148776968713329
1783078967.77292,-0.0737304612994194,-0.193359375,0.9741210341453552,0.9958593364467856,0.8983612060546875,0.1049041748046875,5.8841705322265625,5.953278138535013
1783078967.782538,-0.08056640625,-0.189453125,0.9692382216453552,0.9908613236404762,0.7781982421875,0.225067138671875,6.5555572509765625,6.605420394788287
1783078967.792157,-0.08935546875,-0.1875,0.9682616591453552,0.9902884884549796,0.7781982421875,-0.080108642578125,7.3490142822265625,7.390535895260196
1783078967.801776,-0.07080078125,-0.18359375,0.9682616591453552,0.9880536707262358,0.8983612060546875,0.2231597900390625,7.9593658447265625,8.013011780762218
1783078967.80972,-0.08984375,-0.201171875,0.9755858778953552,1.0001549019296607,0.5931854248046875,-0.0209808349609375,8.508682250976562,8.529360045848689
1783078967.817663,-0.0825195237994194,-0.1884765625,0.9682616591453552,0.9898805619825128,0.8983612060546875,0.1621246337890625,8.874893188476562,8.921718800785696
1783078967.825608,-0.06884765625,-0.18017578125,0.9858397841453552,1.0045314290374028,1.0814666748046875,0.1049041748046875,9.607315063476562,9.668561308876736
1783078967.833552,-0.080078125,-0.1962890625,0.9614257216453552,0.9845208582868809,0.957489013671875,-0.019073486328125,10.095596313476562,10.140917805300692
1783078967.844273,-0.0732421800494194,-0.19873046875,0.9653319716453552,0.9882934946809552,0.7762908935546875,-0.2002716064453125,10.522842407226562,10.553338267822644
1783078967.854995,-0.076171875,-0.19140625,0.9624022841453552,0.9842035681749356,1.018524169921875,0.041961669921875,11.011123657226562,11.05820945999813
1783078967.865717,-0.07568359375,-0.1923827975988388,0.9702147841453552,0.9919959045021753,1.018524169921875,-0.446319580078125,11.194229125976562,11.249327018854869
1783078967.876487,-0.068359375,-0.19580078125,0.9677733778953552,0.9897455536911934,0.8983612060546875,-0.2002716064453125,11.926651000976562,11.962113762708807
1783078967.887259,-0.083984375,-0.19140625,0.9653319716453552,0.9877021531129271,0.652313232421875,-0.141143798828125,12.414932250976562,12.432858759009461
1783078967.89803,-0.0654296875,-0.18603515625,0.9638671278953552,0.9838343171512929,0.5931854248046875,-0.1430511474609375,12.720108032226562,12.734735212422178
1783078967.90866,-0.07666015625,-0.1982421875,0.9750975966453552,0.9979940217479298,0.4100799560546875,-0.1430511474609375,12.964248657226562,12.971521593380956
1783078967.919291,-0.0649413987994194,-0.1884765625,0.9711913466453552,0.9914400797267882,0.530242919921875,0.102996826171875,13.269424438476562,13.280413804877007
1783078967.929923,-0.0624999962747097,-0.1865234375,0.9814452528953552,1.0009655472102839,0.5950927734375,-0.080108642578125,13.574600219726562,13.587874150470105
1783078967.93784,-0.0810546875,-0.18896484375,0.9667968153953552,0.9884197776237509,0.469207763671875,0.102996826171875,13.879776000976562,13.888086481188703
1783078967.945757,-0.0791015550494194,-0.19287109375,0.9609374403953552,0.9832889093085178,0.652313232421875,-0.385284423828125,13.635635375976562,13.656665359706986
1783078967.953676,-0.0712890625,-0.1787109375,0.9785155653953552,0.9972524461415221,0.652313232421875,-0.202178955078125,13.940811157226562,13.957528599452045
1783078967.961594,-0.07421875,-0.18017578125,0.9750975966453552,0.9943777239983598,0.4100799560546875,-0.2651214599609375,13.452529907226562,13.461389819172267
1783078967.972251,-0.0654296875,-0.185546875,0.9599608778953552,0.9799150850549421,0.4100799560546875,-0.3833770751953125,12.842178344726562,12.854442352350684
1783078967.982909,-0.0527343712747097,-0.18017578125,0.9819335341453552,0.9997188062360207,0.835418701171875,-0.690460205078125,12.720108032226562,12.766197869866303
1783078967.993567,-0.0629882737994194,-0.18505859375,0.9702147841453552,0.9897125507596518,0.347137451171875,-0.690460205078125,12.109756469726562,12.134390856606151
1783078968.001618,-0.0683593675494194,-0.19482421875,0.9750975966453552,0.9967170121588436,0.3490447998046875,-0.3261566162109375,11.499404907226562,11.5093233350582
1783078968.00967,-0.0610351525247097,-0.18603515625,0.9682616591453552,0.9878588005254559,0.5931854248046875,-0.7534027099609375,10.889053344726562,10.931192402289787
1783078968.017723,-0.07421875,-0.1904296875,0.9692382216453552,0.9905526836222094,0.652313232421875,-0.568389892578125,10.522842407226562,10.55835176296487
1783078968.025774,-0.0751953125,-0.19873046875,0.9697265028953552,0.9927324033440345,0.2899169921875,-0.873565673828125,10.095596313476562,10.137466832179102
1783078968.03639,-0.0512695275247097,-0.18505859375,0.9677733778953552,0.9866410484752398,0.347137451171875,-0.690460205078125,9.302139282226562,9.334186356118305
1783078968.047006,-0.0693359375,-0.17041015625,0.9682616591453552,0.9855849705393591,0.3490447998046875,-0.5092620849609375,8.935928344726562,8.957231465443831
1783078968.057622,-0.07373046875,-0.17724609375,0.9916991591453552,1.0101086981218077,0.408172607421875,-0.568389892578125,8.874893188476562,8.902437927573672
1783078968.068297,-0.06494140625,-0.19189453125,0.9584960341453552,0.9796711411702188,-0.019073486328125,-0.324249267578125,8.264541625976562,8.270921936090618
1783078968.078975,-0.0639648362994194,-0.189453125,0.9697265028953552,0.990128010548501,0.2880096435546875,-0.6885528564453125,8.020401000976562,8.055053495003328
1783078968.089653,-0.0698242112994194,-0.19384765625,0.9775390028953552,0.9990169350410679,0.225067138671875,-0.385284423828125,7.5931549072265625,7.606254055005877
1783078968.097641,-0.0825195237994194,-0.17822265625,0.9760741591453552,0.9956372588248196,0.7762908935546875,-0.2002716064453125,7.5931549072265625,7.635361007372405
1783078968.105633,-0.0722656175494194,-0.18994140625,0.9765624403953552,0.9974839634194417,0.2269744873046875,-0.1430511474609375,7.5321197509765625,7.53689650928871
1783078968.113624,-0.06982421875,-0.17919921875,0.9833983778953552,1.0020280191550903,0.469207763671875,-0.080108642578125,7.2269439697265625,7.2426026027715205
1783078968.121615,-0.07470703125,-0.1748046875,0.9736327528953552,0.9920174175894035,0.4100799560546875,0.0400543212890625,6.9217681884765625,6.934020823015882
1783078968.132381,-0.06982421875,-0.177734375,0.9697265028953552,0.9883493410724489,0.469207763671875,-0.324249267578125,6.5555572509765625,6.580320993982459
1783078968.143149,-0.06982421875,-0.1865234375,0.9775390028953552,0.9976216298990863,0.713348388671875,-0.385284423828125,6.4334869384765625,6.4843707634907695
1783078968.153915,-0.0673828050494194,-0.18408203125,0.9702147841453552,0.9898198644297215,0.469207763671875,-0.446319580078125,5.8231353759765625,5.859032573727576
1783078968.164463,-0.0751953125,-0.18017578125,0.9702147841453552,0.9896637684310964,0.7762908935546875,-0.6313323974609375,5.7010650634765625,5.788207926940145
1783078968.175012,-0.07470703125,-0.18505859375,0.9721679091453552,0.9924405610468405,0.652313232421875,-0.446319580078125,5.5789947509765625,5.634704619780687
1783078968.18556,-0.0791015550494194,-0.173828125,0.9648436903953552,0.9835632262076394,0.530242919921875,-0.751495361328125,5.6400299072265625,5.714528868300083
1783078968.196259,-0.0776367112994194,-0.189453125,0.9667968153953552,0.9882388515800498,0.2899169921875,-0.263214111328125,5.7621002197265625,5.775390244211572
1783078968.206958,-0.07861328125,-0.1708984375,0.9682616591453552,0.98636553290337,0.2880096435546875,-0.5092620849609375,5.7010650634765625,5.731006917109094
1783078968.217657,-0.0673828050494194,-0.19189453125,0.9721679091453552,0.9932141748444979,0.5931854248046875,-0.5092620849609375,5.9452056884765625,5.996389538520122
1783078968.225662,-0.080078125,-0.18994140625,0.9790038466453552,1.0004692777182842,0.164031982421875,-0.263214111328125,5.7621002197265625,5.770440806544367
1783078968.233669,-0.0776367112994194,-0.18701171875,0.9663085341453552,0.9872958143602978,0.530242919921875,-0.080108642578125,6.0062408447265625,6.030133002978014
1783078968.241674,-0.08154296875,-0.1796875,0.9780272841453552,0.9977345448272065,0.2880096435546875,-0.0209808349609375,5.7010650634765625,5.708373902278054
1783078968.24968,-0.0888671875,-0.18212890625,0.9765624403953552,0.9973677934929086,0.225067138671875,0.408172607421875,5.5789947509765625,5.5984321488952205
1783078968.260315,-0.076171875,-0.17724609375,0.9638671278953552,0.9829843195737613,-0.4444122314453125,0.1621246337890625,5.4569244384765625,5.477390889427391
1783078968.27095,-0.0722656175494194,-0.18896484375,0.9746093153953552,0.9953860302961177,-0.2613067626953125,0.3452301025390625,5.6400299072265625,5.656624647467737
1783078968.281585,-0.06591796875,-0.18994140625,0.9658202528953552,0.9865250515395955,-0.507354736328125,0.041961669921875,5.0907135009765625,5.116105311586369
1783078968.291178,-0.0654296875,-0.18994140625,0.9726561903953552,0.9931862093932742,-0.507354736328125,-0.202178955078125,5.1517486572265625,5.180617664486229
1783078968.300773,-0.08154296875,-0.17919921875,0.9614257216453552,0.9813771109998775,-0.5664825439453125,-0.2002716064453125,4.7855377197265625,4.823109210443886
1783078968.310366,-0.0698242112994194,-0.17333984375,0.9697265028953552,0.9875685355115946,-0.507354736328125,-0.202178955078125,4.2362213134765625,4.2712827318153685
1783078968.319961,-0.0703125,-0.19091796875,0.9697265028953552,0.9908395474876501,-0.507354736328125,-0.141143798828125,4.0531158447265625,4.08718466076537
1783078968.329554,-0.0810546875,-0.18701171875,0.9682616591453552,0.98948162483518,-0.629425048828125,-0.446319580078125,3.6258697509765625,3.7070619782653003
1783078968.340297,-0.0791015550494194,-0.1982421875,0.9736327528953552,0.9967536096882766,-0.5645751953125,-0.080108642578125,3.1375885009765625,3.188984814519851
1783078968.351039,-0.07666015625,-0.1826171875,0.9721679091453552,0.9921372184827743,-0.812530517578125,-0.385284423828125,2.4051666259765625,2.5677765533534704
1783078968.361782,-0.0791015625,-0.18505859375,0.9702147841453552,0.9908685420805765,-0.3833770751953125,-0.5092620849609375,2.2830963134765625,2.370412333239587
1783078968.372405,-0.0869140550494194,-0.18701171875,0.9672850966453552,0.9890237075556767,-0.6866455078125,-0.263214111328125,1.6727447509765625,1.8272489495744642
1783078968.383026,-0.064453125,-0.171875,0.9677733778953552,0.9850281883835872,-0.8716583251953125,-0.4482269287109375,1.4286041259765625,1.732514174331972
1783078968.393648,-0.07177734375,-0.1787109375,0.9760741591453552,0.9948921300368432,-0.6885528564453125,-0.5092620849609375,0.9403228759765625,1.2718726423595226
1783078968.401647,-0.0703125,-0.18115234375,0.9799804091453552,0.9990603693526563,-0.629425048828125,-0.568389892578125,-0.2193450927734375,0.8759881459249593
1783078968.409643,-0.064453125,-0.18017578125,0.9643554091453552,0.9831576031436765,-0.324249267578125,-0.629425048828125,-0.2803802490234375,0.7615290957407227
1783078968.41764,-0.0673828050494194,-0.185546875,0.9584960341453552,0.9786126571381384,-0.3833770751953125,-0.8716583251953125,-0.8907318115234375,1.3039054328161357
1783078968.425637,-0.06982421875,-0.1875,0.9809569716453552,1.0011534606361174,-0.3223419189453125,-0.9975433349609375,-1.2569427490234375,1.6367351930464902
1783078968.435317,-0.06982421875,-0.18701171875,0.9721679091453552,0.9924511313137431,-0.0782012939453125,-0.6313323974609375,-1.6231536865234375,1.7433656898462588
1783078968.444994,-0.06982421875,-0.18994140625,0.9653319716453552,0.9863158595566556,0.0438690185546875,-0.3261566162109375,-2.3555755615234375,2.3784530382443076
1783078968.454672,-0.0737304612994194,-0.17333984375,0.9663085341453552,0.9844973669425656,-0.2002716064453125,-0.6885528564453125,-2.6607513427734375,2.755687112234957
1783078968.46435,-0.0634765550494194,-0.18408203125,0.9780272841453552,0.9972225608171965,-0.1983642578125,-0.934600830078125,-3.3931732177734375,3.525117242897769
1783078968.474029,-0.06494140625,-0.1865234375,0.9624022841453552,0.9824594319923551,0.164031982421875,-0.690460205078125,-3.6373138427734375,3.705899860612136
1783078968.483552,-0.0546874962747097,-0.1767578125,0.9692382216453552,0.9867404809912443,0.1049041748046875,-0.3833770751953125,-5.2852630615234375,5.300187590753827
1783078968.493078,-0.06591796875,-0.1972656100988388,0.9755858778953552,0.997510252920061,-0.0782012939453125,-0.6313323974609375,-6.1397552490234375,6.172624284400384
1783078968.502603,-0.052734375,-0.1982421875,0.9765624403953552,0.9978752823887149,0.2899169921875,-0.934600830078125,-7.2994232177734375,7.364720625122971
1783078968.512127,-0.0556640587747097,-0.18017578125,0.9667968153953552,0.9850166911514356,0.7152557373046875,-0.8144378662109375,-8.214950561523438,8.286151853299561
1783078968.521652,-0.0498046800494194,-0.19287109375,0.9628905653953552,0.9832792105432379,0.713348388671875,-1.056671142578125,-9.374618530273438,9.460913931292485
1783078968.532309,-0.0581054612994194,-0.197265625,0.9760741591453552,0.9975022484138926,0.5931854248046875,-0.6313323974609375,-10.717391967773438,10.752345796856567
1783078968.542964,-0.03759765625,-0.19287109375,0.9741210341453552,0.993742739205792,0.5321502685546875,-0.8144378662109375,-11.754989624023438,11.795180117621761
1783078968.553621,-0.0502929650247097,-0.19189453125,0.9692382216453552,0.9893308969969979,0.530242919921875,-0.751495361328125,-13.219833374023438,13.251788455494182
1783078968.561606,-0.0683593675494194,-0.19873046875,0.9765624403953552,0.9989199178774458,0.2899169921875,-0.751495361328125,-13.891220092773438,13.914553273688998
1783078968.569592,-0.0419921837747097,-0.1806640625,0.9682616591453552,0.9858668711079042,0.2269744873046875,-1.1196136474609375,-15.172958374023438,15.215903455178598
1783078968.577576,-0.0556640587747097,-0.19140625,0.9638671278953552,0.9842635217336757,0.2269744873046875,-1.1768341064453125,-16.271591186523438,16.31567147479157
1783078968.585562,-0.0522460900247097,-0.1845703125,0.9663085341453552,0.9851639646989545,0.1049041748046875,-0.9365081787109375,-17.065048217773438,17.091048040702955
1783078968.596247,-0.0624999962747097,-0.19677734375,0.9682616591453552,0.9900294001283803,-0.141143798828125,-1.117706298828125,-17.675399780273438,17.71126608503407
1783078968.606934,-0.0620117150247097,-0.18701171875,0.9707030653953552,0.9904964800129651,-0.019073486328125,-1.056671142578125,-17.858505249023438,17.88974922772356
1783078968.61762,-0.0527343712747097,-0.1875,0.9663085341453552,0.9857430431283216,-0.3833770751953125,-0.9365081787109375,-18.224716186523438,18.252788982232474
1783078968.628272,-0.076171875,-0.177734375,0.9736327528953552,0.9926491827973487,-0.4444122314453125,-0.8144378662109375,-18.468856811523438,18.492146527483825
1783078968.638925,-0.06396484375,-0.19189453125,0.9648436903953552,0.9858186239138248,-0.2613067626953125,-0.8716583251953125,-18.957138061523438,18.978966066247477
1783078968.649576,-0.06640625,-0.1953125,0.9858397841453552,1.0071925549263523,-0.4444122314453125,-0.8144378662109375,-18.651962280273438,18.675023645878458
1783078968.657595,-0.0849609375,-0.1953125,0.9638671278953552,0.9871196349958651,-0.3833770751953125,-0.5092620849609375,-18.712997436523438,18.723851070554286
1783078968.665614,-0.06591796875,-0.1806640625,0.9702147841453552,0.9890912038115333,-0.507354736328125,-0.446319580078125,-18.285751342773438,18.29823248747748
1783078968.673633,-0.0742187425494194,-0.18896484375,0.9677733778953552,0.9888384321425138,-0.263214111328125,-0.263214111328125,-18.468856811523438,18.472607700629606
1783078968.681651,-0.0742187425494194,-0.18896484375,0.9775390028953552,0.9983980349042781,-0.141143798828125,-0.629425048828125,-18.468856811523438,18.48011821901028
1783078968.692411,-0.07421875,-0.18701171875,0.9604491591453552,0.981297301078736,-0.324249267578125,-0.629425048828125,-17.797470092773438,17.81154836567507
1783078968.70317,-0.0732421800494194,-0.1884765625,0.9838866591453552,1.004450491360533,-0.3833770751953125,-0.5092620849609375,-17.797470092773438,17.808881704254453
1783078968.713928,-0.0688476487994194,-0.18310546875,0.9731444716453552,0.9926115927820323,-0.1392364501953125,-0.8144378662109375,-17.492294311523438,17.511797626398508
1783078968.724466,-0.0693359375,-0.1904296875,0.9741210341453552,0.9949787571977443,-0.446319580078125,-0.873565673828125,-16.942977905273438,16.971352876321788
1783078968.735004,-0.08056640625,-0.1962890625,0.9731444716453552,0.9960072813825642,-0.3223419189453125,-0.9975433349609375,-16.820907592773438,16.85354352243045
1783078968.745542,-0.076171875,-0.18505859375,0.9628905653953552,0.9834668670520273,-0.2613067626953125,-0.8144378662109375,-16.149520874023438,16.172155537301368
1783078968.753564,-0.0615234337747097,-0.1904296875,0.9614257216453552,0.9820325946861799,-0.507354736328125,-0.690460205078125,-15.233993530273438,15.258070094336441
1783078968.761589,-0.0751953125,-0.18701171875,0.9697265028953552,0.990453031894727,-0.6866455078125,-1.056671142578125,-14.928817749023438,14.981910270072827
1783078968.769613,-0.07421875,-0.19140625,0.9731444716453552,0.9945626868551537,-0.4444122314453125,-0.9975433349609375,-14.013290405273438,14.055778275112047
1783078968.777637,-0.07421875,-0.18701171875,0.9687499403953552,0.9894231919746959,-0.507354736328125,-0.995635986328125,-13.708114624023438,13.753585219538627
1783078968.788373,-0.07666015625,-0.19580078125,0.9716796278953552,0.9941710238994299,-0.324249267578125,-1.239776611328125,-12.975692749023438,13.038818426168094
1783078968.79911,-0.0795898362994194,-0.19775390625,0.9814452528953552,1.004328598572265,-0.446319580078125,-0.934600830078125,-12.243270874023438,12.286999697804768
1783078968.809848,-0.07275390625,-0.1962890625,0.9716796278953552,0.9939737552866367,-0.5664825439453125,-0.9975433349609375,-11.816024780273438,11.871581056698206
1783078968.820482,-0.0751953125,-0.19482421875,0.9663085341453552,0.9886167075240362,-0.6885528564453125,-0.6885528564453125,-10.839462280273438,10.883113185008627
1783078968.831116,-0.0639648362994194,-0.19287109375,0.9672850966453552,0.9883983090229095,-0.3833770751953125,-0.8144378662109375,-10.168075561523438,10.207842457863155
1783078968.841752,-0.06298828125,-0.1962890625,0.9790038466453552,1.0004726140071802,-0.507354736328125,-0.629425048828125,-10.351181030273438,10.382703570942374
1783078968.849775,-0.0561523400247097,-0.185546875,0.9711913466453552,0.9903501198623317,-0.324249267578125,-0.812530517578125,-9.984970092773438,10.023221597026613
1783078968.857797,-0.0625,-0.20361328125,0.9682616591453552,0.9914107417575763,-0.4444122314453125,-1.1196136474609375,-9.252548217773438,9.330631568830773
1783078968.86582,-0.0600585900247097,-0.19091796875,0.9721679091453552,0.9925558667397185,-0.3833770751953125,-0.6885528564453125,-9.679794311523438,9.711822739903452
1783078968.873843,-0.0585937462747097,-0.20068359375,0.9604491591453552,0.9829393263095846,-0.507354736328125,-0.751495361328125,-9.008407592773438,9.053925196516172
1783078968.884451,-0.0585937425494194,-0.20263671875,0.9604491591453552,0.9833399482146213,-0.324249267578125,-1.117706298828125,-8.825302124023438,8.901705597145842
1783078968.895057,-0.0615234337747097,-0.1953125,0.9663085341453552,0.9877673251944641,-0.5664825439453125,-1.0547637939453125,-8.520126342773438,8.603835309350972
1783078968.905664,-0.0498046837747097,-0.1943359375,0.9780272841453552,0.9983908711835471,-0.2613067626953125,-1.1196136474609375,-8.764266967773438,8.839354695124282
1783078968.916373,-0.06201171875,-0.19873046875,0.9682616591453552,0.9903887585402209,-0.0782012939453125,-0.8716583251953125,-7.9708099365234375,8.018710290466776
1783078968.927083,-0.052734375,-0.20947265625,0.9628905653953552,0.9868221465646473,0.0438690185546875,-0.8144378662109375,-7.6045989990234375,7.648212828148511
1783078968.937793,-0.056640625,-0.203125,0.9721679091453552,0.994775537293435,-0.0782012939453125,-0.8716583251953125,-7.6045989990234375,7.6547912848232045
1783078968.948379,-0.0502929612994194,-0.20263671875,0.9707030653953552,0.9929025445178247,0.0438690185546875,-0.6313323974609375,-7.4214935302734375,7.448427438510978
1783078968.958966,-0.0493163987994194,-0.1845703125,0.9760741591453552,0.9945949283995988,-0.019073486328125,-0.507354736328125,-7.3604583740234375,7.37794823118779
1783078968.969553,-0.0605468712747097,-0.1962890625,0.9687499403953552,0.990288728954485,-0.0782012939453125,-0.3261566162109375,-6.9942474365234375,7.002284683157888
1783078968.977682,-0.0532226487994194,-0.197265625,0.9829100966453552,1.0039216280363963,-0.507354736328125,-0.446319580078125,-6.5670013427734375,6.601675289805144
1783078968.985811,-0.0673828050494194,-0.20263671875,0.9687499403953552,0.9920073231675757,-0.3833770751953125,-0.1430511474609375,-6.3838958740234375,6.396996806545136
1783078968.993941,-0.0595703087747097,-0.1865234375,0.9682616591453552,0.9878614553646917,-0.446319580078125,-0.263214111328125,-5.8956146240234375,5.918340530162352
1783078969.002069,-0.0541992150247097,-0.1875,0.9697265028953552,0.9891730360897177,-0.629425048828125,-0.263214111328125,-5.6514739990234375,5.692505241291615
1783078969.012583,-0.06494140625,-0.1875,0.9760741591453552,0.9960393568514447,-0.4444122314453125,-0.5092620849609375,-5.5904388427734375,5.631150553610423
1783078969.023098,-0.0532226525247097,-0.1962890625,0.9794921278953552,1.0003833642198703,-0.3223419189453125,-0.0209808349609375,-5.5904388427734375,5.599763473838427
1783078969.033612,-0.0493164025247097,-0.1875,0.9667968153953552,0.9860448467572759,-0.3833770751953125,-0.2002716064453125,-5.2242279052734375,5.242103003983343
1783078969.041802,-0.0703125,-0.2021484225988388,0.9760741591453552,0.9992640274555874,-0.5664825439453125,-0.1430511474609375,-5.2242279052734375,5.256797818978996
1783078969.049995,-0.0410156212747097,-0.20849609375,0.9672850966453552,0.9903501201543692,-0.6866455078125,-0.385284423828125,-4.7359466552734375,4.800949579222772
1783078969.058188,-0.0561523400247097,-0.20166015625,0.9628905653953552,0.9853822328601282,-0.446319580078125,-0.263214111328125,-4.4918060302734375,4.5215931096864725
1783078969.066381,-0.0419921875,-0.2021484375,0.9628905653953552,0.9847769166273718,-0.812530517578125,-0.385284423828125,-4.1255950927734375,4.222461935738037
1783078969.078197,-0.0600585862994194,-0.1982421875,0.9692382216453552,0.991125485996259,-0.507354736328125,-0.263214111328125,-3.8814544677734375,3.92331228457221
1783078969.090011,-0.0590820275247097,-0.19140625,0.9663085341453552,0.9868531915526434,-0.629425048828125,-0.385284423828125,-3.3321380615234375,3.4128820724411253
1783078969.101827,-0.0561523400247097,-0.1962890625,0.9760741591453552,0.997197696296322,-0.6866455078125,-0.202178955078125,-3.0879974365234375,3.1698716931842665
1783078969.113642,-0.0688476487994194,-0.2021484375,0.9780272841453552,1.0010701064668943,-0.507354736328125,-0.629425048828125,-2.9048919677734375,3.015291373151441
1783078969.121627,-0.0439453050494194,-0.19970703125,0.9648436903953552,0.9862745231741024,-0.6866455078125,-0.751495361328125,-2.4776458740234375,2.6786109102596702
1783078969.129611,-0.0493163987994194,-0.19384765625,0.9692382216453552,0.9896624431200833,-0.2613067626953125,-0.9365081787109375,-1.9893646240234375,2.2142493988570244
1783078969.137596,-0.0498046837747097,-0.1845703125,0.9682616591453552,0.986953568995605,-0.2613067626953125,-0.6313323974609375,-1.6841888427734375,1.8175131026863631
1783078969.145581,-0.0600585900247097,-0.205078125,0.9736327528953552,0.9968073079085343,-0.2613067626953125,-0.8144378662109375,-1.5621185302734375,1.7809560816516992
1783078969.156381,-0.0488281175494194,-0.18505859375,0.9594725966453552,0.978375455486046,-0.2613067626953125,-0.3833770751953125,-0.8907318115234375,1.0043218438705002
1783078969.167181,-0.06591796875,-0.19970703125,0.9682616591453552,0.9908373819682675,-0.5664825439453125,-0.5092620849609375,-0.3414154052734375,0.8347543487347279
1783078969.177981,-0.0375976525247097,-0.19677734375,0.9716796278953552,0.9921170322877894,-0.446319580078125,0.102996826171875,-0.0972747802734375,0.4682647719398063
1783078969.18856,-0.0556640550494194,-0.19775390625,0.9716796278953552,0.9931598027148172,-1.1768341064453125,-0.0209808349609375,0.2079010009765625,1.1952412039984448
1783078969.199137,-0.0537109337747097,-0.19189453125,0.9682616591453552,0.9885540026227826,-1.4209747314453125,-0.0209808349609375,0.3910064697265625,1.4739387511731161
1783078969.209715,-0.0468749962747097,-0.20458984375,0.9741210341453552,0.9964768229145221,-1.483917236328125,-0.324249267578125,0.5741119384765625,1.6238080150368661
1783078969.217708,-0.0454101525247097,-0.21044921875,0.9584960341453552,0.9823775257492288,-1.4209747314453125,-0.2002716064453125,0.5130767822265625,1.5239834934192127
1783078969.225701,-0.0454101487994194,-0.19287109375,0.9790038466453552,0.9988542797449029,-1.117706298828125,-0.385284423828125,0.8792877197265625,1.4733833010274597
1783078969.233696,-0.0449218675494194,-0.2080078125,0.9726561903953552,0.9956632407393416,-1.117706298828125,-0.263214111328125,0.6351470947265625,1.3122350668923284
1783078969.24169,-0.0571289025247097,-0.19921875,0.9736327528953552,0.9954459098142039,-0.6866455078125,-0.263214111328125,0.7572174072265625,1.0555292149477713
1783078969.252429,-0.0527343712747097,-0.19677734375,0.9726561903953552,0.9937616925809981,-0.324249267578125,-0.385284423828125,1.0013580322265625,1.1208477075295171
1783078969.263167,-0.0463867150247097,-0.20166015625,0.9648436903953552,0.9867836099395277,-0.507354736328125,-0.263214111328125,0.7572174072265625,0.9487195047450819
1783078969.273906,-0.0512695275247097,-0.19482421875,0.9663085341453552,0.9870852160914477,-0.2002716064453125,-0.2002716064453125,0.3299713134765625,0.43485457386788534
1783078969.284477,-0.0517578087747097,-0.1953125,0.9711913466453552,0.9919871346062045,-0.324249267578125,-0.385284423828125,0.3299713134765625,0.6020487874640797
1783078969.295048,-0.0517578087747097,-0.20068359375,0.9804686903953552,1.0021335382149215,-0.2613067626953125,-0.5092620849609375,0.5130767822265625,0.7686851630342744
1783078969.305617,-0.0517578087747097,-0.20458984375,0.9682616591453552,0.9909926919537424,-0.507354736328125,-0.263214111328125,0.3910064697265625,0.6925146613934358
1783078969.313632,-0.0424804650247097,-0.21435546875,0.9707030653953552,0.9949961296707074,-0.629425048828125,-0.690460205078125,0.0858306884765625,0.9382313648419428
1783078969.321651,-0.0424804650247097,-0.1953125,0.9804686903953552,1.0006350060889078,-0.2002716064453125,-0.5092620849609375,-0.0972747802734375,0.555804795233176
1783078969.329669,-0.0454101525247097,-0.19921875,0.9790038466453552,1.0000993570892254,-0.141143798828125,-0.629425048828125,0.0247955322265625,0.6455325572411668
1783078969.337687,-0.0380859375,-0.20849609375,0.9677733778953552,0.9907100840847683,0.0438690185546875,-0.5092620849609375,-0.0362396240234375,0.5124311390978038
1783078969.348407,-0.04150390625,-0.18798828125,0.9692382216453552,0.9881725043835153,0.164031982421875,-0.263214111328125,-0.3414154052734375,0.46125116652159315
1783078969.359127,-0.0483398362994194,-0.21533203125,0.9731444716453552,0.9978550927612803,0.041961669921875,-0.446319580078125,0.2079010009765625,0.4941505595573103
1783078969.369847,-0.0493164025247097,-0.19140625,0.9628905653953552,0.982968311302266,-0.019073486328125,-0.324249267578125,-0.2193450927734375,0.39193577934330975
1783078969.377805,-0.056640625,-0.19775390625,0.9643554091453552,0.9860507709978376,0.041961669921875,-0.080108642578125,0.2079010009765625,0.2267178920275125
1783078969.385764,-0.0517578087747097,-0.19677734375,0.9887694716453552,1.0094876234210601,0.3490447998046875,-0.0209808349609375,0.0858306884765625,0.36005468305621746
1783078969.393723,-0.0502929650247097,-0.20654296875,0.9599608778953552,0.9832162871721873,-0.019073486328125,0.102996826171875,-0.2193450927734375,0.2430728569914307
1783078969.401681,-0.0478515587747097,-0.2001953125,0.9560546278953552,0.9779613419477624,0.164031982421875,0.102996826171875,-0.2193450927734375,0.2926210983208792
1783078969.412309,-0.0419921875,-0.203125,0.9692382216453552,0.9911840594633703,0.041961669921875,0.041961669921875,-0.0362396240234375,0.06953325704024577
1783078969.422938,-0.0561523400247097,-0.19580078125,0.9672850966453552,0.9884996152860026,0.2269744873046875,0.1621246337890625,-0.0972747802734375,0.2954051415356695
1783078969.433565,-0.0483398400247097,-0.19140625,0.9785155653953552,0.9982313381144016,0.4100799560546875,0.2880096435546875,0.0247955322265625,0.5017269611618566
1783078969.444376,-0.0571289025247097,-0.19677734375,0.9624022841453552,0.9839731658156031,0.5321502685546875,0.3452301025390625,-0.0362396240234375,0.6353589870075954
1783078969.455186,-0.0424804650247097,-0.18505859375,0.9604491591453552,0.979037210902866,0.2269744873046875,0.5283355712890625,0.2689361572265625,0.6348090661296167
1783078969.465997,-0.0458984337747097,-0.19677734375,0.9746093153953552,0.995334771266271,0.2899169921875,0.591278076171875,0.1468658447265625,0.6747082347710063
1783078969.474015,-0.0449218712747097,-0.2001953125,0.9648436903953552,0.9864175001293937,0.469207763671875,0.041961669921875,-0.5245208740234375,0.7050098258314598
1783078969.482033,-0.0419921837747097,-0.19091796875,0.9575194716453552,0.9772699488216116,0.469207763671875,0.102996826171875,-0.5855560302734375,0.7573903460442497
1783078969.490052,-0.0444335862994194,-0.19921875,0.9663085341453552,0.9876308202487079,0.1049041748046875,0.2231597900390625,-0.8907318115234375,0.9242339194389889
1783078969.49807,-0.0380859375,-0.197265625,0.9692382216453552,0.9898419044171374,-0.2613067626953125,0.0400543212890625,-0.8296966552734375,0.870793955339701
1783078969.507627,-0.0405273400247097,-0.19970703125,0.9560546278953552,0.9775304676276301,-0.0782012939453125,0.2231597900390625,-0.9517669677734375,0.9807018380780385
1783078969.517185,-0.0424804650247097,-0.19140625,0.9741210341453552,0.9936562441871909,-0.141143798828125,-0.080108642578125,-1.0128021240234375,1.0257227251990328
1783078969.526744,-0.0498046800494194,-0.18896484375,0.9682616591453552,0.9877848241895615,-0.141143798828125,-0.141143798828125,-1.0738372802734375,1.092231499454361
1783078969.536302,-0.0541992150247097,-0.1953125,0.9716796278953552,0.9925955001068666,-0.1983642578125,-0.080108642578125,-1.0738372802734375,1.0949393946234043
1783078969.54586,-0.04296875,-0.1787109375,0.9711913466453552,0.9884313554605145,-0.263214111328125,-0.080108642578125,-1.1959075927734375,1.2271487413802462
1783078969.5539,-0.0532226487994194,-0.1904296875,0.9687499403953552,0.9887226927923614,-0.141143798828125,0.041961669921875,-1.1959075927734375,1.2049387221528838
1783078969.561941,-0.0478515587747097,-0.1953125,0.9672850966453552,0.9879661950318106,-0.3833770751953125,0.1621246337890625,-1.1959075927734375,1.266276963827309
1783078969.569983,-0.0439453050494194,-0.1923828125,0.9707030653953552,0.9905588208426777,-0.324249267578125,0.225067138671875,-1.2569427490234375,1.317458871751787
1783078969.578023,-0.04248046875,-0.19873046875,0.9746093153953552,0.9955710457271332,-0.1983642578125,0.102996826171875,-1.3790130615234375,1.3970088578213193
1783078969.588545,-0.0439453050494194,-0.20458984375,0.9692382216453552,0.9915699291022225,-0.324249267578125,0.102996826171875,-1.3790130615234375,1.420360150658513
1783078969.599066,-0.0410156212747097,-0.1943359375,0.9731444716453552,0.9932063735631542,-0.4444122314453125,0.1621246337890625,-1.4400482177734375,1.5157590500643212
1783078969.609586,-0.0356445275247097,-0.1953125,0.9619140028953552,0.9821894185771273,-0.629425048828125,0.286102294921875,-2.1114349365234375,2.221753340590171
1783078969.62024,-0.0361328087747097,-0.20654296875,0.9785155653953552,1.000728879133107,-0.6275177001953125,-0.1430511474609375,-2.1114349365234375,2.2073512602257117
1783078969.630893,-0.024902336299419403,-0.19873046875,0.9697265028953552,0.9901936254997905,-0.6885528564453125,-0.1430511474609375,-2.8438568115234375,2.929520478057312
1783078969.641546,-0.0419921837747097,-0.19970703125,0.9731444716453552,0.9943120257357723,-0.5664825439453125,0.0400543212890625,-3.5152435302734375,3.560820677649738
1783078969.649565,-0.0283203125,-0.20263671875,0.9648436903953552,0.9862996637845886,-1.117706298828125,-0.263214111328125,-4.1866302490234375,4.34124658144183
1783078969.657584,-0.0410156212747097,-0.18994140625,0.9721679091453552,0.9913982361134347,-0.9937286376953125,-0.5092620849609375,-5.7125091552734375,5.820618981314391
1783078969.665604,-0.0336913987994194,-0.2041015625,0.9667968153953552,0.9886802518643747,-1.3599395751953125,-0.6313323974609375,-6.3228607177734375,6.4981985119438
1783078969.673623,-0.0341796800494194,-0.20263671875,0.9628905653953552,0.9845751018797063,-1.117706298828125,-1.117706298828125,-7.4214935302734375,7.587957627765895
1783078969.68426,-0.024902336299419403,-0.19384765625,0.9614257216453552,0.9810894242769512,-1.2378692626953125,-0.9975433349609375,-8.153915405273438,8.307451441507576
1783078969.694896,-0.0322265587747097,-0.20458984375,0.9707030653953552,0.9925522638249578,-0.812530517578125,-1.056671142578125,-8.764266967773438,8.865051338145637
1783078969.705534,-0.03759765625,-0.20263671875,0.9697265028953552,0.991385250020856,-0.995635986328125,-1.117706298828125,-9.435653686523438,9.553644272198698
1783078969.713554,-0.0419921875,-0.20703125,0.9628905653953552,0.9857908110826478,-1.1749267578125,-1.056671142578125,-9.923934936523438,10.04895474236657
1783078969.721575,-0.0410156212747097,-0.20361328125,0.9726561903953552,0.9945856997787308,-1.2378692626953125,-0.8716583251953125,-10.351181030273438,10.461312406619964
1783078969.729596,-0.037109375,-0.20361328125,0.9604491591453552,0.9824958327226136,-0.8716583251953125,-0.6885528564453125,-10.534286499023438,10.59269018311726
1783078969.737617,-0.0390624925494194,-0.208984375,0.9682616591453552,0.9913278912091751,-1.1157989501953125,-0.6313323974609375,-10.900497436523438,10.97562901418387
1783078969.748266,-0.0336913987994194,-0.1982421875,0.9707030653953552,0.9913120176946237,-0.8697509765625,-0.751495361328125,-11.144638061523438,11.203756939602268
1783078969.758914,-0.0356445275247097,-0.2041015625,0.9580077528953552,0.9801565358477232,-1.1768341064453125,-0.6313323974609375,-11.205673217773438,11.284973698405398
1783078969.769562,-0.0449218712747097,-0.1962890625,0.9741210341453552,0.9947156175210917,-1.1749267578125,-0.934600830078125,-11.388778686523438,11.487306541065971
1783078969.780246,-0.0458984337747097,-0.2119140475988388,0.9638671278953552,0.9879544878332885,-0.8716583251953125,-0.6885528564453125,-11.266708374023438,11.321334323183427
1783078969.790929,-0.0468749962747097,-0.20556640625,0.9746093153953552,0.9971550181941106,-0.995635986328125,-0.568389892578125,-11.266708374023438,11.324887446352234
1783078969.801614,-0.0390624962747097,-0.21142578125,0.9667968153953552,0.9904154794080033,-0.812530517578125,-0.568389892578125,-11.205673217773438,11.249461550470123
1783078969.80968,-0.0522460900247097,-0.201171875,0.9624022841453552,0.9845902364649382,-0.6885528564453125,-0.8144378662109375,-11.388778686523438,11.438605423942542
1783078969.817745,-0.0400390587747097,-0.2060546875,0.9628905653953552,0.9855048966878217,-0.812530517578125,-0.568389892578125,-10.717391967773438,10.76316698295048
1783078969.825811,-0.0488281175494194,-0.205078125,0.9619140028953552,0.9847435053774668,-0.934600830078125,-0.751495361328125,-11.022567749023438,11.087615783904672
1783078969.833878,-0.0507812425494194,-0.2177734375,0.9716796278953552,0.9970783840512667,-0.812530517578125,-0.629425048828125,-10.534286499023438,10.584307902626206
1783078969.844488,-0.0434570237994194,-0.19970703125,0.9726561903953552,0.9938971153809619,-1.0547637939453125,-0.6885528564453125,-10.290145874023438,10.36695393092004
1783078969.855099,-0.0444335862994194,-0.19384765625,0.9726561903953552,0.9927795939378748,-0.995635986328125,-0.751495361328125,-10.046005249023438,10.123154535952503
1783078969.86571,-0.0454101487994194,-0.2080078125,0.9726561903953552,0.9956853902661352,-0.9937286376953125,-0.5092620849609375,-9.374618530273438,9.440885396227445
1783078969.874059,-0.0385742112994194,-0.21826171875,0.9711913466453552,0.9961620246967332,-0.507354736328125,-0.385284423828125,-8.275985717773438,8.300469415431218
1783078969.88241,-0.0532226487994194,-0.22314453125,0.9760741591453552,1.0026698840213166,-0.2613067626953125,-0.2002716064453125,-6.9942474365234375,7.0019916555143915
1783078969.890759,-0.0566406212747097,-0.20556640625,0.9780272841453552,1.0010010369073874,0.041961669921875,-0.080108642578125,-5.9566497802734375,5.957336215221526
1783078969.899109,-0.076171875,-0.2109375,0.9770507216453552,1.0024594236750808,0.225067138671875,-0.080108642578125,-4.4307708740234375,4.437206683220883
1783078969.909266,-0.0576171875,-0.20849609375,0.9726561903953552,0.9964188005647145,0.164031982421875,0.164031982421875,-3.2711029052734375,3.2793180997583664
1783078969.919424,-0.07568359375,-0.19189453125,0.9692382216453552,0.9909461376809655,0.2899169921875,0.408172607421875,-1.2569427490234375,1.3529825623899279
1783078969.92958,-0.0795898362994194,-0.203125,0.9736327528953552,0.9977750473818014,0.652313232421875,0.408172607421875,0.8792877197265625,1.1684452596096169
1783078969.937612,-0.0966796800494194,-0.2041015625,0.9624022841453552,0.9885456817353443,0.957489013671875,0.896453857421875,3.4427642822265625,3.6841607772685325
1783078969.945642,-0.0942382737994194,-0.20849609375,0.9619140028953552,0.9887517495933287,1.2645721435546875,0.2880096435546875,6.7996978759765625,6.922281666155688
1783078969.953673,-0.1210937350988388,-0.21630859375,0.9614257216453552,0.9928708469139289,1.140594482421875,-1.361846923828125,10.583877563476562,10.731917214362676
1783078969.961704,-0.1137695237994194,-0.20703125,0.9858397841453552,1.0137482542652636,1.445770263671875,-2.399444580078125,13.940811157226562,14.21948668797987
1783078969.972422,-0.099609375,-0.224609375,0.9873046278953552,1.0174191993418285,1.8749237060546875,-1.4247894287109375,16.565322875976562,16.73186438520958
1783078969.983141,-0.1040038987994194,-0.20263671875,0.9682616591453552,0.9946904500004825,2.117156982421875,-0.934600830078125,19.495010375976562,19.63189399826808
1783078969.993859,-0.10546875,-0.2099609375,0.9780272841453552,1.0058551690154904,2.4852752685546875,-0.9975433349609375,22.668838500976562,22.826474209762925
1783078970.004434,-0.115234375,-0.205078125,0.9780272841453552,1.0059191652751704,2.9125213623046875,-0.9975433349609375,26.147842407226562,26.328454871947233
1783078970.015012,-0.130859375,-0.212890625,0.9858397841453552,1.0170185220742254,3.948211669921875,-0.934600830078125,29.626846313476562,29.90337567206167
1783078970.025589,-0.140625,-0.19775390625,0.9916991591453552,1.0209550530320806,4.4994354248046875,-1.6078948974609375,33.47206115722656,33.81137564868344
1783078970.033581,-0.13818359375,-0.2099609375,0.9848632216453552,1.01643192895895,5.7811737060546875,-2.1572113037109375,42.26112365722656,42.709227373014265
1783078970.041574,-0.13525390625,-0.21337890625,0.9755858778953552,1.0077658368575415,6.0272216796875,-2.521514892578125,46.47254943847656,46.92955667637653
1783078970.049568,-0.1484375,-0.22119140625,0.9653319716453552,1.001411576269124,5.901336669921875,-2.887725830078125,51.66053771972656,52.07663480345822
1783078970.057563,-0.1455078125,-0.21435546875,0.9589843153953552,0.9933638344815385,6.206512451171875,-2.887725830078125,56.29920959472656,56.71384979233206
1783078970.065567,-0.14501953125,-0.21337890625,0.9624022841453552,0.9963831484949016,6.3323974609375,-3.009796142578125,61.18202209472656,61.5824484575173
1783078970.073573,-0.15576171875,-0.2197265625,0.9643554091453552,1.0012606206397643,6.1473846435546875,-2.7065277099609375,65.88172912597656,66.22324261789925
1783078970.081578,-0.1474609375,-0.21240234375,0.9780272841453552,1.0116307885051796,6.206512451171875,-2.704620361328125,70.27626037597656,70.60161854049463
1783078970.089583,-0.13720703125,-0.21923828125,0.9633788466453552,0.9974918523745582,6.5746307373046875,-2.2792816162109375,74.18251037597656,74.50815888008358
1783078970.100237,-0.126953125,-0.2080078125,0.9692382216453552,0.9994033601637287,6.694793701171875,-1.911163330078125,78.02772521972656,78.33772214546858
1783078970.11089,-0.1494140625,-0.1982421875,0.9726561903953552,1.0038349424541588,7.0037841796875,-1.361846923828125,81.50672912597656,81.81842404186784
1783078970.121544,-0.134765625,-0.2041015625,0.9716796278953552,1.0019882837455925,7.061004638671875,-1.911163330078125,84.92469787597656,85.23916142893171
1783078970.132254,-0.1191406175494194,-0.21337890625,0.9697265028953552,1.0000472662830286,7.5511932373046875,-1.9741058349609375,88.28163146972656,88.62597851708809
1783078970.142964,-0.1201171875,-0.2138671875,0.9804686903953552,1.0106859875686678,7.549285888671875,-2.094268798828125,91.08924865722656,91.42553746174367
1783078970.153675,-0.1225585862994194,-0.21435546875,0.9746093153953552,1.00540150771428,7.4920654296875,-2.216339111328125,93.28651428222656,93.61312381491807
1783078970.164315,-0.1147460862994194,-0.21728515625,0.9746093153953552,1.0051083628659268,8.220672607421875,-2.582550048828125,97.00965881347656,97.39159576667922
1783078970.174957,-0.0932617112994194,-0.20458984375,0.9721679091453552,0.9978302433441257,8.342742919921875,-2.460479736328125,98.29139709472656,98.67549879678343
1783078970.185598,-0.1005859375,-0.208984375,0.9604491591453552,0.9880559635566775,8.525848388671875,-2.399444580078125,99.14588928222656,99.54071923892761
1783078970.193582,-0.0703125,-0.20849609375,0.9682616591453552,0.992947687109535,8.342742919921875,-2.399444580078125,99.63417053222656,100.0116324802549
1783078970.201564,-0.0786132737994194,-0.2080078125,0.9775390028953552,1.0025117450983518,8.405685424804688,-1.6689300537109375,99.51210021972656,99.8804233327325
1783078970.209548,-0.0781249925494194,-0.203125,0.9677733778953552,0.9919418284601335,8.708953857421875,-0.690460205078125,98.84071350097656,99.22605130694072
1783078970.217531,-0.0839843675494194,-0.19775390625,0.9790038466453552,1.0023016078886693,8.405685424804688,-0.2002716064453125,98.59657287597656,98.9544331450839
1783078970.228231,-0.0830078050494194,-0.20263671875,0.9897460341453552,1.0136809890647784,8.708953857421875,-0.385284423828125,97.68104553222656,98.06926622365881
1783078970.238932,-0.0654296875,-0.19091796875,0.9819335341453552,1.0024590666342248,8.6517333984375,-0.446319580078125,96.94862365722656,97.33492343961518
1783078970.249634,-0.07080078125,-0.1977538913488388,0.9829100966453552,1.0051027859162467,9.014129638671875,-0.263214111328125,95.84999084472656,96.2732806117323
1783078970.260257,-0.0615234337747097,-0.18505859375,0.9648436903953552,0.9843552016014782,8.893966674804688,0.8335113525390625,92.92030334472656,93.34870196239126
1783078970.270885,-0.0644531175494194,-0.18359375,0.9750975966453552,0.9943219762151743,9.260177612304688,1.1386871337890625,90.90614318847656,91.38366575709189
1783078970.281511,-0.06982421875,-0.1708984375,0.9692382216453552,0.9866632798286556,9.260177612304688,0.3452301025390625,89.74647521972656,90.2236104775248
1783078970.292237,-0.0732421875,-0.16650390625,0.9848632216453552,1.0015206109591366,9.380340576171875,-0.080108642578125,87.79335021972656,88.29308891143833
1783078970.30296,-0.08056640625,-0.1611328125,0.9804686903953552,0.9968819297819492,9.748458862304688,-0.1430511474609375,85.96229553222656,86.5134045509174
1783078970.313682,-0.07373046875,-0.16064453125,0.9858397841453552,1.0015602465385631,10.051727294921875,-0.385284423828125,84.37538146972656,84.97288193218233
1783078970.321736,-0.0732421800494194,-0.15771484375,0.9863280653953552,1.0015395356470072,10.663986206054688,0.1621246337890625,80.71327209472656,81.41485846230509
1783078970.329793,-0.06884765625,-0.1455078125,0.9755858778953552,0.9887771884598189,10.725021362304688,0.1621246337890625,78.57704162597656,79.30576169679746
1783078970.337851,-0.07666015625,-0.15283203125,0.9868163466453552,1.00151930153081,11.030197143554688,0.5283355712890625,77.17323303222656,77.95929889466629
1783078970.345907,-0.0751953125,-0.1474609375,0.9848632216453552,0.9986764383222524,11.030197143554688,0.7762908935546875,75.09803771972656,75.90772784065251
1783078970.353851,-0.0810546875,-0.1474609375,0.9770507216453552,0.9914346691143149,11.091232299804688,0.5283355712890625,73.26698303222656,74.1036124291434
1783078970.361796,-0.06689453125,-0.140625,0.9775390028953552,0.9898650267171796,11.213302612304688,0.5283355712890625,71.31385803222656,72.19199153224389
1783078970.36974,-0.0737304612994194,-0.125,0.9707030653953552,0.9814915293018909,11.150360107421875,0.225067138671875,69.11659240722656,70.01060299503771
1783078970.385656,-0.0966796800494194,-0.123046875,0.9721679091453552,0.9846816427423511,10.967254638671875,-0.263214111328125,67.71278381347656,68.59570721079042
1783078970.393625,-0.0874023362994194,-0.12744140625,0.9711913466453552,0.983408924210266,11.150360107421875,-0.690460205078125,66.24794006347656,67.18330766249876
1783078970.401594,-0.0888671875,-0.1083984375,0.9785155653953552,0.9885040768694853,10.967254638671875,-0.690460205078125,64.41688537597656,65.34747532342753
1783078970.409563,-0.1142578125,-0.12548828125,0.9692382216453552,0.9839841902930224,11.274337768554688,-0.9975433349609375,63.37928771972656,64.38198425557002
1783078970.42023,-0.1127929612994194,-0.1142578125,0.9833983778953552,0.9964183205276754,11.030197143554688,-1.1768341064453125,62.58583068847656,63.561280592090256
1783078970.430898,-0.1127929612994194,-0.09912109375,0.9750975966453552,0.9865913877226156,11.213302612304688,-1.3027191162109375,61.42616271972656,62.45485328652359
1783078970.441566,-0.1127929612994194,-0.09814453125,0.9687499403953552,0.9802198978540371,11.211395263671875,-1.056671142578125,60.93788146972656,61.96964850376582
1783078970.449595,-0.1044921875,-0.09375,0.9702147841453552,0.9803185232988069,11.152267456054688,-0.9975433349609375,60.02235412597656,61.05776901378429
1783078970.457623,-0.1069335862994194,-0.0830078125,0.9731444716453552,0.9825147589267085,10.478973388671875,-0.568389892578125,58.49647521972656,59.43037576427194
1783078970.46565,-0.1005859375,-0.0888671875,0.9687499403953552,0.9780037601425254,10.723114013671875,-0.568389892578125,57.21473693847656,58.21369567515247
1783078970.473679,-0.1118163987994194,-0.0908203125,0.9682616591453552,0.9789187283804435,10.541915893554688,-0.6313323974609375,55.87196350097656,56.861295067535366
1783078970.484312,-0.1127929612994194,-0.08349609375,0.9824218153953552,0.9923943133426887,10.478973388671875,-1.239776611328125,55.13954162597656,56.140136979253015
1783078970.494945,-0.126953125,-0.0849609375,0.9770507216453552,0.9889204060569556,10.478973388671875,-1.728057861328125,54.28504943847656,55.31420848019463
1783078970.505578,-0.12353515625,-0.0732421875,0.9785155653953552,0.9889985159647555,10.295867919921875,-1.789093017578125,53.73573303222656,54.74244015899134
1783078970.516229,-0.1254882663488388,-0.0869140625,0.9785155653953552,0.9903504788570977,10.358810424804688,-2.0961761474609375,52.94227600097656,53.986882629225825
1783078970.526884,-0.12890625,-0.08984375,0.9902343153953552,1.0026229201896557,10.478973388671875,-1.850128173828125,52.88124084472656,53.941241094528614
1783078970.537538,-0.1245117112994194,-0.076171875,0.9931640028953552,1.0038326839861564,10.419845581054688,-1.3027191162109375,52.39295959472656,53.434936830910694
1783078970.545561,-0.1225585862994194,-0.0576171875,0.9716796278953552,0.9810716827214913,10.173797607421875,-0.934600830078125,52.20985412597656,53.20007992779821
1783078970.553584,-0.119140625,-0.0483398400247097,0.9726561903953552,0.9811173698255529,9.990692138671875,-0.568389892578125,51.41639709472656,52.381131017593646
1783078970.561606,-0.11376953125,-0.0541992150247097,0.9873046278953552,0.9953147690121579,9.748458862304688,0.0400543212890625,50.92811584472656,51.85274378499743
1783078970.577617,-0.1152343675494194,-0.05126953125,0.9833983778953552,0.9914534250010564,9.077072143554688,0.0400543212890625,49.46327209472656,50.28926455382805
1783078970.585605,-0.1025390550494194,-0.0478515625,0.9848632216453552,0.9913423198844017,9.197235107421875,0.286102294921875,48.48670959472656,49.35212250215488
1783078970.593594,-0.1069335862994194,-0.06005859375,0.9643554091453552,0.9721230280730873,9.260177612304688,0.2231597900390625,47.69325256347656,48.58443196937557
1783078970.601582,-0.1108398362994194,-0.0576171875,0.9741210341453552,0.98209826329686,9.260177612304688,0.4673004150390625,46.22840881347656,47.14907253080639
1783078970.612274,-0.1142578125,-0.0541992150247097,0.9677733778953552,0.9760008778631123,8.892059326171875,0.225067138671875,45.55702209472656,46.41725580445783
1783078970.622967,-0.1069335862994194,-0.04150390625,0.9746093153953552,0.9813361726586192,8.588790893554688,-0.3833770751953125,44.09217834472656,44.92253886612117
1783078970.63366,-0.1113281175494194,-0.04833984375,0.9750975966453552,0.9826220093374765,8.283615112304688,-0.9365081787109375,42.74940490722656,43.55464322916217
1783078970.641639,-0.1020507737994194,-0.03369140625,0.9765624403953552,0.9824579743068375,7.9174041748046875,-1.1768341064453125,41.46766662597656,42.23313394462265
1783078970.649618,-0.0981445237994194,-0.0341796875,0.9819335341453552,0.9874178771262955,7.671356201171875,-1.483917236328125,40.00282287597656,40.75877272902465
1783078970.657598,-0.0986328050494194,-0.0263671875,0.9677733778953552,0.9731438587236539,7.2460174560546875,-2.0961761474609375,38.90419006347656,39.628710903961306
1783078970.665579,-0.09521484375,-0.0346679650247097,0.9770507216453552,0.9822911212756638,6.755828857421875,-2.216339111328125,37.68348693847656,38.34838419607156
1783078970.673563,-0.1079101487994194,-0.02099609375,0.9770507216453552,0.9832159217762805,6.3915252685546875,-2.4623870849609375,36.03553771972656,36.680715971264675
1783078970.681546,-0.10546875,-0.0258789025247097,0.9726561903953552,0.978699872042932,6.206512451171875,-2.460479736328125,34.81483459472656,35.44922376015591
1783078970.689531,-0.1132812425494194,-0.02734375,0.9736327528953552,0.9805819996758001,5.901336669921875,-2.704620361328125,33.34999084472656,33.9759125724979
1783078970.697515,-0.1127929612994194,-0.029296875,0.9926757216453552,0.9994926949946081,5.779266357421875,-2.887725830078125,32.00721740722656,32.652731068827855
1783078970.70821,-0.1079101487994194,-0.037109375,0.9882811903953552,0.994847434140564,5.8422088623046875,-2.6454925537109375,31.457901000976562,32.10497734977824
1783078970.718904,-0.1064453050494194,-0.03076171875,0.9887694716453552,0.9949582676501326,5.1708221435546875,-2.9506683349609375,30.359268188476562,30.937501680049436
1783078970.729599,-0.10986328125,-0.0273437537252903,0.9887694716453552,0.9952299681443686,5.5389404296875,-2.704620361328125,29.260635375976562,29.902836236524262
1783078970.740251,-0.1181640550494194,-0.03125,0.9785155653953552,0.9861196773854144,5.596160888671875,-2.887725830078125,27.124404907226562,27.84581330708043
1783078970.750902,-0.109375,-0.0283203162252903,0.9814452528953552,0.9879269787625643,5.4759979248046875,-2.8896331787109375,26.453018188476562,27.16797203436142
1783078970.761554,-0.1040038987994194,-0.01611328125,0.9819335341453552,0.9875575498558598,5.6591033935546875,-3.0078887939453125,26.086807250976562,26.86250842280533
1783078970.769773,-0.1108398362994194,-0.01953125,0.9858397841453552,0.9922434273106601,5.413055419921875,-2.765655517578125,25.171279907226562,25.89485183562562
1783078970.777993,-0.1108398362994194,-0.00634765625,0.9682616591453552,0.9746057677962234,5.1708221435546875,-3.0727386474609375,24.316787719726562,25.049656473535123
1783078970.786214,-0.1108398362994194,-0.01025390625,0.9853515028953552,0.9916189773105399,5.2318572998046875,-2.6454925537109375,23.828506469726562,24.53912553933127
1783078970.794436,-0.1162109300494194,-0.01513671875,0.9770507216453552,0.9840539686344327,4.9877166748046875,-3.0727386474609375,23.340225219726562,24.064188200130182
