timestamp,accel_x,accel_y,accel_z,accel_rms,gyro_x,gyro_y,gyro_z,gyro_rms
1785940364.236326,0.07666015625,-0.341796875,0.9252929091453552,0.9893780122029773,-0.0667572021484375,0.0972747802734375,-0.0476837158203125,0.12725031894013158
1785940364.247154,0.06982421875,-0.3603515625,0.9218749403953552,0.9922610925805663,-0.0057220458984375,-0.0247955322265625,0.0171661376953125,0.03069587123762337
1785940364.257982,0.09228515625,-0.34619140625,0.9213866591453552,0.9885941611583989,-0.1277923583984375,0.2193450927734375,-0.2307891845703125,0.3430842524853806
1785940364.266005,0.0751953125,-0.36181640625,0.9189452528953552,0.9904674778469741,0.179290771484375,-0.026702880859375,0.1392364501953125,0.22857168164198313
1785940364.274026,0.08349609375,-0.36181640625,0.9165038466453552,0.9888690562551276,0.1163482666015625,-0.0858306884765625,0.1392364501953125,0.20072522334908666
1785940364.282048,0.08837890625,-0.365234375,0.9213866591453552,0.9950680154655891,-0.0667572021484375,0.0362396240234375,-0.3490447998046875,0.35721437073379597
1785940364.290071,0.087890625,-0.35009765625,0.9355468153953552,1.0027666601313712,0.05340576171875,0.156402587890625,-0.1659393310546875,0.2342003554107503
1785940364.300642,0.09814453125,-0.34521484375,0.9311522841453552,0.9979229497454859,-0.0057220458984375,0.1583099365234375,0.0171661376953125,0.15934068562264023
1785940364.311213,0.09228515625,-0.35791015625,0.9267577528953552,0.9977455399863407,0.1773834228515625,0.0362396240234375,-0.1049041748046875,0.2092440559331346
1785940364.321784,0.0830078125,-0.35009765625,0.9199218153953552,0.9877827758612033,-0.06866455078125,-0.026702880859375,-0.1659393310546875,0.18155915281543372
1785940364.332334,0.09423828125,-0.3466796875,0.9228515028953552,0.990314372194137,-0.1888275146484375,-0.1468658447265625,0.0171661376953125,0.23983344829053155
1785940364.342886,0.08203125,-0.3544921875,0.9184569716453552,0.9879053829892084,-0.1888275146484375,-0.4520416259765625,0.3223419189453125,0.5864313895190014
1785940364.353438,0.0888671875,-0.34912109375,0.9213866591453552,0.9893110182174236,-0.3108978271484375,0.4024505615234375,0.2002716064453125,0.5465643875558817
1785940364.361549,0.07568359375,-0.35400390625,0.9287108778953552,0.9967701172910107,-0.2498626708984375,0.3414154052734375,0.0743865966796875,0.42956861970133825
1785940364.369662,0.09521484375,-0.35498046875,0.9306640028953552,1.000606059320806,-0.12969970703125,0.339508056640625,-0.0476837158203125,0.36655350398314057
1785940364.377774,0.083984375,-0.3564453125,0.9306640028953552,1.0001210538392684,0.05340576171875,0.278472900390625,-0.1659393310546875,0.3285349193428364
1785940364.385887,0.07763671875,-0.3505859375,0.9130858778953552,0.9811543100261814,0.1773834228515625,0.0972747802734375,-0.1049041748046875,0.22788625994393388
1785940364.396423,0.076171875,-0.34619140625,0.9257811903953552,0.991323083960123,0.2384185791015625,0.0362396240234375,-0.3490447998046875,0.42425110663481186
1785940364.406958,0.07763671875,-0.35302734375,0.9248046278953552,0.9929347235896797,0.6046295166015625,0.1583099365234375,0.0743865966796875,0.6294221588993197
1785940364.417492,0.08251953125,-0.34765625,0.9165038466453552,0.9836938762224329,0.4215240478515625,0.0972747802734375,-0.0476837158203125,0.43522252072801126
1785940364.428117,0.083984375,-0.35546875,0.9111327528953552,0.9816182052454873,-0.1888275146484375,-0.1468658447265625,-0.1659393310546875,0.29113788524757445
1785940364.438744,0.083984375,-0.36279296875,0.9121093153953552,0.9851982118586913,0.2384185791015625,-0.2689361572265625,-0.2307891845703125,0.4271226091407807
1785940364.449371,0.08642578125,-0.34814453125,0.9316405653953552,0.9983126631442337,-0.1888275146484375,0.0972747802734375,-0.1049041748046875,0.23690314277570032
1785940364.457387,0.083984375,-0.34912109375,0.9155272841453552,0.9834272323664354,0.2994537353515625,-0.0247955322265625,-0.4138946533203125,0.5114647026741375
1785940364.465403,0.07666015625,-0.34521484375,0.9155272841453552,0.9814480505437776,-0.0057220458984375,-0.3299713134765625,-0.4711151123046875,0.5752071440520972
1785940364.473418,0.08935546875,-0.35302734375,0.9282225966453552,0.9971007442348836,0.1163482666015625,-0.0858306884765625,-0.2880096435546875,0.32226290665549323
1785940364.481433,0.08984375,-0.349609375,0.9111327528953552,0.980031381079515,0.41961669921875,-0.209808349609375,-0.2880096435546875,0.5504972957331823
1785940364.492108,0.07861328125,-0.349609375,0.9116210341453552,0.9795201238223894,0.1163482666015625,-0.1468658447265625,-0.1049041748046875,0.2147356080855885
1785940364.502783,0.0849609375,-0.35302734375,0.9072265028953552,0.9771932223935016,0.1163482666015625,-0.3299713134765625,0.0171661376953125,0.35030367274981655
1785940364.513458,0.087890625,-0.3701171875,0.9248046278953552,0.9999875470336954,0.179290771484375,-0.209808349609375,0.2574920654296875,0.377447861385541
1785940364.521481,0.080078125,-0.34521484375,0.9116210341453552,0.9780790890030824,0.2994537353515625,-0.0858306884765625,-0.2307891845703125,0.3876894303627507
1785940364.529504,0.0859375,-0.35009765625,0.9179686903953552,0.9862150573602882,0.1163482666015625,-0.2689361572265625,0.0171661376953125,0.2935272595319778
1785940364.537527,0.08837890625,-0.34130859375,0.9125975966453552,0.978333665290338,-0.3719329833984375,0.0362396240234375,0.2002716064453125,0.4239766159084822
1785940364.54555,0.08349609375,-0.34521484375,0.9301757216453552,0.9956765333959132,-0.06866455078125,-0.026702880859375,0.2002716064453125,0.21339301939933972
1785940364.556185,0.07861328125,-0.33349609375,0.9228515028953552,0.9844057034229415,-0.0667572021484375,-0.1468658447265625,-0.0476837158203125,0.16822555436189365
1785940364.566822,0.076171875,-0.3466796875,0.9184569716453552,0.9846584022035613,0.2384185791015625,-0.1468658447265625,-0.1049041748046875,0.2990282279309216
1785940364.577458,0.09228515625,-0.35205078125,0.9165038466453552,0.9861214953333869,-0.0667572021484375,0.1583099365234375,-0.2307891845703125,0.28771897357555676
1785940364.585442,0.0888671875,-0.35400390625,0.9140624403953552,0.9842389382644497,-0.0057220458984375,-0.0247955322265625,-0.2307891845703125,0.23218787208269964
1785940364.593428,0.0908203125,-0.35546875,0.9306640028953552,1.0003708550704413,0.1773834228515625,0.0362396240234375,-0.2307891845703125,0.2933288883941132
1785940364.601414,0.0810546875,-0.33935546875,0.9155272841453552,0.9797561964850362,0.2384185791015625,-0.1468658447265625,-0.3490447998046875,0.4474877288582885
1785940364.6094,0.080078125,-0.34521484375,0.9140624403953552,0.9803550068165944,0.05340576171875,-0.026702880859375,-0.0476837158203125,0.07641306161502888
1785940364.62007,0.080078125,-0.35302734375,0.9101561903953552,0.979502477002321,0.2994537353515625,0.0362396240234375,0.0171661376953125,0.3021266725212095
1785940364.63074,0.0869140625,-0.3642578125,0.9165038466453552,0.9900591442652665,0.1163482666015625,0.0362396240234375,-0.0476837158203125,0.13085857344851615
1785940364.64141,0.0810546875,-0.3447265625,0.9208983778953552,0.9866408098538625,0.11444091796875,0.278472900390625,0.0743865966796875,0.3101245648494869
1785940364.649431,0.08984375,-0.353515625,0.9248046278953552,0.9941372120134472,-0.0057220458984375,-0.0247955322265625,-0.0476837158203125,0.05404902387735273
1785940364.657452,0.087890625,-0.34228515625,0.9267577528953552,0.9918486894197248,-0.003814697265625,-0.209808349609375,-0.1049041748046875,0.2346038818359375
1785940364.665473,0.0859375,-0.3486328125,0.9140624403953552,0.9820591819230766,0.2384185791015625,0.2193450927734375,-0.2307891845703125,0.3977679427747109
1785940364.673493,0.08642578125,-0.35400390625,0.9086913466453552,0.979034291929083,0.2994537353515625,0.0362396240234375,-0.0476837158203125,0.30538432625103085
1785940364.681476,0.08251953125,-0.34423828125,0.9252929091453552,0.9906949253076592,0.2994537353515625,-0.0858306884765625,-0.0476837158203125,0.3151399426521441
1785940364.689458,0.08251953125,-0.3515625,0.9106444716453552,0.9796320830710976,0.2384185791015625,-0.0858306884765625,-0.2880096435546875,0.3836142342584108
1785940364.697439,0.0908203125,-0.35400390625,0.9252929091453552,0.994853789517601,0.05340576171875,-0.026702880859375,0.0743865966796875,0.09538650321998586
1785940364.705422,0.078125,-0.337890625,0.9282225966453552,0.9908939292431539,-0.0057220458984375,-0.1468658447265625,-0.2880096435546875,0.3233448204889151
1785940364.716093,0.08349609375,-0.35205078125,0.9233397841453552,0.9916994036681858,-0.0057220458984375,-0.0247955322265625,-0.0476837158203125,0.05404902387735273
1785940364.726763,0.1015625,-0.35546875,0.9023436903953552,0.9751395332100535,0.05340576171875,0.09918212890625,-0.1049041748046875,0.15392906148803848
1785940364.737435,0.0888671875,-0.3525390625,0.9125975966453552,0.9823520453510634,0.1773834228515625,0.0362396240234375,-0.1049041748046875,0.2092440559331346
1785940364.748135,0.08349609375,-0.34814453125,0.9057616591453552,0.9739509204721446,-0.0667572021484375,-0.4520416259765625,0.0171661376953125,0.4572666967291585
1785940364.758837,0.08251953125,-0.3603515625,0.9248046278953552,0.9959549796103123,-0.2498626708984375,0.2193450927734375,0.0743865966796875,0.3407007334859661
1785940364.769539,0.0888671875,-0.35888671875,0.9140624403953552,0.9860056789140791,-0.06866455078125,-0.209808349609375,-0.1659393310546875,0.27617064596129287
1785940364.77751,0.0712890625,-0.353515625,0.9204100966453552,0.9885394142663112,0.1163482666015625,-0.1468658447265625,-0.0476837158203125,0.19333968098367016
1785940364.785481,0.08935546875,-0.34912109375,0.9106444716453552,0.9793586123759656,0.179290771484375,-0.026702880859375,0.0171661376953125,0.18207938068058882
1785940364.793452,0.08642578125,-0.3603515625,0.9140624403953552,0.9863228726955371,0.1773834228515625,0.0362396240234375,0.0171661376953125,0.18185946589405447
1785940364.801423,0.078125,-0.33984375,0.9272460341453552,0.9906475144456538,-0.3108978271484375,-0.1468658447265625,0.0743865966796875,0.3517959650684655
1785940364.812092,0.0869140625,-0.3427734375,0.9130858778953552,0.9791698035212033,-0.12969970703125,-0.209808349609375,-0.1049041748046875,0.2680418688586808
1785940364.822761,0.1015625,-0.35400390625,0.9291991591453552,0.9995222780923615,-0.0057220458984375,0.0972747802734375,-0.0476837158203125,0.10848438339660549
1785940364.83343,0.087890625,-0.35693359375,0.9052733778953552,0.977059998688027,-0.0667572021484375,0.0362396240234375,0.0171661376953125,0.07787496819531861
1785940364.844078,0.0830078125,-0.34130859375,0.9218749403953552,0.9865268667565914,0.1163482666015625,0.0972747802734375,-0.1049041748046875,0.18440224486129836
1785940364.854729,0.0888671875,-0.3408203125,0.9135741591453552,0.9791187908956199,-0.06866455078125,-0.026702880859375,-0.1049041748046875,0.1281902893031811
1785940364.86538,0.087890625,-0.34912109375,0.9296874403953552,0.9969598973343683,-0.0667572021484375,-0.2689361572265625,-0.2880096435546875,0.3996657797247293
1785940364.876065,0.10009765625,-0.34912109375,0.9145507216453552,0.984026473907069,-0.12969970703125,-0.148773193359375,-0.2307891845703125,0.3036760194367804
1785940364.886754,0.0869140625,-0.35400390625,0.9165038466453552,0.986332662348888,0.1163482666015625,0.0362396240234375,0.0171661376953125,0.12306464063216047
1785940364.897442,0.08740234375,-0.34912109375,0.9194335341453552,0.9873614999103457,-0.0057220458984375,-0.0247955322265625,-0.1659393310546875,0.16787918816380873
1785940364.905439,0.08447265625,-0.3505859375,0.9272460341453552,0.9949026771825342,-0.06866455078125,0.278472900390625,-0.0476837158203125,0.2907502597426013
1785940364.913436,0.08203125,-0.345703125,0.9228515028953552,0.9888855712404464,0.2994537353515625,0.1583099365234375,-0.1049041748046875,0.3545976050532644
1785940364.921432,0.09375,-0.3505859375,0.9213866591453552,0.9902792221004099,-0.0057220458984375,0.0362396240234375,0.0743865966796875,0.08294225656570015
1785940364.929428,0.07470703125,-0.35107421875,0.9155272841453552,0.983374016132052,0.1163482666015625,-0.0858306884765625,-0.2880096435546875,0.32226290665549323
1785940364.940189,0.07568359375,-0.3525390625,0.9174804091453552,0.9857900882626192,0.1163482666015625,0.0362396240234375,-0.0476837158203125,0.13085857344851615
1785940364.950951,0.0927734375,-0.3388671875,0.9233397841453552,0.987924206837406,0.1773834228515625,-0.1468658447265625,-0.2307891845703125,0.32603389818301526
1785940364.961713,0.08056640625,-0.34130859375,0.9179686903953552,0.9826744214284842,0.1773834228515625,-0.1468658447265625,-0.1659393310546875,0.28384910893053755
1785940364.969654,0.08642578125,-0.34814453125,0.9243163466453552,0.9914810835208968,-0.06866455078125,0.278472900390625,-0.0476837158203125,0.2907502597426013
1785940364.977595,0.08447265625,-0.34716796875,0.9106444716453552,0.9782303317308148,0.1773834228515625,-0.3299713134765625,-0.3490447998046875,0.5120334155996837
1785940364.985535,0.08349609375,-0.3515625,0.9204100966453552,0.9887985310893574,0.1163482666015625,-0.0247955322265625,-0.2880096435546875,0.3116108026691066
1785940364.993477,0.0869140625,-0.359375,0.9174804091453552,0.9891788241014778,0.05340576171875,-0.026702880859375,-0.5359649658203125,0.5392806911226459
1785940365.004115,0.0927734375,-0.35546875,0.9296874403953552,0.99964177571818,0.2384185791015625,-0.1468658447265625,-0.2307891845703125,0.3628727640960183
1785940365.014753,0.10009765625,-0.34716796875,0.9145507216453552,0.983335223499486,0.2384185791015625,-0.0858306884765625,0.0743865966796875,0.26409030976307185
1785940365.025391,0.095703125,-0.3564453125,0.9160155653953552,0.9875711948941001,0.1773834228515625,0.2193450927734375,-0.1049041748046875,0.3009684938955846
1785940365.036061,0.095703125,-0.333984375,0.9287108778953552,0.9915687296400929,-0.0057220458984375,-0.2689361572265625,-0.1659393310546875,0.31606211424960656
1785940365.046731,0.0966796875,-0.36669921875,0.9208983778953552,0.9959262530013226,0.1392364501953125,-0.3795623779296875,0.1735687255859375,0.43997782933252116
1785940365.057403,0.0869140625,-0.35205078125,0.9106444716453552,0.980187308924798,0.324249267578125,-0.133514404296875,0.1087188720703125,0.36712869245530355
1785940365.065417,0.0849609375,-0.35302734375,0.9135741591453552,0.9830892180235741,0.019073486328125,-0.194549560546875,0.0514984130859375,0.2021519624937171
1785940365.073431,0.083984375,-0.35205078125,0.9042968153953552,0.9740358608167654,0.202178955078125,0.110626220703125,0.1735687255859375,0.28851445905719436
1785940365.081445,0.09521484375,-0.3544921875,0.9160155653953552,0.9868206997805855,0.385284423828125,-0.011444091796875,-0.1316070556640625,0.40730267809356374
1785940365.089459,0.09765625,-0.34130859375,0.9199218153953552,0.9860448497771037,0.0782012939453125,0.1697540283203125,0.1087188720703125,0.21622133486299544
1785940365.097908,0.091796875,-0.3486328125,0.9169921278953552,0.9853152119162056,0.1392364501953125,-0.0133514404296875,0.0514984130859375,0.14905413974428583
1785940365.106356,0.080078125,-0.34765625,0.9204100966453552,0.9871332839461398,0.263214111328125,0.049591064453125,0.0514984130859375,0.2727508544921875
1785940365.114805,0.08349609375,-0.345703125,0.9155272841453552,0.9821774057271142,0.385284423828125,-0.255584716796875,-0.2574920654296875,0.5292162114523283
1785940365.123255,0.08935546875,-0.3525390625,0.9106444716453552,0.9805822475051031,0.324249267578125,0.049591064453125,-0.3757476806640625,0.49878169645944986
1785940365.133471,0.09765625,-0.3544921875,0.9218749403953552,0.9924992996932227,0.2613067626953125,-0.1964569091796875,-0.0095367431640625,0.3270588492380502
1785940365.143687,0.08447265625,-0.35693359375,0.9272460341453552,0.9971571730873273,0.446319580078125,-0.255584716796875,-0.0095367431640625,0.5144080719539983
1785940365.153903,0.09130859375,-0.35498046875,0.9238280653953552,0.9938846446639051,0.568389892578125,0.049591064453125,-0.1316070556640625,0.5855311782980733
1785940365.164511,0.1015625,-0.35009765625,0.9091796278953552,0.9795360667672884,0.446319580078125,-0.133514404296875,-0.3757476806640625,0.5985094679621079
1785940365.175121,0.09375,-0.3583984375,0.9077147841453552,0.9804002406458753,0.324249267578125,0.049591064453125,-0.0095367431640625,0.3281582098145981
1785940365.18573,0.0849609375,-0.3505859375,0.9135741591453552,0.9822151519559121,0.324249267578125,-0.133514404296875,-0.0743865966796875,0.35846485105974674
1785940365.196308,0.07373046875,-0.365234375,0.9155272841453552,0.9884445046224423,0.507354736328125,-0.072479248046875,-0.1926422119140625,0.5475153803165389
1785940365.206887,0.08251953125,-0.3486328125,0.9184569716453552,0.9858587727222072,0.0782012939453125,0.0476837158203125,-0.3757476806640625,0.38674991745774917
1785940365.217465,0.07861328125,-0.3466796875,0.9194335341453552,0.9857610650786566,0.019073486328125,0.110626220703125,-0.2574920654296875,0.28089877597991086
1785940365.225471,0.07958984375,-0.3369140625,0.9174804091453552,0.9806201761660484,0.4444122314453125,-0.3185272216796875,-0.0095367431640625,0.5468571768564074
1785940365.233476,0.08349609375,-0.3330078125,0.9121093153953552,0.9745815533286722,0.2613067626953125,-0.0705718994140625,0.1735687255859375,0.3215396083202494
1785940365.241481,0.09423828125,-0.35302734375,0.9189452528953552,0.9889234231764576,0.324249267578125,0.110626220703125,0.2307891845703125,0.4130852163254415
1785940365.249485,0.08837890625,-0.349609375,0.9140624403953552,0.9826228631063646,-0.041961669921875,0.049591064453125,0.2307891845703125,0.23975759243631087
1785940365.259072,0.08349609375,-0.34912109375,0.9404296278953552,1.00661065998533,-0.041961669921875,0.049591064453125,-0.1316070556640625,0.1467667282349444
1785940365.268659,0.08544921875,-0.34716796875,0.9243163466453552,0.9910539219370472,-0.102996826171875,0.232696533203125,-0.1316070556640625,0.28648985997203485
1785940365.278246,0.07958984375,-0.34619140625,0.9238280653953552,0.9897683200636535,0.324249267578125,-0.133514404296875,-0.2574920654296875,0.4350469485457246
1785940365.287832,0.08349609375,-0.34033203125,0.9223632216453552,0.9866870840394428,0.446319580078125,0.232696533203125,0.1087188720703125,0.5149452759955254
1785940365.305429,0.08203125,-0.36376953125,0.9125975966453552,0.9858457137124884,0.324249267578125,-0.255584716796875,-0.1926422119140625,0.45560087444629854
1785940365.313437,0.0859375,-0.3486328125,0.9204100966453552,0.9879700591944183,0.385284423828125,-0.316619873046875,-0.2574920654296875,0.5612436146737315
1785940365.321445,0.08447265625,-0.34716796875,0.9101561903953552,0.9777758020604302,0.385284423828125,-0.133514404296875,-0.0743865966796875,0.41449191688729725
1785940365.329453,0.08203125,-0.341796875,0.9199218153953552,0.9847895085634362,0.263214111328125,0.049591064453125,-0.0095367431640625,0.2680147226292352
1785940365.337461,0.0810546875,-0.349609375,0.9145507216453552,0.9824457236487181,0.019073486328125,-0.255584716796875,-0.3757476806640625,0.45483366725130436
1785940365.345469,0.0908203125,-0.34326171875,0.9223632216453552,0.9883475347092239,0.202178955078125,-0.133514404296875,-0.0095367431640625,0.2424734531890227
1785940365.355083,0.07861328125,-0.34130859375,0.9257811903953552,0.9898193858711473,0.202178955078125,-0.133514404296875,0.2956390380859375,0.38223666343197676
1785940365.364697,0.087890625,-0.353515625,0.9106444716453552,0.980801413549287,0.019073486328125,-0.194549560546875,0.0514984130859375,0.2021519624937171
1785940365.374311,0.08935546875,-0.3466796875,0.9301757216453552,0.9966935731001215,0.141143798828125,0.049591064453125,-0.0095367431640625,0.1499059541559491
1785940365.383924,0.0947265625,-0.33837890625,0.9155272841453552,0.9806444890237148,0.019073486328125,-0.072479248046875,0.1087188720703125,0.13204859871422558
1785940365.393538,0.08984375,-0.35400390625,0.9174804091453552,0.9875023879565303,0.263214111328125,0.049591064453125,-0.1926422119140625,0.3299272099827341
1785940365.403115,0.083984375,-0.345703125,0.9091796278953552,0.9763050863632959,0.3223419189453125,0.2918243408203125,0.1087188720703125,0.4482025789180572
1785940365.412691,0.095703125,-0.34912109375,0.9121093153953552,0.9813195348442553,0.873565673828125,0.171661376953125,-0.2574920654296875,0.9267614464291636
1785940365.422267,0.09130859375,-0.3427734375,0.9096679091453552,0.9763844497312784,0.385284423828125,0.232696533203125,-0.4978179931640625,0.6711292857022542
1785940365.431843,0.091796875,-0.35009765625,0.9355468153953552,1.003116582939341,0.324249267578125,0.049591064453125,-0.1926422119140625,0.3804048935143804
1785940365.441418,0.0888671875,-0.35693359375,0.9282225966453552,0.9984468720390164,0.0782012939453125,0.0476837158203125,-0.0095367431640625,0.09208761371287011
1785940365.449422,0.078125,-0.34619140625,0.9404296278953552,1.0051665983356932,0.324249267578125,0.110626220703125,-0.1316070556640625,0.36700976190364565
1785940365.457425,0.08740234375,-0.34912109375,0.9204100966453552,0.9882709414937291,0.2613067626953125,0.1697540283203125,-0.3147125244140625,0.4428787953654473
1785940365.465428,0.078125,-0.34912109375,0.9233397841453552,0.990224929352815,0.507354736328125,-0.072479248046875,0.1087188720703125,0.5239101669334759
1785940365.473431,0.08837890625,-0.34716796875,0.9340819716453552,1.0004226903408486,0.629425048828125,0.049591064453125,0.0514984130859375,0.6334723769165088
1785940365.483026,0.0732421875,-0.349609375,0.9194335341453552,0.9863818514290974,0.873565673828125,-0.011444091796875,-0.1926422119140625,0.894627841920306
1785940365.49262,0.08056640625,-0.3388671875,0.9165038466453552,0.9804596970278447,0.934600830078125,0.415802001953125,0.1735687255859375,1.03754330941531
1785940365.502216,0.0888671875,-0.35546875,0.9208983778953552,0.9911151455058181,0.995635986328125,0.110626220703125,0.3566741943359375,1.0633652518696597
1785940365.511811,0.09326171875,-0.34326171875,0.9218749403953552,0.988119305282691,1.300811767578125,0.171661376953125,0.5397796630859375,1.4187815080865471
1785940365.521406,0.0771484375,-0.34375,0.9301757216453552,0.9946571354226283,1.300811767578125,0.110626220703125,0.9021759033203125,1.586906038777534
1785940365.529415,0.076171875,-0.34033203125,0.9008788466453552,0.9660283341438967,1.2989044189453125,-0.1964569091796875,0.2956390380859375,1.3465327502740043
1785940365.537424,0.10107421875,-0.3486328125,0.9189452528953552,0.9880390748682419,0.873565673828125,0.110626220703125,0.5397796630859375,1.0328200384766995
1785940365.545433,0.0908203125,-0.3359375,0.9233397841453552,0.9867414504592572,1.0585784912109375,0.2918243408203125,0.1087188720703125,1.103435390538964
1785940365.553442,0.09765625,-0.341796875,0.9257811903953552,0.9916817329232545,0.812530517578125,0.171661376953125,0.4787445068359375,0.9585769521320673
1785940365.561513,0.0966796875,-0.3525390625,0.9243163466453552,0.9939775959443418,1.1157989501953125,0.1697540283203125,0.2956390380859375,1.1667159758177281
1785940365.569586,0.0810546875,-0.35205078125,0.9218749403953552,0.9901328298129488,0.934600830078125,0.232696533203125,0.1087188720703125,0.9692503192115617
1785940365.577658,0.0849609375,-0.3466796875,0.9218749403953552,0.9885638939162791,1.2378692626953125,0.2918243408203125,0.1735687255859375,1.2835917808721637
1785940365.58573,0.0859375,-0.3515625,0.9287108778953552,0.9967373475663794,1.972198486328125,0.049591064453125,-0.0743865966796875,1.9742237737688522
1785940365.596306,0.0849609375,-0.357421875,0.9287108778953552,0.9987355267289514,2.094268798828125,-0.133514404296875,0.1735687255859375,2.105686111556343
1785940365.606882,0.07421875,-0.3427734375,0.9204100966453552,0.984965379246317,1.8520355224609375,-0.3795623779296875,0.0514984130859375,1.8912311497400751
1785940365.617458,0.08837890625,-0.34521484375,0.9140624403953552,0.9810679203586241,1.667022705078125,0.232696533203125,0.2307891845703125,1.698933790212371
1785940365.628102,0.08349609375,-0.3466796875,0.9086913466453552,0.9761548887675334,1.300811767578125,-0.133514404296875,0.2307891845703125,1.3278557898126984
1785940365.638746,0.0947265625,-0.33251953125,0.9262694716453552,0.9886948439270591,0.995635986328125,-0.011444091796875,0.2307891845703125,1.0220986411414816
1785940365.64939,0.095703125,-0.34423828125,0.9243163466453552,0.9909691171214854,0.7495880126953125,-0.0133514404296875,0.4138946533203125,0.8563697996690431
1785940365.657477,0.0927734375,-0.34423828125,0.9257811903953552,0.9920573156190934,1.117706298828125,0.354766845703125,0.1735687255859375,1.1854336707516524
1785940365.665564,0.09375,-0.35302734375,0.9218749403953552,0.9916001077370455,1.117706298828125,0.049591064453125,-0.0095367431640625,1.1188465460391952
1785940365.673651,0.0849609375,-0.345703125,0.9228515028953552,0.9891329071120121,0.7495880126953125,0.1697540283203125,-0.1926422119140625,0.7923443952717935
1785940365.681738,0.07958984375,-0.34521484375,0.9106444716453552,0.9771290525369382,0.995635986328125,0.110626220703125,-0.2574920654296875,1.0343265160179744
1785940365.692307,0.09716796875,-0.33935546875,0.9135741591453552,0.9793985361331086,0.9326934814453125,0.2918243408203125,-0.5626678466796875,1.1276850987367633
1785940365.702876,0.08935546875,-0.345703125,0.9345702528953552,1.0004581990404127,0.995635986328125,0.110626220703125,-0.6198883056640625,1.1780452832882515
1785940365.713445,0.083984375,-0.3359375,0.9243163466453552,0.9870501951908054,0.751495361328125,0.049591064453125,-0.6198883056640625,0.9754312191386666
1785940365.724077,0.07861328125,-0.34716796875,0.9106444716453552,0.9777417860831871,0.873565673828125,0.232696533203125,-1.0509490966796875,1.386275105044951
1785940365.734714,0.09619140625,-0.34814453125,0.9174804091453552,0.9860160761575661,0.385284423828125,-0.072479248046875,-0.6809234619140625,0.7857188362429924
1785940365.74535,0.09619140625,-0.33740234375,0.9189452528953552,0.9836429769094344,0.690460205078125,-0.133514404296875,-0.8029937744140625,1.0674082596171992
1785940365.756105,0.10400390625,-0.3359375,0.9160155653953552,0.9812009643636115,0.202178955078125,0.354766845703125,-1.4743804931640625,1.5298802839795445
1785940365.76686,0.09716796875,-0.34814453125,0.9282225966453552,0.9961141589764343,-0.0438690185546875,0.2918243408203125,-1.7795562744140625,1.8038587723241029
1785940365.777617,0.08056640625,-0.34765625,0.9199218153953552,0.9867177714120632,0.2613067626953125,0.4749298095703125,-1.9016265869140625,1.9773778658382986
1785940365.78822,0.09228515625,-0.32958984375,0.9243163466453552,0.9856504065047875,-0.164031982421875,-0.011444091796875,-2.1457672119140625,2.1520581744506244
1785940365.798822,0.0966796875,-0.34814453125,0.9174804091453552,0.9860638304795021,0.1392364501953125,-0.0133514404296875,-2.6988983154296875,2.70252052111612
1785940365.809424,0.10009765625,-0.34521484375,0.9204100966453552,0.9881030184848097,-0.0438690185546875,0.1125335693359375,-2.7561187744140625,2.7587640337104062
1785940365.820144,0.08056640625,-0.3359375,0.9233397841453552,0.9858505498846574,0.141143798828125,0.049591064453125,-2.7561187744140625,2.760175998790458
1785940365.830863,0.07470703125,-0.33544921875,0.9243163466453552,0.9861379353589387,-0.102996826171875,0.171661376953125,-2.7561187744140625,2.763379574581928
1785940365.841582,0.09521484375,-0.35595703125,0.9311522841453552,1.0014069356838722,-0.347137451171875,0.232696533203125,-2.0847320556640625,2.126207852135855
1785940365.850031,0.09228515625,-0.3447265625,0.9248046278953552,0.9912701714133336,-0.2269744873046875,-0.0705718994140625,-2.0275115966796875,2.0413968466578836
1785940365.858482,0.0888671875,-0.3427734375,0.9179686903953552,0.9838991427051301,-0.225067138671875,0.232696533203125,-1.9626617431640625,1.9891817442241155
1785940365.866932,0.080078125,-0.34228515625,0.9296874403953552,0.9939267433374905,-0.0438690185546875,0.1125335693359375,-1.5392303466796875,1.543961902106431
1785940365.875384,0.09423828125,-0.345703125,0.9238280653953552,0.9908833426291132,0.141143798828125,-0.072479248046875,-1.5964508056640625,1.6043160499884395
1785940365.88536,0.10498046875,-0.353515625,0.9321288466453552,1.002426248003568,0.7495880126953125,0.4177093505859375,-1.8405914306640625,2.0307978986047366
1785940365.895338,0.1142578125,-0.33740234375,0.9160155653953552,0.9828426656041396,0.690460205078125,0.720977783203125,-2.5730133056640625,2.7598807455745846
1785940365.905316,0.1083984375,-0.3388671875,0.9165038466453552,0.9831380843667559,0.385284423828125,0.232696533203125,-3.6106109619140625,3.638557857462667
1785940365.913354,0.0947265625,-0.3330078125,0.9199218153953552,0.9829158007018646,0.019073486328125,0.415802001953125,-3.7326812744140625,3.755817434203948
1785940365.921394,0.08935546875,-0.3310546875,0.9184569716453552,0.9803799338395354,0.324249267578125,0.415802001953125,-4.5871734619140625,4.6173790468231894
1785940365.929433,0.0947265625,-0.3369140625,0.9252929091453552,0.9892679995168119,0.202178955078125,0.782012939453125,-4.9533843994140625,5.018808382047198
1785940365.937471,0.09228515625,-0.3486328125,0.9257811903953552,0.9935452684732529,0.568389892578125,0.171661376953125,-4.9533843994140625,4.988842722183275
1785940365.948115,0.076171875,-0.333984375,0.9179686903953552,0.9798031607579758,0.507354736328125,0.354766845703125,-4.4040679931640625,4.44736812414903
1785940365.958758,0.072265625,-0.32470703125,0.9301757216453552,0.9878683362869196,0.4444122314453125,0.1697540283203125,-4.2209625244140625,4.247686816856572
1785940365.969401,0.06689453125,-0.3427734375,0.9316405653953552,0.994948566940473,0.202178955078125,0.049591064453125,-3.4885406494140625,3.494746266349585
1785940365.980053,0.06591796875,-0.34228515625,0.9267577528953552,0.9901435448180538,0.324249267578125,0.110626220703125,-2.8820037841796875,2.9022959119045812
1785940365.990709,0.09130859375,-0.330078125,0.9213866591453552,0.9829761968365038,0.202178955078125,-0.011444091796875,-2.2106170654296875,2.2198727682194987
1785940366.001364,0.09375,-0.333984375,0.9121093153953552,0.9758473387139631,0.2613067626953125,-0.0133514404296875,-1.9016265869140625,1.9195424353866934
1785940366.00938,0.10205078125,-0.34716796875,0.9165038466453552,0.9853523539300392,0.0782012939453125,0.1697540283203125,-2.2106170654296875,2.218503928884206
1785940366.017395,0.12548828125,-0.34765625,0.9272460341453552,0.9981970670831641,0.4444122314453125,-0.1964569091796875,-2.1457672119140625,2.200094197153405
1785940366.025409,0.10498046875,-0.328125,0.9218749403953552,0.984144461028415,0.202178955078125,0.720977783203125,-3.0612945556640625,3.151540837477345
1785940366.033425,0.09423828125,-0.330078125,0.9111327528953552,0.9736505100163704,0.568389892578125,0.659942626953125,-3.3702850341796875,3.481007404828427
1785940366.044072,0.09912109375,-0.341796875,0.9165038466453552,0.9831731261083648,0.019073486328125,0.354766845703125,-3.5495758056640625,3.56731155253456
1785940366.054719,0.07568359375,-0.337890625,0.9160155653953552,0.9792765681217834,0.324249267578125,0.537872314453125,-3.6754608154296875,3.728733889665388
1785940366.065366,0.0673828125,-0.33837890625,0.9047850966453552,0.9683371307178618,-0.1659393310546875,0.7801055908203125,-3.3054351806640625,3.4002944472488923
1785940366.073384,0.076171875,-0.330078125,0.9208983778953552,0.9812275707270092,-0.347137451171875,0.415802001953125,-2.5157928466796875,2.573443094812671
1785940366.081404,0.0673828125,-0.3427734375,0.9257811903953552,0.9894972892160027,-0.713348388671875,0.415802001953125,-2.2106170654296875,2.359784955969071
1785940366.089424,0.0712890625,-0.341796875,0.9301757216453552,0.9935462280791729,-0.286102294921875,0.476837158203125,-1.1081695556640625,1.2398661067645496
1785940366.097444,0.0888671875,-0.3388671875,0.9326171278953552,0.9962444755290248,-0.4100799560546875,0.3528594970703125,-0.1316070556640625,0.5567726754530002
1785940366.108106,0.0927734375,-0.33837890625,0.9238280653953552,0.9882132812873127,-0.0438690185546875,0.4749298095703125,-0.1316070556640625,0.49477594111679324
1785940366.118767,0.10791015625,-0.34765625,0.9340819716453552,1.002506159451819,0.4444122314453125,0.6580352783203125,-0.6809234619140625,1.046025535040768
1785940366.12943,0.1005859375,-0.3349609375,0.9140624403953552,0.9786861117923076,0.2613067626953125,1.0242462158203125,-0.8029937744140625,1.3274639492657707
1785940366.140089,0.091796875,-0.3310546875,0.9189452528953552,0.9810628166404007,0.1392364501953125,0.2918243408203125,-1.4743804931640625,1.5094191179327583
1785940366.150748,0.07763671875,-0.337890625,0.9311522841453552,0.9936005791213437,0.263214111328125,0.720977783203125,-1.6574859619140625,1.8265679144824951
1785940366.161407,0.0791015625,-0.33740234375,0.9077147841453552,0.9716190241622399,0.263214111328125,0.720977783203125,-1.0509490966796875,1.3013779758727277
1785940366.169615,0.0673828125,-0.3291015625,0.9189452528953552,0.978421514317454,-0.225067138671875,0.415802001953125,-0.6809234619140625,0.8289772510287621
1785940366.177824,0.07861328125,-0.3349609375,0.9370116591453552,0.9981832131498214,-1.079559326171875,0.415802001953125,-0.6198883056640625,1.3124790112805467
1785940366.186033,0.0810546875,-0.34228515625,0.9277343153953552,0.9921793943218625,-0.591278076171875,0.720977783203125,-0.3147125244140625,0.9841050250136303
1785940366.194242,0.06689453125,-0.3427734375,0.9326171278953552,0.9958630503289622,-0.4100799560546875,0.9632110595703125,-0.2574920654296875,1.0780738747394008
1785940366.204626,0.076171875,-0.3486328125,0.9194335341453552,0.9862580880295451,-0.4100799560546875,0.1125335693359375,0.0514984130859375,0.4283473603696777
1785940366.215009,0.091796875,-0.34033203125,0.9262694716453552,0.9910740092731128,-0.347137451171875,0.354766845703125,0.0514984130859375,0.4990150412228279
1785940366.225394,0.08251953125,-0.33837890625,0.9267577528953552,0.9900452968346015,0.1392364501953125,0.2918243408203125,-0.1926422119140625,0.3763764827527674
1785940366.233401,0.06982421875,-0.34765625,0.9086913466453552,0.975428240905634,0.446319580078125,0.049591064453125,0.2307891845703125,0.5049000781831368
1785940366.24141,0.08544921875,-0.3330078125,0.9125975966453552,0.9752077448287103,0.019073486328125,0.171661376953125,0.7839202880859375,0.8027218972289789
1785940366.249421,0.08447265625,-0.34716796875,0.9204100966453552,0.9873276934162456,-0.591278076171875,0.049591064453125,0.5397796630859375,0.8021415845823453
1785940366.257431,0.0859375,-0.34033203125,0.9145507216453552,0.9795989831880395,-0.0438690185546875,0.4749298095703125,0.2956390380859375,0.5611463763117635
1785940366.268249,0.08203125,-0.34130859375,0.9311522841453552,0.9951207255470451,-0.591278076171875,0.232696533203125,0.1087188720703125,0.644652800405387
1785940366.279067,0.080078125,-0.3408203125,0.9238280653953552,0.9879419446142764,-0.347137451171875,0.232696533203125,-0.1316070556640625,0.43814666913195016
1785940366.289885,0.087890625,-0.35302734375,0.9228515028953552,0.9919717555426097,-0.102996826171875,-0.072479248046875,0.1735687255859375,0.21444740637379214
1785940366.29777,0.0869140625,-0.3291015625,0.9238280653953552,0.9845405969853758,0.324249267578125,-0.133514404296875,0.3566741943359375,0.5001801321373032
1785940366.305654,0.09326171875,-0.33984375,0.9238280653953552,0.9887617594802053,0.324249267578125,0.171661376953125,0.6618499755859375,0.756736814252815
1785940366.313538,0.09228515625,-0.34033203125,0.9091796278953552,0.9751666715689039,0.202178955078125,0.537872314453125,0.4138946533203125,0.7081608154782256
1785940366.321422,0.0810546875,-0.34033203125,0.9165038466453552,0.9810071634683442,0.0782012939453125,0.1125335693359375,0.4138946533203125,0.43599086074062277
1785940366.332536,0.0859375,-0.33984375,0.9194335341453552,0.9839903719200359,-0.102996826171875,0.110626220703125,-0.1316070556640625,0.2004168755596684
1785940366.34365,0.08154296875,-0.35009765625,0.9282225966453552,0.995396812124367,-0.2269744873046875,-0.1964569091796875,-0.3147125244140625,0.43492149645049005
1785940366.354764,0.080078125,-0.34716796875,0.9179686903953552,0.9846850365348709,-0.347137451171875,0.110626220703125,-0.0743865966796875,0.371854724964937
1785940366.364977,0.0791015625,-0.3310546875,0.9248046278953552,0.9854531257661779,0.0782012939453125,-0.3795623779296875,0.9021759033203125,0.9818881818446447
1785940366.375193,0.09716796875,-0.349609375,0.9233397841453552,0.9920809877346117,-0.530242919921875,-0.133514404296875,1.4553070068359375,1.5546389080515775
1785940366.385408,0.09375,-0.33740234375,0.9091796278953552,0.974287945038801,-0.164031982421875,-0.011444091796875,1.5163421630859375,1.5252314624496983
1785940366.393414,0.0927734375,-0.3349609375,0.9218749403953552,0.9852203540758713,-0.4100799560546875,0.0476837158203125,0.9021759033203125,0.992149518794455
1785940366.401418,0.10107421875,-0.34375,0.9213866591453552,0.9886017579627107,-0.2269744873046875,-0.1354217529296875,0.7190704345703125,0.766106232142066
1785940366.409424,0.08203125,-0.337890625,0.9370116591453552,0.9994448708226905,0.019073486328125,-0.255584716796875,0.1735687255859375,0.3095374740518092
1785940366.417428,0.08642578125,-0.341796875,0.9272460341453552,0.9920079270160737,-0.4100799560546875,-0.2536773681640625,-0.1316070556640625,0.4998381683875526
1785940366.428094,0.0810546875,-0.34130859375,0.9189452528953552,0.983626858291412,-0.469207763671875,-0.499725341796875,-0.3757476806640625,0.7817081694906277
1785940366.438759,0.09033203125,-0.3349609375,0.9194335341453552,0.9827088730807553,-0.041961669921875,-0.621795654296875,-0.3147125244140625,0.6981651598785084
1785940366.449424,0.09619140625,-0.341796875,0.9301757216453552,0.9956428895616015,-0.0438690185546875,-0.0133514404296875,-0.3757476806640625,0.37853542935228834
1785940366.460078,0.08837890625,-0.341796875,0.9135741591453552,0.9794149677679297,-0.286102294921875,0.415802001953125,-0.6809234619140625,0.8475863312800779
1785940366.470732,0.08740234375,-0.33349609375,0.9208983778953552,0.9833171597454193,-0.1010894775390625,0.2918243408203125,-0.6809234619140625,0.7476879625548095
1785940366.481386,0.08935546875,-0.34130859375,0.9228515028953552,0.9879933463132992,0.0782012939453125,0.2346038818359375,-0.3147125244140625,0.40024791913298385
1785940366.489404,0.08154296875,-0.35107421875,0.9121093153953552,0.9807373583454797,-0.2841949462890625,-0.3795623779296875,-0.0095367431640625,0.47426291833334316
1785940366.49742,0.09423828125,-0.34375,0.9296874403953552,0.9956724627013751,-0.2269744873046875,-0.1354217529296875,-0.4978179931640625,0.5636303960679105
1785940366.505436,0.09521484375,-0.35498046875,0.9213866591453552,0.9919830519294902,0.141143798828125,0.049591064453125,-0.4978179931640625,0.5198111194839168
1785940366.513452,0.08154296875,-0.3388671875,0.9199218153953552,0.9837359264340251,0.0782012939453125,-0.3795623779296875,-0.4978179931640625,0.6308770049956288
1785940366.521492,0.0771484375,-0.3330078125,0.9238280653953552,0.9850402930879789,-0.286102294921875,-0.194549560546875,-0.3757476806640625,0.5107742888918431
1785940366.529532,0.08447265625,-0.357421875,0.9301757216453552,1.000056448167254,-0.102996826171875,-0.560760498046875,-0.3147125244140625,0.6512331805078199
1785940366.537572,0.07470703125,-0.34521484375,0.9257811903953552,0.9908709509080212,-0.102996826171875,-0.255584716796875,-0.0743865966796875,0.2854211965275262
1785940366.545612,0.091796875,-0.34375,0.9223632216453552,0.9886074253229966,0.141143798828125,-0.438690185546875,-0.1316070556640625,0.47926096017029124
1785940366.556294,0.0791015625,-0.34326171875,0.9204100966453552,0.9855153021419087,-0.041961669921875,-0.438690185546875,-0.4978179931640625,0.6648553338551768
1785940366.566976,0.09033203125,-0.34521484375,0.9262694716453552,0.9926269683608507,0.385284423828125,-0.255584716796875,-0.4367828369140625,0.6360399997857097
1785940366.577658,0.087890625,-0.32958984375,0.9238280653953552,0.9847905977811551,-0.102996826171875,-0.499725341796875,-0.6198883056640625,0.8028669098515302
1785940366.586293,0.0947265625,-0.34521484375,0.9233397841453552,0.9903043809728374,0.2613067626953125,-0.1964569091796875,-0.4978179931640625,0.5955663654981155
1785940366.594929,0.09375,-0.3310546875,0.9160155653953552,0.9785043610849646,0.202178955078125,-0.194549560546875,-0.4367828369140625,0.5191388138139559
1785940366.603564,0.0771484375,-0.33154296875,0.9155272841453552,0.9767613984749934,-0.347137451171875,-0.316619873046875,-0.1316070556640625,0.48792721907564124
1785940366.612199,0.06884765625,-0.328125,0.9243163466453552,0.9832429628896078,-0.225067138671875,-0.438690185546875,0.3566741943359375,0.6085398727366077
1785940366.621925,0.08544921875,-0.33154296875,0.9252929091453552,0.98660492438829,-0.347137451171875,-0.255584716796875,0.5970001220703125,0.7363675055420443
1785940366.63165,0.0888671875,-0.34423828125,0.9208983778953552,0.9871429449185213,-0.102996826171875,-0.011444091796875,0.4787445068359375,0.4898322327737526
1785940366.641376,0.07568359375,-0.33544921875,0.9165038466453552,0.9788940114428288,-0.4100799560546875,-0.2536773681640625,0.7190704345703125,0.865782921608874
1785940366.649425,0.0908203125,-0.34716796875,0.9194335341453552,0.9869812315336177,-0.164031982421875,-0.133514404296875,0.5397796630859375,0.5797367265346985
1785940366.657473,0.08349609375,-0.33642578125,0.9326171278953552,0.9949515622405761,-0.102996826171875,-0.255584716796875,0.6618499755859375,0.7169220904984894
1785940366.665521,0.0791015625,-0.3486328125,0.9243163466453552,0.9910411716056089,0.0782012939453125,-0.1964569091796875,0.7190704345703125,0.7495152095937048
1785940366.673568,0.10107421875,-0.33740234375,0.9223632216453552,0.9873247955500332,0.324249267578125,0.049591064453125,0.7190704345703125,0.7903538138528102
1785940366.684183,0.1064453125,-0.33984375,0.9248046278953552,0.9910035210552743,0.0782012939453125,-0.0705718994140625,-0.0743865966796875,0.1289542598257856
1785940366.694797,0.09765625,-0.32568359375,0.9267577528953552,0.9871608171689281,-0.164031982421875,-0.011444091796875,-0.1316070556640625,0.21061309454748833
1785940366.70541,0.09375,-0.3447265625,0.9194335341453552,0.9863992544117643,-0.347137451171875,0.049591064453125,-0.3757476806640625,0.5139552540874762
1785940366.716069,0.087890625,-0.3310546875,0.9238280653953552,0.9852818188166967,-0.469207763671875,0.171661376953125,-0.4367828369140625,0.6636285108779622
1785940366.726726,0.08984375,-0.3271484375,0.9179686903953552,0.9786544416283601,-0.4100799560546875,-0.1964569091796875,0.1087188720703125,0.46752612832492196
1785940366.737383,0.08447265625,-0.34912109375,0.9306640028953552,0.9975753876476368,-0.774383544921875,-0.072479248046875,0.1735687255859375,0.7968997543886788
1785940366.745393,0.09375,-0.3486328125,0.9291991591453552,0.9968675828855582,-0.041961669921875,0.537872314453125,-0.2574920654296875,0.5978039579636791
1785940366.753403,0.09619140625,-0.33642578125,0.9365233778953552,0.9997555352537698,-0.2269744873046875,0.4749298095703125,0.4787445068359375,0.7115279648273173
1785940366.761413,0.087890625,-0.33056640625,0.9213866591453552,0.9828287167940147,-0.0438690185546875,0.1697540283203125,0.3566741943359375,0.39743855100520264
1785940366.769423,0.09765625,-0.33642578125,0.9184569716453552,0.98299657080668,-0.530242919921875,0.354766845703125,0.9670257568359375,1.1585145158009624
1785940366.780081,0.0888671875,-0.32958984375,0.9160155653953552,0.9775537622882344,-0.652313232421875,0.171661376953125,0.8449554443359375,1.0811706083884538
1785940366.790739,0.091796875,-0.337890625,0.9223632216453552,0.9865853502696332,-0.469207763671875,0.049591064453125,0.7839202880859375,0.9149569482966372
1785940366.801396,0.09765625,-0.3408203125,0.9174804091453552,0.983598256272442,-0.652313232421875,0.110626220703125,1.0280609130859375,1.2225628633795578
1785940366.812098,0.09326171875,-0.3388671875,0.9272460341453552,0.9916218668356671,-0.469207763671875,-0.072479248046875,0.7839202880859375,0.9164825066307276
1785940366.822801,0.09326171875,-0.34033203125,0.9277343153953552,0.9925797699132516,-0.469207763671875,0.110626220703125,0.5397796630859375,0.723710004682944
1785940366.833503,0.09375,-0.34228515625,0.9277343153953552,0.9932971109648792,0.141143798828125,0.171661376953125,0.5397796630859375,0.58373905554301
1785940366.841481,0.09814453125,-0.34814453125,0.9257811903953552,0.9939354989854248,-0.164031982421875,0.232696533203125,0.5970001220703125,0.6614100948533908
1785940366.849457,0.08837890625,-0.330078125,0.9135741591453552,0.975387176423601,0.1392364501953125,0.2918243408203125,0.2956390380859375,0.43812175910194195
1785940366.857433,0.09130859375,-0.33447265625,0.9082030653953552,0.9721327198819373,-0.2269744873046875,-0.0133514404296875,0.1735687255859375,0.28604506873970004
1785940366.865408,0.08056640625,-0.34814453125,0.9213866591453552,0.9882555014298485,-0.530242919921875,-0.255584716796875,-0.1316070556640625,0.6031596129450134
1785940366.876091,0.099609375,-0.3408203125,0.9145507216453552,0.9810624523762635,-0.347137451171875,0.598907470703125,0.0514984130859375,0.6941517521554564
1785940366.886772,0.09716796875,-0.34521484375,0.9267577528953552,0.9937277469447988,-0.2269744873046875,0.2918243408203125,0.2307891845703125,0.4358239455296891
1785940366.897455,0.0888671875,-0.349609375,0.9208983778953552,0.9890287733490605,-0.0438690185546875,0.1125335693359375,-0.1316070556640625,0.17863009857524406
1785940366.908149,0.08544921875,-0.3427734375,0.9331054091453552,0.9977378929442705,-0.1010894775390625,0.2918243408203125,0.2956390380859375,0.42753124938968956
1785940366.918846,0.1025390625,-0.34814453125,0.9291991591453552,0.9975620037542009,0.202178955078125,0.110626220703125,0.3566741943359375,0.42465394321580147
1785940366.929543,0.07958984375,-0.33935546875,0.9267577528953552,0.9901396921396142,0.202178955078125,0.171661376953125,0.3566741943359375,0.4444777149859321
1785940366.937504,0.08203125,-0.345703125,0.9252929091453552,0.9911643376988514,0.324249267578125,0.232696533203125,0.3566741943359375,0.5352585776938971
1785940366.945465,0.07177734375,-0.33642578125,0.9262694716453552,0.9880837148074266,0.202178955078125,0.293731689453125,0.4138946533203125,0.5463180569161258
1785940366.953426,0.08154296875,-0.349609375,0.9125975966453552,0.9806683151011522,0.2613067626953125,0.2918243408203125,0.7190704345703125,0.818843672503276
1785940366.961386,0.07666015625,-0.349609375,0.9262694716453552,0.9930149186927307,0.0782012939453125,0.1125335693359375,1.3332366943359375,1.3402609185252048
1785940366.972107,0.083984375,-0.33935546875,0.9213866591453552,0.9854790130011455,0.3871917724609375,-0.1964569091796875,1.2722015380859375,1.3442505493151578
1785940366.982829,0.0849609375,-0.3359375,0.9169921278953552,0.9802790048905364,0.324249267578125,0.415802001953125,1.5735626220703125,1.6595566329384406
1785940366.99355,0.0830078125,-0.345703125,0.9257811903953552,0.9917014470397034,0.4444122314453125,0.4749298095703125,1.3904571533203125,1.5350673114545572
1785940367.001531,0.072265625,-0.33544921875,0.9169921278953552,0.9790929790059152,0.019073486328125,0.232696533203125,1.6384124755859375,1.654964324268382
1785940367.009511,0.083984375,-0.349609375,0.9130858778953552,0.981328645635071,0.263214111328125,0.537872314453125,1.7604827880859375,1.8595397124568898
1785940367.017491,0.07568359375,-0.34423828125,0.9272460341453552,0.991974399104714,0.690460205078125,0.415802001953125,2.1877288818359375,2.3314768409838162
1785940367.025471,0.06591796875,-0.35009765625,0.9179686903953552,0.9846725669287394,0.629425048828125,0.598907470703125,2.4929046630859375,2.6399696418314953
1785940367.036177,0.07275390625,-0.34716796875,0.9189452528953552,0.9850274652107641,0.873565673828125,0.598907470703125,3.0384063720703125,3.217719755788605
1785940367.046883,0.06591796875,-0.3427734375,0.9301757216453552,0.9935117921787088,0.7495880126953125,0.5359649658203125,3.4084320068359375,3.5308001045920077
1785940367.057589,0.07373046875,-0.3388671875,0.9252929091453552,0.9881468112081977,0.873565673828125,0.354766845703125,3.8318634033203125,3.946156819363171
1785940367.068262,0.0693359375,-0.3388671875,0.9233397841453552,0.9859993914697692,1.178741455078125,0.232696533203125,4.3239593505859375,4.487783813866708
1785940367.078933,0.07958984375,-0.34326171875,0.9335936903953552,0.997877913140366,0.934600830078125,0.537872314453125,4.5032501220703125,4.630555798191419
1785940367.089606,0.0810546875,-0.3388671875,0.9121093153953552,0.9763934843908302,0.507354736328125,0.720977783203125,4.2629241943359375,4.353129963486247
1785940367.100219,0.08349609375,-0.36181640625,0.9291991591453552,1.0006466843294934,0.812530517578125,0.537872314453125,4.1408538818359375,4.253960900074975
1785940367.110833,0.0703125,-0.34716796875,0.9174804091453552,0.9834834758895441,0.873565673828125,0.720977783203125,4.3239593505859375,4.469849037258735
1785940367.121447,0.07763671875,-0.35595703125,0.9282225966453552,0.9971609985943223,1.1157989501953125,0.2918243408203125,4.6291351318359375,4.770645743707019
1785940367.129486,0.0830078125,-0.33642578125,0.9272460341453552,0.9898776747982537,1.483917236328125,0.537872314453125,4.5680999755859375,4.833099872532649
1785940367.137526,0.08349609375,-0.3447265625,0.9194335341453552,0.9854775615282132,1.6040802001953125,0.7801055908203125,4.5680999755859375,4.903995861380389
1785940367.145566,0.06494140625,-0.3359375,0.9262694716453552,0.9874444410973932,1.422882080078125,0.720977783203125,4.4460296630859375,4.723513749606324
1785940367.153606,0.08203125,-0.33349609375,0.9208983778953552,0.9828543091086124,1.1157989501953125,0.1697540283203125,4.5680999755859375,4.7054607759852995
1785940367.164288,0.09130859375,-0.33984375,0.9306640028953552,0.9949706126272628,1.178741455078125,-0.011444091796875,4.5680999755859375,4.717743080340958
1785940367.17497,0.0771484375,-0.34033203125,0.9301757216453552,0.9934810748282524,1.2378692626953125,-0.0705718994140625,4.1408538818359375,4.322495989035559
1785940367.185652,0.09228515625,-0.32958984375,0.9355468153953552,0.9961896701751264,1.056671142578125,0.232696533203125,3.8967132568359375,4.044140920655838
1785940367.193588,0.0673828125,-0.3466796875,0.9194335341453552,0.9849290699621602,1.4820098876953125,-0.1964569091796875,4.3239593505859375,4.575103615210335
1785940367.201524,0.09423828125,-0.32958984375,0.9213866591453552,0.9830888537701679,0.995635986328125,-0.133514404296875,4.4460296630859375,4.5581023330401855
1785940367.209461,0.07666015625,-0.328125,0.9306640028953552,0.9897869879254223,1.1157989501953125,-0.1964569091796875,4.4460296630859375,4.588113161143855
1785940367.217399,0.09130859375,-0.34375,0.9208983778953552,0.9871955957169273,0.873565673828125,-0.011444091796875,4.5032501220703125,4.587211529421128
1785940367.228184,0.0869140625,-0.33349609375,0.9199218153953552,0.9823593259327509,0.9326934814453125,-0.1964569091796875,3.8967132568359375,4.0115940289984415
1785940367.238969,0.0927734375,-0.33740234375,0.9287108778953552,0.9924470499702848,0.995635986328125,-0.133514404296875,3.5266876220703125,3.666966416138861
1785940367.249754,0.08642578125,-0.32568359375,0.9272460341453552,0.9865720585648456,0.568389892578125,-0.133514404296875,3.1032562255859375,3.1577036542046817
1785940367.260308,0.09326171875,-0.337890625,0.9248046278953552,0.9890052691587448,0.751495361328125,-0.255584716796875,2.9811859130859375,3.085050773316359
1785940367.270859,0.09130859375,-0.35400390625,0.9311522841453552,1.0003502392672148,0.9326934814453125,-0.0133514404296875,2.6149749755859375,2.776362640980605
1785940367.281412,0.10595703125,-0.34521484375,0.9252929091453552,0.9932608663041774,0.812530517578125,0.354766845703125,2.4318695068359375,2.5884463786380407
1785940367.292098,0.0849609375,-0.33056640625,0.9233397841453552,0.9844027970437255,0.873565673828125,-0.072479248046875,2.1877288818359375,2.356804592728754
1785940367.302786,0.09814453125,-0.34619140625,0.9272460341453552,0.9946185432686865,0.629425048828125,-0.255584716796875,1.7604827880859375,1.8870079720815336
1785940367.313473,0.091796875,-0.3232421875,0.9257811903953552,0.9848771448913777,0.446319580078125,-0.072479248046875,1.0852813720703125,1.175708325020017
1785940367.324115,0.10595703125,-0.33837890625,0.9145507216453552,0.9808823574355386,0.0782012939453125,-0.3185272216796875,0.7190704345703125,0.7903400048073235
1785940367.334758,0.08984375,-0.3349609375,0.9189452528953552,0.9822072626914595,0.202178955078125,-0.194549560546875,0.1087188720703125,0.3009080499582981
1785940367.345401,0.095703125,-0.33935546875,0.9267577528953552,0.9915650028399279,-0.0438690185546875,-0.3795623779296875,-0.0095367431640625,0.38220810954082035
1785940367.3534,0.08642578125,-0.33935546875,0.9223632216453552,0.9866029913187998,0.0782012939453125,0.1125335693359375,-0.1926422119140625,0.23641122734199826
1785940367.3614,0.0810546875,-0.31982421875,0.9218749403953552,0.9791377834573183,-0.0438690185546875,0.1125335693359375,-0.0095367431640625,0.12115793200040624
1785940367.369399,0.0703125,-0.34619140625,0.9267577528953552,0.9918025357747634,-0.4100799560546875,-0.1964569091796875,-0.1316070556640625,0.47337226854011427
1785940367.377398,0.07568359375,-0.3388671875,0.9208983778953552,0.9841812838788246,-0.3490447998046875,-0.0133514404296875,-0.1316070556640625,0.37327061273666523
1785940367.388082,0.08056640625,-0.33251953125,0.9311522841453552,0.9920205445190499,-0.591278076171875,0.049591064453125,-0.1926422119140625,0.6238429761135812
1785940367.398766,0.0849609375,-0.326171875,0.9287108778953552,0.9879829693183259,-0.2269744873046875,-0.5016326904296875,-0.4978179931640625,0.7422772583831779
1785940367.40945,0.08349609375,-0.34716796875,0.9150390028953552,0.9822390610321072,0.019073486328125,-0.072479248046875,-1.0509490966796875,1.053618072685734
1785940367.42011,0.07666015625,-0.32666015625,0.9189452528953552,0.9782862643707398,-0.286102294921875,0.232696533203125,-0.8029937744140625,0.8836295612257768
1785940367.430771,0.072265625,-0.3388671875,0.9218749403953552,0.9848384116441339,-0.4100799560546875,-0.5016326904296875,-0.9250640869140625,1.1294000581564043
1785940367.441432,0.07421875,-0.3427734375,0.9189452528953552,0.9835966806196721,-0.286102294921875,-0.194549560546875,-0.8640289306640625,0.9307255490707392
1785940367.449435,0.06494140625,-0.333984375,0.9462890028953552,1.0055972484004487,-0.164031982421875,-0.133514404296875,-0.0095367431640625,0.2117156982421875
1785940367.457439,0.06884765625,-0.3359375,0.9252929091453552,0.9867932769288827,0.019073486328125,-0.194549560546875,0.7190704345703125,0.7451681818642214
1785940367.465445,0.0751953125,-0.3369140625,0.9218749403953552,0.9843875386559738,-0.2269744873046875,-0.1964569091796875,1.0280609130859375,1.0709911185751044
1785940367.473449,0.0751953125,-0.34130859375,0.9262694716453552,0.9900106187772638,0.141143798828125,-0.255584716796875,1.2722015380859375,1.3052746350542472
1785940367.484106,0.08349609375,-0.3291015625,0.9135741591453552,0.9746266876961625,-0.102996826171875,-0.072479248046875,1.3332366943359375,1.3391720093859256
1785940367.494761,0.076171875,-0.32763671875,0.9243163466453552,0.98362019229482,-0.164031982421875,0.110626220703125,1.0280609130859375,1.0469259252589929
1785940367.505418,0.0712890625,-0.330078125,0.9179686903953552,0.9781105334172657,-0.102996826171875,0.171661376953125,1.5735626220703125,1.5862456619690783
1785940367.513413,0.064453125,-0.33642578125,0.9169921278953552,0.9788825640667985,-0.286102294921875,0.232696533203125,1.6994476318359375,1.7390009928338432
1785940367.521406,0.07275390625,-0.3369140625,0.9389647841453552,1.000229514786492,-0.041961669921875,0.232696533203125,1.9435882568359375,1.957918223628848
1785940367.529398,0.0927734375,-0.34130859375,0.9140624403953552,0.9801064288201977,-0.286102294921875,0.598907470703125,2.2487640380859375,2.3446714867145353
1785940367.537392,0.08349609375,-0.33251953125,0.9179686903953552,0.9799017057237894,0.202178955078125,0.293731689453125,2.1266937255859375,2.1563814221310813
1785940367.548067,0.0810546875,-0.33544921875,0.9155272841453552,0.9784100616511863,0.0782012939453125,0.4749298095703125,2.3097991943359375,2.3594164711954013
1785940367.558742,0.07421875,-0.34716796875,0.9306640028953552,0.9960770590987271,-0.2269744873046875,0.6008148193359375,2.0046234130859375,2.104996649240377
1785940367.569417,0.07421875,-0.33447265625,0.9248046278953552,0.9862271444282801,-0.2269744873046875,0.3528594970703125,2.1266937255859375,2.167683889548136
1785940367.580086,0.08251953125,-0.32958984375,0.9169921278953552,0.9779128288160047,-0.102996826171875,0.476837158203125,1.8787384033203125,1.9410409603496956
1785940367.590756,0.07421875,-0.337890625,0.9165038466453552,0.9796212524390158,-0.4100799560546875,0.6580352783203125,1.9435882568359375,2.0925370510417407
1785940367.601425,0.06787109375,-0.33154296875,0.9233397841453552,0.9834040789421081,-0.469207763671875,0.659942626953125,2.0618438720703125,2.2151479294064433
1785940367.612089,0.07763671875,-0.33447265625,0.9086913466453552,0.9714007315960527,-0.469207763671875,0.232696533203125,1.8787384033203125,1.9503747307031212
1785940367.622752,0.078125,-0.3408203125,0.9345702528953552,0.9978394453189781,-0.286102294921875,0.415802001953125,2.1877288818359375,2.2451956459085944
1785940367.633417,0.06396484375,-0.33642578125,0.9267577528953552,0.9880049291766125,-0.2269744873046875,0.4749298095703125,2.0618438720703125,2.127974599166921
1785940367.641471,0.07666015625,-0.3466796875,0.9282225966453552,0.9938112367066584,-0.2269744873046875,0.6008148193359375,1.8215179443359375,1.9314304249852543
1785940367.649524,0.0703125,-0.34619140625,0.9179686903953552,0.98359486271725,-0.347137451171875,0.110626220703125,1.6994476318359375,1.738063527051281
1785940367.657578,0.07470703125,-0.353515625,0.9374999403953552,1.0047191527380295,-0.225067138671875,0.537872314453125,2.0618438720703125,2.142699698128276
1785940367.665632,0.07275390625,-0.3349609375,0.9204100966453552,0.9821642971174552,-0.347137451171875,0.354766845703125,1.9435882568359375,2.0059659112075683
1785940367.676214,0.07177734375,-0.345703125,0.9389647841453552,1.0031537786280351,0.0782012939453125,0.2918243408203125,1.9435882568359375,1.9669296378824763
1785940367.686795,0.080078125,-0.3515625,0.9233397841453552,0.9912441951887319,0.202178955078125,0.049591064453125,2.0618438720703125,2.0723261703563884
1785940367.697376,0.07275390625,-0.33984375,0.9272460341453552,0.990238412265948,-0.286102294921875,0.110626220703125,1.9435882568359375,1.967645292215337
1785940367.708045,0.0771484375,-0.3466796875,0.9243163466453552,0.9902016945095607,-0.164031982421875,-0.072479248046875,1.8787384033203125,1.8872778599785587
1785940367.718715,0.0810546875,-0.3369140625,0.9194335341453552,0.9825675404708801,0.0782012939453125,0.0476837158203125,1.6384124755859375,1.6409706332792167
1785940367.729384,0.07421875,-0.34375,0.9213866591453552,0.9862179581626982,-0.041961669921875,-0.072479248046875,1.6384124755859375,1.640551572885081
1785940367.7374,0.08056640625,-0.33251953125,0.9208983778953552,0.982402161484316,-0.1010894775390625,-0.1964569091796875,1.1501312255859375,1.1711602092375608
1785940367.745416,0.07373046875,-0.33642578125,0.9238280653953552,0.9859395431383673,-0.0438690185546875,-0.1964569091796875,0.8449554443359375,0.8686020440145931
1785940367.753432,0.07763671875,-0.3408203125,0.9316405653953552,0.9950578317871989,-0.286102294921875,-0.133514404296875,0.8449554443359375,0.9020145909170508
1785940367.761448,0.08154296875,-0.3466796875,0.9204100966453552,0.9869097261068883,0.019073486328125,-0.316619873046875,0.8449554443359375,0.9025306891191401
1785940367.77213,0.09228515625,-0.34326171875,0.9204100966453552,0.9866609871835428,0.1392364501953125,-0.1964569091796875,0.5397796630859375,0.5910534585877963
1785940367.782814,0.0810546875,-0.34765625,0.9252929091453552,0.9917669576288876,0.385284423828125,-0.255584716796875,0.4138946533203125,0.6205452592292127
1785940367.793497,0.0869140625,-0.33203125,0.9233397841453552,0.9850660699782566,0.141143798828125,-0.255584716796875,0.3566741943359375,0.46093557067443075
1785940367.803072,0.0751953125,-0.33642578125,0.9345702528953552,0.9961215783771245,0.019073486328125,-0.255584716796875,-0.1316070556640625,0.2881106774165297
1785940367.812649,0.0849609375,-0.3330078125,0.9238280653953552,0.9856829401481182,0.2613067626953125,-0.1964569091796875,0.3566741943359375,0.4838316053131817
1785940367.822227,0.0605468787252903,-0.33251953125,0.9140624403953552,0.9745487715489702,-0.0438690185546875,-0.3795623779296875,-0.0743865966796875,0.3892627072995523
1785940367.831804,0.06591796875,-0.34130859375,0.9291991591453552,0.9920926429160554,0.263214111328125,-0.255584716796875,0.0514984130859375,0.37048252646078095
1785940367.841381,0.07861328125,-0.3388671875,0.9208983778953552,0.9844109107295328,0.385284423828125,-0.133514404296875,0.2307891845703125,0.46854437475435495
1785940367.850996,0.07568359375,-0.34375,0.9233397841453552,0.9881540496544586,0.568389892578125,0.049591064453125,0.2956390380859375,0.642595350511459
1785940367.860617,0.07958984375,-0.330078125,0.9267577528953552,0.9869985027259734,0.507354736328125,-0.316619873046875,0.2307891845703125,0.6410309042452089
1785940367.870237,0.07568359375,-0.33544921875,0.9155272841453552,0.977979750678648,0.812530517578125,-0.438690185546875,0.5397796630859375,1.0695873061943544
1785940367.879857,0.08056640625,-0.34326171875,0.9145507216453552,0.9801645656915394,0.385284423828125,-0.011444091796875,0.1735687255859375,0.42273059622311704
1785940367.889477,0.06689453125,-0.3359375,0.9091796278953552,0.9715639340760565,0.0782012939453125,0.1697540283203125,0.2307891845703125,0.29697730590118226
1785940367.899071,0.06298828125,-0.34326171875,0.9389647841453552,1.0017240123902225,0.2613067626953125,-0.3185272216796875,0.1735687255859375,0.44706478018606166
1785940367.908664,0.06494140625,-0.3486328125,0.9311522841453552,0.9963969091012377,0.690460205078125,-0.255584716796875,0.1087188720703125,0.7442302301041702
1785940367.918259,0.07470703125,-0.34765625,0.9218749403953552,0.9880786478875002,0.3223419189453125,-0.3795623779296875,0.5397796630859375,0.7343936247886099
1785940367.927853,0.0771484375,-0.32763671875,0.9248046278953552,0.9841551202217181,0.690460205078125,-0.194549560546875,0.7839202880859375,1.0625986280709419
1785940367.937447,0.078125,-0.3466796875,0.9340819716453552,0.9993995452785497,0.507354736328125,-0.072479248046875,0.9021759033203125,1.0375853846329195
1785940367.945437,0.08740234375,-0.35107421875,0.9321288466453552,0.9998782243415025,0.995635986328125,0.110626220703125,1.2722015380859375,1.6192670970185432
1785940367.953427,0.0551757849752903,-0.34814453125,0.9223632216453552,0.9874223486081932,0.751495361328125,0.232696533203125,1.3904571533203125,1.5975806865013327
1785940367.961417,0.064453125,-0.34130859375,0.9208983778953552,0.9842253725139201,0.9326934814453125,-0.0133514404296875,2.0046234130859375,2.21102022143273
1785940367.969407,0.0849609375,-0.326171875,0.9086913466453552,0.9691885350178486,0.873565673828125,0.110626220703125,2.1266937255859375,2.301777867137582
1785940367.980104,0.0634765625,-0.3330078125,0.9150390028953552,0.975817531095121,0.812530517578125,0.110626220703125,2.1877288818359375,2.336365053479861
1785940367.990801,0.078125,-0.32763671875,0.9248046278953552,0.9842321549690058,0.568389892578125,0.171661376953125,2.0618438720703125,2.1456315739465417
1785940368.001498,0.07763671875,-0.33935546875,0.9252929091453552,0.9886134542800201,0.1392364501953125,0.2918243408203125,2.0046234130859375,2.0305327535527504
1785940368.012127,0.0771484375,-0.3466796875,0.9321288466453552,0.997498307708935,0.324249267578125,0.598907470703125,2.2487640380859375,2.349631342355123
1785940368.022755,0.0732421875,-0.33251953125,0.9331054091453552,0.9932871494531809,0.202178955078125,0.354766845703125,2.3670196533203125,2.4019820740153826
1785940368.033383,0.0610351599752903,-0.34375,0.9243163466453552,0.9880536736073733,0.690460205078125,0.293731689453125,2.8553009033203125,2.9522460684514944
1785940368.041423,0.06005859375,-0.3310546875,0.9208983778953552,0.9804376896107405,0.9326934814453125,0.6008148193359375,3.1032562255859375,3.2956175110443464
1785940368.049464,0.0703125,-0.328125,0.9282225966453552,0.987019276510999,0.812530517578125,0.232696533203125,3.4084320068359375,3.5116608981768422
1785940368.057504,0.072265625,-0.33544921875,0.9262694716453552,0.9877872407653338,0.873565673828125,0.110626220703125,3.7097930908203125,3.812862431808414
1785940368.065546,0.06982421875,-0.32958984375,0.9331054091453552,0.9920638039982701,0.629425048828125,0.171661376953125,3.6525726318359375,3.7103814293501736
1785940368.07617,0.06884765625,-0.3349609375,0.9189452528953552,0.980509667081822,0.6275177001953125,0.4749298095703125,3.9577484130859375,4.035233486350098
1785940368.086796,0.05859375,-0.3349609375,0.9335936903953552,0.9935941001918036,0.568389892578125,0.171661376953125,3.8967132568359375,3.9416885854064314
1785940368.09742,0.06494140625,-0.33251953125,0.9169921278953552,0.9775792487212986,0.690460205078125,0.537872314453125,4.1408538818359375,4.232341289660776
1785940368.105474,0.068359375,-0.3505859375,0.9272460341453552,0.9936642851393189,0.446319580078125,0.537872314453125,4.6291351318359375,4.68160227518464
1785940368.113527,0.0527343787252903,-0.34814453125,0.9301757216453552,0.9945915757120014,0.934600830078125,0.415802001953125,5.0563812255859375,5.15881392520305
1785940368.121579,0.0478515662252903,-0.34619140625,0.9155272841453552,0.9799635045072524,0.995635986328125,0.659942626953125,5.7888031005859375,5.910757703162492
1785940368.129632,0.04052734375,-0.34423828125,0.9296874403953552,0.9922001797511689,0.873565673828125,1.026153564453125,7.1277618408203125,7.254040045642484
1785940368.140242,0.0527343787252903,-0.32861328125,0.9370116591453552,0.9943633403780358,1.300811767578125,1.148223876953125,8.413314819335938,8.590366440119578
1785940368.150851,0.0625,-0.34619140625,0.9291991591453552,0.9935621858332712,1.422882080078125,1.209259033203125,9.569168090820312,9.749660444013651
1785940368.16146,0.0673828125,-0.34228515625,0.9204100966453552,0.9843039762269628,1.422882080078125,1.514434814453125,10.488510131835938,10.692378173571127
1785940368.169577,0.07373046875,-0.333984375,0.9165038466453552,0.9782438579832577,1.667022705078125,1.453399658203125,10.423660278320312,10.655704052926003
1785940368.177693,0.0751953125,-0.32958984375,0.9321288466453552,0.9915381923423435,2.155303955078125,1.392364501953125,10.240554809570312,10.557129195614129
1785940368.185809,0.09130859375,-0.33837890625,0.9291991591453552,0.9931005089335037,1.605987548828125,1.026153564453125,9.569168090820312,9.757108439245947
1785940368.193925,0.09130859375,-0.33154296875,0.9238280653953552,0.9857567112793556,1.667022705078125,1.026153564453125,8.047103881835938,8.281777389072039
1785940368.204441,0.0859375,-0.32373046875,0.9296874403953552,0.9881828814203432,1.300811767578125,1.209259033203125,6.7043304443359375,6.93559408925456
1785940368.214957,0.091796875,-0.3291015625,0.9174804091453552,0.9790325867228503,0.995635986328125,0.843048095703125,5.7277679443359375,5.874465655113031
1785940368.225472,0.08154296875,-0.34033203125,0.9335936903953552,0.9970317577656856,1.0585784912109375,0.7801055908203125,5.1746368408203125,5.339102882438056
1785940368.236314,0.0595703125,-0.33251953125,0.9189452528953552,0.9790700887132523,0.507354736328125,1.087188720703125,4.6863555908203125,4.837490761387714
1785940368.247156,0.0585937462747097,-0.3388671875,0.9306640028953552,0.9921691812145099,0.8754730224609375,0.7801055908203125,4.3239593505859375,4.480138637520669
1785940368.257998,0.0585937462747097,-0.337890625,0.9282225966453552,0.989545597983459,0.873565673828125,0.965118408203125,4.3239593505859375,4.515661080491192
1785940368.266669,0.06201171875,-0.3359375,0.9291991591453552,0.9900053204528824,0.812530517578125,1.209259033203125,4.3849945068359375,4.62068069404936
1785940368.275341,0.06591796875,-0.33984375,0.9321288466453552,0.994335526754721,0.507354736328125,1.087188720703125,4.1980743408203125,4.366144330407846
1785940368.284013,0.0673828125,-0.34326171875,0.9223632216453552,0.9864699506947046,0.690460205078125,1.026153564453125,4.0149688720703125,4.201154778906621
1785940368.292685,0.07177734375,-0.33935546875,0.9257811903953552,0.9886278034407989,0.5702972412109375,0.9632110595703125,3.2863616943359375,3.4717701068201428
1785940368.303848,0.0571289099752903,-0.32373046875,0.9169921278953552,0.9741353557766554,0.507354736328125,0.415802001953125,1.8215179443359375,1.936034027294104
1785940368.315013,0.0532226525247097,-0.34326171875,0.9326171278953552,0.9952064939221164,0.8106231689453125,0.4749298095703125,2.2487640380859375,2.437131089013885
1785940368.326178,0.0483398400247097,-0.32958984375,0.9277343153953552,0.9857267193288677,0.7495880126953125,0.4749298095703125,2.6149749755859375,2.7614370598903166
1785940368.337343,0.0483398400247097,-0.34326171875,0.9223632216453552,0.9853523533928445,0.7495880126953125,0.7801055908203125,3.2863616943359375,3.4598583941549097
1785940368.345368,0.04931640625,-0.3330078125,0.9204100966453552,0.9800413547999709,0.446319580078125,0.904083251953125,3.8318634033203125,3.962290352274651
1785940368.353391,0.0537109337747097,-0.34375,0.9301757216453552,0.9931141928526692,0.5702972412109375,0.7801055908203125,4.1980743408203125,4.307856990107241
1785940368.361414,0.0468750037252903,-0.34228515625,0.9287108778953552,0.9908886359649576,0.934600830078125,0.904083251953125,4.3849945068359375,4.573731743666894
1785940368.369437,0.05126953125,-0.34619140625,0.9277343153953552,0.9915482915915067,0.995635986328125,1.026153564453125,4.9915313720703125,5.192269984647714
1785940368.380098,0.06640625,-0.32470703125,0.9223632216453552,0.9801011982577359,0.9326934814453125,1.0890960693359375,5.1174163818359375,5.314508237236667
1785940368.390759,0.0605468787252903,-0.34423828125,0.9365233778953552,0.9996209062168795,1.2378692626953125,0.9059906005859375,5.6056976318359375,5.811797073147594
1785940368.401419,0.05908203125,-0.33154296875,0.9287108778953552,0.9878842651167954,0.812530517578125,1.331329345703125,5.6056976318359375,5.818632967312608
1785940368.409404,0.0712890625,-0.32421875,0.9072265028953552,0.9660537541148667,1.2378692626953125,0.9632110595703125,4.6863555908203125,4.941864484222245
1785940368.417388,0.06591796875,-0.3427734375,0.9199218153953552,0.9839181645340116,1.1157989501953125,0.9632110595703125,4.4460296630859375,4.68401137995795
1785940368.425374,0.05810546875,-0.33642578125,0.9189452528953552,0.9803157295520859,0.934600830078125,0.537872314453125,3.9577484130859375,4.102018751727268
1785940368.433359,0.0537109375,-0.326171875,0.9296874403953552,0.9867075015814016,0.507354736328125,0.659942626953125,3.4694671630859375,3.5679315429357605
1785940368.444053,0.0605468787252903,-0.33251953125,0.9155272841453552,0.9759228305561176,0.446319580078125,0.537872314453125,3.5915374755859375,3.658913668393186
1785940368.454749,0.06103515625,-0.34130859375,0.9248046278953552,0.9876641363554368,0.568389892578125,0.659942626953125,3.4084320068359375,3.517953963041361
1785940368.465444,0.0556640625,-0.326171875,0.9326171278953552,0.9895763169856082,0.3223419189453125,0.9632110595703125,3.7097930908203125,3.8463287216105226
1785940368.473448,0.0312500037252903,-0.3447265625,0.9374999403953552,0.9993593467152803,0.507354736328125,1.148223876953125,3.9577484130859375,4.152059657731823
1785940368.481452,0.05419921875,-0.3408203125,0.9355468153953552,0.9971679319563475,0.568389892578125,1.148223876953125,4.1408538818359375,4.334530656519341
1785940368.489456,0.048828125,-0.3447265625,0.9282225966453552,0.9913716647187006,0.4444122314453125,0.6580352783203125,4.4460296630859375,4.516380456074571
1785940368.49746,0.04541015625,-0.3369140625,0.9257811903953552,0.9862271443692595,0.507354736328125,0.965118408203125,4.5032501220703125,4.633370698773561
1785940368.508115,0.0507812537252903,-0.33837890625,0.9360350966453552,0.9966146306756378,0.4444122314453125,0.7801055908203125,4.3239593505859375,4.416185167065221
1785940368.51877,0.0512695349752903,-0.33203125,0.9252929091453552,0.9843984375789204,0.629425048828125,0.598907470703125,3.5915374755859375,3.695132946064933
1785940368.529425,0.07421875,-0.33154296875,0.9301757216453552,0.9902807865032944,0.5702972412109375,0.4749298095703125,3.0384063720703125,3.1277324932271267
1785940368.540087,0.0732421875,-0.330078125,0.9160155653953552,0.976422297307816,0.385284423828125,-0.255584716796875,1.5735626220703125,1.640081388310198
1785940368.550751,0.06298828125,-0.3349609375,0.9326171278953552,0.9929456482957612,0.0782012939453125,0.1125335693359375,0.7839202880859375,0.7958079320256533
1785940368.561416,0.0624999962747097,-0.3291015625,0.9355468153953552,0.9937111913280795,0.0782012939453125,0.0476837158203125,0.5970001220703125,0.6039853681018452
1785940368.572123,0.0610351599752903,-0.34228515625,0.9365233778953552,0.9989797076451666,0.1392364501953125,-0.1964569091796875,-0.0743865966796875,0.25202276086301056
1785940368.582829,0.06689453125,-0.328125,0.9291991591453552,0.9877003448883636,0.019073486328125,-0.438690185546875,-0.0095367431640625,0.43920818098714653
1785940368.593535,0.0527343787252903,-0.33837890625,0.9277343153953552,0.9889247488340945,0.019073486328125,-0.194549560546875,-0.4367828369140625,0.4785316875739661
1785940368.601735,0.0590820275247097,-0.3330078125,0.9296874403953552,0.9892945092293461,-0.041961669921875,-0.133514404296875,-0.6809234619140625,0.6951572763644307
1785940368.609934,0.04150390625,-0.33056640625,0.9316405653953552,0.9894194592109182,-0.286102294921875,-0.316619873046875,-0.4978179931640625,0.6556869843802585
1785940368.618133,0.0595703125,-0.3310546875,0.9272460341453552,0.9863726659256934,-0.2269744873046875,-0.0133514404296875,-0.4367828369140625,0.4924174301052612
1785940368.626332,0.05419921875,-0.34423828125,0.9296874403953552,0.9928526005505206,-0.2269744873046875,-0.1354217529296875,-0.3757476806640625,0.45939393615740876
1785940368.636702,0.04052734375,-0.34619140625,0.9257811903953552,0.9892228100092638,-0.102996826171875,-0.316619873046875,-0.0743865966796875,0.34115957552923115
1785940368.647072,0.0615234375,-0.33544921875,0.9208983778953552,0.9820209438357709,-0.041961669921875,-0.072479248046875,0.2307891845703125,0.24551511329183504
1785940368.657442,0.0532226525247097,-0.3271484375,0.9257811903953552,0.9833257666665195,0.0782012939453125,-0.1964569091796875,0.0514984130859375,0.21763006706226742
1785940368.665441,0.0498046912252903,-0.33349609375,0.9204100966453552,0.9802320632489367,-0.286102294921875,-0.194549560546875,0.2956390380859375,0.4550895466926527
1785940368.673443,0.0478515662252903,-0.3359375,0.9106444716453552,0.9718112625580707,-0.164031982421875,-0.072479248046875,0.1735687255859375,0.2495713027497697
1785940368.681445,0.0576171912252903,-0.3212890625,0.9267577528953552,0.9825611100376754,-0.2269744873046875,-0.1354217529296875,-0.0095367431640625,0.26447574278930075
1785940368.689447,0.06787109375,-0.33740234375,0.9389647841453552,1.0000508451073615,-0.286102294921875,0.049591064453125,0.1087188720703125,0.3100541726495525
1785940368.700159,0.0424804724752903,-0.33984375,0.9277343153953552,0.9889334279504738,-0.347137451171875,0.171661376953125,0.2956390380859375,0.48721091858036925
1785940368.710871,0.0546875,-0.34619140625,0.9340819716453552,0.9976714600360566,-0.530242919921875,-0.133514404296875,-0.0095367431640625,0.5468771340549928
1785940368.721583,0.0419921912252903,-0.32763671875,0.9291991591453552,0.9861644086832596,-0.347137451171875,0.110626220703125,-0.1316070556640625,0.38737964300376715
1785940368.732193,0.0654296875,-0.32861328125,0.9252929091453552,0.984090798826467,-0.5321502685546875,0.1697540283203125,0.1087188720703125,0.5690519586101435
1785940368.742805,0.05517578125,-0.33203125,0.9326171278953552,0.9914957514063748,-0.347137451171875,0.049591064453125,0.2307891845703125,0.41979439180904937
1785940368.753418,0.0576171912252903,-0.33251953125,0.9277343153953552,0.9872081540128707,-0.774383544921875,-0.011444091796875,0.4787445068359375,0.9104928032161539
1785940368.761812,0.0615234375,-0.34619140625,0.9121093153953552,0.9775362020683186,-0.5321502685546875,-0.0133514404296875,0.2307891845703125,0.5801946371684276
1785940368.770207,0.046875,-0.33642578125,0.9252929091453552,0.9856706040200993,-0.7152557373046875,-0.0133514404296875,0.2956390380859375,0.7740616716704154
1785940368.778601,0.0585937462747097,-0.3330078125,0.9174804091453552,0.9778025012516938,-0.7152557373046875,-0.1354217529296875,0.2956390380859375,0.7857049457361204
1785940368.786995,0.0546875,-0.3271484375,0.9257811903953552,0.9834061395500754,-0.835418701171875,-0.133514404296875,0.2956390380859375,0.8961880066497377
1785940368.79717,0.0458984412252903,-0.333984375,0.9160155653953552,0.9760823457565577,-1.262664794921875,-0.194549560546875,0.1087188720703125,1.2821824008261553
1785940368.807345,0.0454101599752903,-0.33349609375,0.9350585341453552,0.9937888052567058,-1.140594482421875,0.171661376953125,0.1087188720703125,1.1585521977075133
1785940368.81752,0.0615234412252903,-0.34912109375,0.9140624403953552,0.9803982950122416,-1.567840576171875,-0.316619873046875,0.2956390380859375,1.6265837381271075
1785940368.828132,0.0620117224752903,-0.3369140625,0.9282225966453552,0.9894209054581635,-1.506805419921875,-0.133514404296875,0.0514984130859375,1.513585397726556
1785940368.838746,0.0625,-0.32568359375,0.9267577528953552,0.984304823613886,-1.140594482421875,-0.011444091796875,-0.4367828369140625,1.2214196605552805
1785940368.84936,0.05029296875,-0.3359375,0.9233397841453552,0.9838392874842565,-1.140594482421875,-0.316619873046875,-0.5626678466796875,1.3106483216433769
1785940368.860054,0.0385742150247097,-0.33447265625,0.9301757216453552,0.9892354628611737,-1.323699951171875,-0.255584716796875,-0.4978179931640625,1.4371248597496522
1785940368.87075,0.05029296875,-0.349609375,0.9179686903953552,0.9835764405168226,-1.2035369873046875,-0.1964569091796875,-0.3147125244140625,1.259420727953114
1785940368.881445,0.0439453125,-0.34521484375,0.9282225966453552,0.9913131027879665,-1.2035369873046875,-0.1354217529296875,0.0514984130859375,1.212226223741824
1785940368.892112,0.041015625,-0.341796875,0.9145507216453552,0.9771951738091763,-1.628875732421875,-0.072479248046875,0.5970001220703125,1.7363463188034547
1785940368.90278,0.0532226525247097,-0.34228515625,0.9287108778953552,0.9912091977236764,-1.750946044921875,0.110626220703125,0.8449554443359375,1.94730580953469
1785940368.913448,0.05322265625,-0.3349609375,0.9296874403953552,0.9896212495788739,-1.995086669921875,0.049591064453125,0.8449554443359375,2.167205527190832
1785940368.921479,0.04931640625,-0.3408203125,0.9374999403953552,0.9987475815136211,-1.6918182373046875,0.3528594970703125,0.9021759033203125,1.9495333116623772
1785940368.929513,0.05859375,-0.34423828125,0.9311522841453552,0.9944736286529317,-1.384735107421875,0.232696533203125,1.0852813720703125,1.7746759284033367
1785940368.937546,0.0517578162252903,-0.3466796875,0.9370116591453552,1.0004281716544372,-1.018524169921875,-0.133514404296875,0.7839202880859375,1.292187524681512
1785940368.94558,0.0556640625,-0.341796875,0.9335936903953552,0.9957513597077274,-0.8983612060546875,0.3528594970703125,0.2307891845703125,0.9923841639865967
1785940368.956195,0.0361328162252903,-0.34375,0.9350585341453552,0.9968972390303983,-0.8983612060546875,0.3528594970703125,0.5397796630859375,1.1058592884711484
1785940368.966809,0.0522460974752903,-0.3447265625,0.9301757216453552,0.993374516852995,-0.530242919921875,0.110626220703125,0.4138946533203125,0.6816923784827539
1785940368.977422,0.04052734375,-0.34130859375,0.9267577528953552,0.9884401622307146,-0.591278076171875,0.171661376953125,0.8449554443359375,1.04547936116018
1785940368.985413,0.0439453087747097,-0.33349609375,0.9272460341453552,0.9863752037374534,-0.774383544921875,0.171661376953125,1.3904571533203125,1.600783744983325
1785940368.993406,0.0336914025247097,-0.3232421875,0.9223632216453552,0.9779440347115298,-0.774383544921875,0.354766845703125,1.8215179443359375,2.0108349039624644
1785940369.001399,0.0336914025247097,-0.33935546875,0.9199218153953552,0.9810980538228073,-0.8983612060546875,0.5359649658203125,1.8787384033203125,2.1503416680242604
1785940369.009392,0.0522460974752903,-0.33740234375,0.9296874403953552,0.9903982699390472,-1.018524169921875,0.415802001953125,2.4318695068359375,2.669133209081506
1785940369.02007,0.04736328125,-0.34130859375,0.9296874403953552,0.9914905816028896,-0.8983612060546875,0.6008148193359375,2.7980804443359375,2.999547545322945
1785940369.030748,0.0546875037252903,-0.34326171875,0.9389647841453552,1.0012363339831616,-0.4100799560546875,0.2918243408203125,2.8553009033203125,2.899322380273504
1785940369.041426,0.0517578125,-0.33642578125,0.9311522841453552,0.9914160346260142,-0.4100799560546875,0.8411407470703125,2.6149749755859375,2.777368799724029
1785940369.052109,0.0537109375,-0.341796875,0.9238280653953552,0.9864929107596361,-0.225067138671875,0.537872314453125,3.3435821533203125,3.3940394015932114
1785940369.062793,0.0478515662252903,-0.3447265625,0.9409179091453552,1.003221155595189,-0.530242919921875,0.415802001953125,2.6760101318359375,2.7595432746460227
1785940369.073476,0.04931640625,-0.3466796875,0.9228515028953552,0.9870530938337251,-0.225067138671875,0.537872314453125,3.3435821533203125,3.3940394015932114
1785940369.084127,0.0478515662252903,-0.349609375,0.9228515028953552,0.9880138581388015,-0.530242919921875,0.720977783203125,3.9577484130859375,4.057676554296069
1785940369.09478,0.0429687537252903,-0.34375,0.9228515028953552,0.9857308317654067,-0.530242919921875,0.720977783203125,4.0798187255859375,4.176827426605202
1785940369.105433,0.04052734375,-0.34912109375,0.9262694716453552,0.990708402000706,-0.530242919921875,1.026153564453125,4.5680999755859375,4.7118665175188665
1785940369.113429,0.03857421875,-0.34619140625,0.9301757216453552,0.9932589457195856,-0.347137451171875,0.659942626953125,4.9343109130859375,4.990335947396215
1785940369.121426,0.06494140625,-0.3447265625,0.9365233778953552,1.0000649111349325,-0.2269744873046875,0.7801055908203125,5.3615570068359375,5.422764579830833
1785940369.129423,0.06005859375,-0.3408203125,0.9296874403953552,0.9920102100909508,0.263214111328125,0.904083251953125,5.5446624755859375,5.624049267479364
1785940369.137419,0.04931640625,-0.35498046875,0.9311522841453552,0.9977413579623213,0.1392364501953125,0.9632110595703125,5.1746368408203125,5.265361219205799
1785940369.148066,0.0512695349752903,-0.3466796875,0.9165038466453552,0.9812210107093167,0.3223419189453125,0.9632110595703125,5.1174163818359375,5.217243552209417
1785940369.158711,0.0556640662252903,-0.34423828125,0.9326171278953552,0.9956772518193177,0.2613067626953125,0.8411407470703125,5.0563812255859375,5.132522779206172
1785940369.169358,0.04931640625,-0.33544921875,0.9145507216453552,0.9753775211411427,-0.102996826171875,0.843048095703125,5.0563812255859375,5.127214598232465
1785940369.177369,0.0458984375,-0.34033203125,0.9350585341453552,0.9961260062551087,-0.469207763671875,1.087188720703125,4.8122406005859375,4.955783978125132
1785940369.185381,0.056640625,-0.3310546875,0.9145507216453552,0.9742732619640926,-0.347137451171875,0.659942626953125,4.7512054443359375,4.8093639761576945
1785940369.193393,0.05029296875,-0.3369140625,0.9189452528953552,0.9800514507079977,-0.4100799560546875,0.6008148193359375,4.3239593505859375,4.384719886493441
1785940369.201405,0.0473632849752903,-0.33251953125,0.9296874403953552,0.9884994973469827,-0.102996826171875,0.537872314453125,4.2629241943359375,4.29795738223535
1785940369.213381,0.06640625,-0.32958984375,0.9272460341453552,0.9863186417078921,-0.2269744873046875,0.7801055908203125,4.0798187255859375,4.1599282426933755
1785940369.225358,0.06005859375,-0.34423828125,0.9257811903953552,0.9895341537567173,-0.530242919921875,0.598907470703125,3.7746429443359375,3.8584682284316356
1785940369.237337,0.0463867224752903,-0.3466796875,0.9223632216453552,0.9864544826757573,0.019073486328125,0.782012939453125,3.2215118408203125,3.315123915617379
1785940369.249315,0.0424804724752903,-0.32568359375,0.9282225966453552,0.984617480396669,-0.347137451171875,0.659942626953125,3.1032562255859375,3.191587047616558
1785940369.257336,0.0341796837747097,-0.34814453125,0.9248046278953552,0.9887550076732293,-0.5321502685546875,0.4749298095703125,2.9201507568359375,3.0059977835971234
1785940369.265357,0.048828125,-0.341796875,0.9316405653953552,0.9935609858689896,-0.774383544921875,0.476837158203125,2.9811859130859375,3.1168113511200892
1785940369.273377,0.0468750037252903,-0.34423828125,0.9184569716453552,0.9819676517157563,-0.774383544921875,0.171661376953125,3.4084320068359375,3.4995065721051115
1785940369.281399,0.0439453125,-0.33154296875,0.9296874403953552,0.9880134955794649,-0.8983612060546875,0.5359649658203125,3.4694671630859375,3.6237430506124997
1785940369.292073,0.04443359375,-0.359375,0.9326171278953552,1.0004496199820965,-0.7152557373046875,0.2918243408203125,3.6525726318359375,3.7333683245133193
1785940369.302747,0.04345703125,-0.34619140625,0.9213866591453552,0.9852362046623414,-0.469207763671875,0.476837158203125,3.9577484130859375,4.013888650949033
1785940369.313421,0.044921875,-0.3515625,0.9355468153953552,1.0004309121854225,-0.7152557373046875,0.8411407470703125,3.9577484130859375,4.108878317426002
1785940369.321425,0.0546875,-0.33203125,0.9311522841453552,0.9900909301179992,-0.347137451171875,0.720977783203125,3.7746429443359375,3.858528570725332
1785940369.329431,0.0371093787252903,-0.3349609375,0.9301757216453552,0.9893446359983529,0.019073486328125,0.782012939453125,3.7746429443359375,3.854845962237389
1785940369.337437,0.0332031287252903,-0.33642578125,0.9165038466453552,0.9768643994754614,-0.0438690185546875,0.6580352783203125,3.7097930908203125,3.767956965651435
1785940369.345443,0.0288085974752903,-0.3427734375,0.9267577528953552,0.9885360374289387,-0.5321502685546875,0.4749298095703125,3.8318634033203125,3.897681281742627
1785940369.356096,0.02490234375,-0.34375,0.9287108778953552,0.990599860662924,-0.530242919921875,0.598907470703125,4.1408538818359375,4.217406618208285
1785940369.366749,0.0166015662252903,-0.3349609375,0.9331054091453552,0.9915443238848843,-0.469207763671875,1.026153564453125,4.6863555908203125,4.820277563267765
1785940369.377402,0.01953125,-0.33203125,0.9179686903953552,0.9763671119252678,-0.835418701171875,0.843048095703125,5.6056976318359375,5.729965134056874
1785940369.388051,0.0332031287252903,-0.35009765625,0.9243163466453552,0.9889547640538003,-0.2269744873046875,1.4514923095703125,7.9250335693359375,8.060056105122998
1785940369.3987,0.0283203162252903,-0.3505859375,0.9277343153953552,0.9921711041176027,-0.530242919921875,1.392364501953125,8.962631225585938,9.085625732236307
1785940369.409351,0.03857421875,-0.34130859375,0.9082030653953552,0.9709852390810559,-0.591278076171875,1.087188720703125,9.206771850585938,9.289576792649234
1785940369.420036,0.0317382849752903,-0.33984375,0.9208983778953552,0.9821175670751092,-0.347137451171875,1.392364501953125,9.263992309570312,9.374472615997295
1785940369.430722,0.0517578162252903,-0.34423828125,0.9262694716453552,0.989522106837705,-0.286102294921875,1.148223876953125,8.657455444335938,8.737952126524085
1785940369.441407,0.0327148474752903,-0.34521484375,0.9218749403953552,0.9849350005556753,-0.225067138671875,1.209259033203125,8.047103881835938,8.140567763451903
1785940369.449538,0.0463867224752903,-0.34228515625,0.9287108778953552,0.9908656573583766,-0.1010894775390625,0.7801055908203125,7.0705413818359375,7.114164690780829
1785940369.457669,0.0410156287252903,-0.35693359375,0.9165038466453552,0.984410063470886,-0.347137451171875,0.843048095703125,6.5822601318359375,6.645102177155113
1785940369.4658,0.0419921912252903,-0.33740234375,0.9194335341453552,0.9802865445383369,0.0782012939453125,1.0242462158203125,6.6394805908203125,6.718474400403458
1785940369.473931,0.0302734375,-0.35546875,0.9301757216453552,0.9962436380640461,-0.225067138671875,0.537872314453125,6.2770843505859375,6.304105788130144
1785940369.484426,0.0239257849752903,-0.3427734375,0.9301757216453552,0.9916112876428482,-0.041961669921875,0.904083251953125,6.5212249755859375,6.583730134992669
1785940369.494922,0.0219726599752903,-0.3544921875,0.9360350966453552,1.0011539396800095,0.019073486328125,0.782012939453125,6.8874359130859375,6.931715624015367
1785940369.505419,0.0263671912252903,-0.35205078125,0.9165038466453552,0.9821477904407153,-0.164031982421875,0.843048095703125,7.4367523193359375,7.486182047083437
1785940369.516093,0.02978515625,-0.33984375,0.9174804091453552,0.9788519965308483,-0.164031982421875,1.209259033203125,7.1926116943359375,7.295401077811877
1785940369.526766,0.0336914025247097,-0.3583984375,0.9199218153953552,0.9878464946775939,-0.2269744873046875,0.9632110595703125,6.7653656005859375,6.8373580184715586
1785940369.537439,0.0322265662252903,-0.35546875,0.9238280653953552,0.9903811782386417,-0.102996826171875,0.720977783203125,6.8874359130859375,6.925835023081325
1785940369.548084,0.04833984375,-0.34033203125,0.9252929091453552,0.9870813541462528,0.019073486328125,1.087188720703125,5.9680938720703125,6.066340542546884
1785940369.558731,0.0302734412252903,-0.34375,0.9238280653953552,0.9861738376958424,0.324249267578125,0.720977783203125,5.7277679443359375,5.782064698320123
1785940369.569376,0.03369140625,-0.33642578125,0.9150390028953552,0.9755069420380879,-0.102996826171875,0.843048095703125,5.1746368408203125,5.243873079341735
1785940369.577403,0.0288085974752903,-0.35986328125,0.9262694716453552,0.9941361328221983,-0.2269744873046875,0.4749298095703125,4.7512054443359375,4.78027498332399
1785940369.585431,0.02685546875,-0.35595703125,0.9233397841453552,0.9899408978740534,0.019073486328125,0.720977783203125,4.7512054443359375,4.8056348109319185
1785940369.593459,0.0332031287252903,-0.33935546875,0.9184569716453552,0.9797080129771509,-0.1659393310546875,0.7801055908203125,4.6291351318359375,4.697338891672359
1785940369.601487,0.0283203162252903,-0.33740234375,0.9145507216453552,0.9752155681392364,-0.102996826171875,0.598907470703125,4.5680999755859375,4.608344159414934
1785940369.609476,0.0180664099752903,-0.3388671875,0.9086913466453552,0.9699883140541975,-0.347137451171875,0.904083251953125,4.7512054443359375,4.848899267953057
1785940369.617465,0.0146484375,-0.35595703125,0.9267577528953552,0.9928745728283876,-0.469207763671875,0.782012939453125,4.8732757568359375,4.957874218364859
1785940369.625453,0.0234375037252903,-0.3544921875,0.9228515028953552,0.9888725519376215,-0.5321502685546875,0.7801055908203125,5.2394866943359375,5.323905470730605
1785940369.633443,0.037109375,-0.345703125,0.9223632216453552,0.9857188590017211,-0.591278076171875,0.965118408203125,4.8732757568359375,5.00298709846217
1785940369.644145,0.0375976599752903,-0.34375,0.9345702528953552,0.9964934541342988,-0.4100799560546875,0.8411407470703125,4.9343109130859375,5.0222611952922955
1785940369.654847,0.0312500037252903,-0.3525390625,0.9272460341453552,0.9924946151790944,-0.530242919921875,0.537872314453125,4.5680999755859375,4.630118958269937
1785940369.665549,0.01953125,-0.3505859375,0.9199218153953552,0.9846563439797676,-0.774383544921875,0.782012939453125,4.0149688720703125,4.1630744835771845
1785940369.676172,0.0341796875,-0.345703125,0.9111327528953552,0.9751111706216024,-0.957489013671875,0.782012939453125,3.8967132568359375,4.08811737292062
1785940369.686795,0.01708984375,-0.33642578125,0.9160155653953552,0.975991232079287,-1.140594482421875,0.720977783203125,3.8967132568359375,4.123728766929835
1785940369.697418,0.0229492224752903,-0.3408203125,0.9189452528953552,0.9803802986819586,-1.323699951171875,0.904083251953125,3.7746429443359375,4.100911782082082
1785940369.705407,0.0161132849752903,-0.33837890625,0.9160155653953552,0.9766495984713317,-1.3866424560546875,0.9632110595703125,3.4694671630859375,3.8584653998634644
1785940369.713397,0.014160159975290298,-0.341796875,0.9282225966453552,0.9892536594894846,-1.567840576171875,0.659942626953125,3.4084320068359375,3.8093381430879045
1785940369.721386,0.007812503725290298,-0.3525390625,0.9199218153953552,0.9851908303689811,-1.689910888671875,1.026153564453125,4.2629241943359375,4.699075721473992
1785940369.729377,0.008789066225290298,-0.34423828125,0.9155272841453552,0.9781449023419979,-1.262664794921875,0.720977783203125,4.9343109130859375,5.1440796587151105
1785940369.740079,-0.0087890625,-0.34619140625,0.9272460341453552,0.9898034881830184,-1.323699951171875,1.026153564453125,5.6629180908203125,5.905405490049963
1785940369.750781,0.015625,-0.34912109375,0.9248046278953552,0.9886320238101044,-1.201629638671875,1.392364501953125,6.3343048095703125,6.595908589070915
1785940369.761482,0.0205078125,-0.34228515625,0.9179686903953552,0.9799215351796212,-1.5087127685546875,1.1463165283203125,6.2160491943359375,6.498424685068278
1785940369.772182,0.03515625,-0.3466796875,0.9223632216453552,0.9859902029346737,-1.5659332275390625,0.7801055908203125,5.9108734130859375,6.1643439319579025
1785940369.782884,0.0268554724752903,-0.3466796875,0.9204100966453552,0.983901808176853,-1.506805419921875,0.904083251953125,5.3615570068359375,5.642173573856056
1785940369.793585,0.0229492224752903,-0.34814453125,0.9155272841453552,0.979755831555022,-1.3866424560546875,1.0890960693359375,4.7512054443359375,5.067826035240734
1785940369.801548,0.0371093787252903,-0.33984375,0.9311522841453552,0.9919251265456238,-1.018524169921875,0.537872314453125,4.0798187255859375,4.239294628238508
1785940369.809511,0.0341796875,-0.34033203125,0.9233397841453552,0.9846575544411061,-1.262664794921875,0.659942626953125,3.0384063720703125,3.3558545762655405
1785940369.817472,0.0273437537252903,-0.33935546875,0.9121093153953552,0.9735775358281975,-1.323699951171875,0.110626220703125,2.1266937255859375,2.5074381196524222
1785940369.825435,0.0366210974752903,-0.337890625,0.9174804091453552,0.9784076248725343,-1.750946044921875,0.171661376953125,1.4553070068359375,2.2832429053236485
1785940369.836164,0.025390625,-0.34765625,0.9267577528953552,0.990146193525785,-1.8749237060546875,0.1697540283203125,0.7190704345703125,2.015246293515995
1785940369.846893,0.04541015625,-0.35009765625,0.9194335341453552,0.9848799291859951,-2.483367919921875,0.171661376953125,-0.3147125244140625,2.5091089707419276
1785940369.857621,0.0502929724752903,-0.353515625,0.9121093153953552,0.9795131869610151,-2.9735565185546875,0.2918243408203125,-0.6198883056640625,3.051468716279645
1785940369.865696,0.02978515625,-0.35107421875,0.9272460341453552,0.9919301741766147,-3.459930419921875,-0.133514404296875,-3.3054351806640625,4.786945408131074
1785940369.873773,0.0322265662252903,-0.34765625,0.9208983778953552,0.984864072928357,-3.765106201171875,-0.499725341796875,-4.5871734619140625,5.955494143480082
1785940369.881849,0.03564453125,-0.3515625,0.9155272841453552,0.9813546413141644,-3.8280487060546875,-0.6847381591796875,-5.2585601806640625,6.540281218436208
1785940369.889925,0.0341796875,-0.3515625,0.9272460341453552,0.9922447532147182,-3.704071044921875,-0.621795654296875,-6.2999725341796875,7.334604697797253
1785940369.901029,0.044921875,-0.35107421875,0.9116210341453552,0.9779181928058632,-4.131317138671875,-0.621795654296875,-6.7882537841796875,7.970872008407631
1785940369.912133,0.0571289099752903,-0.35009765625,0.9169921278953552,0.9832124103614435,-4.436492919921875,-1.293182373046875,-7.9479217529296875,9.193707101554248
1785940369.923237,0.0571289099752903,-0.35107421875,0.9047850966453552,0.9721897399877415,-4.680633544921875,-1.293182373046875,-9.653091430664062,10.805684855693647
1785940369.932166,0.06884765625,-0.3544921875,0.9155272841453552,0.9841721997619234,-5.168914794921875,-1.110076904296875,-11.060714721679688,12.259256137506767
1785940369.941094,0.08203125,-0.35693359375,0.9077147841453552,0.9788139995320364,-5.840301513671875,-1.659393310546875,-13.685226440429688,14.971577427095701
1785940369.950022,0.078125,-0.34619140625,0.9062499403953552,0.9732630476150512,-6.328582763671875,-1.964569091796875,-16.427993774414062,17.714103730227944
1785940369.95895,0.05419921875,-0.35107421875,0.9111327528953552,0.9779333084534454,-6.4525604248046875,-2.2716522216796875,-18.934249877929688,20.132107646540597
1785940369.967757,0.04052734375,-0.35107421875,0.9248046278953552,0.9900298846191563,-6.328582763671875,-2.696990966796875,-21.192550659179688,22.281133802244582
1785940369.976566,0.008300784975290298,-0.359375,0.9306640028953552,0.9976746864291044,-6.084442138671875,-2.574920654296875,-21.493911743164062,22.486415777924606
1785940369.985374,-0.01416015625,-0.3740234375,0.9521483778953552,1.0230740810679826,-4.802703857421875,-1.903533935546875,-19.968032836914062,20.62551190060387
1785940369.996078,-0.0507812462747097,-0.38134765625,0.9550780653953552,1.0296498826785323,-4.0111541748046875,-1.7833709716796875,-17.221450805664062,17.772116860087046
1785940370.006782,-0.0541992150247097,-0.373046875,0.9594725966453552,1.0308681727407927,-2.727508544921875,-1.293182373046875,-13.315200805664062,13.653065443618802
1785940370.017486,-0.0234374962747097,-0.37744140625,0.9506835341453552,1.0231375828688474,-1.079559326171875,-0.804901123046875,-9.469985961914062,9.565246900914591
1785940370.02546,0.00537109375,-0.3603515625,0.9331054091453552,1.0002838606218654,0.812530517578125,-0.499725341796875,-4.8923492431640625,4.984477141718854
1785940370.033432,0.02978515625,-0.36767578125,0.9384765028953552,1.008370359608676,1.2378692626953125,-0.8068084716796875,-4.5871734619140625,4.819275940552543
1785940370.041404,0.0439453125,-0.34716796875,0.9116210341453552,0.9764782122059716,1.2378692626953125,-0.8678436279296875,-4.6520233154296875,4.891502202939852
1785940370.049376,0.0429687537252903,-0.3564453125,0.9140624403953552,0.982043644417823,0.995635986328125,-0.926971435546875,-5.2585601806640625,5.431668457597267
1785940370.057407,0.0546875,-0.35693359375,0.9223632216453552,0.9905282558551971,0.9326934814453125,-1.1730194091796875,-5.9947967529296875,6.179278256688168
1785940370.065439,0.060546875,-0.3544921875,0.9150390028953552,0.9831719137010204,0.019073486328125,-0.926971435546875,-6.7882537841796875,6.851279389911814
1785940370.073472,0.05517578125,-0.357421875,0.9140624403953552,0.9830080917808235,0.1392364501953125,-1.1730194091796875,-7.8220367431640625,7.9107281671653915
1785940370.081503,0.0566406287252903,-0.3681640625,0.9272460341453552,0.9992688054658713,-0.2269744873046875,-0.6847381591796875,-8.127212524414062,8.159164612968462
1785940370.092159,0.0449218787252903,-0.35302734375,0.9062499403953552,0.9736196562775298,-0.0438690185546875,-0.8678436279296875,-8.924484252929688,8.966688141901505
1785940370.102814,0.03515625,-0.36474609375,0.9165038466453552,0.9870435531098306,-0.041961669921875,-0.560760498046875,-8.924484252929688,8.942182748004113
1785940370.113469,0.01513671875,-0.35498046875,0.9248046278953552,0.9907087630707385,-0.1010894775390625,-0.8678436279296875,-8.981704711914062,9.024100574407765
1785940370.121444,0.0273437537252903,-0.3720703125,0.9252929091453552,0.9976727750251139,-0.102996826171875,-0.499725341796875,-8.188247680664062,8.204129072810586
1785940370.129419,0.03857421875,-0.3603515625,0.9184569716453552,0.9873724868114977,0.2040863037109375,-0.8678436279296875,-7.6999664306640625,7.751405473541816
1785940370.137394,0.03466796875,-0.34521484375,0.9174804091453552,0.9808901353200145,0.141143798828125,-0.560760498046875,-7.4596405029296875,7.482019135304753
1785940370.145369,0.0327148474752903,-0.3564453125,0.9052733778953552,0.9734697790761769,-0.041961669921875,-0.926971435546875,-6.9713592529296875,7.032843426201868
1785940370.156085,0.0390625,-0.359375,0.9165038466453552,0.9852185394352782,-0.164031982421875,-0.621795654296875,-6.9065093994140625,6.936382948709977
1785940370.166803,0.0419921875,-0.3505859375,0.9121093153953552,0.97806811961886,-0.286102294921875,-1.049041748046875,-7.2116851806640625,7.293198630046659
1785940370.17752,0.0590820275247097,-0.36279296875,0.9135741591453552,0.9847472611838084,-0.469207763671875,-1.110076904296875,-7.2765350341796875,7.37566192030164
1785940370.188132,0.04638671875,-0.35595703125,0.9208983778953552,0.9883880605222837,-0.835418701171875,-1.232147216796875,-7.6999664306640625,7.8425502359552315
1785940370.198745,0.0620117224752903,-0.36474609375,0.9160155653953552,0.9879117787924225,-0.7152557373046875,-1.5354156494140625,-8.554458618164062,8.720542083844002
1785940370.20936,0.05517578125,-0.3505859375,0.9145507216453552,0.9809984143062321,-1.018524169921875,-1.598358154296875,-8.924484252929688,9.123516835897894
1785940370.220061,0.0693359375,-0.357421875,0.9179686903953552,0.9875344983866048,-1.445770263671875,-1.964569091796875,-10.934829711914062,11.203583542792012
1785940370.230762,0.06396484375,-0.34765625,0.9194335341453552,0.9850453761685511,-1.689910888671875,-2.086639404296875,-12.037277221679688,12.33312230243359
1785940370.241462,0.06787109375,-0.361328125,0.9194335341453552,0.9902133724576007,-1.445770263671875,-2.025604248046875,-12.708663940429688,12.950037195923462
1785940370.249494,0.05615234375,-0.37060546875,0.9140624403953552,0.9879330160074304,-1.628875732421875,-1.964569091796875,-12.826919555664062,13.078326848476973
1785940370.257524,0.0439453087747097,-0.36767578125,0.9194335341453552,0.9911986148053883,-1.689910888671875,-1.903533935546875,-13.071060180664062,13.316600711216507
1785940370.265554,0.0522460974752903,-0.36279296875,0.9282225966453552,0.9979707319350011,-1.567840576171875,-1.964569091796875,-12.887954711914062,13.130766635847369
1785940370.273584,0.0361328162252903,-0.34814453125,0.9282225966453552,0.9920218666797112,-1.140594482421875,-1.964569091796875,-12.582778930664062,12.78619619385446
1785940370.284201,0.0478515662252903,-0.36083984375,0.9257811903953552,0.9947693087935406,-1.445770263671875,-1.720428466796875,-12.525558471679688,12.725554635934328
1785940370.29482,0.0346679650247097,-0.373046875,0.9340819716453552,1.0064168959725857,-1.262664794921875,-1.659393310546875,-11.728286743164062,11.912204601722584
1785940370.305438,0.03515625,-0.36572265625,0.9233397841453552,0.9937531787089837,-0.957489013671875,-1.415252685546875,-11.117935180664062,11.248475810379716
1785940370.316131,0.05126953125,-0.361328125,0.9277343153953552,0.9969340693911001,-0.774383544921875,-1.598358154296875,-10.572433471679688,10.720576858413267
1785940370.326827,0.07177734375,-0.37451171875,0.9194335341453552,0.9953738183556482,-0.591278076171875,-1.781463623046875,-10.629653930664062,10.794107887606218
1785940370.337523,0.068359375,-0.35400390625,0.9208983778953552,0.9889618760098621,-0.2269744873046875,-1.7833709716796875,-11.301040649414062,11.44313983136735
1785940370.345482,0.0566406287252903,-0.35791015625,0.9121093153953552,0.9814536382327386,-0.774383544921875,-1.781463623046875,-12.342453002929688,12.494375880547741
1785940370.353441,0.07373046875,-0.3681640625,0.9116210341453552,0.9859177799567496,-0.591278076171875,-2.086639404296875,-12.948989868164062,13.12935689105683
1785940370.361402,0.06396484375,-0.36083984375,0.9116210341453552,0.9825221646200829,-0.774383544921875,-2.513885498046875,-13.376235961914062,13.632423800657724
1785940370.369362,0.05517578125,-0.361328125,0.9179686903953552,0.9880632051132797,-0.652313232421875,-2.208709716796875,-13.685226440429688,13.87765592209655
1785940370.377376,0.0556640662252903,-0.35302734375,0.9145507216453552,0.9819011234161789,-0.8983612060546875,-2.0885467529296875,-13.071060180664062,13.267316783821014
1785940370.38539,0.0551757849752903,-0.37255859375,0.9106444716453552,0.9854530058622102,-1.140594482421875,-1.903533935546875,-13.196945190429688,13.382218036495859
1785940370.393404,0.0581054650247097,-0.35400390625,0.9165038466453552,0.984212533765817,-1.140594482421875,-1.659393310546875,-12.826919555664062,12.984005823315703
1785940370.401418,0.0527343787252903,-0.36474609375,0.9218749403953552,0.9928111770796931,-0.774383544921875,-1.720428466796875,-12.643814086914062,12.783801416185144
1785940370.412081,0.0634765625,-0.36083984375,0.9360350966453552,1.0051847437044696,-0.774383544921875,-1.598358154296875,-12.220382690429688,12.348772075174383
1785940370.422744,0.0590820275247097,-0.35791015625,0.9282225966453552,0.996587956402432,-0.469207763671875,-1.415252685546875,-12.155532836914062,12.246635237432919
1785940370.433407,0.06494140625,-0.3603515625,0.9199218153953552,0.9901145293763772,-0.164031982421875,-1.781463623046875,-12.220382690429688,12.350638535397676
1785940370.444061,0.1083984375,-0.35888671875,0.9155272841453552,0.9893129465250887,0.2613067626953125,-2.1495819091796875,-13.685226440429688,13.855482897912244
1785940370.454715,0.11279296875,-0.36279296875,0.9218749403953552,0.9970929734497264,0.2613067626953125,-2.4547576904296875,-15.695571899414062,15.888520818270981
1785940370.465369,0.10009765625,-0.37255859375,0.9140624403953552,0.99213385765492,0.873565673828125,-2.452850341796875,-17.404556274414062,17.598243403674974
1785940370.473382,0.0908203125,-0.3671875,0.9121093153953552,0.9874301962922905,0.7495880126953125,-2.5119781494140625,-19.479751586914062,19.6553463032273
1785940370.481393,0.08056640625,-0.34912109375,0.9111327528953552,0.9790502424880476,0.202178955078125,-2.452850341796875,-21.066665649414062,21.209944665494344
1785940370.489404,0.07080078125,-0.341796875,0.9023436903953552,0.9675029663942559,0.0782012939453125,-1.9664764404296875,-20.944595336914062,21.03685382513797
1785940370.497415,0.07373046875,-0.36181640625,0.9082030653953552,0.9803979303564853,-0.469207763671875,-1.903533935546875,-20.761489868164062,20.853849978244966
1785940370.508071,0.0473632849752903,-0.3408203125,0.9086913466453552,0.9716592662267969,-0.835418701171875,-1.537322998046875,-19.910812377929688,19.987539517302015
1785940370.518727,0.04638671875,-0.3662109375,0.9233397841453552,0.994393551571314,-0.8983612060546875,-1.3561248779296875,-18.445968627929688,18.517556160672232
1785940370.529383,0.02978515625,-0.36083984375,0.9101561903953552,0.9795288863965919,-0.957489013671875,-0.499725341796875,-16.672134399414062,16.70708161411388
1785940370.54009,0.0317382849752903,-0.36328125,0.9228515028953552,0.9922880034198494,-0.8983612060546875,-0.9288787841796875,-11.667251586914062,11.738595667480496
1785940370.550795,0.0517578125,-0.3603515625,0.9140624403953552,0.9838913886667008,-0.835418701171875,-0.560760498046875,-9.107589721679688,9.162999906192457
1785940370.5615,0.072265625,-0.361328125,0.9233397841453552,0.9941512417425467,-0.652313232421875,-0.743865966796875,-8.005142211914062,8.066049278470823
1785940370.569498,0.07666015625,-0.361328125,0.9257811903953552,0.9967475136473284,-0.774383544921875,-0.499725341796875,-7.6999664306640625,7.754926068328004
1785940370.577497,0.0830078125,-0.36279296875,0.9243163466453552,0.9964284940658261,0.0782012939453125,-0.6847381591796875,-7.9479217529296875,7.977746673071565
1785940370.585495,0.080078125,-0.35791015625,0.9150390028953552,0.9858035112892127,0.6275177001953125,-0.3795623779296875,-8.493423461914062,8.52502716512917
1785940370.593494,0.07275390625,-0.37109375,0.9077147841453552,0.983336072520349,0.9326934814453125,-0.5016326904296875,-7.8830718994140625,7.953890561088325
1785940370.605462,0.07177734375,-0.35205078125,0.9125975966453552,0.9807783200384373,0.507354736328125,-0.011444091796875,-7.5778961181640625,7.594869937885546
1785940370.617429,0.04345703125,-0.3515625,0.9082030653953552,0.9748423015877149,0.568389892578125,0.354766845703125,-6.2999725341796875,6.335501599416856
1785940370.629396,0.06396484375,-0.34619140625,0.9042968153953552,0.9704085332124278,0.3871917724609375,-0.1964569091796875,-4.6520233154296875,4.672240759328151
1785940370.638744,0.083984375,-0.3447265625,0.9106444716453552,0.9773244762490374,0.0782012939453125,0.2918243408203125,-2.6988983154296875,2.715755696910003
1785940370.648092,0.09619140625,-0.35546875,0.9208983778953552,0.9917986898928691,0.385284423828125,0.110626220703125,-3.1223297119140625,3.1479556982036736
1785940370.657439,0.091796875,-0.3642578125,0.9340819716453552,1.0067867450358716,0.812530517578125,0.110626220703125,-3.6106109619140625,3.702560670805655
1785940370.665445,0.064453125,-0.35400390625,0.9189452528953552,0.9868806152627747,0.568389892578125,0.171661376953125,-3.8585662841796875,3.9039811049402706
1785940370.67345,0.05419921875,-0.36181640625,0.9208983778953552,0.9909099300920704,0.9326934814453125,-0.1964569091796875,-2.9392242431640625,3.0899112607158106
1785940370.681455,0.0624999962747097,-0.349609375,0.9140624403953552,0.9806340344714443,1.178741455078125,-0.499725341796875,-1.7223358154296875,2.14606558526657
1785940370.68946,0.07568359375,-0.36474609375,0.9262694716453552,0.9983700983958625,0.995635986328125,-0.926971435546875,-0.6809234619140625,1.5212573157018652
1785940370.69881,0.0849609375,-0.35791015625,0.9135741591453552,0.9848531794668285,0.690460205078125,-0.621795654296875,-0.0743865966796875,0.9321472503121981
1785940370.708159,0.0830078125,-0.357421875,0.9174804091453552,0.9881351096029729,0.934600830078125,-0.438690185546875,0.0514984130859375,1.033721373015109
1785940370.71751,0.0703125,-0.341796875,0.8964843153953552,0.9620047188896187,0.995635986328125,-0.438690185546875,0.6618499755859375,1.2734934182593312
1785940370.72686,0.0605468787252903,-0.35302734375,0.9116210341453552,0.9794626791536278,0.507354736328125,-0.499725341796875,1.0280609130859375,1.2506172422942505
1785940370.735727,0.076171875,-0.33984375,0.9111327528953552,0.9754275074826149,0.263214111328125,-0.926971435546875,1.3332366943359375,1.6450160466834076
1785940370.744594,0.107421875,-0.3515625,0.9052733778953552,0.9770647569945567,0.0782012939453125,-0.9288787841796875,1.4553070068359375,1.7282504801734127
1785940370.75346,0.11962890625,-0.35107421875,0.9003905653953552,0.9737901994446553,-0.2269744873046875,-0.5016326904296875,0.9670257568359375,1.1127855087028542
1785940370.764091,0.08935546875,-0.369140625,0.9179686903953552,0.9934363177210135,-0.286102294921875,0.354766845703125,-0.4367828369140625,0.6312632450827507
1785940370.774722,0.10546875,-0.3740234375,0.9335936903953552,1.011243970450206,0.0782012939453125,0.1697540283203125,-0.3757476806640625,0.4196643802255761
1785940370.785353,0.1015625,-0.3662109375,0.9350585341453552,1.0093363435589444,0.324249267578125,0.171661376953125,-0.1316070556640625,0.3897763884113005
1785940370.793371,0.08642578125,-0.353515625,0.9130858778953552,0.9829387230116357,0.141143798828125,0.354766845703125,-0.8640289306640625,0.9446306578670113
1785940370.801389,0.08154296875,-0.361328125,0.9135741591453552,0.9858118552374595,0.324249267578125,0.049591064453125,-0.6198883056640625,0.7013261528686968
1785940370.809407,0.06494140625,-0.34716796875,0.9160155653953552,0.9817471674613076,0.202178955078125,-0.499725341796875,-0.6198883056640625,0.8215006138826363
1785940370.817425,0.0771484375,-0.353515625,0.9033202528953552,0.9730943725141773,0.2613067626953125,-0.3795623779296875,0.0514984130859375,0.4636819055347245
1785940370.828091,0.076171875,-0.35888671875,0.9038085341453552,0.9754341073748308,-0.4100799560546875,-0.8068084716796875,0.6618499755859375,1.1212273946506273
1785940370.838757,0.08642578125,-0.3447265625,0.9257811903953552,0.9916534833537268,-0.774383544921875,-0.560760498046875,1.0852813720703125,1.446360213563125
1785940370.849423,0.08740234375,-0.36181640625,0.9140624403953552,0.9869449966772061,-0.530242919921875,-0.255584716796875,1.2111663818359375,1.3466273077867428
1785940370.860086,0.0927734375,-0.36767578125,0.9150390028953552,0.9904992517125342,-0.347137451171875,-0.438690185546875,0.8449554443359375,1.0133623201077684
1785940370.870751,0.08349609375,-0.36083984375,0.9204100966453552,0.9921349386629549,-0.102996826171875,-0.133514404296875,0.4787445068359375,0.5075733889614524
1785940370.881415,0.0927734375,-0.34033203125,0.9145507216453552,0.9802223343009265,-0.286102294921875,-0.560760498046875,0.5970001220703125,0.8675920729705354
1785940370.889439,0.09033203125,-0.3515625,0.9072265028953552,0.9771468645151234,-0.2269744873046875,-0.5016326904296875,0.1735687255859375,0.5773031062591634
1785940370.897463,0.09765625,-0.3603515625,0.9204100966453552,0.9932495848310061,-0.0438690185546875,0.2918243408203125,0.0514984130859375,0.29956305385432846
1785940370.905487,0.08544921875,-0.36181640625,0.9282225966453552,0.999904930350729,0.324249267578125,-0.133514404296875,-0.0095367431640625,0.35079143825053255
1785940370.913511,0.10498046875,-0.35302734375,0.9145507216453552,0.9859270899595926,0.263214111328125,-0.438690185546875,-0.0743865966796875,0.5169759308352688
1785940370.924135,0.0859375,-0.35205078125,0.9174804091453552,0.9864559329491175,0.1392364501953125,-0.1964569091796875,-1.1081695556640625,1.134029042982636
1785940370.934759,0.08984375,-0.35693359375,0.9155272841453552,0.9867439879603638,0.0782012939453125,-0.3185272216796875,-1.5964508056640625,1.6297945294518374
1785940370.945383,0.08349609375,-0.35595703125,0.9179686903953552,0.9881009676718193,0.019073486328125,-0.194549560546875,-1.7223358154296875,1.7333937782574211
1785940370.956064,0.0859375,-0.349609375,0.9052733778953552,0.9742339850981423,-0.1010894775390625,-0.3795623779296875,-1.6574859619140625,1.703392613331097
1785940370.966745,0.08251953125,-0.345703125,0.9189452528953552,0.985281940102118,0.202178955078125,-0.072479248046875,-1.6574859619140625,1.6713435569074684
1785940370.977426,0.080078125,-0.361328125,0.9282225966453552,0.9992835978552721,-0.2269744873046875,-0.1964569091796875,-1.0509490966796875,1.0929806671956797
1785940370.988095,0.07373046875,-0.34619140625,0.9116210341453552,0.9779251411430704,-0.4100799560546875,0.1697540283203125,-0.0743865966796875,0.4500170732920856
1785940370.998767,0.09326171875,-0.35791015625,0.9111327528953552,0.9833414063944281,-0.530242919921875,-0.072479248046875,0.4138946533203125,0.6765497613419563
1785940371.009439,0.10302734375,-0.34130859375,0.9116210341453552,0.9788560157776168,-0.652313232421875,-0.255584716796875,0.8449554443359375,1.0976273518666322
1785940371.017421,0.09765625,-0.35595703125,0.9277343153953552,0.998465378079012,-0.5321502685546875,0.1697540283203125,0.2956390380859375,0.6319832112439205
1785940371.025406,0.08642578125,-0.36328125,0.9125975966453552,0.9860411024237853,-0.4100799560546875,-0.1354217529296875,-0.3757476806640625,0.5724429587729996
1785940371.03339,0.0986328125,-0.35009765625,0.9140624403953552,0.9837717954662635,-0.530242919921875,-0.133514404296875,-0.5626678466796875,0.7845882716235195
1785940371.041374,0.080078125,-0.34912109375,0.9057616591453552,0.9740134636556409,-0.591278076171875,0.049591064453125,-0.8029937744140625,0.9984327913199015
1785940371.052071,0.08544921875,-0.3544921875,0.9028319716453552,0.9736898114946875,-0.652313232421875,0.415802001953125,-0.8029937744140625,1.1149900716009287
1785940371.062768,0.0810546875,-0.35595703125,0.9116210341453552,0.9820021284896907,-0.652313232421875,0.659942626953125,-0.4978179931640625,1.0530240160510875
1785940371.073465,0.083984375,-0.3544921875,0.9208983778953552,0.9903392896643919,-0.8983612060546875,0.4749298095703125,-0.1926422119140625,1.034273756011274
1785940371.081459,0.09375,-0.36328125,0.9252929091453552,0.9984634679427371,-0.5321502685546875,0.2918243408203125,-0.6809234619140625,0.9121414995509566
1785940371.089455,0.09814453125,-0.35888671875,0.9194335341453552,0.9918619105603571,-0.286102294921875,0.293731689453125,-0.5626678466796875,0.6962240546230121
1785940371.09745,0.0869140625,-0.35986328125,0.9125975966453552,0.9848299390530068,-0.1659393310546875,-0.1964569091796875,-0.8029937744140625,0.8431667572331439
1785940371.105447,0.08935546875,-0.3583984375,0.9155272841453552,0.9872304937614841,-0.4100799560546875,-0.1964569091796875,-0.4367828369140625,0.6305078382898558
1785940371.116099,0.0791015625,-0.36474609375,0.9062499403953552,0.9800947528491366,-0.2269744873046875,-0.3185272216796875,-0.4367828369140625,0.5863073046286419
1785940371.126751,0.08544921875,-0.3505859375,0.9277343153953552,0.9954411225782406,-0.713348388671875,0.232696533203125,-0.0095367431640625,0.7504029248714925
1785940371.137403,0.0693359375,-0.33935546875,0.9189452528953552,0.9820539619687121,-0.774383544921875,0.171661376953125,0.6618499755859375,1.0330454458378482
1785940371.148073,0.09521484375,-0.3505859375,0.9228515028953552,0.9917818623262409,-0.469207763671875,-0.072479248046875,0.7839202880859375,0.9164825066307276
1785940371.158747,0.0908203125,-0.36669921875,0.9155272841453552,0.9904074182926075,-0.2269744873046875,-0.0705718994140625,1.0280609130859375,1.0551810517106655
1785940371.16942,0.0908203125,-0.35400390625,0.9213866591453552,0.9912217060042094,-0.0438690185546875,0.2918243408203125,0.8449554443359375,0.8950059438892588
1785940371.180053,0.10400390625,-0.3603515625,0.9145507216453552,0.9884700721688493,0.1392364501953125,-0.1964569091796875,-0.4367828369140625,0.49875981479077103
1785940371.190689,0.091796875,-0.33740234375,0.9125975966453552,0.9772928840581196,0.202178955078125,-0.133514404296875,-0.8640289306640625,0.8973563500949415
1785940371.201324,0.09521484375,-0.34765625,0.8974608778953552,0.9671436098052353,0.019073486328125,-0.255584716796875,-0.8029937744140625,0.842903521815273
1785940371.209352,0.08251953125,-0.34814453125,0.9179686903953552,0.985231244035209,-0.347137451171875,-0.072479248046875,-0.6198883056640625,0.7141562594436938
1785940371.21738,0.08056640625,-0.3486328125,0.9140624403953552,0.9816037534103119,-0.469207763671875,-0.133514404296875,-0.0095367431640625,0.48792721907564124
1785940371.225408,0.0927734375,-0.34814453125,0.9077147841453552,0.9766051682747217,-0.5321502685546875,-0.0133514404296875,0.4138946533203125,0.6742929284306007
1785940371.233436,0.1025390625,-0.34716796875,0.9233397841453552,0.9917641931678977,-0.591278076171875,-0.011444091796875,0.4138946533203125,0.7218375957552436
1785940371.244085,0.08203125,-0.34765625,0.9218749403953552,0.9886593952770412,-0.2269744873046875,-0.0705718994140625,0.3566741943359375,0.42861905204893125
1785940371.254734,0.076171875,-0.373046875,0.9238280653953552,0.9992118993989243,-0.4100799560546875,-0.2536773681640625,0.2956390380859375,0.5656149028418878
1785940371.265383,0.083984375,-0.34912109375,0.9165038466453552,0.9843364334723518,-0.5321502685546875,-0.3795623779296875,0.1735687255859375,0.6762969832580886
1785940371.273396,0.09033203125,-0.3642578125,0.9189452528953552,0.9926248070927628,-0.2269744873046875,-0.1964569091796875,0.4787445068359375,0.5650743649089442
1785940371.28141,0.0859375,-0.36328125,0.9077147841453552,0.981480845388162,-0.286102294921875,-0.194549560546875,0.6618499755859375,0.7468262481003541
1785940371.289423,0.0966796875,-0.35009765625,0.9257811903953552,0.994477824477088,-0.286102294921875,-0.072479248046875,0.9021759033203125,0.9492255396315598
1785940371.297436,0.0869140625,-0.36181640625,0.9140624403953552,0.9869018750784858,-0.2269744873046875,-0.1354217529296875,1.3332366943359375,1.3591823101326743
