timestamp,accel_x,accel_y,accel_z,accel_rms,gyro_x,gyro_y,gyro_z,gyro_rms
1785941696.492117,-0.00439453125,-0.40625,0.8969725966453552,0.9846919383937386,0.37384033203125,0.20599365234375,0.2040863037109375,0.47311858769397974
1785941696.502784,-0.0185546837747097,-0.43212890625,0.9052733778953552,1.0032943519390845,0.37384033203125,0.20599365234375,0.2040863037109375,0.47311858769397974
1785941696.513452,-0.015136715024709702,-0.40771484375,0.9067382216453552,0.994301119655614,0.5550384521484375,0.2651214599609375,0.1430511474609375,0.631522527456498
1785941696.52411,-0.0170898400247097,-0.39111328125,0.8881835341453552,0.9706346643970352,0.736236572265625,0.38909912109375,0.4482269287109375,0.9457006904930362
1785941696.534769,-0.0068359337747097015,-0.40771484375,0.9023436903953552,0.9902031404721799,0.7991790771484375,0.2651214599609375,0.2040863037109375,0.8663877914918009
1785941696.545428,-0.0234375,-0.4091796875,0.8901366591453552,0.9799594915216149,0.308990478515625,0.20599365234375,0.0209808349609375,0.3719525454340792
1785941696.553424,-0.0224609337747097,-0.40283203125,0.8969725966453552,0.9835334148262295,0.308990478515625,0.02288818359375,0.0209808349609375,0.3105465829745905
1785941696.561419,-0.013671875,-0.41015625,0.8896483778953552,0.9797394071241163,-0.057220458984375,0.57220458984375,0.0209808349609375,0.5754411081946569
1785941696.569416,-0.0214843712747097,-0.40576171875,0.9038085341453552,0.9909460212372818,0.1888275146484375,0.3910064697265625,0.0820159912109375,0.4418919692307699
1785941696.577412,-0.0234375,-0.4140625,0.9160155653953552,1.0055255274527208,0.3719329833984375,0.0858306884765625,0.2651214599609375,0.4647477162459672
1785941696.58541,-0.0258789025247097,-0.40283203125,0.8920897841453552,0.979166761064422,0.0667572021484375,-0.2231597900390625,-0.2841949462890625,0.3674555529927517
1785941696.593407,-0.0244140587747097,-0.40283203125,0.9130858778953552,0.9982963047506425,0.003814697265625,0.20599365234375,-0.2231597900390625,0.30372393486754473
1785941696.601406,-0.0053710900247097015,-0.40625,0.9023436903953552,0.9895918586489898,0.55694580078125,-0.09918212890625,-0.2231597900390625,0.6081332186227967
1785941696.617405,-0.0219726525247097,-0.39599609375,0.9130858778953552,0.9955006399476406,0.247955322265625,0.08392333984375,-0.1621246337890625,0.3079112951673211
1785941696.625406,-0.0263671837747097,-0.40380859375,0.9013671278953552,0.988038110609547,0.003814697265625,-0.09918212890625,-0.2841949462890625,0.30102892569626505
1785941696.633407,-0.020019523799419403,-0.40478515625,0.9013671278953552,0.9882886740744397,0.0667572021484375,0.1430511474609375,0.0820159912109375,0.17789541209061804
1785941696.641407,-0.0273437462747097,-0.40576171875,0.9033202528953552,0.9906451090850943,0.06866455078125,-0.28228759765625,0.0209808349609375,0.29127530578506966
1785941696.652087,-0.010742183774709702,-0.4033203125,0.9033202528953552,0.9893281297316254,-0.1163482666015625,-0.1621246337890625,0.0820159912109375,0.2157497134105593
1785941696.662768,-0.013671875,-0.40625,0.9018554091453552,0.9892265471926801,0.1888275146484375,0.0858306884765625,0.1430511474609375,0.2519650137669067
1785941696.673448,-0.0361328087747097,-0.3974609375,0.8984374403953552,0.9830923715564505,-0.0553131103515625,0.2651214599609375,0.5092620849609375,0.5767987516346964
1785941696.684161,-0.0253906212747097,-0.408203125,0.8920897841453552,0.9813759003995298,-0.11444091796875,-0.09918212890625,0.4482269287109375,0.47311858769397974
1785941696.694878,-0.0288085900247097,-0.408203125,0.9077147841453552,0.9956936554357602,0.125885009765625,0.02288818359375,0.2651214599609375,0.29438120382207095
1785941696.705594,-0.0327148400247097,-0.412109375,0.8955077528953552,0.9863257743851276,0.0057220458984375,0.0858306884765625,0.2651214599609375,0.2787275325931106
1785941696.713578,-0.0166015625,-0.4091796875,0.8994140028953552,0.9882556233810588,0.125885009765625,-0.09918212890625,0.2040863037109375,0.2594905580950115
1785941696.721566,-0.0087890625,-0.40625,0.8920897841453552,0.9802757229964105,0.0057220458984375,0.2651214599609375,0.2040863037109375,0.3346241917487076
1785941696.729553,-0.0126953125,-0.404296875,0.9057616591453552,0.9919784862949321,-0.057220458984375,0.08392333984375,0.0209808349609375,0.10371838473756809
1785941696.73754,-0.0292968712747097,-0.4033203125,0.8999022841453552,0.9865848681951351,0.06866455078125,0.20599365234375,-0.1621246337890625,0.27098450550012304
1785941696.748172,-0.0229492150247097,-0.4072265625,0.9003905653953552,0.9884651283321958,0.1277923583984375,0.2651214599609375,-0.1621246337890625,0.336012904927908
1785941696.758804,-0.0166015587747097,-0.4130859375,0.9101561903953552,0.9996498859245622,0.0057220458984375,0.1430511474609375,-0.3452301025390625,0.3737381386723682
1785941696.769436,-0.02734375,-0.40869140625,0.8955077528953552,0.9847387885639286,0.003814697265625,0.20599365234375,-0.3452301025390625,0.4020345264032403
1785941696.780246,-0.015624992549419403,-0.41455078125,0.9008788466453552,0.9918060228493373,-0.057220458984375,0.20599365234375,-0.2231597900390625,0.3090434558805262
1785941696.79106,-0.011718746274709702,-0.40966796875,0.8969725966453552,0.9861668280604013,0.003814697265625,0.20599365234375,0.2040863037109375,0.289998544967969
1785941696.801873,-0.0205078087747097,-0.41650390625,0.8999022841453552,0.9918266961280466,0.0057220458984375,0.1430511474609375,-0.1010894775390625,0.17525825249692334
1785941696.809848,-0.014160152524709702,-0.4072265625,0.8916015028953552,0.9802995578344129,0.247955322265625,0.02288818359375,0.1430511474609375,0.28717475790529023
1785941696.817823,-0.0209960900247097,-0.3984375,0.9033202528953552,0.9875124082731843,-0.240325927734375,0.08392333984375,0.2040863037109375,0.32626813800049587
1785941696.8258,-0.012207027524709702,-0.40576171875,0.8964843153953552,0.9841116357780868,-0.057220458984375,0.14495849609375,0.1430511474609375,0.21154379524352673
1785941696.833776,-0.0312499962747097,-0.4052734375,0.9121093153953552,0.9985822573234613,0.0667572021484375,0.1430511474609375,0.4482269287109375,0.47521314633563966
1785941696.84437,-0.0209960900247097,-0.41552734375,0.9018554091453552,0.9932003766637387,0.1888275146484375,-0.4673004150390625,0.2651214599609375,0.5694865202230909
1785941696.854964,-0.014648433774709702,-0.3974609375,0.8935546278953552,0.9780744585580576,0.1277923583984375,-0.0400543212890625,0.0820159912109375,0.1570409447668815
1785941696.865557,-0.0385742112994194,-0.40576171875,0.8984374403953552,0.9865700058710907,-0.057220458984375,0.02288818359375,0.2651214599609375,0.2721900777148622
1785941696.876212,-0.0234375,-0.40869140625,0.8989257216453552,0.9877476575444131,0.06866455078125,0.08392333984375,0.3871917724609375,0.40208881626571363
1785941696.886867,-0.02392578125,-0.4091796875,0.8999022841453552,0.9888501305461046,-0.1163482666015625,-0.0400543212890625,0.2040863037109375,0.238311743641619
1785941696.897522,-0.0234375,-0.4013671875,0.9062499403953552,0.991430224511284,0.125885009765625,-0.28228759765625,0.4482269287109375,0.5444636839090998
1785941696.905504,-0.014648430049419403,-0.40869140625,0.9121093153953552,0.9995932399113645,0.1888275146484375,0.0209808349609375,0.4482269287109375,0.48682995526734363
1785941696.913488,-0.01806640625,-0.41015625,0.8974608778953552,0.9869096067024347,0.0057220458984375,-0.2231597900390625,0.8144378662109375,0.8444773955635326
1785941696.921471,-0.0302734337747097,-0.42724609375,0.9077147841453552,1.0036940942205421,0.4329681396484375,-0.2231597900390625,0.8754730224609375,1.001855635756867
1785941696.929454,-0.0234374962747097,-0.4130859375,0.8886718153953552,0.9802687914393466,0.6771087646484375,-0.2841949462890625,0.9365081787109375,1.1900800878312574
1785941696.940133,-0.0244140587747097,-0.408203125,0.8930663466453552,0.9822389409080168,0.6771087646484375,0.0858306884765625,1.4858245849609375,1.6350895643732903
1785941696.950812,-0.02783203125,-0.41064453125,0.9018554091453552,0.9913358321042215,0.3719329833984375,0.0209808349609375,1.6078948974609375,1.6504848805294277
1785941696.961491,-0.033203125,-0.40869140625,0.9028319716453552,0.9915829173989473,0.5550384521484375,-0.1621246337890625,2.2792816162109375,2.3514839498158846
1785941696.969486,-0.0454101487994194,-0.41357421875,0.8940429091453552,0.9861127924440226,0.492095947265625,0.38909912109375,2.8896331787109375,2.956947151177758
1785941696.977482,-0.0317382775247097,-0.40283203125,0.9096679091453552,0.9953776512410346,0.3719329833984375,0.0858306884765625,3.6220550537109375,3.6421125550066358
1785941696.985478,-0.033203125,-0.4150390625,0.9072265028953552,0.9982082941282248,0.431060791015625,0.08392333984375,4.2324066162109375,4.255128940169459
1785941696.993474,-0.014648433774709702,-0.408203125,0.9057616591453552,0.9936038199652638,0.736236572265625,0.08392333984375,4.1103363037109375,4.176595736591711
1785941697.004136,-0.012207027524709702,-0.40771484375,0.9082030653953552,0.9955969130770724,0.0667572021484375,0.1430511474609375,3.8051605224609375,3.8084336355677477
1785941697.014797,-0.010253902524709702,-0.40283203125,0.9023436903953552,0.9882322214511607,0.4329681396484375,0.2651214599609375,3.5610198974609375,3.5970284275489335
1785941697.02546,-0.0361328087747097,-0.41162109375,0.9091796278953552,0.9986716680019678,0.431060791015625,0.20599365234375,2.9506683349609375,2.989095249954087
1785941697.036288,-0.0258789025247097,-0.40966796875,0.9106444716453552,0.9988848361817705,0.8602142333984375,0.0209808349609375,3.4389495849609375,3.544965863119125
1785941697.047117,-0.0361328087747097,-0.40771484375,0.9082030653953552,0.9961775854121375,1.468658447265625,0.38909912109375,3.9882659912109375,4.267859109367408
1785941697.057945,-0.0405273400247097,-0.42138671875,0.8935546278953552,0.9887613994597366,1.2874603271484375,0.4482269287109375,4.4765472412109375,4.679523124891687
1785941697.068477,-0.0292968712747097,-0.40185546875,0.8940429091453552,0.980642058971498,1.2874603271484375,0.3261566162109375,5.0258636474609375,5.19838798428404
1785941697.079006,-0.0302734337747097,-0.40673828125,0.8969725966453552,0.9853488465307233,1.5316009521484375,0.2651214599609375,5.3310394287109375,5.553023703859408
1785941697.089535,-0.0268554650247097,-0.41552734375,0.9047850966453552,0.9960021388115433,1.468658447265625,0.57220458984375,5.0258636474609375,5.267227081703644
1785941697.097538,-0.011230465024709702,-0.412109375,0.8940429091453552,0.9845166243901886,1.2874603271484375,0.1430511474609375,4.1103363037109375,4.309626695477828
1785941697.105544,-0.00390625,-0.4052734375,0.8984374403953552,0.9856224694254319,0.919342041015625,0.02288818359375,3.1948089599609375,3.3245327412996977
1785941697.113549,-0.0068359337747097015,-0.40966796875,0.8940429091453552,0.9834568104413193,1.2874603271484375,0.3261566162109375,2.0961761474609375,2.481508950913437
1785941697.121554,-0.014648430049419403,-0.3955078125,0.8959960341453552,0.9795151348782991,1.224517822265625,0.08392333984375,1.6689300537109375,2.0716695074736875
1785941697.132207,-0.0048828087747097015,-0.39794921875,0.9057616591453552,0.9893389741150463,0.797271728515625,-0.09918212890625,0.8144378662109375,1.1440228763896696
1785941697.142859,-0.014648433774709702,-0.40234375,0.8989257216453552,0.9849682851806637,0.9212493896484375,-0.2231597900390625,0.2040863037109375,0.9696143301232145
1785941697.153513,-0.012695308774709702,-0.40673828125,0.9038085341453552,0.9911947672849494,1.1043548583984375,-0.2231597900390625,-0.5283355712890625,1.2444028371262466
1785941697.164258,-0.0219726525247097,-0.400390625,0.9023436903953552,0.9874308004327043,0.797271728515625,-0.09918212890625,-0.8335113525390625,1.157678918610927
1785941697.175003,-0.014648430049419403,-0.40966796875,0.8896483778953552,0.9795492113286093,0.6771087646484375,-0.1621246337890625,-1.0776519775390625,1.283002128111572
1785941697.185747,-0.025878898799419403,-0.39453125,0.9052733778953552,0.9878484263062323,0.614166259765625,-0.16021728515625,-1.0776519775390625,1.2506812374826721
1785941697.193673,-0.0244140587747097,-0.40625,0.9028319716453552,0.9903235217800769,0.4940032958984375,-0.2231597900390625,-1.5048980712890625,1.599549234383968
1785941697.201601,-0.0190429650247097,-0.4072265625,0.9013671278953552,0.9892718569598654,0.492095947265625,-0.09918212890625,-1.0776519775390625,1.1888352706340273
1785941697.209529,-0.0195312462747097,-0.392578125,0.9116210341453552,0.9927496984163762,0.3108978271484375,-0.6504058837890625,-1.3828277587890625,1.5594543542760824
1785941697.217457,-0.0214843712747097,-0.40771484375,0.9077147841453552,0.9953085458184338,0.736236572265625,-0.34332275390625,-1.5048980712890625,1.7101558433840902
1785941697.228116,-0.0195312462747097,-0.4033203125,0.8964843153953552,0.9832257481402833,0.5550384521484375,-0.2231597900390625,-1.1386871337890625,1.2862644999806074
1785941697.238775,-0.0175781212747097,-0.40576171875,0.9091796278953552,0.9957706355031961,0.614166259765625,-0.09918212890625,-1.5048980712890625,1.6284211661294548
1785941697.249434,-0.0297851525247097,-0.4130859375,0.8984374403953552,0.9893012591598838,0.0667572021484375,-0.0400543212890625,-1.6269683837890625,1.6288299464774734
1785941697.260108,-0.0297851525247097,-0.392578125,0.9121093153953552,0.9934526374067459,0.247955322265625,-0.28228759765625,-1.1386871337890625,1.1990731913803832
1785941697.270787,-0.0263671837747097,-0.4169921875,0.9023436903953552,0.9943851609977661,0.0667572021484375,-0.2231597900390625,-1.6880035400390625,1.7039990513827679
1785941697.281465,-0.0209960900247097,-0.40234375,0.8974608778953552,0.9837465915128194,0.308990478515625,0.02288818359375,-1.4438629150390625,1.4767325763951424
1785941697.289464,-0.020019523799419403,-0.39453125,0.9160155653953552,0.997567142906326,0.308990478515625,-0.09918212890625,-1.2607574462890625,1.3018531210858655
1785941697.297462,-0.013671871274709702,-0.40283203125,0.8994140028953552,0.9855993679327312,0.736236572265625,-0.46539306640625,-1.5048980712890625,1.7387792273805174
1785941697.30546,-0.0385742150247097,-0.40283203125,0.9013671278953552,0.9880406442632282,0.736236572265625,-0.34332275390625,-1.6880035400390625,1.8733047682840118
1785941697.313458,-0.0244140587747097,-0.4072265625,0.9038085341453552,0.991614534920398,0.6771087646484375,-0.4024505615234375,-1.6269683837890625,1.807614133459754
1785941697.324109,-0.014648430049419403,-0.39013671875,0.9096679091453552,0.9899075415152728,0.431060791015625,-0.58746337890625,-1.9321441650390625,2.0649715982553998
1785941697.33476,-0.0263671837747097,-0.38720703125,0.8994140028953552,0.9795764707432972,0.7381439208984375,-0.2231597900390625,-1.9321441650390625,2.0803455997367584
1785941697.345411,-0.0253906212747097,-0.38671875,0.9091796278953552,0.9883337852315961,0.736236572265625,-0.46539306640625,-1.6880035400390625,1.899471228469875
1785941697.356111,-0.03173828125,-0.3994140625,0.8925780653953552,0.9783836234547127,0.5550384521484375,-0.6504058837890625,-1.6880035400390625,1.892208087979536
1785941697.366809,-0.010253898799419403,-0.39990234375,0.8862304091453552,0.9723329496994718,0.4940032958984375,-0.1621246337890625,-1.8100738525390625,1.883266047292671
1785941697.377506,-0.02783203125,-0.39990234375,0.8955077528953552,0.9811374225845902,0.5550384521484375,-0.2231597900390625,-1.7490386962890625,1.848514088767017
1785941697.385487,-0.020019523799419403,-0.39501953125,0.9038085341453552,0.9865652932249851,0.614166259765625,-0.40435791015625,-1.7490386962890625,1.8973249261149157
1785941697.393467,-0.0234374962747097,-0.40771484375,0.9028319716453552,0.9909017504630585,0.797271728515625,-0.46539306640625,-1.7490386962890625,1.9777181994576094
1785941697.401447,-0.014160152524709702,-0.40283203125,0.9008788466453552,0.9869431856259961,0.6160736083984375,-0.0400543212890625,-1.7490386962890625,1.8548011755267846
1785941697.409427,-0.01318359375,-0.39599609375,0.9047850966453552,0.9877361917642629,0.55694580078125,-0.40435791015625,-1.7490386962890625,1.8795824817310736
1785941697.420141,-0.024414055049419403,-0.4150390625,0.9135741591453552,1.0037286554358094,0.6160736083984375,-0.2231597900390625,-1.6880035400390625,1.8107188997853192
1785941697.430857,-0.024414055049419403,-0.41015625,0.9077147841453552,0.9963786051768009,0.4940032958984375,-0.4673004150390625,-1.6880035400390625,1.8198255096131075
1785941697.441571,-0.02294921875,-0.4091796875,0.8994140028953552,0.9883826343618544,0.492095947265625,-0.28228759765625,-2.1152496337890625,2.1900058726749005
1785941697.449676,-0.0224609337747097,-0.3935546875,0.9101561903953552,0.9918538584460115,0.308990478515625,-0.58746337890625,-1.7490386962890625,1.8707551145154746
1785941697.45778,-0.0234374962747097,-0.39697265625,0.9008788466453552,0.9847432672401844,0.1888275146484375,-0.0972747802734375,-1.9931793212890625,2.0044655197782473
1785941697.465886,-0.00439453125,-0.404296875,0.9160155653953552,1.001279077523467,0.1277923583984375,-0.0400543212890625,-1.7490386962890625,1.7541583727347727
1785941697.473991,-0.015624996274709702,-0.40576171875,0.9057616591453552,0.9926182025780534,0.1888275146484375,0.1430511474609375,-1.9321441650390625,1.9466125797324676
1785941697.485137,-0.014648433774709702,-0.408203125,0.9125975966453552,0.9998393577343793,0.247955322265625,0.02288818359375,-1.3217926025390625,1.3450432687891714
1785941697.496283,-0.0268554650247097,-0.41064453125,0.9042968153953552,0.993530511550303,0.1888275146484375,0.0209808349609375,-1.1997222900390625,1.2146726303578823
1785941697.507429,-0.0327148400247097,-0.39794921875,0.9047850966453552,0.9889741718432906,-0.057220458984375,0.14495849609375,-1.2607574462890625,1.2703528977766227
1785941697.517421,-0.0273437462747097,-0.39892578125,0.9062499403953552,0.9905445037315807,0.86212158203125,-0.09918212890625,-0.9555816650390625,1.2908241690707796
1785941697.527414,-0.0229492150247097,-0.3916015625,0.8906249403953552,0.9731861254030093,0.1888275146484375,0.0858306884765625,-0.7724761962890625,0.7998388657760291
1785941697.537407,-0.0078125,-0.40478515625,0.8920897841453552,0.9796612888407368,0.614166259765625,0.20599365234375,-0.8335113525390625,1.055639500138145
1785941697.548191,-0.011230465024709702,-0.396484375,0.8930663466453552,0.9771865136575993,0.0057220458984375,0.0858306884765625,-0.9555816650390625,0.9594456563310148
1785941697.558976,-0.02880859375,-0.396484375,0.9116210341453552,0.9945263719928397,0.06866455078125,0.08392333984375,-0.5893707275390625,0.5992627153297995
1785941697.569762,-0.0180664025247097,-0.39892578125,0.8930663466453552,0.9782820009366366,0.0667572021484375,-0.1621246337890625,-0.8335113525390625,0.8517523676112807
1785941697.577698,-0.0258789025247097,-0.3984375,0.9096679091453552,0.993437398093617,0.0667572021484375,0.1430511474609375,-0.4673004150390625,0.49324419177954676
1785941697.585634,-0.0273437462747097,-0.40283203125,0.9116210341453552,0.9970327154901105,-0.1163482666015625,0.0209808349609375,-0.7724761962890625,0.7814707853848821
1785941697.59357,-0.0322265625,-0.39990234375,0.9003905653953552,0.985729986416299,-0.057220458984375,-0.16021728515625,-0.7724761962890625,0.7909887693402732
1785941697.601506,-0.020507805049419403,-0.39453125,0.8896483778953552,0.9734216525156733,-0.179290771484375,0.08392333984375,-0.2231597900390625,0.2983095700782501
1785941697.612168,-0.012207027524709702,-0.40673828125,0.8979491591453552,0.9858487375683166,-0.4215240478515625,-0.1621246337890625,-0.4673004150390625,0.6498742937630969
1785941697.622828,-0.013671875,-0.4140625,0.8984374403953552,0.9893556025901016,-0.2994537353515625,-0.4673004150390625,-0.2231597900390625,0.598199389335999
1785941697.63349,-0.0253906212747097,-0.40576171875,0.9013671278953552,0.988812396413997,-0.667572021484375,0.02288818359375,-0.1621246337890625,0.6873577450630739
1785941697.641929,-0.019531242549419403,-0.4091796875,0.9008788466453552,0.9896424518133745,0.0057220458984375,0.0209808349609375,-0.3452301025390625,0.34591438383515294
1785941697.650367,-0.0200195275247097,-0.40234375,0.9057616591453552,0.9913049267627604,-0.179290771484375,0.02288818359375,-0.3452301025390625,0.3896830422109938
1785941697.658804,-0.010253902524709702,-0.4033203125,0.9125975966453552,0.9978009773471673,-0.240325927734375,0.14495849609375,-0.2841949462890625,0.39941993519026175
1785941697.667243,-0.016113273799419403,-0.4189453125,0.8945311903953552,0.9879073150090493,0.06866455078125,-0.09918212890625,-0.3452301025390625,0.36569897310150934
1785941697.677361,-0.0205078087747097,-0.4150390625,0.9062499403953552,0.9969789105533797,-0.1163482666015625,-0.0400543212890625,-0.2841949462890625,0.30969022472683705
1785941697.687479,-0.01220703125,-0.404296875,0.8945311903953552,0.981728590465224,-0.4215240478515625,-0.0400543212890625,-0.2231597900390625,0.4786305082852244
1785941697.697597,-0.013671875,-0.4052734375,0.9008788466453552,0.9879353094419429,-0.362396240234375,0.08392333984375,-0.2231597900390625,0.4337907949655212
1785941697.708222,-0.0175781212747097,-0.40283203125,0.8955077528953552,0.9820981474599358,-0.728607177734375,-0.03814697265625,-0.1621246337890625,0.7474008347935701
1785941697.718846,-0.009765617549419403,-0.39990234375,0.8950194716453552,0.9803454016045546,-0.667572021484375,0.20599365234375,-0.2231597900390625,0.733407172425339
1785941697.72947,-0.013671871274709702,-0.3984375,0.9047850966453552,0.9887241438247308,-1.033782958984375,0.20599365234375,-0.2841949462890625,1.0917450978083898
1785941697.737496,-0.01806640625,-0.39453125,0.9106444716453552,0.9925999476121288,-1.033782958984375,0.32806396484375,-0.3452301025390625,1.1382077995755533
1785941697.745523,-0.00341796875,-0.41455078125,0.8896483778953552,0.9814979719985152,-1.1539459228515625,0.1430511474609375,-0.5283355712890625,1.2771817801491592
1785941697.75355,-0.02685546875,-0.40966796875,0.9028319716453552,0.9917936427738245,-0.972747802734375,0.38909912109375,-0.5283355712890625,1.1733605113731342
1785941697.761577,-0.0166015587747097,-0.4086913764476776,0.8979491591453552,0.9867202974228806,-0.9708404541015625,0.5741119384765625,-0.5283355712890625,1.245501578124566
1785941697.77355,-0.0205078087747097,-0.41552734375,0.8935546278953552,0.985658874387015,-0.7877349853515625,-0.1621246337890625,-0.2841949462890625,0.8529815774823669
1785941697.785524,-0.0268554650247097,-0.408203125,0.8989257216453552,0.9876327557837892,-0.7877349853515625,0.1430511474609375,0.0209808349609375,0.80089339700885
1785941697.7975,-0.0244140587747097,-0.40283203125,0.9023436903953552,0.9884805649395261,-1.1539459228515625,-0.0400543212890625,-0.4062652587890625,1.2240290037489372
1785941697.809474,-0.0268554650247097,-0.412109375,0.9057616591453552,0.9954695053804163,-1.3370513916015625,-0.0400543212890625,-0.4062652587890625,1.3979850617716008
1785941697.820127,-0.009765621274709702,-0.40380859375,0.8925780653953552,0.9797205471817709,-1.216888427734375,0.20599365234375,0.0820159912109375,1.2369225736375213
1785941697.830782,-0.0200195275247097,-0.40673828125,0.9023436903953552,0.989980275820092,-0.972747802734375,0.20599365234375,0.5092620849609375,1.1171479506803177
1785941697.841437,-0.0312499962747097,-0.41796875,0.9003905653953552,0.9931654487026315,-1.09100341796875,-0.09918212890625,0.2651214599609375,1.1271268523310454
1785941697.849743,-0.0307617150247097,-0.42138671875,0.9028319716453552,0.9968042028779737,-0.545501708984375,-0.09918212890625,0.3261566162109375,0.6432630468924968
1785941697.858047,-0.012207027524709702,-0.41064453125,0.9233397841453552,1.0106108546577721,-0.362396240234375,-0.28228759765625,-0.1010894775390625,0.4703577417197131
1785941697.866351,-0.015624996274709702,-0.41162109375,0.9067382216453552,0.995916797690004,-0.1773834228515625,-0.2231597900390625,0.3261566162109375,0.4331781491384156
1785941697.874655,-0.0161132775247097,-0.419921875,0.8964843153953552,0.990089968925038,0.125885009765625,-0.09918212890625,0.3871917724609375,0.4190484447405931
1785941697.884951,-0.014648433774709702,-0.41259765625,0.9086913466453552,0.9980838471908031,0.37384033203125,-0.09918212890625,0.2651214599609375,0.46891691916525063
1785941697.895247,-0.02783203125,-0.40576171875,0.9077147841453552,0.99466744378335,0.3108978271484375,-0.2231597900390625,0.4482269287109375,0.589376900156036
1785941697.905543,-0.00927734375,-0.41357421875,0.8989257216453552,0.989543913405237,0.3108978271484375,-0.0400543212890625,-0.0400543212890625,0.31601606958108097
1785941697.913542,-0.0175781212747097,-0.41162109375,0.8994140028953552,0.9892858352224299,0.431060791015625,0.02288818359375,0.1430511474609375,0.4547536753992522
1785941697.921539,-0.0234375,-0.40869140625,0.8818358778953552,0.9722203955340191,0.3719329833984375,-0.0400543212890625,-0.0400543212890625,0.3762217982088721
1785941697.929535,-0.010253902524709702,-0.40380859375,0.9003905653953552,0.9868483638109282,0.125885009765625,-0.09918212890625,0.4482269287109375,0.47601629173769605
1785941697.937533,-0.012695308774709702,-0.40625,0.9028319716453552,0.9901039351451567,0.1888275146484375,-0.0972747802734375,0.0209808349609375,0.21344415803954325
1785941697.948189,-0.014648430049419403,-0.40576171875,0.9091796278953552,0.9957232269490369,0.37384033203125,-0.09918212890625,-0.4673004150390625,0.606599840457687
1785941697.958845,-0.015624996274709702,-0.42138671875,0.9023436903953552,0.996009559614658,0.1888275146484375,0.0209808349609375,-0.3452301025390625,0.3940556425469576
1785941697.969501,-0.020019523799419403,-0.4150390625,0.8969725966453552,0.9885433950347073,0.308990478515625,0.20599365234375,0.0820159912109375,0.3803092471049649
1785941697.980201,-0.015624996274709702,-0.41015625,0.8916015028953552,0.9815424238859487,0.1888275146484375,0.0858306884765625,0.0209808349609375,0.20847765541737248
1785941697.990902,-0.014160152524709702,-0.3984375,0.8964843153953552,0.9811407029960849,0.125885009765625,0.02288818359375,0.1430511474609375,0.19192325398920163
1785941698.001605,-0.0214843712747097,-0.41650390625,0.9111327528953552,1.002047890836185,0.06866455078125,-0.28228759765625,-0.2231597900390625,0.3663350927972997
1785941698.009595,-0.0283203125,-0.40966796875,0.8955077528953552,0.9851720764493568,0.0057220458984375,0.4482269287109375,0.0820159912109375,0.45570466778958524
1785941698.017585,-0.0273437462747097,-0.4228515625,0.8999022841453552,0.9946734365504363,0.06866455078125,0.02288818359375,-0.2231597900390625,0.2346038818359375
1785941698.025575,-0.0224609375,-0.40478515625,0.8979491591453552,0.9852249534210785,-0.1163482666015625,0.2651214599609375,-0.4062652587890625,0.4988765059330327
1785941698.033565,-0.02880859375,-0.4013671875,0.8969725966453552,0.9830998898424431,-0.240325927734375,0.14495849609375,0.0820159912109375,0.2923972297157795
1785941698.041564,-0.02294921875,-0.404296875,0.8930663466453552,0.9805866250803561,-0.4215240478515625,0.2651214599609375,0.0209808349609375,0.4984095774407264
1785941698.049563,-0.01904296875,-0.40966796875,0.8979491591453552,0.9871692720544005,-0.3604888916015625,0.2651214599609375,-0.1010894775390625,0.4587599720649816
1785941698.057562,-0.00830078125,-0.404296875,0.9038085341453552,0.9901488436079202,-0.1163482666015625,0.2651214599609375,0.0209808349609375,0.29028693237668374
1785941698.065561,-0.0332031212747097,-0.40283203125,0.9023436903953552,0.9887366829746395,-0.1773834228515625,0.3261566162109375,-0.0400543212890625,0.3734265197527252
1785941698.076208,-0.0297851525247097,-0.41796875,0.8979491591453552,0.9909075253005869,0.125885009765625,0.08392333984375,-0.1010894775390625,0.18195946010950262
1785941698.086855,-0.0161132775247097,-0.41455078125,0.9086913466453552,0.9989153875157409,0.1888275146484375,0.2651214599609375,-0.1621246337890625,0.3636339033992327
1785941698.097502,-0.0161132775247097,-0.39990234375,0.9047850966453552,0.9893521078771077,-0.240325927734375,0.38909912109375,-0.2231597900390625,0.5088761828456851
1785941698.108155,-0.0219726525247097,-0.4052734375,0.8979491591453552,0.9854146584113149,-0.2994537353515625,0.3261566162109375,0.1430511474609375,0.46531098063989773
1785941698.118808,-0.0185546875,-0.41015625,0.9052733778953552,0.9940283268440351,-0.057220458984375,0.14495849609375,-0.1010894775390625,0.1857585233179487
1785941698.129461,-0.024414055049419403,-0.4052734375,0.8999022841453552,0.9872521087529011,0.247955322265625,0.20599365234375,0.0209808349609375,0.3230408984655438
1785941698.137453,-0.009765621274709702,-0.40625,0.9086913466453552,0.9954166933134235,-0.1773834228515625,-0.1621246337890625,-0.3452301025390625,0.42063416323796793
1785941698.145446,-0.029296867549419403,-0.40478515625,0.9047850966453552,0.9916377364139033,0.1888275146484375,-0.1621246337890625,-0.1010894775390625,0.26862484925759217
1785941698.153439,-0.0244140587747097,-0.40625,0.9042968153953552,0.9916591345316375,-0.057220458984375,0.08392333984375,-0.2231597900390625,0.24518890632977372
1785941698.161432,-0.0278320275247097,-0.4130859375,0.9091796278953552,0.999010615207029,0.0057220458984375,-0.1621246337890625,-0.1010894775390625,0.19114450334660965
1785941698.172126,-0.024902336299419403,-0.4150390625,0.9008788466453552,0.9921997007090426,0.4940032958984375,0.1430511474609375,-0.3452301025390625,0.6194244997152936
1785941698.18282,-0.015136715024709702,-0.39794921875,0.9003905653953552,0.9845282479941558,0.55694580078125,0.08392333984375,-0.1621246337890625,0.586102507126215
1785941698.193513,-0.0063476525247097015,-0.4150390625,0.9082030653953552,0.9985642313276464,0.6160736083984375,-0.0400543212890625,-0.2231597900390625,0.6564688351393974
1785941698.204175,-0.00830078125,-0.404296875,0.9033202528953552,0.989703160243037,0.55694580078125,0.02288818359375,-0.2231597900390625,0.600427169477171
1785941698.214837,-0.0224609375,-0.39453125,0.9042968153953552,0.9868698654200171,0.4940032958984375,-0.1621246337890625,-0.1010894775390625,0.5296628509805813
1785941698.225499,-0.0161132775247097,-0.40771484375,0.9125975966453552,0.999662645560768,0.614166259765625,0.08392333984375,-0.2231597900390625,0.6588198642233741
1785941698.233505,-0.010253898799419403,-0.39990234375,0.8925780653953552,0.9781219912680866,0.3719329833984375,-0.0400543212890625,0.1430511474609375,0.4005023390487011
1785941698.241513,-0.013671875,-0.41357421875,0.8994140028953552,0.9900384352058936,0.614166259765625,0.20599365234375,0.2040863037109375,0.6791795041097809
1785941698.249522,-0.0307617150247097,-0.4072265625,0.9018554091453552,0.9900115834279738,0.1888275146484375,0.2040863037109375,0.2651214599609375,0.3841828186977105
1785941698.257529,-0.013671871274709702,-0.41650390625,0.8950194716453552,0.9872802431984506,0.1888275146484375,0.4482269287109375,0.0820159912109375,0.49324419177954676
1785941698.26825,-0.0170898400247097,-0.3974609375,0.9003905653953552,0.984362956293773,0.003814697265625,0.20599365234375,-0.2841949462890625,0.3510195211343512
1785941698.27897,-0.017578125,-0.419921875,0.8979491591453552,0.9914414072409331,0.1888275146484375,0.5741119384765625,0.0820159912109375,0.6099073462452594
1785941698.28969,-0.0268554650247097,-0.412109375,0.8906249403953552,0.9817169334481372,0.1888275146484375,0.6313323974609375,-0.0400543212890625,0.6601823801238628
1785941698.300261,-0.0268554650247097,-0.40283203125,0.9106444716453552,0.9961266059798536,0.614166259765625,0.08392333984375,-0.2841949462890625,0.6819164824971382
1785941698.310831,-0.029296867549419403,-0.41015625,0.9062499403953552,0.9951760700141737,0.736236572265625,0.20599365234375,-0.1010894775390625,0.7711658431339365
1785941698.321401,-0.030273430049419403,-0.41357421875,0.9194335341453552,1.0086219007599666,1.224517822265625,-0.03814697265625,-0.2231597900390625,1.2452708060736282
1785941698.329422,-0.01904296875,-0.42138671875,0.8979491591453552,0.9920897609629663,0.9822845458984375,-0.0400543212890625,-0.2231597900390625,1.0081108915467114
1785941698.337441,-0.0166015587747097,-0.40283203125,0.9067382216453552,0.9923323333174892,1.1653900146484375,-0.2841949462890625,-0.5893707275390625,1.3365098234650026
1785941698.345462,-0.0224609375,-0.39501953125,0.8901366591453552,0.9741089239591243,1.1653900146484375,-0.0972747802734375,-0.5893707275390625,1.3095625695626212
1785941698.353482,-0.0312499962747097,-0.40625,0.9003905653953552,0.9882908453588634,0.9822845458984375,-0.2231597900390625,-0.4673004150390625,1.1104291507776884
1785941698.364159,-0.0166015587747097,-0.41162109375,0.9018554091453552,0.9914891404238538,1.102447509765625,-0.16021728515625,-0.8945465087890625,1.4287314466469783
1785941698.374836,-0.0224609337747097,-0.40771484375,0.8994140028953552,0.9877658811501665,0.7991790771484375,-0.2231597900390625,-0.4062652587890625,0.9238717171453246
1785941698.385513,-0.0209960900247097,-0.4052734375,0.8979491591453552,0.9853933668080187,1.102447509765625,-0.16021728515625,-0.7724761962890625,1.355647286016715
1785941698.396165,-0.0166015587747097,-0.40380859375,0.9145507216453552,0.999869998850922,1.2874603271484375,-0.2231597900390625,-0.8335113525390625,1.5498695302130878
1785941698.406816,-0.017578125,-0.41357421875,0.9057616591453552,0.9958698750694968,1.4095306396484375,-0.2231597900390625,-0.5283355712890625,1.5217474796717594
1785941698.417469,-0.0249023400247097,-0.4072265625,0.9091796278953552,0.9965245584149992,1.712799072265625,-0.16021728515625,-0.6504058837890625,1.8391242628175661
1785941698.428131,-0.00244140625,-0.40869140625,0.9023436903953552,0.9905850602565076,1.773834228515625,-0.40435791015625,-0.7724761962890625,1.9765405797991527
1785941698.438793,-0.0190429650247097,-0.41796875,0.9013671278953552,0.9937420237384632,2.1419525146484375,-0.2231597900390625,-0.8335113525390625,2.309221089828893
1785941698.449455,-0.020019523799419403,-0.39013671875,0.8959960341453552,0.9774540060045672,1.895904541015625,-0.03814697265625,-0.7724761962890625,2.047590948895732
1785941698.457442,-0.0078125,-0.39990234375,0.8969725966453552,0.9821113780145836,1.6536712646484375,0.0858306884765625,-0.4673004150390625,1.7205711948373434
1785941698.46543,-0.012695308774709702,-0.40234375,0.8999022841453552,0.9858325339726699,1.285552978515625,0.08392333984375,-0.8945465087890625,1.5684078053642887
1785941698.473419,-0.0268554650247097,-0.3974609375,0.9111327528953552,0.9944140517102223,1.1653900146484375,-0.0972747802734375,-0.6504058837890625,1.3381420263884407
1785941698.481409,-0.02392578125,-0.40087890625,0.8950194716453552,0.9809873572625439,0.9212493896484375,-0.0400543212890625,-0.4673004150390625,1.0337671229426995
1785941698.491019,-0.01806640625,-0.41064453125,0.9121093153953552,1.0004492637367004,1.2874603271484375,-0.2231597900390625,-0.9555816650390625,1.6187929776318735
1785941698.500628,-0.009277340024709702,-0.4130859375,0.9272460341453552,1.015141009237868,1.3484954833984375,-0.0400543212890625,-1.0166168212890625,1.6892466305213667
1785941698.510237,-0.010253902524709702,-0.41748046875,0.9257811903953552,1.0156110952498238,1.895904541015625,0.08392333984375,-1.0166168212890625,2.152906620581133
1785941698.519846,-0.013183590024709702,-0.42236328125,0.9184569716453552,1.0110033418135487,3.055572509765625,0.02288818359375,-1.1386871337890625,3.260928643813043
1785941698.529455,-0.015624996274709702,-0.3935546875,0.9130858778953552,0.9944120136913768,3.543853759765625,0.02288818359375,-1.1386871337890625,3.722369101554805
1785941698.540132,-0.0180664025247097,-0.40625,0.8920897841453552,0.9804027949657688,3.726959228515625,0.02288818359375,-1.2607574462890625,3.934495939550494
1785941698.550809,-0.00927734375,-0.3955078125,0.8974608778953552,0.9807897461781973,3.9119720458984375,-0.2231597900390625,-1.3828277587890625,4.155182088700647
1785941698.561486,-0.0249023400247097,-0.39697265625,0.8999022841453552,0.9838859371689965,4.0950775146484375,-0.1621246337890625,-1.6880035400390625,4.432301907479325
1785941698.57215,-0.01904296875,-0.404296875,0.8886718153953552,0.9765020190822216,3.543853759765625,0.32806396484375,-1.6269683837890625,3.9132533214044747
1785941698.582813,-0.0209960900247097,-0.39501953125,0.8818358778953552,0.9664966535941898,2.933502197265625,-0.09918212890625,-1.6269683837890625,3.3559347964324067
1785941698.593476,-0.0219726525247097,-0.3916015625,0.8940429091453552,0.9762926326693769,2.6302337646484375,-0.3452301025390625,-1.5048980712890625,3.0499232261428095
1785941698.601548,-0.0200195275247097,-0.3974609375,0.9013671278953552,0.9853114622143666,2.079010009765625,-0.40435791015625,-0.8945465087890625,2.2991305740645296
1785941698.609624,-0.02880859375,-0.4013671875,0.9111327528953552,0.9960363686503526,2.1419525146484375,-0.5283355712890625,-1.1386871337890625,2.4826815018352346
1785941698.617699,-0.012695308774709702,-0.40283203125,0.9169921278953552,1.0016533227059838,2.3250579833984375,-0.7114410400390625,-1.2607574462890625,2.7388961860556145
1785941698.625774,-0.010253898799419403,-0.404296875,0.9360350966453552,1.0196679889685827,2.750396728515625,-0.58746337890625,-1.0166168212890625,2.990535929747924
1785941698.636415,-0.011230465024709702,-0.42041015625,0.9306640028953552,1.0212768033731239,2.9964447021484375,-0.3452301025390625,-1.4438629150390625,3.34404019027249
1785941698.647058,-0.012695308774709702,-0.40087890625,0.9262694716453552,1.0093761451724759,4.215240478515625,-0.40435791015625,-1.1997222900390625,4.401260181407041
1785941698.6577,-0.01416015625,-0.416015625,0.9091796278953552,0.9999385511365694,4.4612884521484375,-0.8335113525390625,-1.5048980712890625,4.781480318170727
1785941698.668274,-0.0063476525247097015,-0.38623046875,0.8920897841453552,0.9721308814454593,4.6443939208984375,-0.5283355712890625,-1.9321441650390625,5.057935788724705
1785941698.678848,-0.01416015625,-0.3857421875,0.8930663466453552,0.9729157439124887,4.4612884521484375,-0.5855560302734375,-1.9931793212890625,4.921253328642706
1785941698.689422,-0.0185546837747097,-0.3740234375,0.8984374403953552,0.9733589483810448,3.9119720458984375,-0.6504058837890625,-1.8100738525390625,4.35923392962615
1785941698.697433,-0.011230465024709702,-0.3798828125,0.8847655653953552,0.9629367478121,2.6302337646484375,-0.7114410400390625,-1.6269683837890625,3.1735318073083416
1785941698.705446,-0.004882805049419403,-0.39501953125,0.8901366591453552,0.9738621790626097,2.079010009765625,-0.34332275390625,-1.5048980712890625,2.5893766313584
1785941698.713459,-0.004882805049419403,-0.39013671875,0.8999022841453552,0.9808438316634279,1.895904541015625,-0.16021728515625,-1.0776519775390625,2.1866543832531833
1785941698.721472,-0.013671871274709702,-0.39208984375,0.9003905653953552,0.9821530104260838,1.7757415771484375,-0.2231597900390625,-1.2607574462890625,2.1891934083303872
1785941698.732127,-0.008789058774709702,-0.39892578125,0.8989257216453552,0.9835072341044019,2.140045166015625,-0.09918212890625,-1.3828277587890625,2.549871176698698
1785941698.742784,-0.0166015625,-0.39453125,0.9023436903953552,0.9849642910787744,1.407623291015625,0.08392333984375,-1.0166168212890625,1.7383774669812269
1785941698.753439,-0.01708984375,-0.3798828125,0.9023436903953552,0.979197196477103,1.0433197021484375,-0.0400543212890625,-1.1386871337890625,1.5449041194202902
1785941698.761454,-0.00927734375,-0.375,0.8979491591453552,0.9731514586727527,0.980377197265625,-0.09918212890625,-1.0166168212890625,1.4157988221992048
1785941698.76947,-0.015624996274709702,-0.38037109375,0.9023436903953552,0.9793622644688046,0.4940032958984375,0.4482269287109375,-0.8335113525390625,1.067561619201279
1785941698.777486,-0.0214843712747097,-0.37744140625,0.9038085341453552,0.9796904918161771,-0.057220458984375,0.14495849609375,-0.5893707275390625,0.6096269359174249
1785941698.793481,-0.010253902524709702,-0.3828125,0.9145507216453552,0.991490582474325,0.0057220458984375,0.0209808349609375,-0.6504058837890625,0.6507693530832206
1785941698.801461,-0.0214843712747097,-0.3837890625,0.9091796278953552,0.9870983833861927,-0.2384185791015625,0.2651214599609375,-0.5893707275390625,0.6888328257803564
1785941698.809443,-0.0161132775247097,-0.380859375,0.9184569716453552,0.9944228024346263,-0.240325927734375,0.02288818359375,-0.4673004150390625,0.5259753781169697
1785941698.817424,-0.008300777524709702,-0.3984375,0.9101561903953552,0.9935822236879799,-0.057220458984375,-0.09918212890625,-0.4673004150390625,0.48112467564700795
1785941698.82546,-0.0063476525247097015,-0.39794921875,0.8989257216453552,0.9830927354181458,-0.057220458984375,0.08392333984375,-0.5893707275390625,0.5980594973552681
1785941698.833498,-0.008789058774709702,-0.38330078125,0.9165038466453552,0.9934666765305913,0.0057220458984375,0.1430511474609375,-0.4673004150390625,0.4887392459122091
1785941698.841535,-0.014648433774709702,-0.38720703125,0.9140624403953552,0.9928010911572382,-0.057220458984375,0.14495849609375,-0.4673004150390625,0.4926020954196443
1785941698.849571,-0.0170898400247097,-0.3984375,0.9023436903953552,0.9865437849556545,0.0057220458984375,0.2651214599609375,-0.4062652587890625,0.48515316224881677
1785941698.860213,-0.005371086299419403,-0.39501953125,0.9135741591453552,0.9953326192259291,0.3108978271484375,0.1430511474609375,-0.4062652587890625,0.5311991624752948
1785941698.870854,-0.025878898799419403,-0.3994140625,0.9072265028953552,0.9915952996467664,0.308990478515625,0.38909912109375,-0.2841949462890625,0.5723984707749373
1785941698.881495,-0.013183590024709702,-0.38916015625,0.9047850966453552,0.9850154848376795,0.06866455078125,0.02288818359375,-0.5893707275390625,0.5937984034688338
1785941698.8911,-0.0234375,-0.375,0.9199218153953552,0.9936953571626145,0.247955322265625,-0.09918212890625,-0.4673004150390625,0.5382272888194225
1785941698.900706,-0.015136715024709702,-0.38671875,0.9013671278953552,0.9809399629914276,0.431060791015625,-0.28228759765625,-0.7114410400390625,0.8784349986159569
1785941698.910312,-0.013183590024709702,-0.37353515625,0.9169921278953552,0.9902408205192831,0.4940032958984375,0.0209808349609375,-0.6504058837890625,0.8170111782966062
1785941698.919918,-0.015624996274709702,-0.39404296875,0.8940429091453552,0.9771523551232878,0.4940032958984375,-0.0400543212890625,-0.9555816650390625,1.0764664061508253
1785941698.929524,-0.0014648400247097015,-0.3994140625,0.9208983778953552,1.00378661153123,0.431060791015625,-0.16021728515625,-0.8335113525390625,0.9519580656863793
1785941698.939115,-0.008789058774709702,-0.3837890625,0.9077147841453552,0.9855543726273163,0.614166259765625,-0.16021728515625,-1.2607574462890625,1.411516599785725
1785941698.948704,-0.012207027524709702,-0.380859375,0.8969725966453552,0.9745577018212368,0.3719329833984375,-0.0400543212890625,-1.5659332275390625,1.6099954552434286
1785941698.958295,-0.008300777524709702,-0.38427734375,0.8974608778953552,0.9763063080712795,0.4940032958984375,-0.2231597900390625,-1.5048980712890625,1.599549234383968
1785941698.967885,-0.00439453125,-0.39111328125,0.9042968153953552,0.9852622194163491,-0.057220458984375,-0.09918212890625,-1.6880035400390625,1.6918827461751496
1785941698.977474,-0.011718746274709702,-0.38330078125,0.8955077528953552,0.9741616669818208,-0.1163482666015625,-0.0400543212890625,-1.9321441650390625,1.9360584552873428
1785941698.985469,-0.0166015587747097,-0.3779296875,0.9116210341453552,0.9869951217426784,-0.057220458984375,-0.28228759765625,-1.4438629150390625,1.472311307482904
1785941698.993463,-0.0185546875,-0.40087890625,0.9233397841453552,1.0067792860850933,0.0057220458984375,-0.1621246337890625,-1.1997222900390625,1.2106406204597109
1785941699.001457,-0.0249023400247097,-0.38134765625,0.9291991591453552,1.0047174920456543,-0.057220458984375,0.32806396484375,-0.5893707275390625,0.6769475610675524
1785941699.00945,-0.0029296875,-0.390625,0.9165038466453552,0.9962809717191132,0.125885009765625,0.02288818359375,-0.4062652587890625,0.42593704362365176
1785941699.02037,-0.010253902524709702,-0.3935546875,0.8969725966453552,0.9795663702388522,-0.057220458984375,0.32806396484375,-0.1010894775390625,0.3480218792324764
1785941699.031289,-0.0009765587747097015,-0.39404296875,0.8994140028953552,0.9819451937316054,0.06866455078125,0.20599365234375,0.2040863037109375,0.2979923232271288
1785941699.042207,-0.015624996274709702,-0.3876953125,0.8994140028953552,0.9795393531897039,0.0057220458984375,-0.0400543212890625,0.3871917724609375,0.389300088780665
1785941699.050571,-0.00439453125,-0.3837890625,0.9082030653953552,0.9859747280701753,-0.057220458984375,0.20599365234375,0.0820159912109375,0.22898512734807225
1785941699.058938,-0.0205078087747097,-0.3857421875,0.9091796278953552,0.9878386514092075,-0.240325927734375,0.14495849609375,0.2651214599609375,0.3860814754206277
1785941699.067304,-0.010742183774709702,-0.38525390625,0.9013671278953552,0.9803053942743838,0.1888275146484375,0.0858306884765625,0.1430511474609375,0.2519650137669067
1785941699.07567,-0.014648433774709702,-0.39306640625,0.9091796278953552,0.990617672017958,-0.4215240478515625,0.2651214599609375,0.1430511474609375,0.518107655066856
1785941699.085627,-0.014648433774709702,-0.38818359375,0.8969725966453552,0.9774768121042198,-0.6046295166015625,0.3261566162109375,-0.1010894775390625,0.6943875525332583
1785941699.095583,-0.0058593712747097015,-0.4033203125,0.9013671278953552,0.9875040789572235,-0.2994537353515625,0.2651214599609375,0.0209808349609375,0.4005023390487011
1785941699.105541,-0.010742183774709702,-0.392578125,0.9145507216453552,0.9953069884225697,-0.7877349853515625,-0.0972747802734375,0.0820159912109375,0.7979444923291247
1785941699.113507,-0.0229492150247097,-0.39404296875,0.9106444716453552,0.9925068671952915,-0.6046295166015625,-0.0400543212890625,-0.1621246337890625,0.6272683619321193
1785941699.121474,-0.0200195275247097,-0.3828125,0.9086913466453552,0.9862383865509959,-0.728607177734375,-0.16021728515625,0.0209808349609375,0.7463097167694847
1785941699.129441,-0.014648433774709702,-0.3916015625,0.9174804091453552,0.9976656060674949,-0.7877349853515625,-0.2231597900390625,-0.1621246337890625,0.8346323118106215
1785941699.137408,-0.0209960900247097,-0.39892578125,0.8999022841453552,0.9845845498240748,-0.41961669921875,-0.28228759765625,0.2651214599609375,0.5710112525910455
1785941699.148106,-0.012207027524709702,-0.39697265625,0.9135741591453552,0.996169687146378,-0.7266998291015625,-0.2231597900390625,0.0820159912109375,0.7646041827774885
1785941699.158804,-0.0087890625,-0.40478515625,0.9028319716453552,0.9894613885165026,-0.728607177734375,0.14495849609375,0.2651214599609375,0.7887780255354683
1785941699.169502,-0.009765621274709702,-0.38818359375,0.9018554091453552,0.9818986958033309,-0.6656646728515625,-0.0400543212890625,0.0209808349609375,0.6671986216803534
1785941699.180188,-0.004882805049419403,-0.3955078125,0.9106444716453552,0.9928361522788812,-0.6046295166015625,-0.1621246337890625,0.2651214599609375,0.6798166206845018
1785941699.190875,-0.004882805049419403,-0.39013671875,0.9096679091453552,0.9898111971639083,-0.6046295166015625,-0.2231597900390625,0.0820159912109375,0.6496951339285452
1785941699.201562,-0.0058593712747097015,-0.38623046875,0.9184569716453552,0.9963792029074756,-0.6046295166015625,-0.3452301025390625,-0.2231597900390625,0.7311367641797595
1785941699.209589,-0.0058593712747097015,-0.392578125,0.9057616591453552,0.9871960796305854,-0.1163482666015625,-0.5283355712890625,-0.1010894775390625,0.5503584990709682
1785941699.217618,-0.013183590024709702,-0.40625,0.9082030653953552,0.9950103906690922,0.003814697265625,-0.28228759765625,-0.1621246337890625,0.3255537384012091
1785941699.225646,-0.015624996274709702,-0.39111328125,0.9082030653953552,0.9889623588753245,0.003814697265625,-0.28228759765625,-0.2231597900390625,0.35986265657337063
1785941699.233674,-0.010253902524709702,-0.392578125,0.9091796278953552,0.9903687810737162,0.308990478515625,-0.28228759765625,-0.2841949462890625,0.5058934384829427
1785941699.244278,-0.0053710900247097015,-0.400390625,0.9169921278953552,1.000607847169907,0.6771087646484375,-0.4024505615234375,0.0820159912109375,0.7919402480292158
1785941699.254884,0.00048828125,-0.38623046875,0.9091796278953552,0.9878166880496403,0.614166259765625,0.20599365234375,0.0820159912109375,0.6529626346543327
1785941699.265489,-0.0053710900247097015,-0.3974609375,0.8964843153953552,0.9806570109861609,0.736236572265625,0.14495849609375,0.0820159912109375,0.7548403001599154
1785941699.276152,0.0004882849752902985,-0.39794921875,0.9140624403953552,0.9969322765702116,0.6771087646484375,0.2040863037109375,0.2040863037109375,0.7360561920726699
1785941699.286818,-0.0048828087747097015,-0.40087890625,0.9028319716453552,0.9878427548566453,0.6160736083984375,0.4482269287109375,-0.1010894775390625,0.7685526351889191
1785941699.297483,-0.01220703125,-0.41455078125,0.9028319716453552,0.9935325514908726,0.3719329833984375,0.1430511474609375,-0.2231597900390625,0.4567253735231181
1785941699.308175,-0.0249023400247097,-0.4013671875,0.8945311903953552,0.9807659233122333,0.3719329833984375,0.2651214599609375,-0.6504058837890625,0.7947649629537734
1785941699.318865,-0.013671871274709702,-0.40283203125,0.9091796278953552,0.9945190602723961,0.797271728515625,0.02288818359375,-0.5893707275390625,0.9917277512091902
1785941699.329555,-0.012695308774709702,-0.376953125,0.9135741591453552,0.9883686425470477,0.308990478515625,-0.40435791015625,-1.0166168212890625,1.136877388572366
1785941699.339132,-0.0019531212747097015,-0.38525390625,0.9121093153953552,0.9901352383359463,0.247955322265625,-0.16021728515625,-1.2607574462890625,1.2948593586471109
1785941699.348712,0.008789066225290298,-0.388671875,0.9096679091453552,0.9892617343403163,0.431060791015625,-0.28228759765625,-1.8100738525390625,1.8819848684267249
1785941699.358292,-0.00927734375,-0.39404296875,0.8979491591453552,0.980647042894751,0.6160736083984375,-0.7114410400390625,-2.4204254150390625,2.59695094951444
1785941699.367872,0.00048828125,-0.39111328125,0.9052733778953552,0.9861489369840578,0.6771087646484375,-0.4024505615234375,-2.6645660400390625,2.77855266557316
1785941699.377451,0.0034179724752902985,-0.396484375,0.9072265028953552,0.9900865970765984,0.37384033203125,-0.77056884765625,-3.4580230712890625,3.562507053241994
1785941699.387118,-0.011230465024709702,-0.3759765625,0.8994140028953552,0.9749000192318358,0.1888275146484375,-0.6504058837890625,-4.1294097900390625,4.184579890266906
1785941699.396783,-0.012695308774709702,-0.3828125,0.9140624403953552,0.9910684769291411,-0.1163482666015625,-0.2231597900390625,-3.8852691650390625,3.8934115754482983
1785941699.406448,-0.02392578125,-0.40625,0.9096679091453552,0.9965476458440434,0.0057220458984375,-0.5283355712890625,-3.4580230712890625,3.4981559112289498
1785941699.416113,-0.01904296875,-0.396484375,0.9047850966453552,0.9880276136776234,-0.1163482666015625,-0.6504058837890625,-2.8476715087890625,2.9233196463571334
1785941699.425778,-0.00732421875,-0.3896484375,0.9072265028953552,0.9873902352070458,0.0057220458984375,-0.3452301025390625,-2.7256011962890625,2.7473839277976357
1785941699.435341,-0.011718746274709702,-0.38671875,0.9052733778953552,0.9844839304640174,-0.2994537353515625,-0.7114410400390625,-2.2983551025390625,2.4245117179414106
1785941699.444906,-0.0053710900247097015,-0.390625,0.9082030653953552,0.9886604812707815,0.0667572021484375,-0.6504058837890625,-2.2983551025390625,2.389543997308579
1785941699.454471,-0.0073242150247097015,-0.400390625,0.9008788466453552,0.985874734967219,0.1888275146484375,-0.3452301025390625,-2.2983551025390625,2.331796695973897
1785941699.464036,0.0019531287252902985,-0.39404296875,0.9082030653953552,0.9900032747050137,-0.1773834228515625,-0.3452301025390625,-2.3593902587890625,2.3911024853967233
1785941699.473601,0.0019531287252902985,-0.39306640625,0.9003905653953552,0.982450092720783,-0.1163482666015625,-0.4024505615234375,-2.1762847900390625,2.2162398022251755
1785941699.483176,-0.0214843712747097,-0.38720703125,0.9086913466453552,0.987983211763569,-0.362396240234375,0.08392333984375,-2.0542144775390625,2.0876233572264953
1785941699.492748,-0.0073242150247097015,-0.388671875,0.9057616591453552,0.985658994642412,-0.6046295166015625,-0.2231597900390625,-2.3593902587890625,2.445833096820966
1785941699.50232,-0.015136711299419403,-0.400390625,0.8969725966453552,0.9823958528768144,-0.6656646728515625,-0.3452301025390625,-2.0542144775390625,2.186799122030369
1785941699.511892,-0.0048828087747097015,-0.388671875,0.9101561903953552,0.9896837672471607,-0.41961669921875,0.20599365234375,-1.7490386962890625,1.8104275517638644
1785941699.521464,-0.0039062462747097015,-0.3974609375,0.9062499403953552,0.9895854738550494,-0.1163482666015625,0.0209808349609375,-1.5048980712890625,1.5095348023634256
1785941699.532177,-0.00439453125,-0.39111328125,0.9028319716453552,0.983917923253809,-0.179290771484375,-0.09918212890625,-1.8100738525390625,1.8216337796273547
1785941699.542891,-0.011718746274709702,-0.400390625,0.9033202528953552,0.9881485014374459,0.0667572021484375,0.3261566162109375,-1.3217926025390625,1.3630738595042617
1785941699.553605,-0.0048828087747097015,-0.396484375,0.9150390028953552,0.9972562751170819,0.1888275146484375,0.3910064697265625,-0.8945465087890625,0.9943617782492624
1785941699.564241,-0.0009765587747097015,-0.39208984375,0.9091796278953552,0.9901227171512006,0.0667572021484375,-0.1621246337890625,-0.6504058837890625,0.6736235852368565
1785941699.574878,0.0024414099752902985,-0.392578125,0.8984374403953552,0.9804658989558691,0.1277923583984375,0.4482269287109375,-0.5893707275390625,0.7513961145538339
1785941699.585515,-0.011718746274709702,-0.39013671875,0.9086913466453552,0.9889711582242511,-0.1773834228515625,0.3261566162109375,-0.5283355712890625,0.6457410416645709
1785941699.593499,-0.0292968712747097,-0.396484375,0.8945311903953552,0.9788994927344475,-0.11444091796875,0.20599365234375,-0.5283355712890625,0.5785054748235214
1785941699.601485,0.0014648474752902985,-0.4072265625,0.8920897841453552,0.9806425454569054,-0.362396240234375,0.32806396484375,-0.6504058837890625,0.813624491785027
1785941699.609471,-0.015624996274709702,-0.3955078125,0.9135741591453552,0.9956346290257599,-0.240325927734375,-0.16021728515625,-0.7114410400390625,0.7678375371496825
1785941699.617457,-0.010742183774709702,-0.3984375,0.9077147841453552,0.9913697419603589,-0.4215240478515625,-0.1621246337890625,-0.7114410400390625,0.8426833766310255
1785941699.628131,-0.008789058774709702,-0.3876953125,0.9213866591453552,0.9996690845173001,-0.240325927734375,0.14495849609375,-0.8335113525390625,0.8794945661814216
1785941699.638804,-0.00830078125,-0.39013671875,0.9155272841453552,0.9952214679662749,-0.6046295166015625,-0.0400543212890625,-0.7724761962890625,0.9817844339940336
1785941699.649479,-0.014648433774709702,-0.38330078125,0.9101561903953552,0.9876833280125258,-0.60272216796875,0.20599365234375,-0.8945465087890625,1.098144276929752
1785941699.657516,-0.010253902524709702,-0.38427734375,0.9111327528953552,0.9889070294194547,-0.41961669921875,0.08392333984375,-0.7724761962890625,0.8830859386645145
1785941699.665555,-0.0166015587747097,-0.38427734375,0.9033202528953552,0.9818004725830164,-0.6046295166015625,-0.0400543212890625,-0.5893707275390625,0.8453041201128091
1785941699.673593,-0.0205078087747097,-0.3935546875,0.9140624403953552,0.9953974116981996,-0.6046295166015625,-0.0400543212890625,-0.4673004150390625,0.7652129630994542
1785941699.681631,-0.014648433774709702,-0.40283203125,0.8950194716453552,0.9816048475009604,-0.8487701416015625,-0.0400543212890625,-0.2841949462890625,0.8959809537174923
1785941699.692517,-0.0063476525247097015,-0.37939453125,0.9013671278953552,0.9779791420502297,-0.667572021484375,0.08392333984375,-0.1010894775390625,0.6803782869172009
1785941699.703403,-0.0214843712747097,-0.412109375,0.9130858778953552,1.002008750253156,-0.545501708984375,0.02288818359375,-0.0400543212890625,0.547448931049301
1785941699.714289,0.00244140625,-0.41357421875,0.9165038466453552,1.0054993266009098,-0.4825592041015625,0.1430511474609375,-0.2231597900390625,0.5505699847824097
1785941699.722221,-0.0048828087747097015,-0.39599609375,0.9111327528953552,0.9934785561276386,-0.41961669921875,0.02288818359375,-0.2841949462890625,0.5073152971355223
1785941699.730155,-0.0029296837747097015,-0.39111328125,0.9042968153953552,0.9852567747299902,-0.41961669921875,-0.40435791015625,-0.4062652587890625,0.7103766284641639
1785941699.738089,-0.012207027524709702,-0.3984375,0.8999022841453552,0.9842385757209817,-0.1773834228515625,0.2651214599609375,-0.3452301025390625,0.4700405205229511
1785941699.753989,-0.0063476525247097015,-0.3837890625,0.9052733778953552,0.9832874584338346,-0.2994537353515625,-0.0400543212890625,-0.5283355712890625,0.6086175844972532
1785941699.761957,-0.014648433774709702,-0.38720703125,0.9169921278953552,0.9954990830149177,-0.0553131103515625,-0.0400543212890625,-0.5283355712890625,0.5327310435107303
1785941699.769925,-0.015136715024709702,-0.416015625,0.8969725966453552,0.9888670080039029,-0.240325927734375,0.20599365234375,-0.3452301025390625,0.46837352620151085
1785941699.777893,-0.015136715024709702,-0.39404296875,0.9018554091453552,0.9842978006517077,-0.4825592041015625,0.3261566162109375,-0.2841949462890625,0.6480804666532894
1785941699.78844,-0.0029296875,-0.3798828125,0.9052733778953552,0.9817532393773012,-0.7877349853515625,0.0209808349609375,-0.4062652587890625,0.8865765974135729
1785941699.798989,-0.013183590024709702,-0.3916015625,0.8999022841453552,0.9815038012195412,-0.545501708984375,-0.09918212890625,-0.6504058837890625,0.8546560845548817
1785941699.809536,-0.0063476525247097015,-0.38427734375,0.8920897841453552,0.9713565527594059,-1.033782958984375,-0.28228759765625,-0.4062652587890625,1.1460562615229546
1785941699.820219,0.0048828125,-0.38720703125,0.9062499403953552,0.9855161497276103,-0.9708404541015625,0.0858306884765625,-0.8335113525390625,1.2824348986268215
1785941699.8309,-0.00927734375,-0.40185546875,0.9204100966453552,1.0043548341487933,-0.7877349853515625,-0.0972747802734375,-0.5893707275390625,0.9886084384143177
1785941699.841583,-0.0078124962747097015,-0.39208984375,0.9057616591453552,0.9870155337418396,-0.850677490234375,-0.16021728515625,-0.7114410400390625,1.1204776322203658
1785941699.850161,-0.02294921875,-0.4052734375,0.9135741591453552,0.9996954386424121,-0.6656646728515625,-0.3452301025390625,-0.7114410400390625,1.0336545040938836
1785941699.858737,-0.00390625,-0.40087890625,0.9096679091453552,0.9940899663481877,-0.4825592041015625,0.0858306884765625,-0.3452301025390625,0.5995115647313451
1785941699.867313,-0.0185546837747097,-0.39892578125,0.9072265028953552,0.9912345750586177,-0.41961669921875,-0.28228759765625,-0.3452301025390625,0.6123302097340187
1785941699.875889,-0.011230465024709702,-0.39990234375,0.8969725966453552,0.9821445143226762,-0.1773834228515625,-0.0400543212890625,-0.5283355712890625,0.5587554950475241
1785941699.885897,-0.00439453125,-0.40185546875,0.9194335341453552,1.003426705534693,-0.5435943603515625,-0.2231597900390625,-0.5893707275390625,0.8322577575344231
1785941699.895905,0.0058593787252902985,-0.39306640625,0.8989257216453552,0.9811233281687675,-0.4825592041015625,-0.1621246337890625,-0.8945465087890625,1.0292527574561416
1785941699.905913,-0.013183590024709702,-0.39892578125,0.9033202528953552,0.9875743340542984,-0.6046295166015625,0.0858306884765625,-1.0166168212890625,1.1859399313447867
1785941699.91646,-0.013671875,-0.390625,0.9018554091453552,0.9829130123239552,-0.7877349853515625,-0.2231597900390625,-1.0776519775390625,1.353388519136673
1785941699.927009,-0.0073242150247097015,-0.38330078125,0.9057616591453552,0.9835534129930795,-0.545501708984375,0.02288818359375,-0.7114410400390625,0.8967967087946732
1785941699.937557,-0.00341796875,-0.3994140625,0.9062499403953552,0.9903697442368253,-0.667572021484375,-0.09918212890625,-0.8335113525390625,1.0724880760990343
1785941699.945534,-0.010742183774709702,-0.38818359375,0.9121093153953552,0.9913351099400738,-0.4215240478515625,-0.3452301025390625,-0.5283355712890625,0.7589498155383121
1785941699.953511,-0.0063476525247097015,-0.4052734375,0.8940429091453552,0.9816310789847328,-0.4215240478515625,0.1430511474609375,-0.7114410400390625,0.8392225611593864
1785941699.961488,-0.01416015625,-0.400390625,0.9101561903953552,0.9944332323127084,-0.057220458984375,-0.16021728515625,-0.4673004150390625,0.4973061806220608
1785941699.969465,-0.0063476525247097015,-0.39892578125,0.9160155653953552,0.999132917926874,0.0057220458984375,0.0209808349609375,-0.5893707275390625,0.5897718132675093
1785941699.980171,-0.009765617549419403,-0.40576171875,0.9062499403953552,0.9929888690995788,-0.057220458984375,-0.28228759765625,-0.4673004150390625,0.5489354667104317
1785941699.990879,-0.0058593712747097015,-0.38427734375,0.9062499403953552,0.9843740973927928,0.0667572021484375,-0.3452301025390625,-0.4673004150390625,0.5848162323614992
1785941700.001586,0.0024414099752902985,-0.39208984375,0.9111327528953552,0.9919189984334584,0.125885009765625,-0.16021728515625,-0.7114410400390625,0.7400438957240263
1785941700.009556,0.009277347475290298,-0.3955078125,0.9155272841453552,0.9973478364839834,-0.2994537353515625,-0.0972747802734375,-0.5893707275390625,0.6682011500836953
1785941700.017525,-0.0043945275247097015,-0.39794921875,0.9121093153953552,0.9951513934105124,-0.1163482666015625,-0.1621246337890625,-0.7724761962890625,0.7978350643182112
1785941700.025496,-0.009277340024709702,-0.40283203125,0.9135741591453552,0.9984875856499559,0.0057220458984375,-0.0400543212890625,-0.7724761962890625,0.7735351086385216
1785941700.033466,-0.009765617549419403,-0.39501953125,0.8999022841453552,0.9828325993601956,-0.179290771484375,0.08392333984375,-0.7724761962890625,0.7974382619007004
1785941700.044148,-0.0073242150247097015,-0.388671875,0.8999022841453552,0.9802773033952032,0.06866455078125,0.08392333984375,-0.4062652587890625,0.42048710801101186
1785941700.054832,-0.0029296875,-0.3955078125,0.9072265028953552,0.9896943671523643,-0.240325927734375,0.20599365234375,-0.1010894775390625,0.33227852596342483
1785941700.065515,0.0024414099752902985,-0.39794921875,0.9038085341453552,0.987542104206387,-0.179290771484375,0.02288818359375,-0.1010894775390625,0.20709450054698267
1785941700.07617,-0.015136715024709702,-0.388671875,0.9067382216453552,0.9866454019303674,-0.41961669921875,0.20599365234375,-0.1621246337890625,0.49476858828182924
1785941700.086825,0.0004882849752902985,-0.38818359375,0.8994140028953552,0.9796082326538136,-0.362396240234375,-0.16021728515625,-0.4062652587890625,0.5674963206028687
1785941700.097482,0.0019531287252902985,-0.4013671875,0.9052733778953552,0.9902622494266579,-0.2994537353515625,-0.0972747802734375,-0.4062652587890625,0.5139906448489049
1785941700.105478,-0.011718746274709702,-0.3974609375,0.8989257216453552,0.9829445451744735,-0.2384185791015625,0.2651214599609375,-0.2841949462890625,0.4559600584359009
1785941700.113472,0.011230472475290298,-0.37744140625,0.9042968153953552,0.9799698306571366,-0.362396240234375,-0.16021728515625,-0.4062652587890625,0.5674963206028687
1785941700.121468,0.00048828125,-0.396484375,0.9077147841453552,0.990528256736661,-0.4825592041015625,-0.0400543212890625,-0.1621246337890625,0.5106389438715956
1785941700.129462,-0.0009765587747097015,-0.4052734375,0.9028319716453552,0.9896226967057427,-0.41961669921875,0.20599365234375,-0.1621246337890625,0.49476858828182924
1785941700.140162,-0.00390625,-0.396484375,0.9116210341453552,0.9941167075874191,-0.545501708984375,0.14495849609375,-0.3452301025390625,0.6616410687024855
1785941700.150861,-0.0019531212747097015,-0.3935546875,0.9057616591453552,0.987569384860468,-0.4825592041015625,0.1430511474609375,-0.2231597900390625,0.5505699847824097
1785941700.16156,0.0029296912252902985,-0.39990234375,0.9023436903953552,0.9869927067733213,-0.2994537353515625,0.0209808349609375,0.0820159912109375,0.311190227780331
1785941700.172252,-0.0014648400247097015,-0.396484375,0.9184569716453552,1.000382533903604,0.0057220458984375,0.0209808349609375,-0.0400543212890625,0.045577251988786774
1785941700.182945,-0.00390625,-0.39501953125,0.9018554091453552,0.9845805542782003,-0.1163482666015625,0.0858306884765625,0.0820159912109375,0.1662240928381369
1785941700.19364,0.0053710974752902985,-0.392578125,0.9028319716453552,0.984505968464206,-0.057220458984375,-0.16021728515625,-0.1621246337890625,0.23500671537311288
1785941700.201677,0.01025390625,-0.3984375,0.9023436903953552,0.9864490456156073,-0.2994537353515625,0.0858306884765625,-0.3452301025390625,0.4649981402107926
1785941700.209714,0.014160163700580597,-0.41943359375,0.8994140028953552,0.9925072283899565,-0.240325927734375,0.02288818359375,-0.2841949462890625,0.3728903162940174
1785941700.217751,0.0009765625,-0.396484375,0.9082030653953552,0.9909760952147014,-0.4825592041015625,0.0209808349609375,-0.4673004150390625,0.6720664095120895
1785941700.236359,-0.0034179650247097015,-0.388671875,0.8994140028953552,0.9798076635264554,-0.4215240478515625,-0.0400543212890625,-0.2231597900390625,0.4786305082852244
1785941700.24693,-0.011230465024709702,-0.39990234375,0.9106444716453552,0.9946463500258081,-0.667572021484375,0.08392333984375,-0.0400543212890625,0.6740177145247681
1785941700.257501,-0.0024414025247097015,-0.375,0.9042968153953552,0.9789707302981375,-0.4825592041015625,0.1430511474609375,0.0209808349609375,0.503753125735893
1785941700.268128,-0.0034179650247097015,-0.40234375,0.9082030653953552,0.9933403161265995,-0.2994537353515625,-0.1621246337890625,0.0209808349609375,0.34117023893197274
1785941700.278759,-0.0195312462747097,-0.40234375,0.9169921278953552,1.0015670348844141,-0.3604888916015625,-0.0400543212890625,-0.1621246337890625,0.39729206700271297
1785941700.289389,0.0039062537252902985,-0.412109375,0.9101561903953552,0.999116453020389,-0.240325927734375,0.08392333984375,0.2040863037109375,0.32626813800049587
1785941700.297413,-0.004882805049419403,-0.41015625,0.9047850966453552,0.9934223987361861,-0.1163482666015625,0.0858306884765625,0.3261566162109375,0.35676598005375704
1785941700.305437,-0.01318359375,-0.40869140625,0.9184569716453552,1.0053684307012651,0.1888275146484375,0.0209808349609375,0.5702972412109375,0.6011114447893753
1785941700.313461,-0.0224609375,-0.41015625,0.8984374403953552,0.9878878870760582,0.0667572021484375,0.2651214599609375,0.3261566162109375,0.4255867136890849
1785941700.321485,0.0048828125,-0.38720703125,0.9086913466453552,0.9877616566639433,0.06866455078125,0.02288818359375,0.3261566162109375,0.33409104714191434
1785941700.332165,-0.00341796875,-0.3857421875,0.9028319716453552,0.9817913662039918,0.1888275146484375,-0.1621246337890625,0.2651214599609375,0.3636339033992327
1785941700.342845,-0.013671871274709702,-0.39794921875,0.8857421278953552,0.9711280131354874,-0.1163482666015625,-0.1621246337890625,0.2040863037109375,0.2854339422437684
1785941700.353524,-0.0058593712747097015,-0.38671875,0.8974608778953552,0.9772521430961403,-0.1163482666015625,0.0858306884765625,0.2651214599609375,0.3019821431100984
1785941700.361527,0.00048828125,-0.396484375,0.9082030653953552,0.99097573433018,-0.2384185791015625,-0.2231597900390625,0.1430511474609375,0.3565211656283219
1785941700.369531,0.00830078125,-0.3994140625,0.9086913466453552,0.9926330942298184,-0.41961669921875,-0.09918212890625,0.0209808349609375,0.4316890830137739
1785941700.377534,-0.0068359337747097015,-0.40771484375,0.8945311903953552,0.9830890978923479,-0.4825592041015625,-0.2231597900390625,0.0820159912109375,0.5379500907776896
1785941700.385536,0.0019531287252902985,-0.40185546875,0.8999022841453552,0.985553526443961,-0.2994537353515625,0.0858306884765625,-0.4062652587890625,0.5119481489363041
1785941700.396175,-0.00048827752470970154,-0.4013671875,0.9008788466453552,0.9862446724569247,-0.6046295166015625,-0.0400543212890625,-0.4673004150390625,0.7652129630994542
1785941700.406813,-0.00048827752470970154,-0.39599609375,0.8999022841453552,0.9831771283396638,-0.1163482666015625,-0.1621246337890625,-0.0400543212890625,0.20353295722401651
1785941700.41745,-0.0087890625,-0.400390625,0.9116210341453552,0.9957122124910222,-0.3604888916015625,0.2651214599609375,-0.4673004150390625,0.6470017831471735
1785941700.42809,-0.0034179650247097015,-0.38818359375,0.9018554091453552,0.9818560810761989,0.125885009765625,0.38909912109375,-0.2231597900390625,0.4658813728943224
1785941700.43873,-0.0087890625,-0.3818359375,0.9013671278953552,0.9789477156806968,0.3719329833984375,0.0209808349609375,0.1430511474609375,0.3990463260891038
1785941700.449372,0.01025390625,-0.39501953125,0.9111327528953552,0.993130638970031,-0.0553131103515625,-0.0400543212890625,-0.1621246337890625,0.17592124860837363
1785941700.4574,-0.00830078125,-0.384765625,0.9067382216453552,0.9850318227060394,-0.1163482666015625,0.0858306884765625,-0.1621246337890625,0.21722850436069988
1785941700.465429,-0.0029296837747097015,-0.3984375,0.8969725966453552,0.981489105179462,0.0667572021484375,-0.0400543212890625,-0.3452301025390625,0.35389927435888646
1785941700.473458,0.01611328125,-0.3955078125,0.8979491591453552,0.9813250022245572,0.0057220458984375,0.0209808349609375,-0.1621246337890625,0.1635766918792514
1785941700.481487,0.007812503725290298,-0.4072265625,0.9062499403953552,0.9935710658461271,-0.240325927734375,0.08392333984375,-0.5283355712890625,0.5864624066393835
1785941700.49107,-0.0009765587747097015,-0.4052734375,0.9116210341453552,0.9976474440935303,-0.1773834228515625,0.2651214599609375,-0.8945465087890625,0.9497198132191702
1785941700.500653,-0.0014648400247097015,-0.40380859375,0.8979491591453552,0.9845690522012669,0.1888275146484375,0.2040863037109375,-0.4673004150390625,0.5437616458949445
1785941700.510236,-0.0014648400247097015,-0.38818359375,0.9155272841453552,0.994423881565368,0.3108978271484375,0.2651214599609375,-0.7114410400390625,0.820423793480724
1785941700.519819,0.0039062537252902985,-0.4033203125,0.9248046278953552,1.0089331658092773,0.431060791015625,0.20599365234375,-0.8945465087890625,1.0141302908125929
1785941700.529402,-0.006347648799419403,-0.404296875,0.9018554091453552,0.9883518780195556,0.6160736083984375,0.2651214599609375,-0.2841949462890625,0.7284249082734152
1785941700.539063,-0.01220703125,-0.3994140625,0.8945311903953552,0.9797278476826223,0.3108978271484375,0.1430511474609375,-0.4673004150390625,0.5792156486242328
1785941700.548726,-0.014648433774709702,-0.396484375,0.9057616591453552,0.9888471162970236,0.5550384521484375,0.1430511474609375,-0.1621246337890625,0.5956640924501508
1785941700.558388,-0.015624992549419403,-0.39990234375,0.9096679091453552,0.9938117175088019,0.1277923583984375,0.1430511474609375,-0.1621246337890625,0.25115516028177326
1785941700.56805,-0.015624996274709702,-0.39111328125,0.8935546278953552,0.9755273508784533,-0.2384185791015625,0.2651214599609375,-0.0400543212890625,0.3587996043010004
1785941700.577712,-0.0048828087747097015,-0.3876953125,0.9067382216453552,0.9861570360488153,-0.1773834228515625,0.2651214599609375,-0.2231597900390625,0.389300088780665
1785941700.588321,-0.015624996274709702,-0.39697265625,0.9023436903953552,0.9859287833890813,-0.057220458984375,0.20599365234375,0.0820159912109375,0.22898512734807225
1785941700.59893,-0.00439453125,-0.39599609375,0.9111327528953552,0.9934762762989534,-0.057220458984375,0.20599365234375,-0.5893707275390625,0.6269492963647253
1785941700.609538,-0.00830078125,-0.39990234375,0.8974608778953552,0.9825613542465453,-0.1163482666015625,-0.0400543212890625,-0.2841949462890625,0.30969022472683705
1785941700.617513,-0.0053710900247097015,-0.39599609375,0.9125975966453552,0.9948246721288082,-0.1163482666015625,0.0858306884765625,-0.2231597900390625,0.2659024597776926
1785941700.62549,-0.00927734375,-0.390625,0.9096679091453552,0.9900351835469979,-0.1163482666015625,0.1430511474609375,0.0209808349609375,0.18558217955056258
1785941700.633467,-0.0063476525247097015,-0.3984375,0.8974608778953552,0.981951506670022,-0.4215240478515625,-0.2231597900390625,-0.1010894775390625,0.4875468154716688
1785941700.641443,0.00048828125,-0.40576171875,0.9160155653953552,1.0018619300423115,-0.728607177734375,0.32806396484375,-0.1621246337890625,0.8153396723797328
1785941700.652214,-0.0166015587747097,-0.400390625,0.9023436903953552,0.9873258833525785,-0.362396240234375,-0.09918212890625,0.0209808349609375,0.3763088160886547
1785941700.662984,0.005859375,-0.39013671875,0.9096679091453552,0.9898164963877342,-0.240325927734375,0.02288818359375,0.0820159912109375,0.25496478836090647
1785941700.673753,-0.00390625,-0.404296875,0.9067382216453552,0.9927967689897109,-0.4215240478515625,0.2651214599609375,-0.1010894775390625,0.5081249786402022
1785941700.684325,0.0,-0.39892578125,0.9125975966453552,0.9959799959581525,-0.2994537353515625,-0.1621246337890625,0.0209808349609375,0.34117023893197274
1785941700.694896,-0.0053710900247097015,-0.3984375,0.8950194716453552,0.9797148282222916,-0.2994537353515625,-0.2231597900390625,0.2040863037109375,0.4255867136890849
1785941700.705467,-0.00048827752470970154,-0.3876953125,0.8945311903953552,0.9749327896524689,-0.1773834228515625,0.1430511474609375,0.6923675537109375,0.7289042042162297
1785941700.713461,-0.0063476525247097015,-0.39453125,0.9033202528953552,0.9857396609704133,-0.4215240478515625,0.2651214599609375,0.4482269287109375,0.669984545396851
1785941700.721458,0.0043945349752902985,-0.39306640625,0.8974608778953552,0.9797737182700099,-0.7877349853515625,-0.0400543212890625,0.2040863037109375,0.814728160286084
1785941700.729454,-0.0073242150247097015,-0.39208984375,0.8979491591453552,0.9798473259173993,-0.9098052978515625,0.2651214599609375,-0.2841949462890625,0.9893441443839613
1785941700.737449,-0.0034179650247097015,-0.4013671875,0.9008788466453552,0.9862504742810702,-1.1539459228515625,0.1430511474609375,0.0820159912109375,1.1656678113724972
1785941700.748201,-0.0063476525247097015,-0.39453125,0.9052733778953552,0.9875297912697133,-0.850677490234375,0.08392333984375,0.0820159912109375,0.8587327536412579
1785941700.758952,-0.01318359375,-0.39599609375,0.8969725966453552,0.9805848013008028,-0.850677490234375,0.02288818359375,-0.0400543212890625,0.851927467566109
1785941700.769703,-0.0053710900247097015,-0.3955078125,0.9140624403953552,0.9959746097657817,-1.0929107666015625,0.1430511474609375,-0.1621246337890625,1.1140924429439163
1785941700.777666,-0.0073242150247097015,-0.39697265625,0.8920897841453552,0.9764553839845501,-1.2760162353515625,0.1430511474609375,-0.0400543212890625,1.2846343496593078
1785941700.785629,-0.014160152524709702,-0.3974609375,0.8950194716453552,0.9794057184753583,-1.1539459228515625,0.1430511474609375,0.0820159912109375,1.1656678113724972
1785941700.793591,-0.010253898799419403,-0.3994140625,0.9038085341453552,0.9881834860780251,-1.216888427734375,-0.03814697265625,0.0209808349609375,1.217666962889416
1785941700.801555,-0.0063476525247097015,-0.40625,0.8935546278953552,0.981590152877351,-1.3370513916015625,0.3261566162109375,0.3871917724609375,1.4296859902591499
1785941700.812213,-0.0068359337747097015,-0.3935546875,0.9111327528953552,0.9925194786211822,-1.2760162353515625,0.2040863037109375,0.0209808349609375,1.2924042895622194
1785941700.822873,-0.009277340024709702,-0.4033203125,0.9052733778953552,0.9910969842750498,-1.1539459228515625,-0.2231597900390625,0.1430511474609375,1.183999626497371
1785941700.833532,0.0078125,-0.3994140625,0.9008788466453552,0.9854822803135881,-0.90789794921875,0.02288818359375,0.3261566162109375,0.9649770429611276
1785941700.84473,-0.00927734375,-0.40185546875,0.9072265028953552,0.9922871632884676,-1.0929107666015625,0.0209808349609375,0.2040863037109375,1.1120006108593943
1785941700.855929,-0.0029296875,-0.39453125,0.9028319716453552,0.9852761335384358,-1.338958740234375,0.20599365234375,0.2040863037109375,1.3699982161369173
1785941700.867128,0.0034179724752902985,-0.390625,0.9067382216453552,0.9873063231608634,-1.1539459228515625,-0.2231597900390625,0.6313323974609375,1.3341559432239538
1785941700.877218,-0.01416015625,-0.3916015625,0.9018554091453552,0.9833084321728366,-1.2760162353515625,0.0858306884765625,0.4482269287109375,1.3551722103064152
1785941700.887307,-0.012207027524709702,-0.4072265625,0.9077147841453552,0.9949515636866973,-1.4591217041015625,0.0209808349609375,0.3261566162109375,1.4952773926981155
1785941700.897398,0.0043945349752902985,-0.4033203125,0.9072265028953552,0.9928476791373804,-1.2760162353515625,-0.0972747802734375,0.5702972412109375,1.401042026168675
1785941700.905401,-0.00048827752470970154,-0.4130859375,0.9096679091453552,0.9990675328045033,-1.0929107666015625,0.2651214599609375,0.2651214599609375,1.1554361604248211
1785941700.913406,-0.0058593712747097015,-0.40576171875,0.9003905653953552,0.9876133225547621,-0.8487701416015625,0.2651214599609375,0.7534027099609375,1.1654680541235953
1785941700.921411,0.001953125,-0.41015625,0.9082030653953552,0.996526352940477,-1.0929107666015625,0.0209808349609375,0.5092620849609375,1.2059195704391044
1785941700.929416,-0.00927734375,-0.42138671875,0.9121093153953552,1.0047866634649023,-0.90789794921875,0.08392333984375,0.3261566162109375,0.9683490855390479
1785941700.940106,0.0043945349752902985,-0.3974609375,0.9111327528953552,0.9940610656165427,-0.728607177734375,0.08392333984375,0.0820159912109375,0.7379960496038535
1785941700.950798,-0.005859367549419403,-0.41455078125,0.8964843153953552,0.9877098815810963,-0.5435943603515625,-0.2231597900390625,0.2040863037109375,0.622050110408073
1785941700.961489,-0.00439453125,-0.3916015625,0.8984374403953552,0.9800821036839241,-0.2994537353515625,0.0209808349609375,0.5092620849609375,0.5911519315966267
1785941700.972176,-0.01318359375,-0.40576171875,0.8935546278953552,0.9814561898425859,-0.9708404541015625,0.0858306884765625,0.1430511474609375,0.9850694012070316
1785941700.982862,0.008789066225290298,-0.41552734375,0.9062499403953552,0.9970101180808689,-0.9708404541015625,0.2651214599609375,0.5092620849609375,1.1279044494241115
1785941700.993547,0.00048828125,-0.40576171875,0.8955077528953552,0.9831464521205484,-1.0929107666015625,-0.0400543212890625,0.5092620849609375,1.206402156656852
1785941701.004198,-0.012695308774709702,-0.3974609375,0.9023436903953552,0.9860834159945967,-0.7266998291015625,0.2651214599609375,0.3261566162109375,0.8394999514271743
1785941701.014847,0.0039062537252902985,-0.40185546875,0.9111327528953552,0.9958242666159111,-0.90789794921875,-0.09918212890625,0.3261566162109375,0.9697906574040382
1785941701.025496,-0.0043945275247097015,-0.41259765625,0.9057616591453552,0.9953192055782433,-0.7877349853515625,0.2651214599609375,0.0209808349609375,0.8314180603729411
1785941701.033529,0.0034179724752902985,-0.4140624701976776,0.9042968153953552,0.9945914448135101,-0.7877349853515625,0.0209808349609375,0.2040863037109375,0.814013404032684
1785941701.041562,-0.00927734375,-0.41064453125,0.9140624403953552,1.002110345767421,-0.728607177734375,0.38909912109375,0.1430511474609375,0.8382900311180318
1785941701.049595,0.010742191225290298,-0.40234375,0.9023436903953552,0.9880384726480502,-0.60272216796875,0.20599365234375,0.1430511474609375,0.6528177596824084
1785941701.057628,0.00048828125,-0.40966796875,0.9062499403953552,0.9945436327808423,-0.7877349853515625,0.1430511474609375,0.2040863037109375,0.8262210704763648
1785941701.068314,-0.0063476525247097015,-0.421875,0.8872069716453552,0.9824230345699844,-0.728607177734375,0.20599365234375,0.0209808349609375,0.7574575893656535
1785941701.079,0.0063476599752902985,-0.40380859375,0.8867186903953552,0.9743570747266981,-1.033782958984375,0.02288818359375,0.2651214599609375,1.0674832381665438
1785941701.089685,-0.00927734375,-0.4189453125,0.9072265028953552,0.9993303615564346,-0.667572021484375,0.08392333984375,0.4482269287109375,0.8084571172677647
1785941701.100291,-0.010253902524709702,-0.4169921875,0.8994140028953552,0.9914298641645144,-0.7877349853515625,0.1430511474609375,0.6313323974609375,1.0195933669951431
1785941701.110898,-0.00048827752470970154,-0.41064453125,0.9033202528953552,0.9922785137003632,-0.7266998291015625,0.2651214599609375,0.7534027099609375,1.0798137216782087
1785941701.121505,-0.0063476525247097015,-0.40966796875,0.9028319716453552,0.9914503045223018,-0.667572021484375,0.08392333984375,0.6923675537109375,0.9654368753424184
1785941701.129485,0.001953125,-0.41943359375,0.8969725966453552,0.9901960378611989,-0.6046295166015625,0.3261566162109375,0.5702972412109375,0.8928571744555868
1785941701.137464,0.0,-0.4169921875,0.9072265028953552,0.9984700356003535,-0.6656646728515625,0.1430511474609375,0.6923675537109375,0.9710540236794947
1785941701.145442,0.0,-0.4150390625,0.8999022841453552,0.9910002746775132,-0.7877349853515625,-0.0972747802734375,0.4482269287109375,0.9115350622141267
1785941701.153422,-0.0029296837747097015,-0.40673828125,0.9033202528953552,0.9906725451793607,-0.7266998291015625,-0.2231597900390625,0.5092620849609375,0.9150086363992854
1785941701.164103,0.0014648474752902985,-0.4033203125,0.9052733778953552,0.9910546447998163,-0.972747802734375,-0.09918212890625,0.3261566162109375,1.0307538603939834
1785941701.174783,-0.012207027524709702,-0.4228515625,0.8979491591453552,0.9926052326275189,-1.09100341796875,-0.09918212890625,0.4482269287109375,1.1836523697165104
1785941701.185465,-0.0063476525247097015,-0.40234375,0.8974608778953552,0.9835429900158603,-0.7877349853515625,-0.1621246337890625,0.1430511474609375,0.8168686766047251
1785941701.193475,0.0043945349752902985,-0.408203125,0.8989257216453552,0.9872773451432162,-1.0318756103515625,-0.0400543212890625,0.6313323974609375,1.2103521057841442
1785941701.201487,-0.0048828087747097015,-0.40283203125,0.9072265028953552,0.9926517086965938,-1.1539459228515625,-0.3452301025390625,0.2040863037109375,1.2216489822888033
1785941701.209498,0.00634765625,-0.40625,0.8955077528953552,0.9833684409902307,-0.8487701416015625,-0.0400543212890625,0.2651214599609375,0.8901148748673302
1785941701.217509,-0.00390625,-0.4111328125,0.9013671278953552,0.9907109303694718,-1.1539459228515625,-0.2231597900390625,0.5702972412109375,1.3063806597193748
1785941701.228148,-0.0058593712747097015,-0.39990234375,0.8974608778953552,0.9825437619369326,-1.338958740234375,-0.09918212890625,0.2040863037109375,1.3580496390437256
1785941701.238786,-0.0009765587747097015,-0.419921875,0.9062499403953552,0.9988114382790882,-1.5811920166015625,-0.1621246337890625,0.2651214599609375,1.6114409634788276
1785941701.249426,0.0009765625,-0.40869140625,0.8969725966453552,0.9856923751098159,-1.57928466796875,-0.09918212890625,0.5092620849609375,1.662325187306714
1785941701.260102,0.012207034975290298,-0.41552734375,0.9033202528953552,0.9943839622589189,-1.522064208984375,-0.16021728515625,0.5092620849609375,1.6129776520190326
1785941701.270779,-0.0014648400247097015,-0.40771484375,0.9086913466453552,0.9959686255292052,-1.5201568603515625,0.2651214599609375,0.6923675537109375,1.6913128326945925
1785941701.281456,0.0039062537252902985,-0.40771484375,0.8920897841453552,0.9808520967040646,-1.7642974853515625,-0.1621246337890625,0.5092620849609375,1.8434689812627294
1785941701.292116,0.00537109375,-0.41015625,0.9008788466453552,0.9898685237925283,-1.4591217041015625,0.1430511474609375,0.6313323974609375,1.5962707709702366
1785941701.30278,-0.0078124962747097015,-0.416015625,0.9072265028953552,0.9980931634361188,-1.6422271728515625,0.4482269287109375,0.8144378662109375,1.8870947259721491
1785941701.313442,0.0009765662252902985,-0.4072265625,0.9057616591453552,0.9930954687566073,-1.57928466796875,0.20599365234375,0.9365081787109375,1.8475987161934162
1785941701.32145,-0.0009765587747097015,-0.4086913764476776,0.9052733778953552,0.9932519738595058,-1.522064208984375,-0.09918212890625,0.5092620849609375,1.6080623191109131
1785941701.32946,-0.0019531212747097015,-0.412109375,0.9082030653953552,0.997331820227914,-1.2760162353515625,-0.2231597900390625,0.4482269287109375,1.3707388899395436
1785941701.33747,0.0034179724752902985,-0.40576171875,0.9028319716453552,0.9898281790107996,-1.09100341796875,-0.09918212890625,0.6313323974609375,1.2643995210366248
1785941701.34548,-0.0024414025247097015,-0.412109375,0.9013671278953552,0.9911118991614922,-1.338958740234375,-0.28228759765625,0.3261566162109375,1.4067248963954289
1785941701.356148,-0.0161132775247097,-0.416015625,0.9042968153953552,0.9955306968099528,-1.2760162353515625,-0.1621246337890625,0.2651214599609375,1.3133130694140795
1785941701.366817,-0.00927734375,-0.40478515625,0.8984374403953552,0.9854577241726558,-1.1539459228515625,-0.3452301025390625,0.5702972412109375,1.3326717374873986
1785941701.377487,0.0024414099752902985,-0.41162109375,0.9033202528953552,0.9926859345198471,-1.155853271484375,-0.40435791015625,0.3871917724609375,1.2842973072340005
1785941701.385487,0.0019531287252902985,-0.42138671875,0.9003905653953552,0.9941195862187188,-1.5201568603515625,-0.5283355712890625,0.3871917724609375,1.6552742445361441
1785941701.393486,-0.0078124962747097015,-0.40185546875,0.8979491591453552,0.9837995452693475,-1.76239013671875,-0.09918212890625,0.4482269287109375,1.8211983605086928
1785941701.401487,-0.0034179650247097015,-0.4130859375,0.8950194716453552,0.9857542943703035,-1.9474029541015625,-0.1621246337890625,0.6923675537109375,2.073170396266645
1785941701.409487,-0.00390625,-0.4189453125,0.8911132216453552,0.9846893964321689,-1.827239990234375,-0.28228759765625,0.6923675537109375,1.9743011672827233
1785941701.420141,-0.0009765550494194031,-0.4140625,0.8925780653953552,0.983943245513139,-1.888275146484375,-0.40435791015625,0.8754730224609375,2.120269171919784
1785941701.430797,0.00537109375,-0.41064453125,0.8920897841453552,0.9820804257646671,-2.0694732666015625,-0.0400543212890625,0.7534027099609375,2.2027118724901253
1785941701.441452,-0.0014648400247097015,-0.421875,0.8881835341453552,0.9832856409549726,-2.1915435791015625,-0.5283355712890625,0.7534027099609375,2.3768923783728853
1785941701.452137,-0.0068359337747097015,-0.41552734375,0.9013671278953552,0.9925585134614606,-2.193450927734375,-0.46539306640625,0.9365081787109375,2.4299928492549685
1785941701.462825,-0.019531242549419403,-0.4189453125,0.8896483778953552,0.983550141372103,-1.9474029541015625,-0.5283355712890625,1.2416839599609375,2.3692394978045397
1785941701.473512,-0.01904296875,-0.41845703125,0.9155272841453552,1.006806401288722,-2.0694732666015625,-0.2231597900390625,1.9741058349609375,2.868730336001563
1785941701.481501,-0.0214843712747097,-0.40283203125,0.9038085341453552,0.9897500138944411,-1.461029052734375,-0.09918212890625,2.8896331787109375,3.239509668936853
1785941701.48949,-0.0283203125,-0.423828125,0.9047850966453552,0.9995340868387922,-1.399993896484375,-0.22125244140625,4.1713714599609375,4.4055959199634245
1785941701.497479,-0.03662109375,-0.4287109375,0.9023436903953552,0.999679102530349,-0.667572021484375,-0.28228759765625,5.1479339599609375,5.198707795960297
1785941701.505468,-0.0073242150247097015,-0.427734375,0.9101561903953552,1.0056811774102938,-0.6046295166015625,0.0209808349609375,6.0634613037109375,6.093568743304816
1785941701.516143,-0.0029296837747097015,-0.41259765625,0.9165038466453552,1.0050993532510832,-0.179290771484375,0.20599365234375,6.6127777099609375,6.618414281903302
1785941701.526818,0.00146484375,-0.4248046875,0.9135741591453552,1.0075112468589755,0.1888275146484375,0.2040863037109375,7.4062347412109375,7.411451955694683
1785941701.537493,0.0058593787252902985,-0.43701171875,0.9111327528953552,1.0105327644577111,0.492095947265625,0.38909912109375,6.9179534912109375,6.946339831444239
1785941701.548203,0.007812503725290298,-0.42041015625,0.9023436903953552,0.9955048318762274,0.86212158203125,0.69427490234375,6.4907073974609375,6.584417497522664
1785941701.558916,0.0048828125,-0.4150390625,0.8959960341453552,0.9874665353636009,0.919342041015625,0.02288818359375,5.8193206787109375,5.891536880899561
1785941701.569628,0.0146484375,-0.4208984375,0.8906249403953552,0.9851816359765152,1.3484954833984375,0.4482269287109375,4.9037933349609375,5.105539787365773
1785941701.58028,0.0185546912252903,-0.419921875,0.8798827528953552,0.9751268207329189,0.797271728515625,0.02288818359375,3.0117034912109375,3.1155294890292184
1785941701.590935,0.01220703125,-0.419921875,0.8999022841453552,0.9931301595085519,0.736236572265625,0.38909912109375,1.7299652099609375,1.9199536567460571
1785941701.601589,0.0039062537252902985,-0.42041015625,0.8935546278953552,0.9875220662494193,0.1888275146484375,0.3910064697265625,0.8754730224609375,0.9772384062823279
1785941701.609574,-0.0053710900247097015,-0.4208984375,0.9018554091453552,0.9952524917339977,0.3108978271484375,0.1430511474609375,-0.0400543212890625,0.3445655792000096
1785941701.617559,-0.011718746274709702,-0.40234375,0.8891600966453552,0.9760243335310298,0.4940032958984375,-0.1621246337890625,-0.2231597900390625,0.565794967395465
1785941701.625546,-0.017578125,-0.40966796875,0.8940429091453552,0.9835901374512437,0.0667572021484375,-0.1621246337890625,-0.4673004150390625,0.4991098063709078
1785941701.633532,-0.011230465024709702,-0.412109375,0.8891600966453552,0.9800846584728992,0.247955322265625,-0.09918212890625,-0.5283355712890625,0.5919944361424067
1785941701.64312,-0.01708984375,-0.4140625,0.8876952528953552,0.9796645745757055,-0.1163482666015625,0.0858306884765625,0.0820159912109375,0.1662240928381369
1785941701.65271,-0.019531242549419403,-0.419921875,0.9033202528953552,0.9963449853489345,-0.179290771484375,-0.46539306640625,0.0209808349609375,0.49917540247305126
1785941701.6623,-0.0175781212747097,-0.40576171875,0.9091796278953552,0.9957706355031961,-0.1773834228515625,-0.1621246337890625,0.3871917724609375,0.45570466778958524
1785941701.67189,-0.00927734375,-0.41162109375,0.9086913466453552,0.9976161372968819,0.247955322265625,-0.28228759765625,0.4482269287109375,0.5848722161737782
1785941701.68148,-0.0034179650247097015,-0.421875,0.9091796278953552,1.0022962605386925,0.308990478515625,0.08392333984375,0.2651214599609375,0.4157013727613411
1785941701.691069,-0.010253902524709702,-0.421875,0.8935546278953552,0.9881920517668582,0.736236572265625,0.14495849609375,0.6313323974609375,0.9806313537792751
1785941701.700658,-0.004882805049419403,-0.40576171875,0.8999022841453552,0.9871628716671491,0.4940032958984375,0.3261566162109375,0.6313323974609375,0.8654467001153007
1785941701.710247,-0.0166015625,-0.4189453125,0.9033202528953552,0.9958806484886091,0.6771087646484375,-0.2231597900390625,0.6923675537109375,0.9938055144170209
1785941701.719836,-0.013671875,-0.41552734375,0.8964843153953552,0.9881973594985088,0.492095947265625,0.20599365234375,0.6923675537109375,0.8740507053671649
1785941701.729425,-0.0283203087747097,-0.4130859375,0.8999022841453552,0.9905887909013389,0.55694580078125,0.51116943359375,1.3637542724609375,1.5592653816794253
1785941701.739034,-0.0322265587747097,-0.41162109375,0.9096679091453552,0.9989825728406319,1.2874603271484375,0.4482269287109375,2.2792816162109375,2.6558588365347933
1785941701.74864,-0.0341796800494194,-0.4150390625,0.9018554091453552,0.9933623975840316,1.468658447265625,0.38909912109375,3.4389495849609375,3.7596183328449193
1785941701.758246,-0.0297851525247097,-0.4130859375,0.9028319716453552,0.9932938719715397,1.468658447265625,0.69427490234375,4.1103363037109375,4.419710375618881
1785941701.767852,-0.0224609337747097,-0.4267578125,0.9062499403953552,1.0019559264470679,2.0198822021484375,0.9975433349609375,4.9648284912109375,5.452021529930057
1785941701.777458,-0.030273430049419403,-0.41357421875,0.9228515028953552,1.0117386082273652,2.8133392333984375,0.9365081787109375,5.0868988037109375,5.887993261729089
1785941701.787068,-0.02880859375,-0.43017578125,0.9213866591453552,1.0172681620393609,3.543853759765625,1.36566162109375,6.1244964599609375,7.206482361180621
1785941701.796678,-0.037109375,-0.43359375,0.9438475966453552,1.0393406233979148,4.886627197265625,1.67083740234375,6.9179534912109375,8.633012423058622
1785941701.806288,-0.0483398362994194,-0.43994140625,0.9321288466453552,1.031866933017568,6.2313079833984375,1.7337799072265625,8.749008178710938,10.880272793538705
1785941701.815898,-0.0595703050494194,-0.44287109375,0.9340819716453552,1.0354673131856342,7.999420166015625,1.97601318359375,10.763168334960938,13.555115038276124
1785941701.825508,-0.0493163987994194,-0.43017578125,0.9277343153953552,1.0238038239461111,8.977890014648438,2.2792816162109375,13.021469116210938,15.979871455852093
1785941701.835233,-0.0410156212747097,-0.42236328125,0.8906249403953552,0.9865524856747597,10.623931884765625,2.70843505859375,15.707015991210938,19.15499675037601
1785941701.844959,-0.0224609375,-0.40869140625,0.8774413466453552,0.9682130323739687,10.686874389648438,2.5272369384765625,16.195297241210938,19.56741841670737
1785941701.854686,-0.0078125,-0.4091796875,0.8706054091453552,0.9619993920226764,9.40704345703125,2.64739990234375,15.645980834960938,18.447165341411377
1785941701.864412,0.00048828125,-0.4052734375,0.8749999403953552,0.9642985498555521,8.487701416015625,2.46429443359375,14.303207397460938,16.813552992679924
1785941701.874138,-0.00439453125,-0.4013671875,0.8696288466453552,0.9577939559343116,7.2078704833984375,2.4013519287109375,12.472152709960938,14.603920063173316
1785941701.881984,-0.0058593712747097015,-0.390625,0.8935546278953552,0.9752241259781987,6.351470947265625,2.22015380859375,11.129379272460938,13.00512780091206
1785941701.88983,-0.0185546837747097,-0.4169921875,0.9121093153953552,1.0030803377382085,6.168365478515625,1.97601318359375,10.091781616210938,11.991556069483753
1785941701.897676,-0.0317382775247097,-0.4208984375,0.9213866591453552,1.0134674087513698,6.5975189208984375,2.2220611572265625,9.908676147460938,12.109775996827079
1785941701.905522,-0.0312499962747097,-0.4111328125,0.9340819716453552,1.0210366700242473,7.5740814208984375,1.6689300537109375,10.457992553710938,13.02004781665766
1785941701.913519,-0.030273430049419403,-0.4189453125,0.9287108778953552,1.0192818796357763,8.24737548828125,1.54876708984375,10.702133178710938,13.599762369914812
1785941701.921515,-0.014160152524709702,-0.3984375,0.9052733778953552,0.9891778606761474,9.159088134765625,1.36566162109375,10.824203491210938,14.244904644920439
1785941701.929513,-0.0166015587747097,-0.4052734375,0.8969725966453552,0.9844196310667152,9.159088134765625,1.54876708984375,10.152816772460938,13.761077842020649
1785941701.93751,-0.00390625,-0.38525390625,0.8999022841453552,0.9789075298923663,8.855819702148438,1.4858245849609375,9.115219116210938,12.795328711321647
1785941701.947146,-0.0063476525247097015,-0.38232421875,0.8945311903953552,0.9728299705115502,8.426666259765625,1.24359130859375,7.7724456787109375,11.531094285660604
1785941701.956782,-0.0063476525247097015,-0.39111328125,0.9096679091453552,0.9902048254737997,8.306503295898438,0.2651214599609375,6.0024261474609375,10.251702592692892
1785941701.966418,0.0029296912252902985,-0.38037109375,0.9062499403953552,0.982842666207482,7.999420166015625,0.57220458984375,4.5375823974609375,9.214542587608083
1785941701.976053,-0.0170898400247097,-0.37451171875,0.8950194716453552,0.9703663971601036,7.938385009765625,0.57220458984375,2.9506683349609375,8.488334246414368
1785941701.98569,-0.0024414025247097015,-0.38818359375,0.9150390028953552,0.9939762772434152,7.6351165771484375,0.4482269287109375,1.9130706787109375,7.883891928991165
1785941701.996276,0.0,-0.4052734375,0.9208983778953552,1.0061313937818275,8.245468139648438,-0.1621246337890625,0.8144378662109375,8.28717915075793
1785941702.006862,-0.0170898400247097,-0.40625,0.9199218153953552,1.0057769492150614,8.550643920898438,0.2651214599609375,-0.2231597900390625,8.55766329919678
1785941702.017448,-0.00439453125,-0.39501953125,0.9213866591453552,1.0025034252434832,9.344100952148438,-0.0400543212890625,-0.8335113525390625,9.381288191256399
1785941702.025459,-0.0185546875,-0.3759765625,0.8793944716453552,0.956575814422439,8.611679077148438,-0.2231597900390625,-2.7256011962890625,9.035470032095663
1785941702.033472,-0.010742183774709702,-0.37548828125,0.9086913466453552,0.9832735160353288,8.24737548828125,-0.58746337890625,-3.1528472900390625,8.84899777944175
1785941702.041485,-0.013671871274709702,-0.3779296875,0.9072265028953552,0.9828925151377113,7.694244384765625,-0.46539306640625,-3.7631988525390625,8.577858296947303
1785941702.049498,-0.013183590024709702,-0.3828125,0.8896483778953552,0.9686038682010445,7.2078704833984375,-0.4673004150390625,-4.0683746337890625,8.289960117165847
1785941702.060207,-0.0288085900247097,-0.3623046875,0.8989257216453552,0.9696195514114323,6.839752197265625,-0.28228759765625,-4.3735504150390625,8.123413053678782
1785941702.070916,-0.0229492150247097,-0.36279296875,0.9165038466453552,0.9859638459702372,6.29425048828125,-0.28228759765625,-4.5566558837890625,7.775627842193116
1785941702.081625,-0.0214843712747097,-0.37255859375,0.9077147841453552,0.9814314104113929,5.6819915771484375,-0.7114410400390625,-4.1904449462890625,7.095844240407
1785941702.092254,-0.0258789025247097,-0.3642578125,0.9111327528953552,0.9815886943938571,5.313873291015625,-0.28228759765625,-4.4956207275390625,6.9661712128427205
1785941702.102884,-0.0410156212747097,-0.36767578125,0.8959960341453552,0.969369204436861,5.069732666015625,0.02288818359375,-3.8242340087890625,6.350392029457156
1785941702.113513,-0.03759765625,-0.390625,0.9130858778953552,0.9938447035590745,4.9495697021484375,-0.2231597900390625,-3.3359527587890625,5.972990987536178
1785941702.121488,-0.0400390587747097,-0.37744140625,0.8984374403953552,0.9753230109475013,4.15802001953125,-0.09918212890625,-1.8100738525390625,4.536004291131418
1785941702.129462,-0.0371093712747097,-0.375,0.8974608778953552,0.9733643371261893,4.0950775146484375,-0.4024505615234375,-1.5659332275390625,4.402700668744203
1785941702.137438,-0.0234374962747097,-0.3740234375,0.8994140028953552,0.9743656380616003,3.1795501708984375,-0.2231597900390625,-1.6269683837890625,3.578598287458339
1785941702.145413,-0.0405273400247097,-0.36181640625,0.8989257216453552,0.9698561904513298,3.3016204833984375,-0.6504058837890625,-1.4438629150390625,3.6617571939560194
1785941702.156114,-0.0219726525247097,-0.37255859375,0.9145507216453552,0.9877680525801537,3.3016204833984375,-0.2841949462890625,-1.1997222900390625,3.5243152749305713
1785941702.166815,-0.024414055049419403,-0.3701171875,0.9106444716453552,0.9832884278303667,2.933502197265625,-0.89263916015625,-1.7490386962890625,3.530067445917039
1785941702.177516,-0.0205078087747097,-0.353515625,0.9155272841453552,0.9816231839939655,2.750396728515625,-0.58746337890625,-1.3217926025390625,3.107560308330699
1785941702.185499,-0.0224609337747097,-0.3486328125,0.9135741591453552,0.9780935925338816,2.7523040771484375,-0.5283355712890625,-1.7490386962890625,3.3035515086182317
1785941702.193484,-0.0249023400247097,-0.35791015625,0.9140624403953552,0.9819521125936427,2.3250579833984375,-0.6504058837890625,-1.4438629150390625,2.8131232744508976
1785941702.201469,-0.0297851525247097,-0.36376953125,0.9125975966453552,0.9828783244021833,2.0198822021484375,-0.6504058837890625,-1.0776519775390625,2.3799759891472236
1785941702.209454,-0.0341796800494194,-0.3515625,0.9165038466453552,0.9822136951042086,1.8978118896484375,-0.2231597900390625,-0.6504058837890625,2.0185435526757116
1785941702.220139,-0.0219726525247097,-0.35400390625,0.9106444716453552,0.977279344321509,1.712799072265625,-0.28228759765625,0.1430511474609375,1.7417894765253388
1785941702.230824,-0.0170898400247097,-0.3642578125,0.9130858778953552,0.9832098641751347,1.285552978515625,-0.40435791015625,0.2040863037109375,1.3630124722241972
1785941702.241509,-0.0366210900247097,-0.36962890625,0.9184569716453552,0.9907218789015039,1.285552978515625,0.02288818359375,0.3871917724609375,1.34279104784775
1785941702.249557,-0.0185546837747097,-0.3671875,0.9077147841453552,0.979345222994567,0.55694580078125,-0.09918212890625,0.3261566162109375,0.6529960627755825
1785941702.257608,-0.0219726525247097,-0.35205078125,0.9116210341453552,0.9774842504787246,0.55694580078125,0.08392333984375,-0.0400543212890625,0.5646557363848568
1785941702.265658,-0.01904296875,-0.36474609375,0.9062499403953552,0.9770830578979876,0.06866455078125,0.02288818359375,-0.4673004150390625,0.472872464178125
1785941702.273708,-0.0229492150247097,-0.36376953125,0.9296874403953552,0.998585837654912,-0.2994537353515625,0.3910064697265625,-0.4062652587890625,0.6384434661604556
1785941702.284284,-0.029296867549419403,-0.37548828125,0.9199218153953552,0.9940351614729598,-0.484466552734375,0.38909912109375,-0.5893707275390625,0.8564250237085448
1785941702.294859,-0.0175781212747097,-0.38330078125,0.9228515028953552,0.9994415318819929,0.125885009765625,0.02288818359375,-0.8335113525390625,0.8432746168617967
1785941702.305436,-0.02880859375,-0.375,0.9165038466453552,0.9906736273816849,0.0057220458984375,0.1430511474609375,-1.0776519775390625,1.0871201209125911
1785941702.313452,-0.0297851525247097,-0.3662109375,0.9208983778953552,0.991489499927178,0.3108978271484375,0.1430511474609375,-1.3217926025390625,1.3653778868293198
1785941702.321468,-0.0244140587747097,-0.3681640625,0.9091796278953552,0.9811974413757383,0.37384033203125,-0.09918212890625,-0.9555816650390625,1.0308879702016307
1785941702.329484,-0.0385742150247097,-0.3671875,0.9169921278953552,0.9885288022324256,0.247955322265625,-0.16021728515625,-1.2607574462890625,1.2948593586471109
1785941702.3375,-0.0371093712747097,-0.3681640625,0.9121093153953552,0.9843095476443839,-0.1163482666015625,-0.4673004150390625,-1.2607574462890625,1.3495984348724575
1785941702.348157,-0.0400390587747097,-0.365234375,0.9169921278953552,0.9878632686415953,-0.4825592041015625,-0.4024505615234375,-1.2607574462890625,1.4086657439957082
1785941702.358814,-0.0268554650247097,-0.35498046875,0.9096679091453552,0.9768459725691381,-0.90789794921875,-0.40435791015625,-1.0166168212890625,1.4217221131534177
1785941702.369471,-0.0229492150247097,-0.3720703125,0.9101561903953552,0.983538141013903,-1.09100341796875,-0.58746337890625,-1.0776519775390625,1.6421740054784983
1785941702.377851,-0.0302734337747097,-0.36767578125,0.9101561903953552,0.9820826094709628,-1.033782958984375,-0.34332275390625,-0.8945465087890625,1.409535801610928
1785941702.386233,-0.0346679650247097,-0.376953125,0.9194335341453552,0.9943105902871789,-1.0929107666015625,-0.3452301025390625,-0.8945465087890625,1.4539089461996741
1785941702.394614,-0.0336913987994194,-0.3662109375,0.9204100966453552,0.9911610903906602,-0.9708404541015625,-0.0400543212890625,-0.6504058837890625,1.169257606193557
1785941702.402997,-0.0229492150247097,-0.36865234375,0.9130858778953552,0.9849655006316466,-1.2760162353515625,-0.0972747802734375,-0.4062652587890625,1.3426582872261146
1785941702.413204,-0.0258789025247097,-0.36669921875,0.9169921278953552,0.9879334983943987,-1.216888427734375,-0.28228759765625,0.0820159912109375,1.251890712545903
1785941702.423413,-0.033203125,-0.365234375,0.9228515028953552,0.9930526132021515,-0.850677490234375,-0.28228759765625,0.0209808349609375,0.8965370464278931
1785941702.43362,-0.0302734337747097,-0.3740234375,0.9252929091453552,0.9984873460923291,-0.41961669921875,-0.09918212890625,0.5092620849609375,0.6672804059287041
1785941702.441583,-0.0166015587747097,-0.3681640625,0.9194335341453552,0.9905445029786759,0.1888275146484375,-0.5283355712890625,0.5092620849609375,0.7577217017852973
1785941702.449543,-0.01904296875,-0.37451171875,0.9204100966453552,0.9938694120188047,0.125885009765625,-0.28228759765625,0.6313323974609375,0.7029323719661825
1785941702.457503,-0.008300777524709702,-0.37255859375,0.9121093153953552,0.9852980320265924,-0.057220458984375,-0.09918212890625,0.2651214599609375,0.2887917314477295
1785941702.465462,-0.0209960900247097,-0.37109375,0.9082030653953552,0.9813175913428375,-0.0553131103515625,-0.0400543212890625,0.1430511474609375,0.15851662253714108
1785941702.476115,-0.0273437462747097,-0.36083984375,0.9130858778953552,0.9821806828225608,-0.545501708984375,-0.16021728515625,-0.0400543212890625,0.5699526661238109
1785941702.486767,-0.0200195275247097,-0.3740234375,0.9038085341453552,0.9783476783207515,-0.728607177734375,-0.16021728515625,-0.1010894775390625,0.7528327041102896
1785941702.497418,-0.0063476525247097015,-0.36767578125,0.9243163466453552,0.9947796145308713,-0.9708404541015625,0.0858306884765625,0.0209808349609375,0.9748529580609308
1785941702.505444,-0.0170898400247097,-0.3701171875,0.9096679091453552,0.9822293520577883,-0.850677490234375,-0.09918212890625,-0.2231597900390625,0.8850364845451907
1785941702.513469,-0.03271484375,-0.37548828125,0.9003905653953552,0.976096757811762,-1.09100341796875,-0.09918212890625,-0.7114410400390625,1.3062441985194553
1785941702.521493,-0.0288085900247097,-0.36279296875,0.9218749403953552,0.9911115369939905,-1.0929107666015625,0.0209808349609375,-0.4673004150390625,1.1888077292333497
1785941702.529519,-0.0200195275247097,-0.36962890625,0.9111327528953552,0.9834577790716551,-1.155853271484375,0.38909912109375,-0.2841949462890625,1.252262623706906
1785941702.54016,-0.0292968712747097,-0.37890625,0.9106444716453552,0.9867631968683255,-0.728607177734375,0.14495849609375,-0.2231597900390625,0.7756814274727037
1785941702.550803,-0.0244140587747097,-0.3779296875,0.9052733778953552,0.9812985191498911,-0.667572021484375,0.38909912109375,-0.1010894775390625,0.7792750556599282
1785941702.561445,-0.009765621274709702,-0.36865234375,0.9331054091453552,1.0033372426495342,-0.6656646728515625,0.4482269287109375,-0.1010894775390625,0.8088485141071462
1785941702.572119,-0.0209960900247097,-0.3740234375,0.9213866591453552,0.9946294502208756,-0.545501708984375,0.51116943359375,0.0820159912109375,0.7520591247765973
1785941702.582796,-0.0346679650247097,-0.3828125,0.9184569716453552,0.9956457636725832,-0.4825592041015625,0.5092620849609375,0.0820159912109375,0.7063553492798134
1785941702.593472,-0.0161132775247097,-0.38330078125,0.9238280653953552,1.0003186597437705,0.0057220458984375,0.5092620849609375,0.0209808349609375,0.5097262092767871
1785941702.601454,-0.0375976525247097,-0.37744140625,0.9013671278953552,0.9779255073254138,-0.1163482666015625,0.0858306884765625,0.2040863037109375,0.25011006694641863
1785941702.609437,-0.0200195275247097,-0.36767578125,0.9062499403953552,0.9781999877666608,-0.240325927734375,0.20599365234375,0.0209808349609375,0.3172225272312228
1785941702.617419,-0.0322265587747097,-0.3720703125,0.9130858778953552,0.9865093455949817,-0.179290771484375,0.02288818359375,-0.0400543212890625,0.18513076011730473
1785941702.625401,-0.0322265587747097,-0.38330078125,0.9184569716453552,0.9957515999290572,-0.4215240478515625,0.2651214599609375,0.2040863037109375,0.5381664526997
1785941702.636199,-0.0205078087747097,-0.376953125,0.9277343153953552,1.0016013122146428,-0.362396240234375,0.02288818359375,0.0209808349609375,0.36372393283902854
1785941702.646996,-0.0273437462747097,-0.38134765625,0.9213866591453552,0.997560570110278,-0.179290771484375,0.20599365234375,0.4482269287109375,0.5248675501181417
1785941702.657794,-0.0214843712747097,-0.38232421875,0.9282225966453552,1.004106854560267,0.492095947265625,-0.28228759765625,0.3871917724609375,0.6868494578633895
1785941702.668385,-0.0288085900247097,-0.373046875,0.9262694716453552,0.9989840038302129,0.4940032958984375,0.0209808349609375,0.5092620849609375,0.7098079479499637
1785941702.678973,-0.0366210900247097,-0.3740234375,0.9213866591453552,0.9950819120479245,0.614166259765625,0.08392333984375,0.5702972412109375,0.8423077020530163
1785941702.689561,-0.0224609337747097,-0.37109375,0.9277343153953552,0.9994528627189893,0.6160736083984375,-0.0400543212890625,0.4482269287109375,0.7629275321029112
1785941702.700195,-0.0278320275247097,-0.38671875,0.9018554091453552,0.9816665382717468,0.3719329833984375,-0.2231597900390625,0.0209808349609375,0.4342518065196723
1785941702.710831,-0.0195312462747097,-0.3720703125,0.9082030653953552,0.9816570658933856,0.492095947265625,-0.09918212890625,-0.4062652587890625,0.6457917439148418
1785941702.721467,-0.02392578125,-0.361328125,0.9038085341453552,0.973653081604744,0.3108978271484375,-0.1621246337890625,-0.8945465087890625,0.9608097169541728
1785941702.729463,-0.014648433774709702,-0.36962890625,0.9145507216453552,0.9865308547681939,0.125885009765625,0.08392333984375,-0.8335113525390625,0.8471312398121783
1785941702.737457,-0.0268554650247097,-0.37548828125,0.9160155653953552,0.9903520492250949,0.308990478515625,-0.09918212890625,-1.2607574462890625,1.3018531210858655
1785941702.74545,-0.0312499962747097,-0.37109375,0.9116210341453552,0.9847537983945422,0.6771087646484375,0.1430511474609375,-1.1386871337890625,1.3324970163607777
1785941702.753445,-0.0307617150247097,-0.36474609375,0.9125975966453552,0.9832702423138939,0.6771087646484375,0.1430511474609375,-0.8335113525390625,1.0833656283845825
1785941702.764159,-0.0195312462747097,-0.3720703125,0.9174804091453552,0.9902464785044274,0.4329681396484375,-0.0400543212890625,-1.0776519775390625,1.1620669272027357
1785941702.774873,-0.0317382775247097,-0.37548828125,0.9213866591453552,0.9954657921130959,0.3719329833984375,0.2651214599609375,-1.6269683837890625,1.6898667564398904
1785941702.785587,-0.0214843712747097,-0.36767578125,0.9208983778953552,0.991816959290959,0.4329681396484375,0.2651214599609375,-1.0166168212890625,1.1363364641734972
1785941702.793564,-0.0209960900247097,-0.37109375,0.9189452528953552,0.9912677665012096,0.0667572021484375,0.4482269287109375,-1.2607574462890625,1.3397287942093525
1785941702.801541,-0.0351562462747097,-0.3671875,0.9282225966453552,0.998829220002811,0.0057220458984375,0.0858306884765625,-0.8945465087890625,0.8986729690384176
1785941702.809518,-0.0200195275247097,-0.3642578125,0.9194335341453552,0.9891625544674727,0.55694580078125,0.20599365234375,-1.2607574462890625,1.3936037271000332
1785941702.817495,-0.029296867549419403,-0.35595703125,0.9130858778953552,0.9804537393250399,0.6771087646484375,0.0209808349609375,-1.2607574462890625,1.431232270797689
1785941702.828148,-0.0346679650247097,-0.3681640625,0.9160155653953552,0.987841667860812,0.1888275146484375,-0.0400543212890625,-1.3828277587890625,1.3962352199467736
1785941702.838801,-0.0302734337747097,-0.369140625,0.9165038466453552,0.9885143310714495,0.37384033203125,-0.09918212890625,-0.8335113525390625,0.9188769576820982
1785941702.849453,-0.04296875,-0.3701171875,0.9028319716453552,0.9766978114977591,0.247955322265625,-0.03814697265625,-0.9555816650390625,0.9879642462769155
1785941702.86011,-0.0263671837747097,-0.3623046875,0.9003905653953552,0.9709083814746113,-0.11444091796875,-0.09918212890625,-0.7724761962890625,0.7871805969617928
1785941702.870764,-0.0346679650247097,-0.37353515625,0.9135741591453552,0.9875971471262001,-0.1163482666015625,-0.0400543212890625,-0.6504058837890625,0.6619434125833924
1785941702.881419,-0.0297851525247097,-0.36474609375,0.9160155653953552,0.9864133942031487,-0.2994537353515625,0.2651214599609375,-0.6504058837890625,0.763537649245441
1785941702.892096,-0.0273437462747097,-0.36572265625,0.9228515028953552,0.9930536934884776,0.06866455078125,0.02288818359375,-0.5283355712890625,0.5332702554723563
1785941702.902774,-0.0268554650247097,-0.3662109375,0.9262694716453552,0.9963969092929222,-0.057220458984375,0.08392333984375,-0.5283355712890625,0.5380109513627508
1785941702.913451,-0.0273437462747097,-0.3740234375,0.9199218153953552,0.9934270776961629,0.3719329833984375,0.0858306884765625,-0.1010894775390625,0.3948672355275172
1785941702.921447,-0.0317382775247097,-0.37890625,0.9331054091453552,1.0076025849141212,0.6160736083984375,0.1430511474609375,-0.2841949462890625,0.6933809120903209
1785941702.929441,-0.009765621274709702,-0.36279296875,0.9267577528953552,0.9952859077094218,0.3719329833984375,-0.2231597900390625,-0.6504058837890625,0.7817686676360036
1785941702.937437,-0.01318359375,-0.3603515625,0.9169921278953552,0.9853434012375625,0.6771087646484375,-0.2841949462890625,-0.7114410400390625,1.0224438371430673
1785941702.945431,-0.0268554650247097,-0.3642578125,0.9150390028953552,0.9852417707287408,0.3719329833984375,0.0858306884765625,-0.5283355712890625,0.6517971518143993
1785941702.953471,-0.0195312462747097,-0.3671875,0.9160155653953552,0.9870626351877907,0.247955322265625,0.14495849609375,-0.6504058837890625,0.7110011400110714
1785941702.961512,-0.019531242549419403,-0.375,0.9409179091453552,1.013080935160657,0.492095947265625,0.20599365234375,-1.0776519775390625,1.2024664614096405
1785941702.969552,-0.0327148400247097,-0.361328125,0.9150390028953552,0.9843397033004327,0.3719329833984375,0.0209808349609375,-0.5893707275390625,0.697231807977264
1785941702.977592,-0.014648430049419403,-0.3701171875,0.9262694716453552,0.99758530617085,0.1888275146484375,-0.0972747802734375,-0.4062652587890625,0.4584426612614661
1785941702.988287,-0.033203125,-0.365234375,0.9155272841453552,0.9862498690524507,0.5550384521484375,-0.2231597900390625,-0.5283355712890625,0.7981268390067783
1785941702.998982,-0.0214843712747097,-0.37109375,0.9160155653953552,0.9885629294813276,0.6771087646484375,0.0858306884765625,-0.3452301025390625,0.7648705837899804
1785941703.009676,-0.0366210900247097,-0.3623046875,0.9047850966453552,0.9753162881499597,0.736236572265625,0.14495849609375,-0.2841949462890625,0.8023864551620009
1785941703.017977,-0.01318359375,-0.384765625,0.9233397841453552,1.0003873001549934,0.8602142333984375,0.1430511474609375,-0.4062652587890625,0.9620205915832032
1785941703.026278,-0.0200195275247097,-0.37646484375,0.9243163466453552,0.9982420892438071,1.1653900146484375,-0.1621246337890625,-0.8945465087890625,1.4780499786915946
1785941703.034579,-0.0214843712747097,-0.35693359375,0.9150390028953552,0.9824253383214856,1.4705657958984375,-0.0400543212890625,-1.1386871337890625,1.8603162358526797
1785941703.04288,-0.0288085900247097,-0.3525390625,0.9086913466453552,0.9751070140839618,1.1653900146484375,0.2651214599609375,-0.2841949462890625,1.2284909614117425
1785941703.053094,-0.0209960900247097,-0.3603515625,0.9174804091453552,0.9859332561375772,1.102447509765625,0.51116943359375,-0.5893707275390625,1.350571196238431
1785941703.063308,-0.0239257775247097,-0.35888671875,0.9145507216453552,0.982738593008,0.4940032958984375,0.2651214599609375,-0.7114410400390625,0.9058018537970659
1785941703.073522,-0.029296867549419403,-0.3662109375,0.9155272841453552,0.986488198209896,0.431060791015625,0.57220458984375,-0.4673004150390625,0.8553368787120958
1785941703.081542,-0.0253906212747097,-0.35546875,0.9155272841453552,0.9824423259865427,0.1888275146484375,0.0858306884765625,-0.1621246337890625,0.26326248166782945
1785941703.089562,-0.0273437462747097,-0.37841796875,0.9135741591453552,0.9892247387683724,0.1888275146484375,0.1430511474609375,0.0209808349609375,0.23782274179282112
1785941703.097582,-0.0258789025247097,-0.36279296875,0.9262694716453552,0.9951198871857035,0.3719329833984375,0.2651214599609375,0.2651214599609375,0.5281220703618628
1785941703.113592,-0.0234374962747097,-0.37841796875,0.9350585341453552,1.009001455689021,0.4329681396484375,0.4482269287109375,0.0209808349609375,0.6235454955397616
1785941703.121582,-0.008789058774709702,-0.37353515625,0.9111327528953552,0.984768324991988,1.224517822265625,0.02288818359375,0.0820159912109375,1.227474801700093
1785941703.129572,-0.029296867549419403,-0.36083984375,0.9243163466453552,0.9926854526795228,1.224517822265625,0.20599365234375,-0.2841949462890625,1.2738304633460096
1785941703.137562,-0.0200195275247097,-0.3623046875,0.9257811903953552,0.9943521914073635,1.3484954833984375,0.6313323974609375,-0.1010894775390625,1.4923939651777212
1785941703.14555,-0.0249023400247097,-0.37109375,0.9204100966453552,0.9927161950096719,1.1043548583984375,0.4482269287109375,-0.1621246337890625,1.2028264337680272
1785941703.15354,-0.0297851525247097,-0.35986328125,0.9248046278953552,0.9928002499393336,0.797271728515625,0.02288818359375,0.0209808349609375,0.7978761015810486
1785941703.161529,-0.0239257775247097,-0.36328125,0.9091796278953552,0.9793637246762109,0.614166259765625,0.57220458984375,-0.1621246337890625,0.8549284672731333
1785941703.169518,-0.0161132775247097,-0.3720703125,0.9228515028953552,0.9951637310275389,0.247955322265625,0.14495849609375,0.0209808349609375,0.2879843795508183
1785941703.18018,-0.0268554650247097,-0.37353515625,0.9140624403953552,0.9878055850712313,0.1888275146484375,0.0858306884765625,-0.1621246337890625,0.26326248166782945
1785941703.190842,-0.0229492150247097,-0.37255859375,0.9169921278953552,0.9900510768992069,0.3719329833984375,0.1430511474609375,-0.1010894775390625,0.41111659830110714
1785941703.201504,-0.0087890625,-0.36474609375,0.9189452528953552,0.9887251075725857,0.6771087646484375,0.4482269287109375,-0.4673004150390625,0.936884911118251
1785941703.212579,-0.0424804650247097,-0.37158203125,0.9184569716453552,0.9916859405177368,0.797271728515625,0.38909912109375,-0.8335113525390625,1.2172844819259458
1785941703.223654,-0.0229492150247097,-0.3837890625,0.9291991591453552,1.0056002129680137,1.712799072265625,0.57220458984375,-0.8335113525390625,1.988929342486489
1785941703.234728,-0.015136715024709702,-0.37158203125,0.9155272841453552,0.9881763679142429,1.4705657958984375,0.1430511474609375,-0.5283355712890625,1.5691290153284516
1785941703.242815,-0.0258789025247097,-0.359375,0.9155272841453552,0.9838751527686088,1.895904541015625,0.08392333984375,-0.5893707275390625,1.987172617085421
1785941703.250901,-0.012695308774709702,-0.36962890625,0.9194335341453552,0.9910321502915406,1.8367767333984375,0.2651214599609375,-0.8335113525390625,2.0343990099528537
1785941703.258989,-0.019531242549419403,-0.3701171875,0.9130858778953552,0.9854410293520186,1.712799072265625,0.38909912109375,-0.6504058837890625,1.8729940207211944
1785941703.267076,-0.024414055049419403,-0.380859375,0.9204100966453552,0.9963958327974173,1.712799072265625,-0.03814697265625,-0.7724761962890625,1.879323103489669
1785941703.277188,-0.0180664025247097,-0.36962890625,0.9150390028953552,0.9870401714497146,1.224517822265625,-0.16021728515625,-0.8335113525390625,1.4899176656179647
1785941703.2873,-0.0288085900247097,-0.3623046875,0.9174804091453552,0.9868459467461033,1.5926361083984375,0.2651214599609375,-0.7114410400390625,1.7643490345615296
1785941703.297412,-0.0166015587747097,-0.37109375,0.9155272841453552,0.9880163920995353,1.3484954833984375,0.1430511474609375,-0.7724761962890625,1.560648318286056
1785941703.305454,-0.0341796837747097,-0.35302734375,0.9150390028953552,0.9813729836498688,0.6771087646484375,0.0858306884765625,-0.4673004150390625,0.8271716050154126
1785941703.313496,-0.0258789025247097,-0.3740234375,0.9262694716453552,0.9992689245129989,0.797271728515625,0.08392333984375,-0.3452301025390625,0.87285116701529
1785941703.321537,-0.0302734337747097,-0.36083984375,0.9291991591453552,0.9972627291674302,1.1653900146484375,0.1430511474609375,-0.2231597900390625,1.1951559768174422
1785941703.32958,-0.0351562462747097,-0.3603515625,0.9248046278953552,0.9931529640619243,1.6536712646484375,-0.0972747802734375,-0.5893707275390625,1.758251656868587
1785941703.340198,-0.0244140587747097,-0.36376953125,0.9243163466453552,0.9936221750783928,1.5316009521484375,-0.0400543212890625,-0.5283355712890625,1.6206616862150063
