timestamp,accel_x,accel_y,accel_z,accel_rms,gyro_x,gyro_y,gyro_z,gyro_rms
1784555023.646402,-0.0561523400247097,-0.0434570275247097,0.9916991591453552,0.9942378089678237,-3.902435302734375,0.31280517578125,4.4841766357421875,5.952704298934997
1784555023.657015,-0.0502929650247097,-0.0551757775247097,1.00244140625,1.0052176489302753,-3.4770965576171875,1.6574859619140625,4.7893524169921875,6.146166021113031
1784555023.667626,-0.0532226487994194,-0.0380859375,0.9887694716453552,0.9909330234876196,-2.8629302978515625,2.5119781494140625,4.7283172607421875,6.071522727596648
1784555023.678289,-0.0732421800494194,-0.05615234375,0.9838866591453552,0.9882056773218914,-0.4863739013671875,3.4275054931640625,5.4607391357421875,6.465603249985827
1784555023.688954,-0.0537109300494194,-0.0751953125,1.001953125,1.0062053785018303,0.675201416015625,3.54766845703125,5.8879852294921875,6.907258392149679
1784555023.699619,-0.0688476487994194,-0.0615234375,0.9902343153953552,0.9945296031257855,1.9550323486328125,3.0002593994140625,6.3762664794921875,7.313035085753989
1784555023.707603,-0.0727538987994194,-0.0625,0.9877929091453552,0.9924385175658793,2.872467041015625,2.75421142578125,6.9866180419921875,8.040496200130674
1784555023.715586,-0.0810546875,-0.06103515625,0.9814452528953552,0.986676206815089,3.2367706298828125,2.5730133056640625,8.390426635742188,9.353947867684973
1784555023.72357,-0.0820312425494194,-0.064453125,0.9926757216453552,0.9981424840275029,3.2367706298828125,1.5354156494140625,9.061813354492188,9.744262239830707
1784555023.731554,-0.0751953125,-0.0590820275247097,0.9980468153953552,1.0026178069031157,3.9081573486328125,0.8029937744140625,10.160446166992188,10.915729896610975
1784555023.742257,-0.0678710862994194,-0.04345703125,1.0185546875,1.0217380531959985,4.2133331298828125,0.2536773681640625,10.953903198242188,11.739017145696106
1784555023.75296,-0.0468749962747097,-0.0527343787252903,0.9999999403953552,1.0024859404330868,5.191802978515625,-0.35858154296875,11.686325073242188,12.792716388952371
1784555023.763663,-0.0214843712747097,-0.0449218712747097,1.00634765625,1.0075788594287591,5.985260009765625,-0.17547607421875,11.014938354492188,12.537264302485845
1784555023.77431,0.009765625,-0.0478515625,0.9921874403953552,0.9933886733517846,8.668899536132812,2.6340484619140625,7.5359344482421875,11.78466539514291
1784555023.784957,0.007812503725290298,-0.0385742150247097,0.9946288466453552,0.9954072271479144,9.340286254882812,3.8547515869140625,4.8503875732421875,11.208314624894838
1784555023.795604,0.0166015625,-0.03125,0.9907225966453552,0.9913543452677033,9.708404541015625,5.07354736328125,2.2869110107421875,11.190351359565293
1784555023.803604,0.0185546912252903,-0.0195312462747097,0.9941405653953552,0.9945055102472312,9.769439697265625,6.23321533203125,0.2727508544921875,11.591778051817812
1784555023.811605,-0.008300777524709702,-0.0234375037252903,0.9936522841453552,0.9939633198844259,9.157180786132812,7.0285797119140625,-1.8634796142578125,11.693051312185556
1784555023.819607,-0.010742180049419403,-0.03564453125,0.9843749403953552,0.9850786518439051,7.938385009765625,7.02667236328125,-3.6945343017578125,11.226827903332142
1784555023.838265,-0.033203125,-0.0224609375,0.9785155653953552,0.9793363329031228,3.360748291015625,6.66046142578125,-5.9528350830078125,9.544245439288172
1784555023.848927,-0.064453125,-0.0234375037252903,0.9916991591453552,0.9940677764381779,0.6122589111328125,6.1130523681640625,-6.6852569580078125,9.079478554673152
1784555023.859587,-0.0537109300494194,-0.04296875,0.9995116591453552,1.0018756081724103,-1.583099365234375,5.37872314453125,-7.2345733642578125,9.15291855249189
1784555023.867626,-0.0688476487994194,-0.03564453125,0.9843749403953552,0.9874231892312432,-3.719329833984375,4.58526611328125,-7.3566436767578125,9.432830218463188
1784555023.875666,-0.0781249925494194,-0.02197265625,0.9873046278953552,0.9906345140096389,-5.6133270263671875,4.0988922119140625,-7.2956085205078125,10.076520299902157
1784555023.883706,-0.07958984375,-0.0385742150247097,0.9833983778953552,0.9873676533794986,-6.7119598388671875,3.4275054931640625,-6.5021514892578125,9.953701460938712
1784555023.891746,-0.09130859375,-0.041015625,1.00439453125,1.0093700585967718,-6.5898895263671875,2.8171539306640625,-5.8307647705078125,9.239091841072636
1784555023.899709,-0.0883788987994194,-0.0361328125,1.0224609375,1.0269093331962356,-6.5898895263671875,2.3288726806640625,-4.8542022705078125,8.509616419996295
1784555023.907672,-0.09521484375,-0.0483398400247097,1.0166015625,1.022194376565139,-5.489349365234375,1.47247314453125,-3.9997100830078125,6.949734841206472
1784555023.915635,-0.0859375,-0.0454101525247097,1.00146484375,1.0061705467393582,-4.878997802734375,0.98419189453125,-2.7179718017578125,5.671033764623385
1784555023.923598,-0.0971679612994194,-0.05810546875,0.9838866591453552,0.990379127529428,-4.695892333984375,0.49591064453125,-1.8634796142578125,5.0764050717497975
1784555023.934345,-0.10009765625,-0.0590820275247097,0.9672850966453552,0.9742436476340957,-4.940032958984375,0.43487548828125,-0.7648468017578125,5.017771712256241
1784555023.945092,-0.09033203125,-0.0600585900247097,0.9667968153953552,0.9728632958253218,-5.123138427734375,0.43487548828125,0.3337860107421875,5.1523855776721215
1784555023.955839,-0.0917968675494194,-0.08056640625,0.9755858778953552,0.9832016150600936,-5.7353973388671875,-0.2346038818359375,0.8220672607421875,5.798759884427141
1784555023.966537,-0.0541992112994194,-0.08056640625,0.9907225966453552,0.995469619739967,-6.2236785888671875,0.8029937744140625,0.2117156982421875,6.278837290148056
1784555023.977236,-0.0551757775247097,-0.0927734375,0.9848632216453552,0.9907607392709356,-6.8950653076171875,2.2678375244140625,-0.7038116455078125,7.292486782010579
1784555023.987933,-0.0468749962747097,-0.0927734375,0.9580077528953552,0.963630131631908,-7.5664520263671875,3.4885406494140625,-1.7414093017578125,8.511969130946085
1784555023.99853,-0.0527343712747097,-0.07373046875,0.9726561903953552,0.9768711074907678,-8.726119995117188,4.7092437744140625,-3.0231475830078125,10.366367174892446
1784555024.00913,-0.0517578087747097,-0.015624996274709702,1.0654296875,1.0668005578757875,-8.113861083984375,5.19561767578125,-4.3659210205078125,10.577828278072896
1784555024.019728,-0.0742187425494194,-0.04638671875,1.14599609375,1.149333370398801,-4.1446685791015625,4.8313140869140625,-5.1593780517578125,8.1938425246014
1784555024.027813,-0.0678710862994194,-0.08154296875,1.07861328125,1.0838184121876313,10.074615478515625,1.049041748046875,-4.8542022705078125,11.232170106978218
1784555024.035902,-0.07470703125,-0.0424804724752903,0.9848632216453552,0.9886057335508329,13.614654541015625,-0.35858154296875,-4.8542022705078125,14.458584947260864
1784555024.043989,-0.08056640625,-0.0380859412252903,0.9506835341453552,0.9548511228616527,13.860702514648438,-1.5773773193359375,-5.5866241455078125,15.027227380668327
1784555024.052077,-0.0644531175494194,-0.04736328125,0.9672850966453552,0.9705863912938508,13.372421264648438,-3.0422210693359375,-5.9528350830078125,14.950351334982795
1784555024.059959,-0.0791015550494194,-0.0498046875,0.9790038466453552,0.98345619864568,13.063430786132812,-4.4460296630859375,-5.8917999267578125,15.00445633957012
1784555024.067842,-0.0722656175494194,-0.05029296875,0.9843749403953552,0.9883044700211805,12.941360473632812,-5.7277679443359375,-5.7086944580078125,15.260253239955002
1784555024.075723,-0.0839843675494194,-0.0419921875,0.9584960341453552,0.9630842981152196,12.516021728515625,-6.70623779296875,-5.5255889892578125,15.236684643409957
1784555024.083606,-0.0800781175494194,-0.0166015625,0.9580077528953552,0.9614920547749253,11.171340942382812,-7.3146820068359375,-4.9152374267578125,14.228949022098881
1784555024.094456,-0.0893554612994194,-0.00537109375,0.9692382216453552,0.9733632299457146,9.771347045898438,-7.6808929443359375,-4.4269561767578125,13.19368335623801
1784555024.105307,-0.09912109375,-0.0043945349752902985,0.9746093153953552,0.979646681625191,9.157180786132812,-8.596420288085938,-3.6334991455078125,13.074965306253835
1784555024.116158,-0.08837890625,0.010253902524709702,0.9604491591453552,0.9645613308079235,8.121490478515625,-8.72039794921875,-1.9855499267578125,12.080825985710021
1784555024.126637,-0.0996093675494194,0.01318359375,0.9560546278953552,0.9613200740481218,7.633209228515625,-8.72039794921875,0.0896453857421875,11.589618622466382
1784555024.137119,-0.1059570163488388,0.0053710900247097015,0.9482421278953552,0.9541587242367555,6.107330322265625,-8.84246826171875,1.6765594482421875,10.87656104696051
1784555024.147599,-0.095703125,0.013183590024709702,0.9062499403953552,0.9113845783462051,4.459381103515625,-7.37762451171875,3.4465789794921875,9.284090150584653
1784555024.155616,-0.0703124925494194,-0.001953125,0.9453124403953552,0.9479257730814158,1.590728759765625,-4.44793701171875,6.5593719482421875,8.083311326600597
1784555024.163632,-0.0551757775247097,-0.009765621274709702,0.9389647841453552,0.9406352107217074,0.4901885986328125,-2.7370452880859375,7.2917938232421875,7.803970715727728
1784555024.171649,-0.0571289025247097,-0.0039062537252902985,0.9580077528953552,0.9597175756072471,-0.8525848388671875,-0.9059906005859375,8.207321166992188,8.301074666208843
1784555024.179667,-0.0463867150247097,-0.0058593712747097015,0.9326171278953552,0.9337883950908257,-2.132415771484375,-0.05340576171875,8.207321166992188,8.479986434895876
1784555024.190309,-0.0498046837747097,-0.0039062537252902985,0.9399413466453552,0.9412680279694774,-3.8394927978515625,1.3523101806640625,8.573532104492188,9.490832445904834
1784555024.200952,-0.0400390550494194,-0.005859375,0.9882811903953552,0.9891092808653154,-4.817962646484375,1.65557861328125,8.268356323242188,9.711818619381853
1784555024.211596,-0.0488281175494194,-0.00341796875,0.9892577528953552,0.9904679546746394,-5.245208740234375,2.08282470703125,8.268356323242188,10.010798658296448
1784555024.222263,-0.04248046875,-0.021484375,0.9877929091453552,0.9889393307742413,-5.489349365234375,2.391815185546875,8.085250854492188,10.061064442467224
1784555024.232929,-0.0458984337747097,-0.0307617150247097,0.9794921278953552,0.9810493249287743,-5.489349365234375,3.185272216796875,7.8411102294921875,10.08771159281153
1784555024.243597,-0.0454101525247097,-0.0541992150247097,1.0029296875,1.0054191140665965,-5.3043365478515625,3.0002593994140625,7.7190399169921875,9.834689619747286
1784555024.254286,-0.0468749962747097,-0.07373046875,1.0126953125,1.016457201881772,-4.4536590576171875,3.9157867431640625,7.5969696044921875,9.637552178380837
1784555024.264977,-0.0537109300494194,-0.06591796875,0.9980468153953552,1.0016623624414116,-4.146575927734375,4.52423095703125,7.4748992919921875,9.671446484495036
1784555024.275668,-0.0473632775247097,-0.078125,1.01220703125,1.0163217353745915,-3.597259521484375,4.52423095703125,7.2307586669921875,9.257041250731927
1784555024.28365,-0.0585937425494194,-0.0849609375,1.01025390625,1.015511960865164,-2.925872802734375,4.58526611328125,6.9255828857421875,8.806196414722484
1784555024.291632,-0.0463867150247097,-0.07421875,0.9936522841453552,0.9974993794332044,-2.376556396484375,4.03594970703125,6.6814422607421875,8.159569904534681
1784555024.299614,-0.0493163987994194,-0.08447265625,1.00146484375,1.006230376261662,-2.193450927734375,3.73077392578125,6.3152313232421875,7.6558505552111775
1784555024.307596,-0.0483398362994194,-0.06103515625,0.9907225966453552,0.9937772857011936,-2.071380615234375,3.24249267578125,6.3152313232421875,7.3950336761723445
1784555024.315628,-0.0595703050494194,-0.0556640625,0.9907225966453552,0.994071613416961,-2.071380615234375,2.81524658203125,6.6204071044921875,7.486389062827152
1784555024.323658,-0.0639648362994194,-0.03955078125,0.9873046278953552,0.9901647301554841,-2.132415771484375,1.89971923828125,6.4983367919921875,7.098204791983006
1784555024.331689,-0.0673828050494194,-0.0537109375,0.9682616591453552,0.9720884464874444,-2.559661865234375,1.41143798828125,6.6814422607421875,7.29285244213334
1784555024.347845,-0.0737304612994194,-0.041015625,0.9326171278953552,0.9364257416695395,-3.6563873291015625,1.0471343994140625,7.1086883544921875,8.062202482705551
1784555024.35597,-0.0976562425494194,-0.03955078125,0.9345702528953552,0.9404905972965624,-4.878997802734375,0.80108642578125,7.7800750732421875,9.218238832116592
1784555024.364095,-0.07177734375,-0.0283203162252903,0.9501952528953552,0.9533231592758954,-5.977630615234375,0.31280517578125,8.390426635742188,10.30675380417883
1784555024.372221,-0.0683593675494194,-0.03271484375,0.9638671278953552,0.9668418197257421,-7.0171356201171875,0.3757476806640625,8.573532104492188,11.085433296781867
1784555024.382715,-0.0463867150247097,-0.0297851525247097,0.9667968153953552,0.9683671643030367,-6.3457489013671875,0.8640289306640625,9.061813354492188,11.096465039997211
1784555024.39321,-0.0361328087747097,-0.0170898474752903,0.9702147841453552,0.9710377799709425,-7.625579833984375,2.26593017578125,8.573532104492188,11.69569835934321
1784555024.403705,-0.0410156212747097,-0.07763671875,0.9306640028953552,0.9347968910795664,-7.686614990234375,3.91387939453125,7.9631805419921875,11.739452553990544
1784555024.4117,-0.0419921837747097,-0.0190429724752903,0.9492186903953552,0.9503378875403932,-6.893157958984375,4.52423095703125,7.5359344482421875,11.170255163078094
1784555024.419693,-0.0405273400247097,-0.0693359375,0.9555663466453552,0.9589353369021466,-7.7457427978515625,5.6247711181640625,6.8645477294921875,11.779499019596644
1784555024.427687,-0.0483398362994194,-0.00341796875,0.9497069716453552,0.950942560976015,-9.946823120117188,6.4182281494140625,6.4983367919921875,13.504122475118042
1784555024.435682,-0.0493164025247097,-0.08837890625,0.9887694716453552,0.993935614959923,-9.395599365234375,7.33184814453125,5.7048797607421875,13.212832312982131
1784555024.446347,-0.0605468712747097,-0.07177734375,1.03662109375,1.040865602613713,-8.970260620117188,8.432388305664062,5.6438446044921875,13.543401716333339
1784555024.457011,-0.033203125,-0.07421875,0.9848632216453552,0.9882137601303659,-7.9936981201171875,8.859634399414062,5.1555633544921875,12.998929372414821
1784555024.467676,-0.0366210900247097,-0.0302734337747097,1.0693359375,1.0703910183928644,-6.4067840576171875,9.592056274414062,4.7283172607421875,12.46641125788398
1784555024.478327,-0.0214843712747097,-0.1064453125,1.017578125,1.0233559611595604,-6.465911865234375,9.77325439453125,3.2634735107421875,12.16448836016209
1784555024.488978,-0.0263671837747097,-0.08154296875,1.06103515625,1.064490529282076,-2.9277801513671875,10.202407836914062,1.7375946044921875,10.75547568892355
1784555024.49963,-0.014648433774709702,-0.078125,1.04736328125,1.0503751401988808,-2.437591552734375,10.44464111328125,-0.2765655517578125,10.728880140425938
1784555024.507626,-0.00390625,-0.07373046875,1.0537109375,1.0562945520158125,2.2602081298828125,10.141372680664062,-3.8776397705078125,11.090179025982026
1784555024.515618,-0.0307617150247097,-0.09912109375,1.0576171875,1.0626972238755816,5.0678253173828125,9.408950805664062,-5.5255889892578125,12.030932731468488
1784555024.523611,-0.0336913987994194,-0.095703125,1.03564453125,1.0406026107961959,5.924224853515625,8.18634033203125,-7.2956085205078125,12.463487145713271
1784555024.531605,-0.0214843712747097,-0.0590820275247097,1.03271484375,1.0346266054413482,7.938385009765625,8.00323486328125,-8.577346801757812,14.164766252845014
1784555024.539601,-0.0312499962747097,-0.0605468712747097,1.01513671875,1.0174207800329431,7.877349853515625,6.84356689453125,-10.774612426757812,14.999310700877244
1784555024.547598,-0.0634765550494194,-0.0654296875,1.02392578125,1.0279758375349648,8.304595947265625,6.66046142578125,-11.873245239257812,15.946849618756017
1784555024.555596,-0.0600585900247097,-0.0585937462747097,1.01025390625,1.0137323199107569,9.220123291015625,6.53839111328125,-12.971878051757812,17.205547129964803
1784555024.563592,-0.0605468712747097,-0.0454101525247097,1.01708984375,1.0199018363709682,9.706497192382812,6.6013336181640625,-13.887405395507812,18.18388632562407
1784555024.574272,-0.08544921875,-0.0571289099752903,1.01416015625,1.0193557297945475,10.257720947265625,5.86700439453125,-13.887405395507812,18.234654047077516
1784555024.584952,-0.0732421800494194,-0.04296875,1.00634765625,1.0099239256769899,10.684967041015625,5.74493408203125,-14.131546020507812,18.624537073554464
1784555024.595632,-0.08642578125,-0.03662109375,0.9995116591453552,1.003909396778225,11.051177978515625,5.138397216796875,-14.253616333007812,18.75359270217314
1784555024.603658,-0.080078125,-0.0429687537252903,1.0068359375,1.0109289910481962,11.724472045898438,4.6482086181640625,-14.131546020507812,18.941216461535905
1784555024.611684,-0.1000976487994194,-0.0361328125,0.9775390028953552,0.9833146096829729,12.331008911132812,4.4651031494140625,-13.948440551757812,19.14549348351371
1784555024.61971,-0.0922851487994194,-0.0234375,0.9541015028953552,0.9588407286522389,11.844635009765625,4.52423095703125,-12.971878051757812,18.13928511427067
1784555024.627736,-0.1064453050494194,-0.015625,0.9262694716453552,0.9324965832078043,10.747909545898438,4.1599273681640625,-12.178421020507812,16.767125390715062
1784555024.638366,-0.1230468675494194,-0.013671875,0.9345702528953552,0.9427348563496675,8.426666259765625,3.12042236328125,-11.262893676757812,14.408279354339617
1784555024.648996,-0.10986328125,-0.010253902524709702,0.9453124403953552,0.9517303678302089,6.6585540771484375,2.3288726806640625,-9.859085083007812,12.122769858206526
1784555024.659626,-0.1118163987994194,-0.0205078125,0.9614257216453552,0.9681233886521377,4.5795440673828125,2.0236968994140625,-8.882522583007812,10.19641017434288
1784555024.66762,-0.1215820237994194,-0.0146484375,0.9492186903953552,0.9570856217853381,3.055572509765625,1.10626220703125,-7.9059600830078125,8.547780078315887
1784555024.675616,-0.12353515625,-0.0190429724752903,0.9199218153953552,0.9283747713454371,1.1615753173828125,0.8640289306640625,-6.6852569580078125,6.840209339308947
1784555024.68361,-0.1113281175494194,-0.0205078125,0.9360350966453552,0.9428553559706345,-0.606536865234375,0.49591064453125,-5.4645538330078125,5.5204314079687755
1784555024.691606,-0.1142578050494194,-0.01123046875,0.9643554091453552,0.9711654465594218,-2.376556396484375,0.00762939453125,-4.4879913330078125,5.078399818691411
1784555024.702295,-0.1000976487994194,-0.0068359375,0.9711913466453552,0.9763600263916453,-2.559661865234375,-0.720977783203125,-3.5724639892578125,4.4535577668591495
1784555024.712985,-0.1030273362994194,0.00146484375,0.9653319716453552,0.9708154269854155,-2.5005340576171875,-0.9059906005859375,-3.5114288330078125,4.4049542552598835
1784555024.723675,-0.0971679612994194,-0.01220703125,0.9765624403953552,0.9814605566735505,-2.5005340576171875,-0.9059906005859375,-3.0231475830078125,4.026525903343914
1784555024.734384,-0.0874023362994194,-0.01220703125,0.9624022841453552,0.9664400325580125,-1.705169677734375,-1.70135498046875,-3.2672882080078125,4.059234488621898
1784555024.745094,-0.0966796800494194,-0.015625,0.9599608778953552,0.9649435155743984,-1.216888427734375,-1.880645751953125,-3.4503936767578125,4.113740683915731
1784555024.755804,-0.0859375,-0.014648433774709702,0.9423827528953552,0.9464064050253095,-1.6460418701171875,-1.7604827880859375,-3.8166046142578125,4.513892363238156
1784555024.763746,-0.099609375,-0.0239257849752903,0.9609374403953552,0.9663825511298055,-2.1343231201171875,-2.3097991943359375,-3.9386749267578125,5.040205122600902
1784555024.771688,-0.0932617112994194,-0.03955078125,0.9643554091453552,0.9696614699161182,-2.9888153076171875,-2.6760101318359375,-3.6334991455078125,5.412611496231872
1784555024.779629,-0.09521484375,-0.0332031287252903,0.9755858778953552,0.9807834212385199,-3.4770965576171875,-2.4318695068359375,-3.2062530517578125,5.3182937490494115
1784555024.787571,-0.1015624925494194,-0.0341796875,0.9643554091453552,0.9702909594953227,-4.0874481201171875,-2.5539398193359375,-3.3893585205078125,5.892163602275324
1784555024.798284,-0.1113281175494194,-0.037109375,1.001953125,1.0088018240304948,-4.8160552978515625,-2.7370452880859375,-3.1452178955078125,6.3701021303602445
1784555024.808995,-0.0932617112994194,-0.06396484375,1.03173828125,1.0379176889460755,-5.6133270263671875,-2.6149749755859375,-2.3517608642578125,6.624070771854693
1784555024.819707,-0.0844726487994194,-0.0849609375,1.0810546875,1.087673308793496,-4.024505615234375,-1.64031982421875,-1.8024444580078125,4.704901762734385
1784555024.827847,-0.0971679612994194,-0.1069335862994194,1.1015625,1.11099790548326,2.811431884765625,-0.54168701171875,-0.7038116455078125,2.9483766539731655
1784555024.835986,-0.099609375,-0.0693359375,1.04150390625,1.0485513275709986,7.1468353271484375,0.0705718994140625,0.8220672607421875,7.194305398545991
1784555024.844126,-0.08056640625,-0.0341796837747097,0.9755858778953552,0.9795034465216701,8.792877197265625,0.43487548828125,1.2493133544921875,8.891827143743527
1784555024.852264,-0.0849609375,-0.0180664099752903,0.9316405653953552,0.9356809815104993,7.938385009765625,0.43487548828125,2.2869110107421875,8.272667962914582
1784555024.861745,-0.0869140550494194,-0.0244140625,0.9057616591453552,0.9102495715959629,5.252838134765625,1.28936767578125,2.7751922607421875,6.079183296914223
1784555024.871226,-0.0932617112994194,-0.02587890625,0.9326171278953552,0.9376258165318262,2.5691986083984375,1.8405914306640625,3.5076141357421875,4.721431480948215
1784555024.880707,-0.0971679612994194,-0.02392578125,0.9409179091453552,0.9462243747980578,0.492095947265625,1.59454345703125,4.0569305419921875,4.386731434704596
1784555024.890188,-0.1059570237994194,-0.04150390625,0.9423827528953552,0.9492284857088242,-1.399993896484375,1.16729736328125,4.4841766357421875,4.840496477124323
1784555024.899669,-0.0947265550494194,-0.0419921875,0.9487304091453552,0.954371967987157,-1.7681121826171875,1.0471343994140625,4.4841766357421875,4.932600859718095
1784555024.910308,-0.0854492112994194,-0.04150390625,0.9663085341453552,0.9709666961888275,-3.231048583984375,0.80108642578125,4.4841766357421875,5.584734059395714
1784555024.920948,-0.0844726487994194,-0.03564453125,0.9775390028953552,0.981829243394628,-3.536224365234375,0.31280517578125,5.1555633544921875,6.259597698051811
1784555024.931586,-0.0732421800494194,-0.056640625,0.9999999403953552,1.004277082348042,-4.2705535888671875,0.3757476806640625,5.2165985107421875,6.752163675236883
1784555024.939576,-0.08447265625,-0.0429687537252903,0.9755858778953552,0.9801784269200614,-4.024505615234375,0.19073486328125,4.4841766357421875,6.028338521985975
1784555024.947568,-0.08154296875,-0.0351562462747097,0.9672850966453552,0.9713524981163665,-3.9043426513671875,-0.1125335693359375,4.1179656982421875,5.675755177543488
1784555024.95556,-0.08544921875,-0.0288085974752903,0.9506835341453552,0.9549506198587346,-4.817962646484375,-0.904083251953125,3.5686492919921875,6.063446904081638
1784555024.963552,-0.06591796875,-0.0336914025247097,0.9067382216453552,0.909755182343464,-6.0405731201171875,-1.2722015380859375,2.5310516357421875,6.671824544739147
1784555024.97423,-0.0522460900247097,-0.0327148474752903,0.9316405653953552,0.933677705773453,-8.358001708984375,-1.21307373046875,1.7986297607421875,8.634975938540107
1784555024.984906,-0.07421875,-0.0581054650247097,1.00634765625,1.0107523302754085,-10.190963745117188,-1.8215179443359375,0.6999969482421875,10.376110321473028
1784555024.995584,-0.09326171875,-0.0771484375,1.0673828125,1.0742232998838304,-8.234024047851562,-1.5773773193359375,0.7610321044921875,8.41822077948904
1784555025.003575,-0.0634765625,-0.0336914025247097,0.9321288466453552,0.9348949520343441,-6.2808990478515625,-1.8825531005859375,-0.2155303955078125,6.56049939998596
1784555025.011568,-0.0722656175494194,-0.04150390625,0.9770507216453552,0.9805982900155992,-8.419036865234375,-2.00653076171875,-0.5817413330078125,8.674374352910347
1784555025.019562,-0.0927734300494194,-0.06005859375,1.005859375,1.0119125586145044,-8.419036865234375,-2.18963623046875,-0.3986358642578125,8.708248911935707
1784555025.027554,-0.08056640625,-0.0595703087747097,0.9858397841453552,0.9909185877292417,-8.113861083984375,-2.00653076171875,-0.7038116455078125,8.387863745929122
1784555025.038243,-0.0927734300494194,-0.0546875,1.0498046875,1.0553139409087502,-7.930755615234375,-1.880645751953125,0.2727508544921875,8.155250216979066
1784555025.048932,-0.09228515625,-0.09228515625,1.05859375,1.066608563469859,-5.489349365234375,-1.64031982421875,0.5168914794921875,5.752458811751344
1784555025.059621,-0.08642578125,-0.07958984375,0.9633788466453552,0.9705167494982027,-3.536224365234375,-1.575469970703125,0.6999969482421875,3.934079831093027
1784555025.070311,-0.0839843675494194,-0.06103515625,0.9741210341453552,0.9796379195680178,-3.536224365234375,-2.00653076171875,1.6765594482421875,4.397942705685357
1784555025.081003,-0.08544921875,-0.08349609375,1.01904296875,1.0260222896288889,-3.719329833984375,-2.43377685546875,1.9207000732421875,4.8420835357864425
1784555025.091695,-0.07373046875,-0.10107421875,1.048828125,1.0562635161308154,-1.888275146484375,-1.82342529296875,1.9817352294921875,3.289032889418896
1784555025.099943,-0.0703125,-0.078125,0.9775390028953552,0.9831733649071741,1.041412353515625,-1.70135498046875,2.1038055419921875,2.8991630202763377
1784555025.108194,-0.07666015625,-0.0620117224752903,0.9746093153953552,0.9795843766292058,0.4901885986328125,-2.2487640380859375,2.2258758544921875,3.2018350802047095
1784555025.116443,-0.06640625,-0.07470703125,0.9921874403953552,0.9972095303573555,-0.3032684326171875,-2.0656585693359375,2.5310516357421875,3.28102719435336
1784555025.124693,-0.07958984375,-0.08935546875,1.00634765625,1.0134369976784694,0.3070831298828125,-2.0656585693359375,2.5920867919921875,3.328687325500845
1784555025.135123,-0.0742187425494194,-0.095703125,0.9721679091453552,0.979682577905943,1.346588134765625,-2.31170654296875,2.3479461669921875,3.559513723613016
1784555025.145553,-0.06298828125,-0.072265625,0.9521483778953552,0.9569620565415464,0.7953643798828125,-2.9811859130859375,2.4700164794921875,3.952348081094501
1784555025.155983,-0.0703125,-0.0576171912252903,0.9477538466453552,0.9521034304170998,-0.301361083984375,-3.16619873046875,2.6531219482421875,4.141821939196153
1784555025.16669,-0.0673828050494194,-0.05517578125,0.9506835341453552,0.9546643343856408,-1.4629364013671875,-3.5305023193359375,2.6531219482421875,4.652277465234208
1784555025.177395,-0.0654296875,-0.0566406287252903,0.9541015028953552,0.9580182058060898,-2.7446746826171875,-3.2253265380859375,2.1038055419921875,4.728844272039228
1784555025.188101,-0.0683593675494194,-0.056640625,0.9775390028953552,0.9815618501723631,-3.4770965576171875,-2.9201507568359375,2.7141571044921875,5.290002807325172
1784555025.195998,-0.0541992150247097,-0.07373046875,0.9970702528953552,1.001260618490609,-3.170013427734375,-2.49481201171875,2.6531219482421875,4.828263474384638
1784555025.203897,-0.0732421800494194,-0.056640625,0.9907225966453552,0.9950396177250921,-2.559661865234375,-2.00653076171875,2.8362274169921875,4.31534709182899
1784555025.211797,-0.0546874925494194,-0.0712890625,0.9956054091453552,0.9996514307462185,-2.1343231201171875,-1.8215179443359375,2.2258758544921875,3.5815898874963215
1784555025.219695,-0.0639648362994194,-0.06201171875,0.9912108778953552,0.9952064901331891,-1.705169677734375,-0.904083251953125,2.3479461669921875,3.0393784495222365
1784555025.230348,-0.0400390550494194,-0.08544921875,0.9965819716453552,1.001039620156355,-1.583099365234375,-0.66375732421875,2.3479461669921875,2.9085440668404563
1784555025.240999,-0.0571289025247097,-0.078125,1.0009765625,1.0056447214613091,-1.3408660888671875,0.6809234619140625,1.6155242919921875,2.2071468839376953
1784555025.251651,-0.0507812462747097,-0.0673828125,1.01171875,1.0152310118860561,-0.7915496826171875,1.3523101806640625,0.9441375732421875,1.8293959336312866
1784555025.262392,-0.0380859375,-0.0615234375,1.0087890625,1.0113807614428403,-0.3643035888671875,1.7185211181640625,0.1506805419921875,1.7631609581012255
1784555025.273132,-0.0576171875,-0.06494140625,1.0068359375,1.0105719823855408,0.3681182861328125,2.8171539306640625,-0.5817413330078125,2.900050054769925
1784555025.28387,-0.0556640587747097,-0.07421875,1.013671875,1.0179084342203146,1.041412353515625,3.368377685546875,-1.1920928955078125,3.7217728831922665
1784555025.294573,-0.0615234337747097,-0.0620117224752903,1.0048828125,1.0086724212972682,1.9550323486328125,3.6106109619140625,-2.1076202392578125,4.615270964463937
1784555025.305275,-0.0649413987994194,-0.04541015625,1.00341796875,1.0065421439656914,2.201080322265625,4.650115966796875,-2.2907257080078125,5.631674472042225
1784555025.315978,-0.0712890625,-0.0454101525247097,1.00537109375,1.0089178601514186,2.689361572265625,4.344940185546875,-2.9621124267578125,5.9063762927121575
1784555025.323884,-0.0493163987994194,-0.04443359375,0.9916991591453552,0.9939183435744045,2.872467041015625,4.40216064453125,-3.2672882080078125,6.189124128353523
1784555025.331789,-0.0688476487994194,-0.06396484375,0.9794921278953552,0.9839900043141399,2.689361572265625,4.03594970703125,-3.0841827392578125,5.747498488316503
1784555025.339693,-0.07861328125,-0.0434570275247097,0.9790038466453552,0.9831160119622593,2.4433135986328125,4.0988922119140625,-3.7555694580078125,6.0724789550952645
1784555025.347598,-0.0742187425494194,-0.06640625,0.9692382216453552,0.9743412862457026,2.506256103515625,4.344940185546875,-3.7555694580078125,6.266109385121722
1784555025.358272,-0.08154296875,-0.0537109337747097,0.9868163466453552,0.9916353272075378,2.323150634765625,4.40216064453125,-3.8776397705078125,6.309685998676606
1784555025.368944,-0.07470703125,-0.0546874962747097,0.9790038466453552,0.9833719512541463,2.3860931396484375,4.1599273681640625,-3.5724639892578125,5.9800447434798985
1784555025.379617,-0.07958984375,-0.0585937462747097,1.00146484375,1.0063297688123245,2.8095245361328125,3.6106109619140625,-3.6945343017578125,5.880435642390058
1784555025.390296,-0.0947265550494194,-0.0654296875,1.00439453125,1.0109710869469934,4.825592041015625,3.79180908203125,-2.1686553955078125,6.509010745524481
1784555025.400975,-0.0966796800494194,-0.05126953125,1.0068359375,1.0127655851235056,5.435943603515625,3.05938720703125,-2.1076202392578125,6.584177702346594
1784555025.411654,-0.10009765625,-0.064453125,0.9931640028953552,1.0002742037842094,6.4105987548828125,2.8781890869140625,-1.5583038330078125,7.197781578521476
1784555025.419648,-0.1074218675494194,-0.0458984375,0.9965819716453552,1.0034050779228147,6.2274932861328125,2.3899078369140625,-0.7648468017578125,6.714039225975051
1784555025.427643,-0.1132812425494194,-0.0615234375,0.9941405653953552,1.0024635838971674,6.5326690673828125,1.6574859619140625,0.2117156982421875,6.742985124910524
1784555025.435638,-0.0966796800494194,-0.048828125,0.9926757216453552,0.9985670907202983,6.290435791015625,1.049041748046875,1.1882781982421875,6.4870699168772115
1784555025.443633,-0.10546875,-0.0380859412252903,0.9799804091453552,0.9863750800046991,5.9223175048828125,0.0705718994140625,1.9817352294921875,6.245486333460249
1784555025.454295,-0.0991210862994194,-0.0400390625,0.9819335341453552,0.9877355829138906,5.3730010986328125,-0.7228851318359375,2.5920867919921875,6.009211067765819
1784555025.464957,-0.10888671875,-0.0288085974752903,0.9467772841453552,0.9534534485659432,4.337310791015625,-0.720977783203125,3.1414031982421875,5.403747580675778
1784555025.475619,-0.1113281175494194,-0.02294921875,0.9477538466453552,0.9545459497737132,2.872467041015625,-1.33514404296875,3.9958953857421875,5.099103494830411
1784555025.48629,-0.1162109300494194,-0.015625,0.9423827528953552,0.9496496058244741,-1.277923583984375,-1.64031982421875,6.1931610107421875,6.5329152081751145
1784555025.49696,-0.1064453050494194,-0.0166015625,0.9584960341453552,0.9645314211143561,-2.559661865234375,-1.82342529296875,7.2917938232421875,7.9402144696504395
1784555025.507631,-0.109375,-0.0546874962747097,1.03173828125,1.038959813404975,-2.9888153076171875,-2.1877288818359375,7.1697235107421875,8.069951042227903
1784555025.515662,-0.0942382737994194,-0.0712890625,1.07373046875,1.0802129892770767,-1.9512176513671875,-3.5305023193359375,5.8879852294921875,7.137231046600739
1784555025.523693,-0.0878906175494194,-0.06689453125,1.05029296875,1.0560847310562083,-0.240325927734375,-3.16619873046875,6.1321258544921875,6.9054716310831985
1784555025.531724,-0.0830078050494194,-0.060546875,1.00146484375,1.00672143765721,0.9784698486328125,-2.8591156005859375,6.0710906982421875,6.781599186657983
1784555025.539756,-0.09130859375,-0.0322265662252903,0.9658202528953552,0.9706619245474314,0.431060791015625,-3.833770751953125,6.0100555419921875,7.141735027422485
1784555025.550427,-0.0610351525247097,-0.0405273400247097,0.9462890028953552,0.9491209786607178,-1.1577606201171875,-4.9953460693359375,5.2165985107421875,7.314833697918343
1784555025.5611,-0.0615234375,-0.0458984375,0.9609374403953552,0.9639982179860784,-2.3174285888671875,-4.5070648193359375,4.7283172607421875,6.9311682037321205
1784555025.571771,-0.0566406212747097,-0.0576171912252903,0.9814452528953552,0.9847652944402054,-2.376556396484375,-4.016876220703125,3.6907196044921875,5.950187062362325
1784555025.579725,-0.0561523400247097,-0.08056640625,1.00634765625,1.011127903059825,-0.484466552734375,-4.14276123046875,1.6765594482421875,4.4953342519643
1784555025.587677,-0.0371093712747097,-0.0571289099752903,1.0029296875,1.0052406556940565,0.6732940673828125,-4.0798187255859375,0.7610321044921875,4.204451878530941
1784555025.59563,-0.0493163987994194,-0.06201171875,1.00048828125,1.0036206262186183,1.163482666015625,-3.95965576171875,-0.0934600830078125,4.12811100293429
1784555025.603584,-0.0546874925494194,-0.06103515625,0.9848632216453552,0.9882669565909167,1.895904541015625,-3.65447998046875,-0.6427764892578125,4.166874076743038
1784555025.614255,-0.0556640587747097,-0.0537109337747097,0.9755858778953552,0.9786476163538521,2.384185791015625,-3.59344482421875,-0.8869171142578125,4.402704800273206
1784555025.624928,-0.0590820275247097,-0.06787109375,0.9697265028953552,0.9738925309092925,2.689361572265625,-3.65447998046875,-1.3141632080078125,4.723866481104996
1784555025.635599,-0.0527343712747097,-0.0673828125,0.9824218153953552,0.9861409537681997,3.2367706298828125,-3.5915374755859375,-0.8258819580078125,4.904885988233876
1784555025.643626,-0.0468749962747097,-0.06787109375,0.9985350966453552,1.0019361705593446,3.360748291015625,-3.040313720703125,-1.6193389892578125,4.812524842324519
1784555025.651653,-0.0576171875,-0.06005859375,0.9833983778953552,0.9869139499601034,3.604888916015625,-2.49481201171875,-1.3141632080078125,4.576716727951365
1784555025.659681,-0.0590820275247097,-0.0581054650247097,0.9931640028953552,0.9966151050878637,3.9081573486328125,-2.3097991943359375,-1.2531280517578125,4.7094793867188685
1784555025.667707,-0.0639648362994194,-0.052734375,0.9790038466453552,0.9825074790228593,4.3964385986328125,-1.8825531005859375,-0.7648468017578125,4.843311796512107
1784555025.678359,-0.06982421875,-0.0576171912252903,0.9726561903953552,0.9768598809261977,4.8847198486328125,-2.0046234130859375,-0.6427764892578125,5.319037943374937
1784555025.689009,-0.0610351525247097,-0.0561523474752903,0.9799804091453552,0.9834835932944678,4.5795440673828125,-1.9435882568359375,-1.0089874267578125,5.076200823900392
1784555025.699661,-0.0786132737994194,-0.06591796875,0.9863280653953552,0.9916492716722645,4.7054290771484375,-1.9435882568359375,0.0286102294921875,5.091111534568473
1784555025.707651,-0.0595703050494194,-0.04150390625,0.9809569716453552,0.9836400640972875,4.520416259765625,-2.00653076171875,0.2727508544921875,4.9532536668237865
1784555025.715643,-0.0673828050494194,-0.04931640625,0.9799804091453552,0.9835314700864639,4.276275634765625,-2.18963623046875,0.9441375732421875,4.896165426482156
1784555025.723635,-0.06494140625,-0.0478515662252903,0.9921874403953552,0.9954612375749381,3.9691925048828125,-2.2487640380859375,1.4324188232421875,4.781553359002177
1784555025.731627,-0.0585937425494194,-0.06103515625,0.9941405653953552,0.9977344239470772,3.971099853515625,-1.880645751953125,1.9207000732421875,4.795367687913378
1784555025.742267,-0.0722656175494194,-0.05224609375,1.0029296875,1.0068862556718015,4.2743682861328125,-1.2722015380859375,2.4089813232421875,5.068718971765535
1784555025.752908,-0.06640625,-0.0478515662252903,0.9853515028953552,0.988745238515671,4.5795440673828125,-0.9670257568359375,2.4700164794921875,5.2922910056466295
1784555025.763547,-0.0688476487994194,-0.05078125,1.0146484375,1.0182485874372535,5.008697509765625,-0.904083251953125,3.2634735107421875,6.046046363212116
1784555025.771564,-0.0683593675494194,-0.04150390625,0.9873046278953552,0.9905382403669992,5.4340362548828125,0.0095367431640625,4.3010711669921875,6.9302275685855035
1784555025.77958,-0.0781249925494194,-0.041015625,0.9790038466453552,0.9829721907060187,5.0106048583984375,-0.2956390380859375,4.9724578857421875,7.065330913221692
1784555025.787596,-0.076171875,-0.0258789025247097,0.9843749403953552,0.9876567700447652,5.2509307861328125,-1.3942718505859375,5.3997039794921875,7.659834931657304
1784555025.795612,-0.0776367112994194,-0.02978515625,0.9765624403953552,0.980096329176453,4.703521728515625,-2.31170654296875,6.3152313232421875,8.206658909536962
1784555025.806297,-0.0830078050494194,-0.01806640625,0.9814452528953552,0.9851149553045777,3.9081573486328125,-2.8591156005859375,7.1086883544921875,8.601260721573285
1784555025.816983,-0.080078125,-0.0239257849752903,0.9775390028953552,0.9811052193683636,2.9315948486328125,-3.1032562255859375,7.5969696044921875,8.714263866199286
1784555025.827667,-0.0712890625,-0.0229492224752903,0.9790038466453552,0.9818642110754172,2.201080322265625,-3.10516357421875,7.7190399169921875,8.606414622119868
1784555025.835653,-0.0737304612994194,-0.03125,0.9829100966453552,0.9861668223535036,1.224517822265625,-2.67791748046875,7.4748992919921875,8.033978177383329
1784555025.843639,-0.0595703087747097,-0.0283203162252903,0.9838866591453552,0.9860951374197233,0.3070831298828125,-1.8825531005859375,7.5359344482421875,7.773584387744667
1784555025.851625,-0.052734375,-0.03076171875,1.00634765625,1.008197799485281,-0.240325927734375,-1.15203857421875,6.9866180419921875,7.0850392442611145
1784555025.859611,-0.0507812462747097,-0.0366210974752903,0.9887694716453552,0.9907496695994111,-0.972747802734375,-0.35858154296875,6.0710906982421875,6.158974044186679
1784555025.870311,-0.0336913987994194,-0.02978515625,0.9941405653953552,0.9951571381698947,-0.9746551513671875,0.5588531494140625,5.2165985107421875,5.336213032570403
1784555025.881011,-0.0312499962747097,-0.0415039099752903,0.9711913466453552,0.9725799548670664,-1.583099365234375,1.28936767578125,3.6296844482421875,4.164526599430746
1784555025.891711,-0.0268554650247097,-0.0205078087747097,0.9707030653953552,0.9712910106607456,-2.071380615234375,1.96075439453125,2.1648406982421875,3.5807416407230597
1784555025.899679,-0.02392578125,-0.03173828125,0.9863280653953552,0.9871285701931999,-2.6798248291015625,2.0236968994140625,0.2117156982421875,3.364763556663304
1784555025.907647,-0.029296867549419403,-0.02490234375,0.9873046278953552,0.9880530661032519,-2.559661865234375,2.32696533203125,-1.3141632080078125,3.7004947585548353
1784555025.915616,-0.015136711299419403,-0.0302734375,1.0009765625,1.0015486407166379,-2.254486083984375,2.63214111328125,-3.2672882080078125,4.762987148554105
1784555025.923584,-0.0175781212747097,-0.0346679650247097,0.9897460341453552,0.9905089955436859,-2.071380615234375,2.75421142578125,-4.9152374267578125,6.0029873556816264
1784555025.934287,-0.0346679650247097,-0.0283203162252903,0.9956054091453552,0.9966112776953435,-2.193450927734375,2.26593017578125,-6.5631866455078125,7.281557901827529
1784555025.944992,-0.0458984337747097,-0.0463867224752903,1.00390625,1.0060249266464691,-1.888275146484375,2.81524658203125,-7.6618194580078125,8.378226169874884
1784555025.955695,-0.0600585900247097,-0.0493164025247097,0.9985350966453552,1.0015545322279182,-1.766204833984375,2.75421142578125,-8.577346801757812,9.1801981596869
1784555025.963806,-0.0576171875,-0.046875,0.9755858778953552,0.9784093269533264,-1.7032623291015625,3.0002593994140625,-9.126663208007812,9.756979057982669
1784555025.971917,-0.068359375,-0.0483398400247097,0.9858397841453552,0.9893886113594423,-1.522064208984375,3.24249267578125,-8.943557739257812,9.63419240228285
1784555025.980028,-0.0727538987994194,-0.05224609375,0.9912108778953552,0.9952496111834109,-1.2798309326171875,3.1833648681640625,-8.882522583007812,9.522131407284231
1784555025.98814,-0.0683593675494194,-0.04736328125,0.9775390028953552,0.9810702246649669,-1.094818115234375,2.75421142578125,-8.455276489257812,8.959687929450737
1784555025.99863,-0.0839843675494194,-0.052734375,0.9897460341453552,0.99470171428714,-0.9746551513671875,3.1223297119140625,-7.7228546142578125,8.386976742959952
1784555026.009121,-0.0937499925494194,-0.05029296875,0.9858397841453552,0.991563676125979,-0.911712646484375,2.696990966796875,-6.9904327392578125,7.5479222377307895
1784555026.019612,-0.09130859375,-0.0390624962747097,0.9877929091453552,0.9927728689210127,-0.4863739013671875,2.8781890869140625,-5.4645538330078125,6.195311177479524
1784555026.030298,-0.1132812425494194,-0.0478515625,0.9858397841453552,0.9934799907149576,-0.728607177734375,1.89971923828125,-3.7555694580078125,4.271311690530561
1784555026.040985,-0.1030273362994194,-0.04931640625,0.9843749403953552,0.9909796986965614,-0.0553131103515625,0.5588531494140625,-2.0465850830078125,2.122236293341737
1784555026.051672,-0.10986328125,-0.0581054650247097,0.9843749403953552,0.9921896033073081,-0.545501708984375,-1.02996826171875,-0.3376007080078125,1.21341706461554
1784555026.062373,-0.1123046800494194,-0.05322265625,0.9877929091453552,0.9955801442662223,0.1239776611328125,-2.9201507568359375,3.5686492919921875,4.612798355916483
1784555026.073074,-0.0834960862994194,-0.060546875,0.9965819716453552,1.001904759300069,-0.1811981201171875,-3.9577484130859375,5.0945281982421875,6.453744868113633
1784555026.083776,-0.0878906175494194,-0.0478515625,0.9824218153953552,0.9875055220360113,-0.057220458984375,-4.75311279296875,6.3762664794921875,7.953120747298212
1784555026.091854,-0.0937499925494194,-0.04296875,0.9877929091453552,0.9931617219453348,-0.240325927734375,-5.30242919921875,7.5969696044921875,9.267548712353616
1784555026.099936,-0.0629882737994194,-0.046875,0.9741210341453552,0.9772801939186361,-0.1811981201171875,-5.8498382568359375,7.9021453857421875,9.833480670000926
1784555026.108018,-0.0576171875,-0.0263671875,0.9926757216453552,0.9946959621996045,-0.606536865234375,-5.60760498046875,8.085250854492188,9.858214948251682
1784555026.1161,-0.0439453050494194,-0.0341796875,0.9833983778953552,0.984972999894261,-0.911712646484375,-5.481719970703125,8.268356323242188,9.962238206099274
1784555026.126737,-0.0366210900247097,-0.0371093787252903,0.9931640028953552,0.9945315213059364,-1.2149810791015625,-5.3615570068359375,7.7190399169921875,9.476605394351138
1784555026.137374,-0.0346679650247097,-0.0288085974752903,0.9907225966453552,0.9917474812628279,-1.705169677734375,-5.05828857421875,6.8035125732421875,8.647639577607363
1784555026.148011,-0.0224609375,-0.02734375,1.00341796875,1.0040417294056145,-2.6798248291015625,-4.0187835693359375,5.8879852294921875,7.615802817467892
1784555026.158546,-0.0063476525247097015,-0.014648433774709702,0.9873046278953552,0.9874336927450938,-4.4536590576171875,-3.2863616943359375,3.9348602294921875,6.791051259792809
1784555026.169081,-0.0185546875,-0.01513671875,0.9697265028953552,0.9700221065008748,-5.733489990234375,-2.18963623046875,2.4700164794921875,6.615768715641603
1784555026.179616,-0.030273430049419403,0.00390625,0.9731444716453552,0.9736230800725387,-7.0781707763671875,-1.7604827880859375,1.4324188232421875,7.433143673557228
1784555026.188015,-0.020019523799419403,-0.005859375,0.9716796278953552,0.9719034997752617,-8.234024047851562,-0.7228851318359375,0.4558563232421875,8.278255850229998
1784555026.196415,-0.0317382775247097,-0.0195312462747097,0.9672850966453552,0.9680027097242513,-9.702682495117188,-0.1735687255859375,-0.2155303955078125,9.706627996113932
1784555026.204815,-0.0405273362994194,-0.00146484375,0.9599608778953552,0.9608170990591077,-10.858535766601562,0.3757476806640625,-1.3141632080078125,10.944222688312367
1784555026.213216,-0.046875,-0.0107421875,0.9775390028953552,0.9787211872637327,-11.838912963867188,0.7419586181640625,-1.4972686767578125,11.956260964343768
1784555026.223372,-0.0522460900247097,-0.0195312462747097,0.9970702528953552,0.9986291667644807,-12.754440307617188,1.5354156494140625,-1.8024444580078125,12.972357334009834
1784555026.233529,-0.0458984337747097,-0.0493164025247097,0.9716796278953552,0.9740123577490208,-13.851165771484375,1.59454345703125,-1.5583038330078125,14.029457327404662
1784555026.243686,-0.0585937462747097,-0.06787109375,0.9667968153953552,0.9709458248161568,-14.219284057617188,2.1457672119140625,-1.7414093017578125,14.485332664291159
1784555026.254356,-0.0454101487994194,-0.06103515625,0.9965819716453552,0.9994813645691404,-14.095306396484375,3.73077392578125,-1.8024444580078125,14.69166915364846
1784555026.265028,-0.06298828125,-0.0771484375,1.0087890625,1.0136936310360982,-13.729095458984375,4.21905517578125,-1.5583038330078125,14.447034281614991
1784555026.275701,-0.05126953125,-0.0908203125,1.01123046875,1.016594292196025,-12.937545776367188,4.6482086181640625,-1.8024444580078125,13.86487432679338
1784555026.283686,-0.0478515587747097,-0.1025390625,1.01123046875,1.0175416905188175,-11.959075927734375,5.01251220703125,-1.8634796142578125,13.100279842190682
1784555026.291674,-0.0317382775247097,-0.08984375,0.9960936903953552,1.0006407235965042,-10.860443115234375,5.56182861328125,-1.9245147705078125,12.352607792877523
1784555026.299662,-0.0517578087747097,-0.08251953125,0.9877929091453552,0.992584089719719,-10.433197021484375,5.68389892578125,-1.9855499267578125,12.045775840486806
1784555026.30765,-0.0551757775247097,-0.08740234375,0.9970702528953552,1.0024134004128522,-9.944915771484375,5.56182861328125,-2.4738311767578125,11.659979756265944
1784555026.318308,-0.0629882737994194,-0.08837890625,0.9926757216453552,0.9985907280013687,-10.129928588867188,6.1130523681640625,-2.9621124267578125,12.196678748750337
1784555026.328966,-0.0478515625,-0.08447265625,0.9819335341453552,0.9867212712649959,-9.944915771484375,6.53839111328125,-3.0231475830078125,12.279712104149668
1784555026.339624,-0.06689453125,-0.08447265625,0.9941405653953552,0.9999629851797938,-9.881973266601562,6.1130523681640625,-3.5114288330078125,12.13890181799914
1784555026.3503,-0.0498046837747097,-0.0771484375,0.9838866591453552,0.9881626111014313,-10.066986083984375,6.17218017578125,-3.8776397705078125,12.428841745201602
1784555026.360976,-0.0541992112994194,-0.0703125,0.9746093153953552,0.9786443275353575,-10.311126708984375,5.68389892578125,-3.9997100830078125,12.434778717586516
1784555026.371652,-0.0556640550494194,-0.0810546875,0.9790038466453552,0.9839293069812839,-9.944915771484375,5.68389892578125,-4.3659210205078125,12.258438850756155
1784555026.382303,-0.0727538987994194,-0.08447265625,0.9838866591453552,0.9901826687478705,-10.007858276367188,5.5637359619140625,-4.9152374267578125,12.460816349467148
1784555026.392952,-0.0776367112994194,-0.0869140550494194,0.9858397841453552,0.9927041814711387,-9.883880615234375,4.70733642578125,-4.7321319580078125,11.926574743390983
1784555026.403602,-0.0751953125,-0.0830078125,0.9785155653953552,0.9849047383777781,-9.881973266601562,4.6482086181640625,-4.7931671142578125,11.92617667087844
1784555026.411611,-0.0830078125,-0.09765625,0.9833983778953552,0.9917153874712813,-10.190963745117188,3.9768218994140625,-4.2438507080078125,11.733759981600553
1784555026.419618,-0.0922851487994194,-0.0986328125,0.9829100966453552,0.992147790643094,-10.190963745117188,3.7326812744140625,-4.2438507080078125,11.653279383182776
1784555026.427625,-0.08349609375,-0.08837890625,0.9741210341453552,0.9816792846474206,-9.456634521484375,3.54766845703125,-3.8166046142578125,10.79723847729217
1784555026.435632,-0.0849609300494194,-0.125,0.9770507216453552,0.9886715694822885,-9.090423583984375,3.12042236328125,-3.3283233642578125,10.1710654839397
1784555026.44365,-0.08447265625,-0.1220703125,0.9726561903953552,0.9839191306007744,-8.543014526367188,2.9392242431640625,-3.0231475830078125,9.526886042037562
1784555026.451666,-0.0971679612994194,-0.13427734375,0.9843749403953552,0.9982314566401923,-8.174896240234375,3.05938720703125,-2.4738311767578125,9.072409785290981
1784555026.459683,-0.0751953125,-0.13671875,0.9970702528953552,1.00920535117108,-7.3833465576171875,2.3899078369140625,-2.4127960205078125,8.12693364654832
1784555026.4677,-0.0791015625,-0.15185546875,0.9902343153953552,1.004928425294922,-6.343841552734375,2.44903564453125,-1.8634796142578125,7.050862181828427
1784555026.477509,-0.0722656175494194,-0.1455078125,0.9990233778953552,1.0121474954569516,-5.5522918701171875,2.3899078369140625,-1.8634796142578125,6.325516639189807
1784555026.487319,-0.08447265625,-0.1435546875,0.9780272841453552,0.9921093420031346,-4.7588348388671875,1.7185211181640625,-1.9245147705078125,5.413278208174293
1784555026.497128,-0.080078125,-0.14501953125,0.9750975966453552,0.9890695089481999,-4.695892333984375,1.232147216796875,-1.9855499267578125,5.245188279545498
1784555026.506936,-0.083984375,-0.13330078125,0.9726561903953552,0.9853337192243076,-4.5757293701171875,0.8640289306640625,-1.6803741455078125,4.950505280319235
1784555026.516746,-0.06982421875,-0.142578125,0.9799804091453552,0.9927565389163958,-4.2705535888671875,0.8640289306640625,-1.7414093017578125,4.692193549360419
1784555026.524557,-0.0820312425494194,-0.1337890625,0.9760741591453552,0.9886098331243437,-3.719329833984375,0.12969970703125,-1.7414093017578125,4.10886149489355
1784555026.532369,-0.0820312425494194,-0.138671875,0.9790038466453552,0.9921731428619802,-3.108978271484375,-0.05340576171875,-1.5583038330078125,3.478061083982507
1784555026.540181,-0.07470703125,-0.1376953125,0.9921874403953552,1.0044784997604217,-2.559661865234375,-0.35858154296875,-1.1310577392578125,2.8213013303842542
1784555026.547993,-0.07568359375,-0.13232421875,0.9833983778953552,0.9951432433966121,-1.583099365234375,-0.54168701171875,-1.0700225830078125,1.9860958554452959
1784555026.555805,-0.078125,-0.1318359375,0.9833983778953552,0.9952670996716007,-0.606536865234375,-0.66375732421875,-0.9479522705078125,1.3065505200731022
1784555026.563617,-0.0654296875,-0.13330078125,0.9809569716453552,0.9921324117817311,0.247955322265625,-0.232696533203125,-0.7038116455078125,0.7816523208927468
1784555026.573227,-0.0654296875,-0.1328125,0.9907225966453552,1.0017242473187484,1.224517822265625,-0.05340576171875,-1.3751983642578125,1.842136426405024
1784555026.582838,-0.06689453125,-0.13427734375,0.9970702528953552,1.0082928010079812,2.3860931396484375,0.3757476806640625,-1.3141632080078125,2.749845764380822
1784555026.592448,-0.0776367112994194,-0.1240234375,0.9741210341453552,0.9850487608007646,3.177642822265625,1.049041748046875,-1.3751983642578125,3.617882396665051
1784555026.602057,-0.06494140625,-0.12109375,0.9912108778953552,1.000689805580566,3.910064697265625,1.41143798828125,-1.1310577392578125,4.308138198932497
1784555026.611667,-0.0883788987994194,-0.1157226487994194,0.9980468153953552,1.0086129123300782,4.2133331298828125,1.2912750244140625,-0.9479522705078125,4.507569273921872
1784555026.619648,-0.0673828050494194,-0.12255859375,0.9863280653953552,0.9961948122254249,4.2133331298828125,1.1081695556640625,-1.1920928955078125,4.516779970176651
1784555026.627628,-0.0791015625,-0.1162109375,0.9882811903953552,0.9982293075610587,4.947662353515625,1.41143798828125,-0.8869171142578125,5.2209330513541925
1784555026.635607,-0.0703125,-0.13232421875,0.9794921278953552,0.9908876702901388,5.0678253173828125,1.7795562744140625,-1.0089874267578125,5.465137656881848
1784555026.643587,-0.0688476487994194,-0.115234375,0.9716796278953552,0.9809078749779231,4.703521728515625,1.77764892578125,-0.5817413330078125,5.06177590697964
1784555026.654265,-0.0810546875,-0.1103515625,0.9755858778953552,0.9851472655703638,4.459381103515625,1.77764892578125,-0.9479522705078125,4.893335164985572
1784555026.664943,-0.0791015625,-0.1171875,0.9809569716453552,0.9910936119084905,4.764556884765625,1.41143798828125,-0.5207061767578125,4.996428166745187
1784555026.675621,-0.07177734375,-0.1123046875,0.9902343153953552,0.9991638150457542,4.7626495361328125,1.7185211181640625,-0.8258819580078125,5.130129281622907
1784555026.686292,-0.0732421875,-0.10791015625,0.9877929091453552,0.99636532015598,4.825592041015625,1.96075439453125,-0.8869171142578125,5.283703086808565
1784555026.696963,-0.0747070237994194,-0.10498046875,0.9755858778953552,0.9840578455420127,5.374908447265625,1.89971923828125,-0.9479522705078125,5.77902997984473
1784555026.707634,-0.06396484375,-0.10693359375,0.9873046278953552,0.9951365348392339,5.985260009765625,2.26593017578125,-1.0089874267578125,6.478875872662711
1784555026.718278,-0.0654296875,-0.103515625,1.00244140625,1.0098937080653418,7.083892822265625,2.26593017578125,-1.9855499267578125,7.69794684253603
1784555026.728923,-0.0673828050494194,-0.10400390625,1.005859375,1.0134645219281124,7.877349853515625,2.93731689453125,-1.7414093017578125,8.585626221180956
1784555026.739568,-0.0654296875,-0.119140625,0.9902343153953552,0.9995196505913458,8.363723754882812,2.5119781494140625,-1.9855499267578125,8.955686337895756
1784555026.750251,-0.0742187425494194,-0.10009765625,0.9824218153953552,0.9902931817886386,8.548736572265625,2.44903564453125,-1.8634796142578125,9.085770679635871
1784555026.760934,-0.0878906175494194,-0.1064453050494194,0.9843749403953552,0.9940067338296262,8.485794067382812,2.1457672119140625,-1.9855499267578125,8.975267483111729
1784555026.771618,-0.07958984375,-0.10888671875,0.9765624403953552,0.9858321666182448,8.121490478515625,1.96075439453125,-1.8634796142578125,8.560123927902447
1784555026.779624,-0.0771484300494194,-0.09765625,0.9873046278953552,0.9951176069624829,7.8754425048828125,1.3523101806640625,-1.4362335205078125,8.118750162301634
1784555026.787632,-0.0849609375,-0.09619140625,0.9682616591453552,0.9767301511206397,8.123397827148438,1.5354156494140625,-1.2531280517578125,8.361663912684358
1784555026.79564,-0.08154296875,-0.08203125,0.9672850966453552,0.9741759799550286,8.243560791015625,1.59454345703125,-1.1310577392578125,8.472198944846982
1784555026.803648,-0.0810546875,-0.087890625,0.9809569716453552,0.9882161729845548,8.180618286132812,1.3523101806640625,-0.6427764892578125,8.31651489406956
1784555026.814328,-0.0976562425494194,-0.10009765625,0.9956054091453552,1.0053787411792157,8.058547973632812,1.0471343994140625,-0.5817413330078125,8.147092050069611
1784555026.825008,-0.1020507737994194,-0.0927734375,0.9775390028953552,0.9872202253399552,8.121490478515625,0.43487548828125,0.3948211669921875,8.142702747665107
1784555026.835688,-0.10400390625,-0.08740234375,0.9721679091453552,0.9816141939582493,7.9975128173828125,-0.7839202880859375,1.6765594482421875,8.208872874260221
1784555026.846362,-0.1118163987994194,-0.09521484375,0.9843749403953552,0.9952702129518228,7.7533721923828125,-2.2487640380859375,3.2024383544921875,8.684890987624788
1784555026.857038,-0.1215820237994194,-0.08349609375,0.9814452528953552,0.9924659040055226,7.3261260986328125,-3.8356781005859375,4.7283172607421875,9.525835093188203
1784555026.867714,-0.1225585862994194,-0.0830078125,1.0029296875,1.0137942898244174,7.633209228515625,-4.57000732421875,6.3152313232421875,10.910224412713443
1784555026.875686,-0.0981445237994194,-0.08154296875,0.9848632216453552,0.9930947430401826,7.8754425048828125,-6.7043304443359375,9.122848510742188,13.79119307038066
1784555026.883661,-0.0859375,-0.0947265625,0.9755858778953552,0.9839340326963832,7.938385009765625,-7.129669189453125,9.855270385742188,14.525029903253065
1784555026.891634,-0.07177734375,-0.0810546875,0.9843749403953552,0.9903109979798707,7.755279541015625,-7.74383544921875,10.099411010742188,14.903336907812728
1784555026.899608,-0.0361328087747097,-0.08154296875,0.9848632216453552,0.9888935235768214,7.6351165771484375,-7.0095062255859375,9.794235229492188,14.260267402955696
1784555026.907614,-0.0209960900247097,-0.0791015625,0.9941405653953552,0.9975035622747739,8.180618286132812,-5.6667327880859375,8.268356323242188,12.93831875952505
1784555026.91562,-0.00390625,-0.08154296875,0.9931640028953552,0.9965135479203237,8.243560791015625,-3.47137451171875,5.5828094482421875,10.54393175486085
1784555026.923626,0.0004882849752902985,-0.0771484375,0.9946288466453552,0.9976164906465701,8.853912353515625,-1.51824951171875,3.0193328857421875,9.476983518952382
1784555026.931632,0.02001953125,-0.07470703125,0.9921874403953552,0.9951973869680049,9.403228759765625,0.43487548828125,-0.8258819580078125,9.449439602820584
1784555026.942281,0.0166015625,-0.0703125,1.0009765625,1.003580359616512,9.708404541015625,1.89971923828125,-4.1217803955078125,10.716861739571955
1784555026.952929,-0.0019531212747097015,-0.07177734375,0.9990233778953552,1.0016004749100138,10.257720947265625,3.24249267578125,-7.7838897705078125,13.27868735018199
1784555026.963576,-0.0063476525247097015,-0.0703125,0.9882811903953552,0.9907996021588245,10.316848754882812,3.3054351806640625,-10.835647583007812,15.322353882737527
1784555026.971591,-0.012207027524709702,-0.0532226525247097,0.9794921278953552,0.9810129922033275,10.499954223632812,3.8547515869140625,-13.093948364257812,17.220906836199156
1784555026.979604,-0.0405273400247097,-0.0625,0.9902343153953552,0.9930320813931373,10.623931884765625,4.03594970703125,-14.558792114257812,18.46930552446412
1784555026.987618,-0.0561523400247097,-0.0620117224752903,0.9804686903953552,0.9840311945564459,10.133743286132812,3.9768218994140625,-15.901565551757812,19.27090170193787
1784555026.995632,-0.0791015550494194,-0.0478515625,0.9824218153953552,0.986762104769753,9.828567504882812,3.7937164306640625,-16.328811645507812,19.432527198200454
1784555027.006301,-0.0859375,-0.0473632849752903,0.9877929091453552,0.992654706344429,9.586334228515625,4.28009033203125,-16.267776489257812,19.361237798643113
1784555027.01697,-0.10498046875,-0.0332031287252903,0.9804686903953552,0.9866317445844224,9.462356567382812,4.3430328369140625,-15.657424926757812,18.80300724266901
1784555027.027639,-0.11474609375,-0.0493164025247097,0.9824218153953552,0.9903289337152421,9.157180786132812,4.4040679931640625,-14.375686645507812,17.60426486304281
1784555027.038295,-0.12841796875,-0.0517578125,0.9848632216453552,0.9945479431391577,8.731842041015625,4.40216064453125,-12.483596801757812,15.857625070557242
1784555027.048953,-0.11865234375,-0.0581054650247097,0.9863280653953552,0.9951370138476662,8.609771728515625,3.91387939453125,-10.408401489257812,14.063479039471972
1784555027.059611,-0.1328125,-0.05224609375,0.9912108778953552,1.001432882886549,8.731842041015625,3.368377685546875,-8.516311645507812,12.653797758189041
1784555027.067648,-0.11376953125,-0.0585937462747097,0.9902343153953552,0.9984691946824688,8.365631103515625,2.57110595703125,-4.5490264892578125,9.863468538113704
1784555027.075685,-0.1074218675494194,-0.06689453125,0.9897460341453552,0.9978033614121676,7.8754425048828125,2.2068023681640625,-3.4503936767578125,8.876811807426114
1784555027.083723,-0.0883788987994194,-0.0498046875,0.9799804091453552,0.9852172039498034,8.180618286132812,2.3899078369140625,-2.6569366455078125,8.927120888091306
1784555027.091759,-0.0786132737994194,-0.05908203125,0.9824218153953552,0.9873314319917066,7.9975128173828125,2.5119781494140625,-2.0465850830078125,8.6289487186636
1784555027.102376,-0.076171875,-0.0581054650247097,0.9946288466453552,0.9992321763163069,8.363723754882812,2.1457672119140625,-1.4362335205078125,8.753225616945262
1784555027.112992,-0.07373046875,-0.0434570275247097,0.9956054091453552,0.9992771517366282,8.668899536132812,1.6574859619140625,-1.7414093017578125,8.99608721821629
1784555027.123607,-0.0571289025247097,-0.0473632849752903,0.9921874403953552,0.9949587474592174,9.340286254882812,0.9860992431640625,-1.6803741455078125,9.541330950628044
1784555027.131604,-0.064453125,-0.0439453087747097,0.9956054091453552,0.9986568610914663,9.281158447265625,0.49591064453125,-2.1686553955078125,9.544050278318666
1784555027.139601,-0.0507812462747097,-0.0532226525247097,0.9824218153953552,0.9851720707976267,9.586334228515625,-0.05340576171875,-2.2296905517578125,9.842366385823741
1784555027.147598,-0.0625,-0.0419921875,0.9907225966453552,0.9935798192972471,9.891510009765625,-0.54168701171875,-2.9010772705078125,10.322385597400215
1784555027.155596,-0.0712890625,-0.0522460974752903,0.9887694716453552,0.9927118681628427,9.708404541015625,-0.66375732421875,-3.5114288330078125,10.345231991924852
1784555027.166281,-0.0673828050494194,-0.0478515625,1.00048828125,1.003895918593456,10.013580322265625,-0.54168701171875,-3.6945343017578125,10.6871324215617
1784555027.176967,-0.0712890625,-0.0429687537252903,0.9760741591453552,0.9796168681582335,9.950637817382812,-0.6008148193359375,-3.9386749267578125,10.718644111945004
1784555027.187653,-0.0576171875,-0.0322265625,0.9897460341453552,0.9919453128738677,9.950637817382812,-0.2956390380859375,-4.3048858642578125,10.845950291138905
1784555027.195637,-0.07568359375,-0.0346679650247097,0.9892577528953552,0.9927541366448378,10.074615478515625,-0.35858154296875,-4.2438507080078125,10.937857495632446
1784555027.203621,-0.07177734375,-0.0385742150247097,0.9916991591453552,0.9950412953190348,9.950637817382812,-0.9670257568359375,-3.7555694580078125,10.679636404907903
1784555027.211606,-0.06591796875,-0.0361328087747097,0.9843749403953552,0.9872409947689748,9.828567504882812,-1.2722015380859375,-3.5114288330078125,10.514245973954822
1784555027.219589,-0.0844726487994194,-0.02587890625,0.9814452528953552,0.9854136850149353,9.708404541015625,-0.84686279296875,-3.2672882080078125,10.278398102638102
1784555027.22759,-0.0810546875,-0.0175781287252903,0.9853515028953552,0.9888359000528555,9.828567504882812,-0.6618499755859375,-2.5348663330078125,10.17174183286412
1784555027.235591,-0.0878906175494194,-0.0283203125,0.9882811903953552,0.9925857706226582,10.135650634765625,-0.54168701171875,-2.2907257080078125,10.405395853979678
1784555027.243593,-0.0673828050494194,-0.03662109375,0.9936522841453552,0.9966074496566119,10.194778442382812,0.5588531494140625,-2.3517608642578125,10.477433058461314
1784555027.251594,-0.0522460900247097,-0.0341796837747097,0.9995116591453552,1.0014596654250785,10.622024536132812,1.9626617431640625,-2.7179718017578125,11.138528497042952
1784555027.262278,-0.0825195237994194,-0.0302734375,1.005859375,1.0096925448380512,11.051177978515625,2.81524658203125,-3.0231475830078125,11.798032435076339
1784555027.272963,-0.05712890625,-0.00732421875,0.9916991591453552,0.9933703128034498,11.659622192382812,3.3664703369140625,-3.3893585205078125,12.600304098670277
1784555027.283648,-0.07080078125,-0.0371093787252903,0.9956054091453552,0.9988092847658544,11.724472045898438,3.9768218994140625,-3.5724639892578125,12.885684154489315
1784555027.294306,-0.0581054612994194,-0.025390625,0.9956054091453552,0.9976227038265514,11.964797973632812,4.1599273681640625,-3.7555694580078125,13.212330915178038
1784555027.304961,-0.04736328125,-0.02099609375,0.9843749403953552,0.9857373583474883,11.842727661132812,3.6716461181640625,-4.4879913330078125,13.186100632026996
1784555027.315618,-0.0527343712747097,-0.0034179724752902985,0.9838866591453552,0.9853048028370658,11.966705322265625,4.03594970703125,-4.8542022705078125,13.529752621191168
1784555027.324043,-0.064453125,-0.014648433774709702,0.9907225966453552,0.9929249948702232,12.147903442382812,4.3430328369140625,-5.5255889892578125,14.034444269231937
1784555027.332469,-0.0541992112994194,-0.009765625,0.9970702528953552,0.9985900115392339,12.086868286132812,4.5871734619140625,-6.0749053955078125,14.284222796511601
1784555027.340894,-0.0615234337747097,-0.009765621274709702,1.00244140625,1.0043750660120898,12.086868286132812,5.5637359619140625,-6.8073272705078125,14.946144900542691
1784555027.34932,-0.0693359375,0.00048827752470970154,0.9892577528953552,0.9916847343321933,12.395858764648438,6.2961578369140625,-7.4787139892578125,15.787022548712798
1784555027.359631,-0.0654296875,0.010253902524709702,0.9785155653953552,0.9807542496692663,11.964797973632812,6.2351226806640625,-7.8449249267578125,15.606921301116545
1784555027.369942,-0.0859375,0.0195312462747097,0.9926757216453552,0.9965800579137735,11.722564697265625,5.992889404296875,-7.8449249267578125,15.32566780274772
1784555027.380254,-0.0937499925494194,0.0234375,0.9921874403953552,0.9968822871269971,10.931015014648438,6.1130523681640625,-8.150100708007812,14.942578092720655
1784555027.388117,-0.080078125,0.0166015587747097,0.9677733778953552,0.9712226463691278,10.499954223632812,5.9299468994140625,-8.577346801757812,14.798114308447545
1784555027.395979,-0.06640625,0.01806640625,0.9833983778953552,0.9858035071559993,10.011672973632812,6.2961578369140625,-9.187698364257812,14.976281263080288
1784555027.403842,-0.0722656175494194,0.01904296875,0.9775390028953552,0.9803914811544711,9.462356567382812,6.7844390869140625,-9.737014770507812,15.178084931025628
1784555027.411705,-0.08984375,0.0166015587747097,0.9863280653953552,0.9905506366432545,9.828567504882812,7.4558258056640625,-10.469436645507812,16.180209557256866
1784555027.422473,-0.0722656175494194,0.00244140625,0.9848632216453552,0.9875139722018846,9.586334228515625,7.33184814453125,-10.835647583007812,16.219280492624193
1784555027.433241,-0.0727538987994194,0.0283203125,0.9946288466453552,0.9976881839882055,9.769439697265625,7.457733154296875,-11.323928833007812,16.712004667730138
1784555027.44401,-0.0893554612994194,0.0224609375,0.9853515028953552,0.9896496735893697,9.037017822265625,7.14874267578125,-11.812210083007812,16.501530838367515
1784555027.454564,-0.0976562425494194,0.0341796800494194,0.9887694716453552,0.9941680241764903,8.609771728515625,6.72149658203125,-11.384963989257812,15.777328371942502
1784555027.46512,-0.0976562425494194,0.0224609375,0.9804686903953552,0.985576018512947,7.6351165771484375,6.9065093994140625,-11.384963989257812,15.349667171230093
1784555027.475674,-0.1142578050494194,0.03271484375,0.9843749403953552,0.9915236408148104,6.8988800048828125,6.7234039306640625,-11.140823364257812,14.728090540536257
1784555027.48368,-0.1132812425494194,0.052734375,0.9501952528953552,0.9583760080704489,4.642486572265625,5.86700439453125,-10.042190551757812,12.522779771956765
1784555027.491688,-0.1162109300494194,0.04150390625,0.9624022841453552,0.9702812535678286,3.299713134765625,5.68389892578125,-9.309768676757812,11.39590306140689
1784555027.499694,-0.13427734375,0.037109375,0.9711913466453552,0.9811320719231763,1.5926361083984375,4.6482086181640625,-8.394241333007812,9.72654207252125
1784555027.507701,-0.1240234375,0.0346679650247097,0.9570311903953552,0.965656450420035,0.0019073486328125,3.6716461181640625,-7.7228546142578125,8.55122635929907
1784555027.518343,-0.1240234375,0.0366210900247097,0.9653319716453552,0.9739552005942692,-1.6460418701171875,2.8781890869140625,-7.2956085205078125,8.013696396964155
1784555027.528985,-0.1298828125,0.0224609375,0.9643554091453552,0.9733218346693937,-2.803802490234375,2.08282470703125,-6.5631866455078125,7.434708205991435
1784555027.539628,-0.13037109375,0.03271484375,0.9799804091453552,0.989155440462143,-4.2705535888671875,0.9860992431640625,-5.3424835205078125,6.910293035729578
1784555027.55029,-0.12890625,0.0283203125,0.9902343153953552,0.9989909212678902,-4.878997802734375,-0.54168701171875,-4.4879913330078125,6.651323972180643
1784555027.560954,-0.130859375,0.04248046875,0.9868163466453552,0.9963610130154111,-5.1860809326171875,-1.0890960693359375,-3.0841827392578125,6.131374141009042
1784555027.571618,-0.14990234375,0.02783203125,0.9799804091453552,0.9917695987143093,-5.6133270263671875,-2.1877288818359375,-1.9855499267578125,6.343343477773481
1784555027.582317,-0.13134765625,0.0185546875,0.9780272841453552,0.9869821942483715,-5.7926177978515625,-3.7136077880859375,0.2727508544921875,6.886196104116222
1784555027.593014,-0.1127929612994194,0.013671875,0.9824218153953552,0.9889700681261356,-5.428314208984375,-4.32586669921875,1.0051727294921875,7.013564718956129
1784555027.60371,-0.1103515625,0.0078124962747097015,0.9873046278953552,0.9934832312162192,-4.9419403076171875,-4.9343109130859375,1.7375946044921875,7.1964875599566485
1784555027.611676,-0.0976562425494194,-0.00927734375,0.9765624403953552,0.9814769537828478,-4.4536590576171875,-5.1174163818359375,1.7375946044921875,7.003018237598614
1784555027.61964,-0.0791015550494194,-0.01611328125,0.9936522841453552,0.996926053241242,-3.841400146484375,-4.993438720703125,1.1272430419921875,6.400114234804504
1784555027.627605,-0.0751953050494194,-0.02099609375,0.9999999403953552,1.0030428957153068,-2.498626708984375,-4.32586669921875,0.4558563232421875,5.016379483023558
1784555027.635571,-0.0624999962747097,-0.0195312462747097,1.00390625,1.006039501165061,-1.2798309326171875,-3.0422210693359375,-1.0089874267578125,3.4512507701050392
1784555027.646266,-0.06982421875,-0.013183597475290298,1.00537109375,1.0078790924086627,0.064849853515625,-2.98309326171875,-1.9245147705078125,3.5506067106222208
1784555027.656962,-0.0605468675494194,-0.01123046875,0.9995116591453552,1.0014068121227717,1.285552978515625,-3.16619873046875,-3.1452178955078125,4.64433595593761
1784555027.667659,-0.0590820237994194,-0.00537109375,0.9995116591453552,1.001270738088259,2.323150634765625,-2.79998779296875,-4.3048858642578125,5.63639980988509
1784555027.678319,-0.0629882737994194,0.00341796875,0.9824218153953552,0.9844449342199451,3.177642822265625,-2.552032470703125,-6.2580108642578125,7.46813119960999
1784555027.688981,-0.06884765625,0.0205078087747097,0.9760741591453552,0.9787141227872266,3.543853759765625,-2.79998779296875,-6.4411163330078125,7.866817064526096
1784555027.699641,-0.0673828050494194,0.00390625,0.9902343153953552,0.9925319645189763,3.7250518798828125,-2.5539398193359375,-6.9293975830078125,8.27134638205913
1784555027.710307,-0.0703125,-0.0034179724752902985,0.9931640028953552,0.9956556969350484,3.9081573486328125,-2.3097991943359375,-7.4787139892578125,8.748715855081139
1784555027.720973,-0.0869140550494194,0.005859375,0.9995116591453552,1.0033005242737716,4.3964385986328125,-1.3942718505859375,-7.6007843017578125,8.890702353961288
1784555027.731637,-0.07568359375,0.011718746274709702,0.9941405653953552,0.9970861543225653,4.3964385986328125,-0.2956390380859375,-7.9059600830078125,9.050982246502405
1784555027.739631,-0.0966796800494194,0.01318359375,0.9936522841453552,0.9984315847697852,4.8847198486328125,1.3523101806640625,-7.0514678955078125,8.68403306682629
1784555027.747626,-0.1025390550494194,0.01171875,1.00537109375,1.0106545517930752,4.3964385986328125,1.4743804931640625,-6.5631866455078125,8.036036904715113
1784555027.755619,-0.1010742038488388,0.015624996274709702,0.9853515028953552,0.9906451026732008,4.337310791015625,1.77764892578125,-6.0138702392578125,7.624889235642878
1784555027.763613,-0.1157226487994194,0.013671875,0.9726561903953552,0.979611512960916,3.7250518798828125,2.1457672119140625,-4.8542022705078125,6.4841042649349125
1784555027.77426,-0.10546875,0.0278320275247097,0.9833983778953552,0.989429456115955,3.177642822265625,1.83868408203125,-3.9386749267578125,5.384360058361811
1784555027.784905,-0.1113281175494194,0.01904296875,0.9750975966453552,0.9816169860997,2.2602081298828125,1.7795562744140625,-3.3283233642578125,4.399215582494141
1784555027.795552,-0.1005859375,0.0327148400247097,0.9760741591453552,0.9817884475445352,1.346588134765625,1.28936767578125,-2.1686553955078125,2.85986622633057
1784555027.806238,-0.1083984300494194,0.0419921875,0.9863280653953552,0.9931548801847364,0.6122589111328125,1.4743804931640625,-1.1310577392578125,1.9565148663936176
1784555027.816923,-0.1113281175494194,0.01611328125,0.9731444716453552,0.9796242903703728,-0.240325927734375,0.743865966796875,0.0286102294921875,0.7822478337021032
1784555027.827608,-0.1201171875,0.0375976525247097,0.9799804091453552,0.9880300220726983,-1.216888427734375,0.31280517578125,1.1882781982421875,1.7293552555698546
1784555027.835618,-0.1176757737994194,0.0205078125,0.9692382216453552,0.9765709848296118,-3.170013427734375,-0.54168701171875,4.2400360107421875,5.321683504594345
1784555027.843627,-0.13330078125,0.013671875,0.9892577528953552,0.9982920014261577,-3.4770965576171875,-1.3942718505859375,5.8269500732421875,6.927304065824364
1784555027.851638,-0.12548828125,0.00341796875,0.9877929091453552,0.9957378282456176,-4.085540771484375,-2.31170654296875,8.207321166992188,9.454932642511192
1784555027.859648,-0.130859375,0.00439453125,0.9960936903953552,1.004662195952319,-4.5757293701171875,-3.8967132568359375,9.855270385742188,11.543310957027925
1784555027.870298,-0.13720703125,0.014648433774709702,0.9902343153953552,0.9998021531398091,-4.512786865234375,-4.505157470703125,12.174606323242188,13.7434612908391
1784555027.880949,-0.14306640625,0.010742183774709702,0.9755858778953552,0.9860786967876299,-4.512786865234375,-5.91278076171875,14.371871948242188,16.18261180785889
1784555027.8916,-0.12744140625,-0.00634765625,0.9956054091453552,1.0037488408393485,-4.4536590576171875,-6.9484710693359375,16.386032104492188,18.347162650730024
1784555027.902288,-0.12646484375,0.01171875,0.9926757216453552,1.000767592476096,-4.512786865234375,-7.74383544921875,17.911911010742188,20.02919840663515
1784555027.912976,-0.12939453125,0.02392578125,0.9853515028953552,0.994099075537225,-4.573822021484375,-8.41522216796875,19.987106323242188,22.163488696436666
1784555027.923664,-0.1083984300494194,0.00146484375,0.9877929091453552,0.9937239036886628,-5.001068115234375,-9.69696044921875,21.696090698242188,24.285017517664627
1784555027.934315,-0.0883788987994194,0.01806640625,0.9804686903953552,0.9846096067139356,-6.7691802978515625,-10.915756225585938,24.381637573242188,27.55793509380148
1784555027.944966,-0.09130859375,0.0209960900247097,0.9746093153953552,0.9791023504947434,-8.234024047851562,-11.098861694335938,26.029586791992188,29.47071888319743
1784555027.955617,-0.1005859375,0.0239257849752903,0.9794921278953552,0.9849339077412295,-9.395599365234375,-12.13836669921875,27.189254760742188,31.22295322356995
1784555027.963937,-0.0854492112994194,0.0185546875,0.9794921278953552,0.9833873462420016,-10.858535766601562,-12.746810913085938,28.043746948242188,32.662527923379955
1784555027.972256,-0.0825195237994194,0.02783203125,0.9707030653953552,0.9746017314470169,-12.327194213867188,-13.479232788085938,29.020309448242188,34.29034549568649
1784555027.980577,-0.0776367112994194,0.02197265625,0.9965819716453552,0.9998429290506653,-13.608932495117188,-13.906478881835938,30.118942260742188,35.85727097052322
1784555027.988897,-0.07080078125,0.012695308774709702,0.9873046278953552,0.9899213856433658,-14.890670776367188,-14.028549194335938,30.241012573242188,36.51097246202916
1784555027.998234,-0.0454101525247097,0.009765621274709702,0.9667968153953552,0.9679119441198145,-18.001556396484375,-13.60321044921875,31.339645385742188,38.61705245258386
1784555028.007571,-0.0454101525247097,0.0048828087747097015,0.9770507216453552,0.9781175984724726,-19.220352172851562,-13.418197631835938,31.095504760742188,38.940985884550834
1784555028.016909,-0.02880859375,0.01220703125,0.9697265028953552,0.9702311256105147,-20.687103271484375,-12.32147216796875,30.546188354492188,38.89530230168165
1784555028.026245,-0.0361328087747097,0.0048828087747097015,0.9697265028953552,0.9704117229862464,-22.274017333984375,-11.03973388671875,30.485153198242188,39.33639711519725
1784555028.035583,-0.0278320275247097,-0.009277347475290298,0.9658202528953552,0.966265725271864,-23.677825927734375,-9.51385498046875,29.386520385742188,38.919409780148534
1784555028.046253,-0.0288085900247097,-0.009277347475290298,0.9765624403953552,0.9770313219269486,-25.083541870117188,-7.8029632568359375,28.348922729492188,38.648825703508415
1784555028.056924,-0.010742180049419403,-0.02685546875,0.9843749403953552,0.9847997938222548,-25.754928588867188,-6.3991546630859375,26.884078979492188,37.775908057852384
1784555028.067595,-0.0009765587747097015,-0.0229492224752903,0.9956054091453552,0.9958703485889873,-25.814056396484375,-5.42449951171875,26.029586791992188,37.05846854843528
1784555028.075603,0.0009765625,-0.037109375,1.00634765625,1.007032107048765,-25.693893432617188,-4.0187835693359375,24.808883666992188,35.941723524424994
1784555028.083611,-0.001953125,-0.060546875,1.01513671875,1.0169426220412083,-24.412155151367188,-3.2253265380859375,23.344039916992188,33.930815640915995
1784555028.09162,0.0,-0.052734375,1.0009765625,1.0023647005860477,-22.884368896484375,-2.31170654296875,21.818161010742188,31.702846509767173
1784555028.107712,0.007812503725290298,-0.08349609375,1.00390625,1.0074027951495017,-20.381927490234375,-0.48065185546875,18.400192260742188,27.46308558147853
1784555028.115795,0.0048828125,-0.08544921875,1.001953125,1.0056020463086583,-18.426895141601562,0.8640289306640625,16.386032104492188,24.67385374606189
1784555028.123879,0.005859375,-0.07861328125,1.01123046875,1.0142984970868423,-16.233444213867188,2.3899078369140625,14.371871948242188,21.812543955493865
1784555028.131963,-0.0029296837747097015,-0.07861328125,1.00146484375,1.004549881440998,-14.156341552734375,3.73077392578125,11.869430541992188,18.84685813694527
1784555028.139874,0.010742191225290298,-0.08203125,1.0087890625,1.0121758213218255,-11.899948120117188,4.4651031494140625,9.916305541992188,16.12076384662132
1784555028.147784,0.00244140625,-0.0849609375,1.0029296875,1.0065248528646493,-9.946823120117188,5.6247711181640625,7.9021453857421875,13.893208485156945
1784555028.155693,-0.01904296875,-0.06884765625,0.9951171278953552,0.9976776697213546,-8.480072021484375,6.35528564453125,6.3762664794921875,12.367621086152452
1784555028.163604,-0.0229492150247097,-0.0927734375,1.0126953125,1.0171948550475909,-6.160736083984375,7.39288330078125,4.5452117919921875,10.642760113313756
1784555028.174286,-0.0195312462747097,-0.09326171875,1.0068359375,1.011334673986189,-4.6329498291015625,7.8830718994140625,3.5686492919921875,9.815411578713354
1784555028.184969,-0.01904296875,-0.09326171875,0.9951171278953552,0.9996591824585609,-2.559661865234375,8.79669189453125,1.9207000732421875,9.360702213135479
1784555028.195652,-0.024902336299419403,-0.08447265625,1.00146484375,1.0053295923597951,-0.606536865234375,10.50567626953125,0.4558563232421875,10.53303972443474
1784555028.206298,-0.02685546875,-0.0859375,0.9926757216453552,0.9967504995996536,0.247955322265625,11.78741455078125,-0.9479522705078125,11.828069882316823
1784555028.216944,-0.0366210900247097,-0.06884765625,0.9980468153953552,1.0010886822487437,2.079010009765625,12.39776611328125,-2.2907257080078125,12.777883685871398
1784555028.22759,-0.0522460900247097,-0.0771484375,1.00439453125,1.0087070485212586,2.7484893798828125,12.826919555664062,-3.2062530517578125,13.5042259234179
1784555028.238256,-0.0590820237994194,-0.064453125,0.9946288466453552,0.9984645378968501,4.2743682861328125,13.498306274414062,-4.4269561767578125,14.83483864133069
1784555028.248924,-0.0820312425494194,-0.05078125,1.00390625,1.0085314169101658,4.3392181396484375,13.315200805664062,-5.2814483642578125,14.967200251982081
1784555028.259593,-0.0703124925494194,-0.056640625,0.9711913466453552,0.9753792282018934,3.849029541015625,12.58087158203125,-5.0983428955078125,14.109800085449383
1784555028.267583,-0.0820312425494194,-0.05126953125,0.9741210341453552,0.9789123958522604,3.1147003173828125,12.155532836914062,-5.2814483642578125,13.614405364933209
1784555028.275576,-0.0849609375,-0.0473632849752903,0.9785155653953552,0.9833383717650406,2.384185791015625,12.035369873046875,-4.7321319580078125,13.150191737580254
1784555028.283569,-0.0795898362994194,-0.05078125,0.9746093153953552,0.9791713818577082,1.7719268798828125,11.667251586914062,-4.7321319580078125,12.714462526115636
1784555028.299596,-0.11962890625,-0.0449218712747097,0.9833983778953552,0.9916659817582777,0.9784698486328125,10.873794555664062,-4.0607452392578125,11.648453252755402
1784555028.307626,-0.1142578125,-0.0527343787252903,0.9838866591453552,0.9919015679295179,0.6122589111328125,9.592056274414062,-3.8776397705078125,10.364289398488042
1784555028.315657,-0.1186523362994194,-0.0498046875,0.9833983778953552,0.9917818577961078,0.7953643798828125,8.676528930664062,-2.8400421142578125,9.16409286248207
1784555028.323689,-0.119140625,-0.0537109337747097,0.9736327528953552,0.9823645405056769,0.064849853515625,7.51495361328125,-2.2907257080078125,7.856599619593569
1784555028.334352,-0.1220703050494194,-0.06494140625,0.9755858778953552,0.9853356538608743,-0.240325927734375,5.92803955078125,-1.1920928955078125,6.051487002273768
1784555028.345016,-0.1118163987994194,-0.07861328125,0.9848632216453552,0.9943030324699963,-0.8525848388671875,4.3430328369140625,-0.2155303955078125,4.431172359699829
1784555028.35568,-0.1225585862994194,-0.0732421875,0.9770507216453552,0.987427535454226,-1.216888427734375,3.42559814453125,0.3337860107421875,3.6506099756529684
1784555028.363747,-0.1162109300494194,-0.06494140625,0.9829100966453552,0.9918843806593892,-1.1577606201171875,2.3899078369140625,1.0662078857421875,2.8616198870668015
1784555028.371813,-0.109375,-0.0595703087747097,0.9624022841453552,0.9704275701157254,-1.4629364013671875,2.2068023681640625,1.4934539794921875,3.0398296655307417
1784555028.379879,-0.10009765625,-0.0522460974752903,0.9931640028953552,0.9995618700887233,-1.766204833984375,2.44903564453125,1.7986297607421875,3.514587332817591
1784555028.387945,-0.1142578125,-0.0625,0.9736327528953552,0.98230434959226,-1.9512176513671875,2.6340484619140625,1.8596649169921875,3.768794930241002
1784555028.398577,-0.1040038987994194,-0.0546875,0.9755858778953552,0.9826369313080904,-2.1343231201171875,2.5119781494140625,2.0427703857421875,3.8779221566537085
1784555028.409209,-0.1083984300494194,-0.05419921875,0.9794921278953552,0.9869612979034488,-2.1343231201171875,2.0236968994140625,2.7751922607421875,4.043807167243289
1784555028.419842,-0.1103515625,-0.0571289099752903,0.9848632216453552,0.9926715192100679,-2.132415771484375,1.89971923828125,3.0803680419921875,4.200571089851709
1784555028.430443,-0.1059570163488388,-0.06298828125,0.9916991591453552,0.9993305935164708,-1.399993896484375,1.28936767578125,4.4231414794921875,4.815249989475872
1784555028.441045,-0.10888671875,-0.078125,1.00390625,1.0128117258080123,-1.2798309326171875,1.2302398681640625,5.1555633544921875,5.45264072275873
1784555028.451647,-0.1005859375,-0.07958984375,1.021484375,1.029505902081209,-0.972747802734375,0.43487548828125,6.4983367919921875,6.585114732500242
1784555028.45965,-0.1059570237994194,-0.08984375,1.01611328125,1.0255656929905246,-0.7266998291015625,0.3757476806640625,6.9866180419921875,7.034352182385483
1784555028.467655,-0.1015624925494194,-0.095703125,1.01611328125,1.025651124096424,-0.545501708984375,0.43487548828125,7.9021453857421875,7.932880340848415
1784555028.475661,-0.1044921800494194,-0.076171875,1.00830078125,1.0165585254680893,-0.0553131103515625,0.6809234619140625,8.939743041992188,8.9658084943863
1784555028.483665,-0.0932617112994194,-0.08837890625,1.0185546875,1.0266266260392165,0.553131103515625,1.10626220703125,9.611129760742188,9.690386234108846
1784555028.494295,-0.0976562425494194,-0.0849609375,0.9975585341453552,1.0059215335482086,1.1043548583984375,1.2302398681640625,10.648727416992188,10.776292747874367
1784555028.504923,-0.09130859375,-0.080078125,0.9912108778953552,0.9986234374648929,1.224517822265625,1.47247314453125,11.259078979492188,11.420791589239982
1784555028.515553,-0.0786132737994194,-0.0751953125,1.00390625,1.0097832146696128,2.0160675048828125,2.5119781494140625,11.686325073242188,12.122077219885506
1784555028.523575,-0.09130859375,-0.07080078125,0.9965819716453552,1.003257512369958,2.506256103515625,3.12042236328125,12.601852416992188,13.222142024699588
1784555028.531598,-0.1044921875,-0.07373046875,0.9887694716453552,0.9970054499993793,3.2367706298828125,4.0378570556640625,13.334274291992188,14.30328090357355
1784555028.539621,-0.0976562425494194,-0.0693359375,0.9873046278953552,0.9945424285577065,3.7250518798828125,4.2819976806640625,14.127731323242188,15.225120951465355
1784555028.547644,-0.1035156175494194,-0.0888671875,0.9921874403953552,1.0015232283722053,4.6405792236328125,4.4651031494140625,15.226364135742188,16.532219647099293
1784555028.557232,-0.1113281100988388,-0.07763671875,1.00927734375,1.0183624918483112,5.863189697265625,5.01251220703125,17.118453979492188,18.776148132664243
1784555028.566822,-0.08837890625,-0.0869140625,0.9970702528953552,1.0047457263103974,6.4105987548828125,4.7702789306640625,17.972946166992188,19.6692178643189
1784555028.576412,-0.10888671875,-0.087890625,0.9902343153953552,1.000072536803976,7.5702667236328125,5.4416656494140625,19.010543823242188,21.173602427607044
1784555028.586002,-0.109375,-0.06884765625,0.9916991591453552,1.00008505270588,7.6351165771484375,6.1130523681640625,19.620895385742188,21.923593458664623
1784555028.595592,-0.1162109225988388,-0.08203125,0.9985350966453552,1.008616103252563,7.9402923583984375,6.6013336181640625,20.536422729492188,22.986311291713314
1784555028.603591,-0.1118163987994194,-0.0859375,1.00830078125,1.018115232385844,8.304595947265625,6.66046142578125,21.757125854492188,24.221903015656576
1784555028.61159,-0.1225585862994194,-0.0830078125,1.0009765625,1.0118621362053546,8.668899536132812,6.9675445556640625,22.672653198242188,25.253627449348524
1784555028.619589,-0.1455077975988388,-0.0634765625,0.9985350966453552,1.0110757302899867,9.098052978515625,7.33184814453125,24.015426635742188,26.707139152501128
1784555028.627588,-0.16748046875,-0.068359375,1.015625,1.0316088658925486,10.257720947265625,7.946014404296875,26.945114135742188,29.906506979810246
1784555028.638278,-0.18505859375,-0.07470703125,1.0244140625,1.043672360028122,11.419296264648438,7.4558258056640625,30.668258666992188,33.563845954982
1784555028.648968,-0.1997070163488388,-0.07373046875,1.02880859375,1.0506027779208005,13.124465942382812,7.0896148681640625,35.06278991699219,38.10398249546612
1784555028.659658,-0.2099609225988388,-0.08251953125,0.9985350966453552,1.023701812682201,14.711380004882812,6.7234039306640625,40.12870788574219,43.26594571533323
1784555028.670295,-0.19970703125,-0.07470703125,0.9858397841453552,1.0086347797159474,15.262603759765625,7.33184814453125,44.82841491699219,47.91961868287441
1784555028.68093,-0.1879882663488388,-0.0810546875,0.9809569716453552,1.0020908296507811,15.811920166015625,8.00323486328125,48.73466491699219,51.85688143520396
1784555028.691566,-0.18701171875,-0.0615234375,0.9765624403953552,0.9962091729664896,16.422271728515625,8.36944580078125,52.15263366699219,55.31397499855625
1784555028.699682,-0.185546875,-0.0595703125,1.00634765625,1.025042374828222,17.093658447265625,10.13946533203125,58.74443054199219,62.01540160342577
1784555028.707797,-0.2070312350988388,-0.04638671875,1.0146484375,1.0365930308969542,18.558502197265625,10.99395751953125,62.40653991699219,66.02924602142834
1784555028.715911,-0.2231445163488388,-0.0483398400247097,1.033203125,1.0581299130163258,20.814895629882812,10.995864868164062,66.74003601074219,70.77005956615413
1784555028.724026,-0.2265624850988388,-0.0473632849752903,1.0400390625,1.0654835014882638,24.232864379882812,11.667251586914062,71.92802429199219,76.79190812966924
1784555028.734578,-0.2280273288488388,-0.0620117224752903,1.0087890625,1.0360971426685424,26.065826416015625,12.39776611328125,76.99394226074219,82.22651066535649
1784555028.745131,-0.19384765625,-0.0419921875,1.001953125,1.0213962611748286,28.385162353515625,12.88604736328125,81.87675476074219,87.61033402878275
1784555028.755682,-0.1894531100988388,-0.0439453087747097,0.9868163466453552,1.0057982765425248,29.607772827148438,13.498306274414062,85.90507507324219,91.86134337903671
1784555028.763721,-0.1533203125,-0.03564453125,0.9526366591453552,0.9655538592853087,29.544830322265625,14.659881591796875,89.01786804199219,94.9315013986322
1784555028.77176,-0.1484375,-0.0336914025247097,0.9428710341453552,0.9550783156582834,29.298782348632812,15.817642211914062,90.17753601074219,96.12806277682593
1784555028.779799,-0.1103515550494194,-0.0166015625,0.9423827528953552,0.9489669807395273,28.263092041015625,16.124725341796875,90.97099304199219,96.6153751434703
1784555028.787838,-0.0825195237994194,-0.0087890625,0.9277343153953552,0.9314385000577334,26.248931884765625,15.819549560546875,89.50614929199219,94.60769172995427
1784555028.798554,-0.0546874925494194,0.0029296875,0.9433593153953552,0.9449476720186064,24.358749389648438,15.268325805664062,87.61405944824219,92.21005291038348
1784555028.809271,-0.0581054612994194,0.03125,0.9687499403953552,0.9709939516540886,22.708892822265625,15.08331298828125,84.92851257324219,89.19670617135453
1784555028.819986,-0.0498046837747097,0.0209960900247097,0.9858397841453552,0.9873203240721752,21.549224853515625,15.331268310546875,81.32743835449219,85.51940779203912
1784555028.830648,-0.0493164025247097,0.0449218712747097,0.9663085341453552,0.9686084168738912,19.901275634765625,14.53399658203125,73.14872741699219,77.18830320238187
1784555028.841311,-0.0654296875,0.06298828125,0.9750975966453552,0.9793180742561247,18.863677978515625,14.83917236328125,69.66972351074219,73.68792138042413
1784555028.851972,-0.1005859375,0.0610351525247097,0.9760741591453552,0.983139656822865,18.133163452148438,13.803482055664062,66.74003601074219,70.52361406194761
1784555028.86253,-0.1201171875,0.0468749962747097,0.9804686903953552,0.9889106414910536,18.436431884765625,11.058807373046875,65.15312194824219,68.60851653226644
1784555028.873084,-0.099609375,0.06298828125,0.9667968153953552,0.9739536094811294,18.495559692382812,8.371353149414062,63.99345397949219,67.13663257947992
1784555028.883639,-0.0981445237994194,0.0727538987994194,0.9687499403953552,0.976423025311435,18.495559692382812,6.4792633056640625,62.10136413574219,65.12024269640483
1784555028.894294,-0.1015624925494194,0.09130859375,0.9721679091453552,0.98171413494841,17.826080322265625,4.52423095703125,57.46269226074219,60.33406009263081
1784555028.904946,-0.0722656175494194,0.0888671800494194,0.9692382216453552,0.9759827997808085,17.461776733398438,3.9768218994140625,54.22782897949219,57.1085474770263
1784555028.915599,-0.0693359375,0.10400390625,0.9770507216453552,0.9850139072175439,17.459869384765625,4.21905517578125,50.56571960449219,53.66134050347129
1784555028.923662,-0.0908203125,0.11865234375,0.9829100966453552,0.9942026784953596,17.765045166015625,5.01251220703125,47.08671569824219,50.57549706748615
1784555028.931725,-0.1079101487994194,0.12646484375,0.9775390028953552,0.9915747370220108,18.438339233398438,4.9533843994140625,44.88945007324219,48.780847661478184
1784555028.939789,-0.1376953125,0.12451171875,0.9780272841453552,0.9954900982547698,19.289016723632812,5.4416656494140625,42.99736022949219,47.438917334919395
1784555028.947851,-0.1513671725988388,0.109375,0.9775390028953552,0.9952172696186556,20.267486572265625,5.504608154296875,41.83769226074219,46.81307740999181
1784555028.956188,-0.15478515625,0.1215820237994194,0.9575194716453552,0.9775398568275872,20.814895629882812,4.8313140869140625,42.08183288574219,47.19620890403022
1784555028.964525,-0.14892578125,0.12939453125,0.9531249403953552,0.9733288165065183,20.998001098632812,4.4651031494140625,42.44804382324219,47.567737182811015
1784555028.972862,-0.146484375,0.13232421875,0.9565429091453552,0.976699394912886,20.877838134765625,3.91387939453125,42.50907897949219,47.52077832676054
1784555028.981199,-0.1416015625,0.138671875,0.9321288466453552,0.9529664622466297,20.391464233398438,3.4885406494140625,42.32597351074219,47.11124879555446
1784555028.991373,-0.1171874925494194,0.1249999925494194,0.9619140028953552,0.9770549910386521,19.533157348632812,3.1833648681640625,41.59355163574219,46.06193206505195
1784555029.001545,-0.1215820237994194,0.14501953125,0.9443358778953552,0.9631111582966545,18.131256103515625,2.880096435546875,40.92216491699219,44.8515438403499
1784555029.011719,-0.1162109300494194,0.15869140625,0.9609374403953552,0.9808612068147717,16.973495483398438,2.3288726806640625,39.76249694824219,43.29641278959101
1784555029.022429,-0.13134765625,0.1611328125,0.9931640028953552,1.0146875019993364,17.276763916015625,4.833221435546875,38.23661804199219,42.23606942109992
1784555029.033143,-0.1552734225988388,0.15283203125,0.9741210341453552,0.9981879856549942,17.950057983398438,5.1364898681640625,38.90800476074219,43.15577532886015
1784555029.043857,-0.1689452975988388,0.14892578125,0.9638671278953552,0.9898288953849166,18.253326416015625,5.138397216796875,39.03007507324219,43.392785246283985
1784555029.054461,-0.15087890625,0.16650390625,0.9599608778953552,0.9859071367209623,18.133163452148438,5.2585601806640625,39.82353210449219,44.072415196282556
1784555029.065062,-0.15087890625,0.15869140625,0.9550780653953552,0.9798579069273938,17.276763916015625,6.298065185546875,41.04423522949219,44.97534260086325
1784555029.075664,-0.15234375,0.171875,0.9545897841453552,0.9818305809984421,16.420364379882812,7.0896148681640625,41.22734069824219,44.93978890021574
1784555029.083669,-0.1113281175494194,0.15869140625,0.9560546278953552,0.975508771715983,14.589309692382812,8.188247680664062,40.67802429199219,43.98405412965092
1784555029.091677,-0.1035156175494194,0.18310546875,0.9501952528953552,0.9731978803859279,13.492584228515625,8.97979736328125,39.33525085449219,42.54349009701731
1784555029.099685,-0.0888671800494194,0.18896484375,0.9521483778953552,0.9747777292245418,12.943267822265625,9.77325439453125,37.80937194824219,41.14113866313917
1784555029.107693,-0.1025390550494194,0.1845703125,0.9575194716453552,0.9805223080821648,11.905670166015625,10.81085205078125,36.40556335449219,39.799303352241985
1784555029.118339,-0.0820312425494194,0.1845703125,0.9628905653953552,0.9838463121534461,11.539459228515625,10.93292236328125,33.96415710449219,37.50002504674813
1784555029.128985,-0.0888671800494194,0.20556640625,0.9589843153953552,0.9847872055641127,10.988235473632812,11.972427368164062,31.827926635742188,35.736497447849494
1784555029.139631,-0.0991210862994194,0.18896484375,0.9458007216453552,0.9695729508332591,10.133743286132812,13.010025024414062,29.752731323242188,34.01732683968802
1784555029.150537,-0.0854492112994194,0.1953125,0.9335936903953552,0.9576250409810518,8.731842041015625,13.25225830078125,27.372360229492188,31.640378000791316
1784555029.161441,-0.0922851487994194,0.2021484375,0.9345702528953552,0.9606258881945201,7.3261260986328125,13.254165649414062,24.503707885742188,28.80584542805436
1784555029.172344,-0.08642578125,0.201171875,0.9467772841453552,0.971764768207483,6.5326690673828125,13.071060180664062,22.184371948242188,26.56453911003232
1784555029.182772,-0.1074218675494194,0.2109375,0.9350585341453552,0.9645561408296126,4.7054290771484375,12.460708618164062,17.606735229492188,22.07730616511678
1784555029.193201,-0.1157226487994194,0.205078125,0.9458007216453552,0.9746731625850503,3.9081573486328125,11.972427368164062,15.653610229492188,20.09099858554818
1784555029.20363,-0.1445312350988388,0.2260742038488388,0.9394530653953552,0.9770214356122447,3.4809112548828125,10.873794555664062,14.554977416992188,18.498743709028236
1784555029.211627,-0.1225585862994194,0.19140625,0.9453124403953552,0.9722512893182486,3.177642822265625,9.28497314453125,13.822555541992188,16.952025894034662
1784555029.219626,-0.14697265625,0.201171875,0.9550780653953552,0.9870385990302156,3.177642822265625,8.06427001953125,13.883590698242188,16.367160887891455
1784555029.227625,-0.1347656100988388,0.1982421725988388,0.9472655653953552,0.9771252632317936,2.811431884765625,6.35528564453125,12.845993041992188,14.605250497720792
1784555029.235625,-0.13671875,0.21923828125,0.9531249403953552,0.9875244769476178,2.8743743896484375,5.6247711181640625,12.052536010742188,13.60748700362549
1784555029.243627,-0.1337890625,0.2001953125,0.9599608778953552,0.9896982183884251,2.506256103515625,5.504608154296875,10.953903198242188,12.512794486653307
1784555029.251629,-0.1259765625,0.19482421875,0.9501952528953552,0.9781091908042436,2.323150634765625,5.37872314453125,9.489059448242188,11.152127184963522
1784555029.25963,-0.1030273362994194,0.19482421875,0.9633788466453552,0.9882661131498116,1.8329620361328125,4.4651031494140625,7.3528289794921875,8.795509647682257
1784555029.267632,-0.13525390625,0.21875,0.9628905653953552,0.9966460869251786,1.651763916015625,4.40216064453125,5.3386688232421875,7.113981106157732
1784555029.27833,-0.1416015625,0.189453125,0.9570311903953552,0.9858256379625444,1.3446807861328125,4.4651031494140625,3.5686492919921875,5.872015865164065
1784555029.289028,-0.158203125,0.18994140625,0.9653319716453552,0.9964796947498238,1.041412353515625,3.79180908203125,3.0193328857421875,4.9576937057016615
1784555029.299726,-0.1748046875,0.19921875,0.9594725966453552,0.9954056724958501,1.041412353515625,2.26593017578125,2.4700164794921875,3.5099801510170936
1784555029.31034,-0.1669921875,0.20068359375,0.9707030653953552,1.0051988542842603,1.529693603515625,-0.05340576171875,3.0803680419921875,3.4396921330473984
1784555029.320954,-0.16796875,0.21044921875,0.9697265028953552,1.0064153541489236,1.6498565673828125,-0.4177093505859375,3.3855438232421875,3.7892498959024135
1784555029.331568,-0.1669921875,0.2001953125,0.9516600966453552,0.9867226020417565,1.6498565673828125,-1.3942718505859375,3.0803680419921875,3.762271648937556
1784555029.342263,-0.162109375,0.19677734375,0.9672850966453552,1.000320563953581,1.895904541015625,-1.82342529296875,3.5076141357421875,4.384368911592666
1784555029.352957,-0.15283203125,0.205078125,0.9702147841453552,1.003360052276218,1.529693603515625,-1.94549560546875,3.2024383544921875,4.047286385451055
1784555029.36365,-0.14306640625,0.19921875,0.9663085341453552,0.996949492256753,1.7719268798828125,-2.1266937255859375,2.5920867919921875,3.792290206104773
1784555029.374346,-0.140625,0.21630859375,0.9628905653953552,0.9968565790937478,1.712799072265625,-1.33514404296875,1.3103485107421875,2.5363957690063264
1784555029.385045,-0.14208984375,0.2041015625,0.9580077528953552,0.9897604892697267,2.017974853515625,-0.84686279296875,0.7610321044921875,2.317017255784697
1784555029.395742,-0.1630859375,0.20458984375,0.9570311903953552,0.9921505564003147,1.4667510986328125,-0.1735687255859375,0.2117156982421875,1.4920819095224853
1784555029.403704,-0.1611328125,0.19970703125,0.9506835341453552,0.9847059782950195,1.1043548583984375,-0.6008148193359375,-0.0324249267578125,1.2576285128276783
1784555029.411667,-0.16845703125,0.2001953125,0.9536132216453552,0.9888549494346325,0.7953643798828125,-1.0890960693359375,0.6999969482421875,1.519450714099584
1784555029.41963,-0.1591796725988388,0.19677734375,0.9501952528953552,0.9833262478988585,0.858306884765625,-1.02996826171875,0.8220672607421875,1.5726792138793528
1784555029.427593,-0.16015625,0.21337890625,0.9570311903953552,0.993523669288286,0.858306884765625,-0.96893310546875,0.6389617919921875,1.4435353279138183
1784555029.438268,-0.162109375,0.19384765625,0.9482421278953552,0.9813355676892691,0.308990478515625,-1.21307373046875,0.9441375732421875,1.5679345485620029
1784555029.448943,-0.1533203125,0.203125,0.9594725966453552,0.9926502644755998,0.1239776611328125,-0.7228851318359375,0.8220672607421875,1.1016932220330609
1784555029.459618,-0.14892578125,0.2138671875,0.9702147841453552,1.0046067835647443,0.553131103515625,-0.720977783203125,0.8220672607421875,1.225380578731795
1784555029.467706,-0.1669921875,0.1982421875,0.9541015028953552,0.9886839906754816,0.6122589111328125,-0.4787445068359375,0.3948211669921875,0.8717459670065557
1784555029.475794,-0.1572265625,0.19384765625,0.9541015028953552,0.9862082861223385,0.6122589111328125,0.1926422119140625,0.7610321044921875,0.9955610780562324
1784555029.483882,-0.16650390625,0.20068359375,0.9414061903953552,0.9768536589027138,0.3070831298828125,-0.4787445068359375,1.2493133544921875,1.37269086439618
1784555029.49197,-0.169921875,0.1982421875,0.9570311903953552,0.9920091269226566,0.3070831298828125,-0.2956390380859375,2.0427703857421875,2.086771031609431
1784555029.501508,-0.15625,0.1953125,0.9536132216453552,0.985869774185761,0.064849853515625,-0.48065185546875,2.5310516357421875,2.5771018785565607
1784555029.511046,-0.15478515625,0.1962890625,0.9648436903953552,0.9967001492666658,-0.118255615234375,-0.720977783203125,2.4700164794921875,2.5758056532607294
1784555029.520584,-0.13818359375,0.19775390625,0.9575194716453552,0.9874435941352797,-0.8525848388671875,-0.4787445068359375,2.1648406982421875,2.375422585364022
1784555029.530123,-0.1396484375,0.21044921875,0.9428710341453552,0.9761128760543057,-1.4629364013671875,-0.2346038818359375,1.8596649169921875,2.3777248577809056
1784555029.53966,-0.1416015625,0.19970703125,0.9755858778953552,1.0058338361687684,-1.766204833984375,-0.05340576171875,1.1272430419921875,2.0959505162799847
1784555029.549248,-0.1591796875,0.189453125,0.9667968153953552,0.9979612927080207,-1.705169677734375,0.12969970703125,0.7610321044921875,1.8717893866395738
1784555029.558832,-0.1689453125,0.1845703125,0.9677733778953552,0.9995969336863015,-1.5201568603515625,-0.4787445068359375,0.7610321044921875,1.766137890134095
1784555029.568417,-0.16259765625,0.1943359375,0.9526366591453552,0.9857591281695649,-1.766204833984375,-1.15203857421875,1.4934539794921875,2.584004098475619
1784555029.578,-0.169921875,0.1904296875,0.9702147841453552,1.003221628982889,-2.5005340576171875,-1.5163421630859375,2.1038055419921875,3.602493842794552
1784555029.587584,-0.1572265625,0.185546875,0.9702147841453552,1.0002322541050406,-2.193450927734375,-2.18963623046875,2.9582977294921875,4.284537227108526
1784555029.595601,-0.154296875,0.1904296875,0.9604491591453552,0.9912283182088439,-2.132415771484375,-2.00653076171875,3.4465789794921875,4.522418532386884
1784555029.603618,-0.1435546875,0.19970703125,0.9467772841453552,0.9782014477639899,-2.132415771484375,-2.49481201171875,3.2024383544921875,4.585509285849729
1784555029.611635,-0.13525390625,0.189453125,0.9575194716453552,0.9854083642369541,-1.8863677978515625,-2.2487640380859375,3.1414031982421875,4.299271708288064
1784555029.619652,-0.13916015625,0.19580078125,0.9731444716453552,1.0023540580650894,-2.4394989013671875,-2.0656585693359375,2.7751922607421875,4.233177565248833
1784555029.630287,-0.1416015625,0.1923828125,0.9707030653953552,0.9996632384037091,-2.1343231201171875,-1.3942718505859375,2.4089813232421875,3.5074948596017617
1784555029.640922,-0.13818359375,0.18701171875,0.9746093153953552,1.001963774887544,-2.254486083984375,-0.96893310546875,1.6155242919921875,2.937934240885826
1784555029.651557,-0.1376953125,0.19287109375,0.9580077528953552,0.9868830287812239,-1.949310302734375,-0.84686279296875,1.6765594482421875,2.706998121527121
1784555029.65969,-0.15185546875,0.17578125,0.9614257216453552,0.9890897580513797,-2.0084381103515625,-0.7839202880859375,1.4324188232421875,2.5884702714854244
1784555029.667823,-0.14111328125,0.19091796875,0.9746093153953552,1.0031081430195703,-2.376556396484375,-0.05340576171875,1.0662078857421875,2.6053160531256823
1784555029.675956,-0.13818359375,0.18359375,0.9667968153953552,0.9937290641212665,-1.8863677978515625,-0.1125335693359375,0.9441375732421875,2.1124495331738666
1784555029.684089,-0.134765625,0.1953125,0.9760741591453552,1.004504609491267,-2.0732879638671875,0.3757476806640625,0.7610321044921875,2.2402855096413
1784555029.69471,-0.1347656100988388,0.1884765475988388,0.9560546278953552,0.9837304662254879,-1.8291473388671875,0.8640289306640625,0.2117156982421875,2.0339984063886516
1784555029.705329,-0.1376953125,0.19189453125,0.9604491591453552,0.9890632424224195,-1.766204833984375,0.98419189453125,-0.0324249267578125,2.0221682859559524
1784555029.715949,-0.125,0.1865234375,0.9653319716453552,0.9911013107737904,-1.6460418701171875,0.9860992431640625,-0.2765655517578125,1.9386423238871908
1784555029.723861,-0.13818359375,0.181640625,0.9589843153953552,0.9857681976034497,-1.9512176513671875,0.1926422119140625,-0.5207061767578125,2.028668594751682
1784555029.731771,-0.1191406175494194,0.189453125,0.9594725966453552,0.9852282157123309,-2.0084381103515625,0.0095367431640625,-0.8258819580078125,2.1716343157045457
1784555029.739682,-0.1210937425494194,0.1953125,0.9799804091453552,1.0065645878181753,-2.132415771484375,0.43487548828125,-1.1920928955078125,2.481410724628907
1784555029.747593,-0.1132812425494194,0.19482421875,0.9692382216453552,0.9950938882453951,-2.010345458984375,1.10626220703125,-2.2296905517578125,3.199503850874821
1784555029.757191,-0.12890625,0.1845703125,0.9721679091453552,0.9978945160273514,-2.0084381103515625,1.3523101806640625,-3.0231475830078125,3.873239958547134
1784555029.766793,-0.13037109375,0.1943359375,0.9682616591453552,0.9961394075431869,-1.5201568603515625,1.5354156494140625,-3.8776397705078125,4.438971534754803
1784555029.776396,-0.1396484225988388,0.1884765475988388,0.9624022841453552,0.9905772294260141,-1.7681121826171875,2.2068023681640625,-3.9386749267578125,4.848644920091024
1784555029.785997,-0.1611328125,0.18212890625,0.9633788466453552,0.993596258004083,-2.071380615234375,2.391815185546875,-3.6945343017578125,4.8642554663428665
1784555029.795599,-0.171875,0.18896484375,0.9555663466453552,0.9891186837986699,-2.559661865234375,1.59454345703125,-3.6945343017578125,4.769069239124273
1784555029.803591,-0.16943359375,0.17919921875,0.9536132216453552,0.9849864360428948,-2.7446746826171875,1.0471343994140625,-2.7790069580078125,4.043835955685127
1784555029.811584,-0.1611328125,0.18212890625,0.9677733778953552,0.9978577216812863,-3.353118896484375,0.49591064453125,-2.0465850830078125,3.95952575484869
1784555029.819575,-0.1640624850988388,0.1826171875,0.9658202528953552,0.9965311320225098,-3.353118896484375,0.43487548828125,-1.6193389892578125,3.7489707636095218
1784555029.827567,-0.16162109375,0.18896484375,0.9619140028953552,0.9935329079021861,-3.1681060791015625,0.3757476806640625,-1.1920928955078125,3.4057551173689657
1784555029.838259,-0.1552734375,0.17578125,0.9667968153953552,0.994839168158969,-3.4160614013671875,0.5588531494140625,-1.1310577392578125,3.641577124002149
1784555029.848949,-0.1552734375,0.18603515625,0.9765624403953552,1.006177479247553,-3.231048583984375,0.31280517578125,-1.1920928955078125,3.45812196164091
1784555029.85964,-0.1586913913488388,0.1845702975988388,0.9790038466453552,1.008810033747859,-2.864837646484375,0.743865966796875,-1.1310577392578125,3.1685837414857407
1784555029.867636,-0.16845703125,0.18017578125,0.9741210341453552,1.0048646041587035,-2.5005340576171875,0.6809234619140625,-0.3376007080078125,2.613484565161211
1784555029.875632,-0.1591796725988388,0.1831054538488388,0.9594725966453552,0.9896734002241564,-1.888275146484375,0.61798095703125,-0.0324249267578125,1.9870920632821965
1784555029.883629,-0.17236328125,0.1806640625,0.9545897841453552,0.9867067751854887,-1.766204833984375,0.12969970703125,0.4558563232421875,1.8286898362034092
1784555029.891624,-0.1738281100988388,0.1694335788488388,0.9672850966453552,0.9972785005675565,-1.1577606201171875,-0.1735687255859375,1.0662078857421875,1.583456665530979
1784555029.902325,-0.1635742038488388,0.1796874850988388,0.9667968153953552,0.9968651838260415,-1.705169677734375,-0.54168701171875,1.6765594482421875,2.451913544972516
1784555029.913026,-0.16259765625,0.173828125,0.9682616591453552,0.9970881883915409,-1.277923583984375,-0.17547607421875,1.9207000732421875,2.3136484846404906
1784555029.923727,-0.1494140475988388,0.1738281100988388,0.9687499403953552,0.9954984763908011,-1.2798309326171875,-0.4177093505859375,2.0427703857421875,2.446499369817207
1784555029.934366,-0.13525390625,0.17333984375,0.9711913466453552,0.9957675192463232,-1.399993896484375,-0.17547607421875,1.3103485107421875,1.9255617316567641
1784555029.945005,-0.1352538913488388,0.1782226413488388,0.9726561903953552,0.9980566064751868,-1.216888427734375,0.43487548828125,0.5779266357421875,1.415603522234237
1784555029.955644,-0.13916015625,0.1782226413488388,0.9755858778953552,1.0014472847462976,-1.5201568603515625,0.8640289306640625,-0.0324249267578125,1.748849407174229
1784555029.963659,-0.13623046875,0.1728515625,0.9638671278953552,0.9886739824187634,-1.2798309326171875,1.0471343994140625,-0.5817413330078125,1.7529633895349144
1784555029.971673,-0.13427734375,0.1806640625,0.9750975966453552,1.0007423402190534,-1.6460418701171875,1.1692047119140625,-1.0089874267578125,2.2571107912320754
1784555029.979688,-0.13427734375,0.1767578125,0.9746093153953552,0.9995684303636965,-1.8863677978515625,0.8640289306640625,-1.1920928955078125,2.3929093031947613
1784555029.987703,-0.13916015625,0.1796875,0.9770507216453552,1.0031357133566146,-1.583099365234375,0.560760498046875,-2.0465850830078125,2.647483038352721
1784555029.998364,-0.1513671875,0.17578125,0.9633788466453552,0.9909136569181785,-1.216888427734375,0.31280517578125,-2.1076202392578125,2.4537170978901655
1784555030.009026,-0.15185546875,0.17333984375,0.9707030653953552,0.9976829285842752,-1.033782958984375,0.31280517578125,-2.4738311767578125,2.699332320293478
1784555030.019686,-0.13330078125,0.1767578125,0.9584960341453552,0.9837311980587072,-0.911712646484375,0.80108642578125,-3.1452178955078125,3.3712542208432033
1784555030.027704,-0.15673828125,0.1796875,0.9653319716453552,0.9943441566913153,-0.1811981201171875,1.2302398681640625,-3.9386749267578125,4.13031270857607
1784555030.035725,-0.14404296875,0.1684570163488388,0.9570311903953552,0.9823618694722516,0.003814697265625,0.92315673828125,-3.9386749267578125,4.045416306638906
1784555030.043745,-0.14599609375,0.169921875,0.9687499403953552,0.9943162223406489,0.0019073486328125,0.9860992431640625,-3.8776397705078125,4.001060552549964
1784555030.051764,-0.16552734375,0.18115234375,0.9780272841453552,1.0083416294628464,0.064849853515625,0.98419189453125,-4.0607452392578125,4.178814555219817
1784555030.062383,-0.15771484375,0.16943359375,0.9687499403953552,0.996021165260122,-0.1201629638671875,1.0471343994140625,-3.9386749267578125,4.07726498611413
1784555030.073003,-0.1376953125,0.1796875,0.9726561903953552,0.9986529234199077,-0.240325927734375,1.232147216796875,-4.1217803955078125,4.308714070832992
1784555030.083621,-0.1640624850988388,0.18212890625,0.9614257216453552,0.9921828741466565,-0.484466552734375,0.80108642578125,-3.9386749267578125,4.048408018093034
1784555030.093228,-0.16064453125,0.162109375,0.9716796278953552,0.9981219435270817,-0.301361083984375,0.92315673828125,-3.6334991455078125,3.761030830341639
1784555030.102832,-0.16650390625,0.17236328125,0.9638671278953552,0.9932132156576534,-0.118255615234375,0.255584716796875,-3.3283233642578125,3.340216213818956
1784555030.112437,-0.17236328125,0.18505859375,0.9624022841453552,0.9950748415934307,0.0019073486328125,0.1926422119140625,-2.3517608642578125,2.359638494016531
1784555030.122042,-0.158203125,0.17041015625,0.9624022841453552,0.9900939382912675,0.1239776611328125,0.4978179931640625,-2.0465850830078125,2.109906091931096
1784555030.131648,-0.17236328125,0.1767578125,0.9614257216453552,0.9926186796773189,0.064849853515625,0.255584716796875,-1.7414093017578125,1.7612596081241882
1784555030.142479,-0.150390625,0.18115234375,0.9687499403953552,0.9969503291287952,0.064849853515625,0.743865966796875,-1.6193389892578125,1.7831996080613526
1784555030.153314,-0.1499023288488388,0.1826171875,0.9687499403953552,0.9971440178734062,-0.1201629638671875,1.0471343994140625,-1.6803741455078125,1.983579304492943
1784555030.164147,-0.15771484375,0.1787109375,0.9750975966453552,1.0038062034599924,0.064849853515625,1.35040283203125,-1.8634796142578125,2.3022488104054837
1784555030.172035,-0.15087890625,0.17724609375,0.9692382216453552,0.996796545138014,-0.3032684326171875,1.5354156494140625,-1.8024444580078125,2.387106822681124
1784555030.179924,-0.1533203125,0.16748046875,0.9741210341453552,1.0002342799575676,-0.118255615234375,1.41143798828125,-1.7414093017578125,2.24469328451495
1784555030.187811,-0.14794921875,0.17822265625,0.9687499403953552,0.996056591537622,0.3070831298828125,1.2302398681640625,-2.2907257080078125,2.618246445850132
1784555030.195699,-0.1547851413488388,0.1782226413488388,0.9653319716453552,0.9937744036512742,0.064849853515625,0.92315673828125,-1.9855499267578125,2.190623741901614
1784555030.206336,-0.1494140625,0.18408203125,0.9667968153953552,0.9954430363212555,-0.118255615234375,1.10626220703125,-2.2907257080078125,2.5466104394995335
1784555030.216973,-0.14111328125,0.1689453125,0.9536132216453552,0.9786897635398552,0.003814697265625,1.28936767578125,-2.5348663330078125,2.843946356997833
1784555030.22761,-0.15625,0.17578125,0.9448241591453552,0.9736558950965634,0.0629425048828125,0.8640289306640625,-2.7179718017578125,2.852696700859735
1784555030.235604,-0.146484375,0.18310546875,0.9770507216453552,1.0047952017565607,-0.240325927734375,0.92315673828125,-3.2672882080078125,3.4036961011762443
1784555030.243599,-0.14990234375,0.17138671875,0.9624022841453552,0.988970311260066,-0.3643035888671875,0.8029937744140625,-3.5724639892578125,3.6796759451279266
1784555030.251595,-0.16796875,0.18408203125,0.9580077528953552,0.9898881501529839,-0.423431396484375,0.67901611328125,-3.6334991455078125,3.7205742930400256
1784555030.259591,-0.17431640625,0.17626953125,0.9750975966453552,1.0061175279849555,-0.606536865234375,0.255584716796875,-3.2672882080078125,3.332924054120553
1784555030.270258,-0.1704101413488388,0.1728515625,0.9692382216453552,0.999169659883382,-0.1811981201171875,-0.1125335693359375,-2.7790069580078125,2.787180696621108
1784555030.280926,-0.1645507663488388,0.177734375,0.9624022841453552,0.9924135324000917,-0.240325927734375,-0.415802001953125,-1.8024444580078125,1.8653294295037248
1784555030.291592,-0.171875,0.1806640625,0.9653319716453552,0.9970187232869365,0.186920166015625,-0.66375732421875,-1.2531280517578125,1.4303296291483563
1784555030.30225,-0.16796875,0.1669921875,0.9628905653953552,0.9915937336379171,0.1850128173828125,-0.7228851318359375,-0.7648468017578125,1.068542599330762
1784555030.312907,-0.1684570163488388,0.1791992038488388,0.9716796278953552,1.002323011949774,0.370025634765625,-0.720977783203125,-0.1544952392578125,0.8249828563124962
1784555030.323562,-0.14599609375,0.177734375,0.9565429091453552,0.9838082661185352,0.4901885986328125,-0.6008148193359375,0.0896453857421875,0.7805764565679273
1784555030.334267,-0.14794921875,0.177734375,0.9677733778953552,0.9950194924464354,0.736236572265625,-0.48065185546875,0.4558563232421875,0.9903915811167191
1784555030.344974,-0.1484375,0.1728515625,0.9677733778953552,0.9942316958475662,0.736236572265625,0.072479248046875,0.0286102294921875,0.7403486185375596
1784555030.355681,-0.1455078125,0.189453125,0.9648436903953552,0.9939760344025045,0.370025634765625,0.49591064453125,-0.2155303955078125,0.6552096528065331
1784555030.366371,-0.15771484375,0.17724609375,0.9624022841453552,0.9912155700032752,-0.1811981201171875,0.4978179931640625,-0.4596710205078125,0.7013935843352084
1784555030.37706,-0.15185546875,0.17626953125,0.9594725966453552,0.9872784281800943,0.0019073486328125,0.6809234619140625,-0.2155303955078125,0.7142224795899335
1784555030.387749,-0.146484375,0.17138671875,0.9653319716453552,0.9913106954753091,-0.118255615234375,0.31280517578125,-0.0934600830078125,0.34722651921451286
1784555030.395739,-0.15234375,0.16796875,0.9584960341453552,0.9849552104603534,-0.4863739013671875,0.4978179931640625,0.0896453857421875,0.7017254601579587
1784555030.403729,-0.14892578125,0.177734375,0.9633788466453552,0.9908921225548715,-0.545501708984375,0.255584716796875,-0.0324249267578125,0.6032802316007562
1784555030.411719,-0.1591796875,0.16455078125,0.9765624403953552,1.0030400453189867,-0.4863739013671875,0.3757476806640625,0.2117156982421875,0.6500534042197902
1784555030.419709,-0.15234375,0.166015625,0.9799804091453552,1.0055503011868183,-0.4863739013671875,0.0095367431640625,-0.1544952392578125,0.5104109132401508
1784555030.430391,-0.15185546875,0.169921875,0.9604491591453552,0.9871150461297902,-0.240325927734375,0.072479248046875,-0.1544952392578125,0.2947517122802804
1784555030.441071,-0.14404296875,0.1669921875,0.9677733778953552,0.9925825298156998,-0.118255615234375,0.31280517578125,-0.5817413330078125,0.6710100200888999
1784555030.451752,-0.15771484375,0.1796875,0.9516600966453552,0.9812331573802343,-0.057220458984375,0.80108642578125,-0.7038116455078125,1.067878492549492
1784555030.459726,-0.1445312350988388,0.1728515625,0.9584960341453552,0.9846225612133114,0.186920166015625,0.43487548828125,-0.9479522705078125,1.0595609212933825
1784555030.4677,-0.1455077975988388,0.1630859375,0.9707030653953552,0.9950045142310953,0.064849853515625,0.67901611328125,-1.1310577392578125,1.3208179265635243
1784555030.475672,-0.142578125,0.1630859375,0.9541015028953552,0.9783839852358301,-0.240325927734375,0.92315673828125,-1.3141632080078125,1.6238841868362563
1784555030.483645,-0.15478515625,0.169921875,0.9799804091453552,1.0065751290924838,-0.1811981201171875,0.8640289306640625,-1.8024444580078125,2.0070338253157476
1784555030.494297,-0.1435546875,0.1669921875,0.9584960341453552,0.9834678370244915,-0.118255615234375,0.80108642578125,-1.9855499267578125,2.144325619805302
1784555030.50495,-0.150390625,0.1669921875,0.9750975966453552,1.0006593095342058,0.1239776611328125,0.3757476806640625,-1.6193389892578125,1.6669779668954532
1784555030.515601,-0.16259765625,0.18212890625,0.9760741591453552,1.006145963795078,0.3070831298828125,0.4978179931640625,-1.6193389892578125,1.7217379490233211
1784555030.524072,-0.1513671875,0.18017578125,0.9658202528953552,0.9940744934377684,0.4901885986328125,0.8029937744140625,-1.9855499267578125,2.1971555192169028
1784555030.532545,-0.142578125,0.1826171875,0.9628905653953552,0.9903715463533435,0.7381439208984375,0.8640289306640625,-2.2907257080078125,2.557112963932508
1784555030.541016,-0.14306640625,0.17529296875,0.9628905653953552,0.9891177191911311,0.675201416015625,0.80108642578125,-2.1076202392578125,2.3536566203865936
1784555030.549488,-0.16015625,0.171875,0.9750975966453552,1.0029986854540789,0.9784698486328125,0.8029937744140625,-2.0465850830078125,2.4063899826132413
1784555030.559726,-0.1640624850988388,0.158203125,0.9643554091453552,0.990921834921644,0.5512237548828125,0.8640289306640625,-1.7414093017578125,2.020618711489187
1784555030.569965,-0.16650390625,0.18896484375,0.9609374403953552,0.993394195334132,0.9212493896484375,1.0471343994140625,-1.3751983642578125,1.9586631740606222
