timestamp,accel_x,accel_y,accel_z,accel_rms,gyro_x,gyro_y,gyro_z,gyro_rms
1785425414.304785,0.04345703125,-0.4111328125,0.8979491591453552,0.9885501481913167,0.0782012939453125,-0.7991790771484375,0.8373260498046875,1.1601368683944457
1785425414.315466,0.0332031287252903,-0.40478515625,0.9042968153953552,0.9913153891732269,-0.041961669921875,-0.736236572265625,0.9593963623046875,1.21006051587825
1785425414.326147,0.0463867224752903,-0.39697265625,0.8925780653953552,0.9779747546113321,0.141143798828125,-0.797271728515625,0.8983612060546875,1.2093868849884057
1785425414.334264,0.02978515625,-0.4013671875,0.9106444716453552,0.9956184653132671,0.7495880126953125,-0.1888275146484375,0.6542205810546875,1.012690766098095
1785425414.342381,0.0429687537252903,-0.4184570014476776,0.9042968153953552,0.9973491395652113,0.690460205078125,-0.431060791015625,0.5321502685546875,0.9724878449987788
1785425414.3505,0.0498046875,-0.41162109375,0.9042968153953552,0.9948191604764658,0.873565673828125,-0.247955322265625,0.6542205810546875,1.119197657702235
1785425414.358618,0.0439453125,-0.396484375,0.9003905653953552,0.9848016147239153,0.934600830078125,-0.431060791015625,0.4711151123046875,1.1319194168206477
1785425414.369111,0.0322265662252903,-0.416015625,0.9028319716453552,0.9945919368463898,1.2378692626953125,-0.4940032958984375,0.5321502685546875,1.4351109630294034
1785425414.379604,0.04150390625,-0.39501953125,0.9013671278953552,0.9850003571335901,1.2378692626953125,-0.2460479736328125,0.2269744873046875,1.2823327706729932
1785425414.390097,0.0483398400247097,-0.39306640625,0.9072265028953552,0.989897907570089,1.667022705078125,0.057220458984375,-0.1392364501953125,1.6738057441756387
1785425414.400796,0.044921875,-0.3955078125,0.9033202528953552,0.9871331642149297,1.667022705078125,-0.308990478515625,0.0438690185546875,1.6959847599103761
1785425414.411493,0.037109375,-0.40478515625,0.8955077528953552,0.9834440827667408,1.422882080078125,0.179290771484375,-0.0171661376953125,1.4342361279894913
1785425414.422189,0.0429687537252903,-0.40185546875,0.9003905653953552,0.9869332813386903,1.483917236328125,0.118255615234375,-0.3223419189453125,1.523121488101165
1785425414.43281,0.0498046875,-0.3984375,0.8940429091453552,0.9800743194759837,1.056671142578125,0.057220458984375,-0.8106231689453125,1.3330183819117738
1785425414.443431,0.05712890625,-0.39501953125,0.8940429091453552,0.9790898147725677,0.446319580078125,0.667572021484375,-0.9937286376953125,1.2776346022261726
1785425414.454051,0.0400390662252903,-0.3876953125,0.8955077528953552,0.9766498439330006,0.0782012939453125,1.0356903076171875,-0.6923675537109375,1.2482558572258227
1785425414.462121,0.0234375037252903,-0.39404296875,0.8959960341453552,0.9790955372211595,-0.164031982421875,0.972747802734375,-0.9326934814453125,1.357594162226835
1785425414.470187,0.0424804724752903,-0.40771484375,0.9042968153953552,0.9928689312744114,-0.591278076171875,1.277923583984375,-1.1157989501953125,1.7965816839548223
1785425414.478255,0.0371093787252903,-0.40576171875,0.9033202528953552,0.9909627428330793,-0.4100799560546875,1.4019012451171875,-1.1157989501953125,1.838069631073833
1785425414.486322,0.041015625,-0.400390625,0.9111327528953552,0.9960711959898748,-0.591278076171875,1.644134521484375,-0.9937286376953125,2.010045943125169
1785425414.496925,0.02685546875,-0.39990234375,0.9135741591453552,0.9976276083773284,-0.469207763671875,0.972747802734375,-0.6923675537109375,1.2828745233444245
1785425414.507528,0.0244140625,-0.3994140625,0.9013671278953552,0.9861999488039074,0.0782012939453125,1.5239715576171875,-0.5702972412109375,1.6290622130949095
1785425414.518131,0.025390625,-0.40185546875,0.9013671278953552,0.9872158836103148,-0.041961669921875,1.216888427734375,-0.6923675537109375,1.400696632653959
1785425414.52878,0.02490234375,-0.4091796875,0.9096679091453552,0.9977694364509885,0.0782012939453125,0.6046295166015625,-0.4444122314453125,0.7544498168723764
1785425414.53943,0.0239257849752903,-0.39794921875,0.9067382216453552,0.990510083988548,0.202178955078125,0.789642333984375,-0.1392364501953125,0.8269208756342806
1785425414.550079,0.0214843787252903,-0.40234375,0.9047850966453552,0.9904434071691421,0.0782012939453125,0.4825592041015625,-0.2040863037109375,0.5297452663311374
1785425414.558117,0.0322265662252903,-0.39892578125,0.8896483778953552,0.975527840099109,-0.0438690185546875,0.2994537353515625,-0.2040863037109375,0.3650318476069563
1785425414.566154,0.0288085974752903,-0.3984375,0.8940429091453552,0.9792318929078204,-0.102996826171875,0.179290771484375,0.0438690185546875,0.21137175244079642
1785425414.574193,0.0244140625,-0.400390625,0.8862304091453552,0.9727862237560667,-0.774383544921875,0.057220458984375,0.2841949462890625,0.8268680808136176
1785425414.582231,0.0278320349752903,-0.39697265625,0.8916015028953552,0.9763785904792784,-0.774383544921875,-0.247955322265625,0.2269744873046875,0.844197331417747
1785425414.592851,0.0244140625,-0.39990234375,0.8950194716453552,0.9806007269061287,-0.8373260498046875,-0.5550384521484375,0.7152557373046875,1.233196402359384
1785425414.603471,0.0180664099752903,-0.40087890625,0.9003905653953552,0.9857654198127255,-1.2035369873046875,-0.6771087646484375,0.6542205810546875,1.528064830970764
1785425414.61409,0.0302734375,-0.38916015625,0.9033202528953552,0.9840475534858665,-1.140594482421875,-0.308990478515625,1.0204315185546875,1.561317191734071
1785425414.624748,0.0244140625,-0.40673828125,0.8974608778953552,0.9856308148767772,-1.445770263671875,-0.247955322265625,1.3256072998046875,1.9771110769132745
1785425414.635406,0.0239257849752903,-0.400390625,0.9077147841453552,0.9923866308705611,-1.3866424560546875,-0.3108978271484375,1.5659332275390625,2.1146114614675438
1785425414.646065,0.0419921875,-0.39013671875,0.9082030653953552,0.9893446371823984,-1.506805419921875,-0.308990478515625,1.2035369873046875,1.9530588749778375
1785425414.654104,0.0380859412252903,-0.4033203125,0.9057616591453552,0.9922308181929548,-1.6307830810546875,-0.5550384521484375,1.5087127685546875,2.289920382637244
1785425414.662143,0.0126953125,-0.40478515625,0.8999022841453552,0.9868314520169273,-1.2607574462890625,-0.5550384521484375,1.5659332275390625,2.0855991692670854
1785425414.670181,0.0312500037252903,-0.41259765625,0.9003905653953552,0.990917029285899,-1.3256072998046875,-0.3719329833984375,1.4476776123046875,1.9978336583918437
1785425414.678219,0.02490234375,-0.40869140625,0.8964843153953552,0.9855622354862855,-1.323699951171875,-0.614166259765625,1.4476776123046875,2.0555175077179766
1785425414.688848,0.01953125,-0.40478515625,0.8930663466453552,0.9807140214952477,-1.506805419921875,-0.797271728515625,1.2035369873046875,2.086769288255574
1785425414.699477,0.0273437537252903,-0.396484375,0.9077147841453552,0.9909054797724043,-1.6307830810546875,-1.0433197021484375,1.1425018310546875,2.2479501534305952
1785425414.710106,0.0185546912252903,-0.39697265625,0.9121093153953552,0.9949246049865438,-1.323699951171875,-1.163482666015625,1.3866424560546875,2.242465334355166
1785425414.7181,0.023437507450580597,-0.4091796875,0.9082030653953552,0.9963985856130133,-1.0204315185546875,-1.3484954833984375,1.6307830810546875,2.3492922360277
1785425414.726094,0.03466796875,-0.39892578125,0.9067382216453552,0.9912203839690521,-0.652313232421875,-1.407623291015625,1.6307830810546875,2.250859689109153
1785425414.73409,0.02001953125,-0.396484375,0.8945311903953552,0.9786657712624579,-0.774383544921875,-1.712799072265625,2.1800994873046875,2.878573311754612
1785425414.742085,0.028808601200580597,-0.404296875,0.8920897841453552,0.9798520712915834,-0.8983612060546875,-1.6536712646484375,2.4852752685546875,3.1174147411850046
1785425414.752757,0.0366210974752903,-0.3984375,0.9106444716453552,0.9946692414691393,-1.079559326171875,-1.712799072265625,2.0542144775390625,2.884254863983026
1785425414.763429,0.0336914025247097,-0.4033203125,0.9013671278953552,0.9880612755945358,-1.262664794921875,-1.224517822265625,2.1800994873046875,2.8011783334745775
1785425414.774101,0.01708984375,-0.39501953125,0.8955077528953552,0.9789109399348124,-1.262664794921875,-1.712799072265625,2.2373199462890625,3.087653411306389
1785425414.78479,0.03125,-0.39990234375,0.9023436903953552,0.9874829530847871,-1.445770263671875,-1.224517822265625,2.3021697998046875,2.9815568650449626
1785425414.795482,0.04296875,-0.4140625,0.9067382216453552,0.9977315620824039,-1.2035369873046875,-1.3484954833984375,2.3632049560546875,2.975177139747794
1785425414.806174,0.0371093787252903,-0.4072265625,0.9169921278953552,1.0040344325853545,-1.1425018310546875,-1.5316009521484375,2.3021697998046875,2.9918385146458135
1785425414.814156,0.0390625,-0.4052734375,0.9096679091453552,0.996628387604025,-0.957489013671875,-1.895904541015625,2.3021697998046875,3.132287507091066
1785425414.822139,0.0380859412252903,-0.40185546875,0.9140624403953552,0.99922394968536,-1.018524169921875,-1.895904541015625,2.4204254150390625,3.238873986916708
1785425414.830122,0.02490234375,-0.40869140625,0.9018554091453552,0.9904503880919941,-0.774383544921875,-1.834869384765625,2.1800994873046875,2.9528375011744403
1785425414.838104,0.0400390625,-0.41455078125,0.8935546278953552,0.9858475286747292,-0.652313232421875,-1.956939697265625,2.3632049560546875,3.13685562247423
1785425414.848768,0.0366210974752903,-0.40380859375,0.8964843153953552,0.9839139255628645,-1.079559326171875,-1.956939697265625,2.6073455810546875,3.4341392366216246
1785425414.859433,0.0356445349752903,-0.41748046875,0.8950194716453552,0.9882410279307651,-1.1425018310546875,-2.0198822021484375,2.4852752685546875,3.4002687695252725
1785425414.870097,0.044921875,-0.40576171875,0.8950194716453552,0.9837278088377905,-1.445770263671875,-1.651763916015625,2.4852752685546875,3.3158963871114384
1785425414.880745,0.04345703125,-0.40478515625,0.8994140028953552,0.9872614065634524,-1.6307830810546875,-1.5316009521484375,2.4204254150390625,3.296014885258141
1785425414.891396,0.0390625,-0.423828125,0.8950194716453552,0.9910681172712582,-1.750946044921875,-1.712799072265625,2.1190643310546875,3.238815578777185
1785425414.902047,0.0478515662252903,-0.4013671875,0.8876952528953552,0.9753913335706967,-1.750946044921875,-1.468658447265625,2.3632049560546875,3.2874773537278807
1785425414.912724,0.029296875,-0.41015625,0.9062499403953552,0.9951760702335105,-1.6918182373046875,-1.5316009521484375,2.2373199462890625,3.195880311707814
1785425414.923403,0.0463867224752903,-0.408203125,0.8837890028953552,0.9746099327015559,-1.8749237060546875,-1.2874603271484375,2.4852752685546875,3.368899843865439
1785425414.934082,0.0454101599752903,-0.41796875,0.9130858778953552,1.0052292171527226,-1.567840576171875,-1.773834228515625,2.3632049560546875,3.3450485208537732
1785425414.94208,0.037109375,-0.4140625,0.9096679091453552,1.0001602694308662,-1.811981201171875,-1.712799072265625,2.8514862060546875,3.787866169583399
1785425414.950079,0.0576171912252903,-0.4086913764476776,0.9052733778953552,0.9949212384070689,-1.3256072998046875,-1.3484954833984375,2.3632049560546875,3.0266173273743906
1785425414.958077,0.03369140625,-0.4189453125,0.8969725966453552,0.990560510445241,-1.018524169921875,-0.980377197265625,2.7256011962890625,3.0704124828507675
1785425414.966075,0.0454101599752903,-0.4169921875,0.9096679091453552,1.0017186591023943,-0.957489013671875,-0.797271728515625,2.2373199462890625,2.560864690383997
1785425414.974101,0.0439453125,-0.42919921875,0.9028319716453552,1.0006241696518092,-0.7152557373046875,-1.1653900146484375,2.4204254150390625,2.779961123065676
1785425414.982126,0.04052734375,-0.4150390625,0.8984374403953552,0.9904997341223606,-0.7152557373046875,-0.6771087646484375,2.1800994873046875,2.3922585193613934
1785425414.990153,0.05419921875,-0.4169921875,0.8999022841453552,0.9932996329200837,-0.469207763671875,-0.675201416015625,2.1190643310546875,2.272990654804308
1785425414.998178,0.0522460974752903,-0.4111328125,0.8999022841453552,0.9907491939060992,-0.652313232421875,-0.736236572265625,2.0542144775390625,2.277576335332187
1785425415.008812,0.04541015625,-0.421875,0.9057616591453552,1.0002223658234184,-0.5893707275390625,-0.5550384521484375,1.6307830810546875,1.8206809152889687
1785425415.019447,0.0527343787252903,-0.4130859375,0.8999022841453552,0.9915871255062885,-0.6542205810546875,-0.5550384521484375,1.5087127685546875,1.7355939819090225
1785425415.030081,0.04931640625,-0.41357421875,0.9072265028953552,0.9982663321457976,-0.7724761962890625,-0.5550384521484375,1.2607574462890625,1.5793341937569356
1785425415.04074,0.05078125,-0.4111328125,0.8955077528953552,0.9866828570322945,-0.102996826171875,-0.247955322265625,0.7724761962890625,0.817807839210745
1785425415.051404,0.044921875,-0.41162109375,0.9013671278953552,0.9919236860382877,-0.041961669921875,-0.247955322265625,0.7724761962890625,0.8123805127006066
1785425415.062067,0.0366210974752903,-0.41748046875,0.9140624403953552,1.0055551658211133,0.324249267578125,-0.186920166015625,0.5893707275390625,0.6981651598785084
1785425415.07022,0.0332031287252903,-0.4150390625,0.9023436903953552,0.9937726132040144,0.568389892578125,-0.308990478515625,0.2841949462890625,0.7066179684203696
1785425415.078375,0.03564453125,-0.40966796875,0.9086913466453552,0.9974058054252203,0.5702972412109375,-0.0667572021484375,0.4711151123046875,0.7427280231776312
1785425415.086529,0.03466796875,-0.416015625,0.9023436903953552,0.9942308604633535,0.812530517578125,-0.431060791015625,0.0438690185546875,0.9208386060193955
1785425415.094685,0.0336914025247097,-0.412109375,0.8964843153953552,0.9872453470727788,1.056671142578125,-0.247955322265625,0.1010894775390625,1.0900710196433674
1785425415.105161,0.0415039099752903,-0.41259765625,0.9086913466453552,0.9988390080260078,0.812530517578125,-0.125885009765625,0.1659393310546875,0.8388019666586055
1785425415.115637,0.0444335900247097,-0.39794921875,0.9082030653953552,0.9925576721882408,0.873565673828125,0.118255615234375,0.1659393310546875,0.897015740450592
1785425415.126112,0.03466796875,-0.41162109375,0.8901366591453552,0.9813139481489355,0.7495880126953125,-0.0057220458984375,0.2269744873046875,0.7832192212101268
1785425415.134129,0.0429687537252903,-0.421875,0.8857421278953552,0.9820203391734289,0.6275177001953125,-0.0667572021484375,0.2841949462890625,0.6920995272309789
1785425415.142144,0.03564453125,-0.404296875,0.8994140028953552,0.9867482173011735,0.568389892578125,-0.003814697265625,0.2269744873046875,0.6120449654947148
1785425415.150161,0.03173828125,-0.419921875,0.8916015028953552,0.9860501709170157,0.507354736328125,-0.003814697265625,0.7152557373046875,0.8769345187282125
1785425415.158176,0.0336914025247097,-0.40380859375,0.8911132216453552,0.9789173942583708,0.2613067626953125,0.1163482666015625,0.2841949462890625,0.40321819262991565
1785425415.168844,0.0239257849752903,-0.408203125,0.8950194716453552,0.9840030940351663,0.0782012939453125,0.1163482666015625,0.7724761962890625,0.7850935201293714
1785425415.179511,0.0302734375,-0.40185546875,0.8847655653953552,0.9722213762779088,0.0782012939453125,-0.1888275146484375,0.7152557373046875,0.7438830838312558
1785425415.190177,0.048828125,-0.4091796875,0.9008788466453552,0.9906537734176752,-0.530242919921875,-0.247955322265625,0.8983612060546875,1.0722370318689607
1785425415.2008,0.03271484375,-0.3896484375,0.8886718153953552,0.9708932800909967,-0.8983612060546875,-0.4940032958984375,1.4476776123046875,1.7739398473653927
1785425415.211422,0.0302734412252903,-0.40234375,0.8959960341453552,0.9826524653263168,-0.835418701171875,-0.431060791015625,1.5087127685546875,1.777625390744256
1785425415.222043,0.0371093787252903,-0.40234375,0.8994140028953552,0.9860036246169106,-1.3256072998046875,-0.3719329833984375,1.5659332275390625,2.085117677865219
1785425415.23009,0.0439453125,-0.40966796875,0.9042968153953552,0.9937362655376198,-0.5893707275390625,-0.5550384521484375,1.9969940185546875,2.1548574542151173
1785425415.238137,0.0419921912252903,-0.40673828125,0.9033202528953552,0.9915577909779308,-0.652313232421875,-0.247955322265625,1.8138885498046875,1.9434984090924996
1785425415.246186,0.0400390625,-0.40234375,0.8999022841453552,0.9865636019537559,-0.469207763671875,-0.492095947265625,1.7490386962890625,1.876552879063566
1785425415.254234,0.0307617224752903,-0.40234375,0.8969725966453552,0.983558140562326,-0.652313232421875,-0.492095947265625,1.6918182373046875,1.878808112230908
1785425415.264839,0.0332031287252903,-0.4184570014476776,0.9038085341453552,0.9965332790287064,-0.347137451171875,-0.797271728515625,1.3256072998046875,1.5853647316601542
1785425415.275444,0.0341796875,-0.40869140625,0.9023436903953552,0.9911715553709706,-0.286102294921875,-0.614166259765625,1.5087127685546875,1.653864848103983
1785425415.286048,0.0527343787252903,-0.400390625,0.8891600966453552,0.9765752632305461,-0.469207763671875,-0.492095947265625,0.8983612060546875,1.126661973863167
1785425415.29407,0.0537109375,-0.40869140625,0.8974608778953552,0.987597872467551,-0.713348388671875,-0.614166259765625,0.7152557373046875,1.1822253964462655
1785425415.302093,0.0322265625,-0.4091796875,0.8930663466453552,0.9828703207970245,-0.774383544921875,-0.614166259765625,0.5321502685546875,1.1225212593100822
1785425415.310116,0.0458984375,-0.40478515625,0.8979491591453552,0.9860377181909061,-1.0776519775390625,-0.5550384521484375,0.0438690185546875,1.2129822582569527
1785425415.318139,0.03515625,-0.41015625,0.8950194716453552,0.9851517476777147,-1.140594482421875,-0.614166259765625,-0.2040863037109375,1.3114141936581727
1785425415.328777,0.0473632849752903,-0.41748046875,0.8979491591453552,0.9913858557399439,-1.140594482421875,-0.431060791015625,-0.1392364501953125,1.2272554615666753
1785425415.339415,0.04443359375,-0.4150390625,0.9008788466453552,0.9928818983078926,-1.2035369873046875,-0.2460479736328125,-0.2613067626953125,1.2559148495696517
1785425415.350053,0.04541015625,-0.41845703125,0.9047850966453552,0.9979000152343709,-1.262664794921875,0.057220458984375,-0.2040863037109375,1.2803311230396128
1785425415.358101,0.05908203125,-0.4150390625,0.9077147841453552,0.9998471078987795,-1.262664794921875,0.240325927734375,-0.4444122314453125,1.3599930762083647
1785425415.366149,0.041015625,-0.4150390625,0.9038085341453552,0.9953941788502659,-0.7152557373046875,0.2422332763671875,-0.3871917724609375,0.8486372597219007
1785425415.374197,0.0361328125,-0.42041015625,0.9140624403953552,1.0067573811792103,-0.5321502685546875,0.1163482666015625,-0.5054473876953125,0.7431001878562741
1785425415.382245,0.0400390662252903,-0.427734375,0.9057616591453552,1.0024789302317434,-0.286102294921875,0.301361083984375,-0.3871917724609375,0.567970505186003
1785425415.392885,0.03515625,-0.41455078125,0.8989257216453552,0.9905330712220922,0.141143798828125,0.545501708984375,-0.2040863037109375,0.5992869978690519
1785425415.403527,0.0405273474752903,-0.41796875,0.8999022841453552,0.9930581367069972,0.1392364501953125,0.1163482666015625,-0.2040863037109375,0.2730841034673623
1785425415.414168,0.0327148474752903,-0.40576171875,0.8950194716453552,0.9832459958080767,-0.286102294921875,0.484466552734375,-0.2040863037109375,0.5985094679621079
1785425415.422147,0.0263671875,-0.41943359375,0.8911132216453552,0.9852423772523511,0.2613067626953125,0.1163482666015625,-0.0782012939453125,0.29653597715321794
1785425415.430128,0.041015625,-0.4150390625,0.9042968153953552,0.9958375546389083,0.324249267578125,0.179290771484375,0.2269744873046875,0.43451143385604785
1785425415.438109,0.0493164025247097,-0.41748046875,0.8959960341453552,0.9897125555179662,0.568389892578125,-0.125885009765625,0.0438690185546875,0.5838138371584006
1785425415.44609,0.04052734375,-0.41162109375,0.9062499403953552,0.9961743546578389,0.4444122314453125,-0.1888275146484375,0.0438690185546875,0.4848531247042339
1785425415.456752,0.0332031287252903,-0.3916015625,0.8994140028953552,0.9815293068033352,0.141143798828125,-0.492095947265625,0.6542205810546875,0.8307132850378763
1785425415.467413,0.0507812537252903,-0.40771484375,0.8945311903953552,0.9843760359406005,0.202178955078125,-0.186920166015625,0.3490447998046875,0.44457592221181486
1785425415.478076,0.029296875,-0.3994140625,0.8842772841453552,0.9707400349542635,0.263214111328125,-0.125885009765625,0.4711151123046875,0.5541463282633968
1785425415.486072,0.04150390625,-0.40966796875,0.8881835341453552,0.9789894836925948,-0.041961669921875,-0.247955322265625,0.4100799560546875,0.48104905564848244
1785425415.494068,0.0341796875,-0.412109375,0.8876952528953552,0.9792881343166765,-0.4100799560546875,0.0591278076171875,0.4711151123046875,0.6273843455436929
1785425415.502064,0.0556640625,-0.41845703125,0.8955077528953552,0.9900196514980175,-0.9593963623046875,0.4215240478515625,0.6542205810546875,1.235365723822774
1785425415.51006,0.03955078125,-0.41015625,0.8920897841453552,0.9826579245536334,-0.8373260498046875,0.6046295166015625,0.5321502685546875,1.161841501389147
1785425415.520759,0.0415039099752903,-0.408203125,0.8847655653953552,0.9752755874686729,-1.262664794921875,0.545501708984375,0.4711151123046875,1.4539064439921272
1785425415.531457,0.0400390625,-0.4111328125,0.8823241591453552,0.9742326405184735,-1.262664794921875,0.484466552734375,0.3490447998046875,1.3967327938171008
1785425415.542156,0.029296875,-0.416015625,0.8896483778953552,0.9825484941827264,-1.750946044921875,0.606536865234375,0.2269744873046875,1.8668734394712259
1785425415.552831,0.037109375,-0.4287109375,0.8945311903953552,0.9926511090182445,-1.262664794921875,0.484466552734375,0.2269744873046875,1.3713306103710567
1785425415.563508,0.0322265625,-0.41455078125,0.9125975966453552,1.002858551824947,-1.2035369873046875,0.2422332763671875,0.3490447998046875,1.276326961346786
1785425415.574184,0.03125,-0.419921875,0.9082030653953552,1.0010713019545787,-1.079559326171875,-0.003814697265625,0.4711151123046875,1.17788468861844
1785425415.582181,0.0400390662252903,-0.4228515625,0.9028319716453552,0.9977535466025286,-0.1010894775390625,-0.5550384521484375,0.4100799560546875,0.6974613510369362
1785425415.590177,0.0361328125,-0.41552734375,0.9052733778953552,0.9967389037602362,0.3223419189453125,-0.3719329833984375,0.7152557373046875,0.868233394080348
1785425415.598173,0.0302734375,-0.416015625,0.9062499403953552,0.9976344198797433,0.0782012939453125,-0.4940032958984375,0.9593963623046875,1.081940885047195
1785425415.606169,0.0375976599752903,-0.41015625,0.8974608778953552,0.9874602578344011,0.4444122314453125,-0.6771087646484375,0.8373260498046875,1.1649435283752845
1785425415.616885,0.0332031287252903,-0.435546875,0.9013671278953552,1.0016317823081171,0.385284423828125,-0.797271728515625,1.0776519775390625,1.394783166312497
1785425415.627603,0.0288085974752903,-0.40673828125,0.8920897841453552,0.9808619412023304,0.629425048828125,-0.614166259765625,1.0204315185546875,1.3470918939651482
1785425415.63832,0.044921875,-0.4150390625,0.8886718153953552,0.9818416337335013,0.690460205078125,-0.553131103515625,1.0776519775390625,1.394282287475098
1785425415.648971,0.0390625,-0.42578125,0.8945311903953552,0.9914643727073322,0.0782012939453125,-0.9822845458984375,1.0776519775390625,1.460250716890587
1785425415.659622,0.044921875,-0.40380859375,0.8994140028953552,0.9869270002609688,0.1392364501953125,-0.8602142333984375,1.0204315185546875,1.3418777144226215
1785425415.670273,0.0380859412252903,-0.40771484375,0.8979491591453552,0.9869116602528079,0.1392364501953125,-0.6771087646484375,0.8983612060546875,1.1335413202749856
1785425415.679279,0.0341796875,-0.41064453125,0.8979491591453552,0.9879827298556287,0.202178955078125,-0.675201416015625,0.5321502685546875,0.8831518501304368
1785425415.688286,0.0473632849752903,-0.4111328125,0.9028319716453552,0.9931661690285519,-0.041961669921875,-0.614166259765625,0.4100799560546875,0.7396800299690022
1785425415.697293,0.0527343787252903,-0.4135741889476776,0.8833007216453552,0.9767521125252184,0.324249267578125,-0.492095947265625,0.4711151123046875,0.7544835703195011
1785425415.7063,0.0468750037252903,-0.41796875,0.8999022841453552,0.9933374366049214,0.2613067626953125,-0.5550384521484375,0.0438690185546875,0.6150393470198384
1785425415.715635,0.04541015625,-0.416015625,0.9111327528953552,1.0026434939366327,0.507354736328125,-0.431060791015625,0.2269744873046875,0.7033773183098978
1785425415.72497,0.0317382849752903,-0.41650390625,0.8999022841453552,0.9921224438871994,0.7495880126953125,-0.2460479736328125,0.1010894775390625,0.7953872494417055
1785425415.734304,0.041015625,-0.40478515625,0.8872069716453552,0.9760479059711156,0.995635986328125,-0.247955322265625,0.2269744873046875,1.050852167052366
1785425415.744934,0.04248046875,-0.4189453125,0.8989257216453552,0.992666720569681,0.995635986328125,0.179290771484375,-0.1392364501953125,1.0211870480348018
1785425415.755563,0.03857421875,-0.404296875,0.8994140028953552,0.98685839009008,1.0585784912109375,-0.0667572021484375,-0.3871917724609375,1.1291423359145447
1785425415.766192,0.03857421875,-0.42138671875,0.9013671278953552,0.9957496855843773,0.995635986328125,-0.125885009765625,-0.5702972412109375,1.1542863580100373
1785425415.776831,0.041015625,-0.41015625,0.8984374403953552,0.9884838214216561,1.056671142578125,-0.003814697265625,-0.3223419189453125,1.104750093089806
1785425415.787471,0.0380859412252903,-0.4326171875,0.9013671278953552,1.0005352912764987,1.6040802001953125,-0.5550384521484375,-0.3223419189453125,1.7277283596478104
1785425415.79811,0.0400390625,-0.40869140625,0.8925780653953552,0.9825107607010707,1.483917236328125,-0.431060791015625,-0.2613067626953125,1.5671965397017125
1785425415.806341,0.0429687537252903,-0.40966796875,0.8706054091453552,0.9631344334253692,1.178741455078125,-0.492095947265625,-0.2613067626953125,1.3037910351989894
1785425415.81457,0.04443359375,-0.40478515625,0.8911132216453552,0.9797490192723037,0.995635986328125,-0.308990478515625,-0.3223419189453125,1.0911784665187632
1785425415.822798,0.05419921875,-0.419921875,0.8842772841453552,0.9804173864595177,0.7495880126953125,-0.1888275146484375,-0.2040863037109375,0.7994931134332596
1785425415.831028,0.0424804724752903,-0.4052734375,0.8720702528953552,0.9625786594714009,0.0782012939453125,-0.0667572021484375,-0.2613067626953125,0.2808081028811542
1785425415.841395,0.0400390625,-0.40869140625,0.8886718153953552,0.9789634250300456,-0.041961669921875,0.179290771484375,-0.3871917724609375,0.42874634825679525
1785425415.851762,0.04248046875,-0.4091796875,0.9023436903953552,0.9916938753890366,-0.286102294921875,0.240325927734375,-0.8106231689453125,0.8925922903161847
1785425415.862129,0.05078125,-0.41552734375,0.8955077528953552,0.9885220504628016,-0.652313232421875,0.179290771484375,-0.7495880126953125,1.0097226959460925
1785425415.872796,0.04345703125,-0.41455078125,0.8911132216453552,0.9837802791229415,-1.0204315185546875,0.7877349853515625,-1.5468597412109375,2.013599252628442
1785425415.883462,0.0541992150247097,-0.4228515625,0.9101561903953552,1.005049894151018,-0.591278076171875,1.033782958984375,-1.6651153564453125,2.047175156140286
1785425415.894128,0.06494140625,-0.427734375,0.9140624403953552,1.0112785109671225,-0.1010894775390625,1.5811920166015625,-2.8285980224609375,3.2421218435622623
1785425415.902121,0.083984375,-0.42626953125,0.9165038466453552,1.0142674151484745,0.0782012939453125,1.7642974853515625,-3.6830902099609375,4.084607025639391
1785425415.910113,0.08740234375,-0.43310546875,0.9194335341453552,1.0200870259272825,0.995635986328125,2.376556396484375,-5.2661895751953125,5.862769308512672
1785425415.918105,0.08935546875,-0.4267578125,0.9057616591453552,1.0052416692035124,1.300811767578125,3.292083740234375,-6.7310333251953125,7.605046760689585
1785425415.926097,0.08544921875,-0.4228515625,0.9116210341453552,1.0085424744600118,1.7261505126953125,3.1070709228515625,-8.501052856445312,9.214194754843472
1785425415.936742,0.08203125,-0.42919921875,0.9111327528953552,1.0104969019006647,2.0923614501953125,2.9239654541015625,-9.843826293945312,10.479907753430462
1785425415.947387,0.07861328125,-0.4306640625,0.9165038466453552,1.0156923174040593,2.643585205078125,2.864837646484375,-11.491775512695312,12.134938891951855
1785425415.958032,0.0693359375,-0.42333984375,0.9028319716453552,0.9995647375534602,3.131866455078125,2.498626708984375,-12.895584106445312,13.503622194422453
1785425415.968725,0.060546875,-0.42041015625,0.8974608778953552,0.9928981070095344,3.437042236328125,1.888275146484375,-14.604568481445312,15.121913334375378
1785425415.97942,0.044921875,-0.419921875,0.9155272841453552,1.0082373549772896,3.742218017578125,2.376556396484375,-14.791488647460938,15.441513928521482
1785425415.990113,0.0556640625,-0.416015625,0.9135741591453552,1.0053781539084123,4.047393798828125,2.315521240234375,-15.031814575195312,15.738439713002784
1785425416.000766,0.041015625,-0.40869140625,0.8925780653953552,0.9825510418607566,4.291534423828125,2.742767333984375,-14.974594116210938,15.8170322533822
1785425416.01142,0.0478515662252903,-0.3984375,0.8872069716453552,0.9737445375110381,4.169464111328125,2.681732177734375,-14.665603637695312,15.480828417973347
1785425416.022074,0.0400390625,-0.3974609375,0.8959960341453552,0.9810133620743717,4.1065216064453125,2.5577545166015625,-14.791488647460938,15.562575759795152
1785425416.0301,0.0478515662252903,-0.3935546875,0.9018554091453552,0.9851488432963681,4.291534423828125,2.986907958984375,-14.665603637695312,15.569804652734986
1785425416.038126,0.0590820275247097,-0.40771484375,0.8974608778953552,0.9875009403252328,4.474639892578125,2.498626708984375,-15.398025512695312,16.228515868332426
1785425416.046152,0.05419921875,-0.40380859375,0.8881835341453552,0.9771739487043217,4.5337677001953125,2.8667449951171875,-16.256332397460938,17.11845844236863
1785425416.054178,0.07666015625,-0.390625,0.8916015028953552,0.9764312111698041,4.3506622314453125,2.3784637451171875,-18.327713012695312,18.9865851567543
1785425416.064824,0.0947265625,-0.4111328125,0.8959960341453552,0.9903596338509719,4.6596527099609375,2.2525787353515625,-20.158767700195312,20.812553652227354
1785425416.075469,0.10107421875,-0.400390625,0.9018554091453552,0.9919031350331289,4.474639892578125,2.193450927734375,-22.600173950195312,23.14306573727252
1785425416.086116,0.115234375,-0.3994140625,0.8999022841453552,0.99127931256252,4.108428955078125,2.193450927734375,-25.041580200195312,25.470986521415245
1785425416.094101,0.1201171875,-0.40185546875,0.9125975966453552,1.0043656355631005,4.7168731689453125,2.0694732666015625,-27.849197387695312,28.32153610297136
1785425416.102084,0.130859375,-0.392578125,0.8974608778953552,0.9882700985088074,4.718780517578125,2.498626708984375,-31.026840209960938,31.482929317621856
1785425416.110067,0.12109375,-0.3974609375,0.9238280653953552,1.012964553940347,4.5337677001953125,2.2525787353515625,-33.70857238769531,34.08661046415128
1785425416.126066,0.13330078125,-0.40087890625,0.9184569716453552,1.0109580626920256,4.8389434814453125,3.7174224853515625,-39.69383239746094,40.160116214335574
1785425416.134079,0.119140625,-0.4140625,0.9111327528953552,1.0078715869744068,5.084991455078125,3.414154052734375,-41.88728332519531,42.3327070993482
1785425416.142094,0.12353515625,-0.3935546875,0.9033202528953552,0.9930426507325166,5.0220489501953125,3.5953521728515625,-44.02351379394531,44.454665668191446
1785425416.150108,0.10888671875,-0.3916015625,0.9057616591453552,0.9927800785926003,4.962921142578125,3.658294677734375,-45.30525207519531,45.72285612047412
1785425416.160815,0.0791015625,-0.388671875,0.9038085341453552,0.9870120313349442,4.8389434814453125,3.8433074951171875,-46.22077941894531,46.63203659088293
1785425416.171521,0.0615234412252903,-0.3740234375,0.8896483778953552,0.9670330407547381,4.474639892578125,3.841400146484375,-46.52595520019531,46.89822240281867
1785425416.182229,0.0673828125,-0.38037109375,0.8901366591453552,0.9703431786411629,3.925323486328125,3.780364990234375,-46.40769958496094,46.726586700717746
1785425416.190193,0.08984375,-0.38720703125,0.8935546278953552,0.977978045508542,3.681182861328125,4.268646240234375,-46.46492004394531,46.80556850069267
1785425416.198154,0.08447265625,-0.37890625,0.8999022841453552,0.9800661696809154,2.8858184814453125,5.0029754638671875,-46.46492004394531,46.82250000256436
1785425416.206117,0.06103515625,-0.38037109375,0.8925780653953552,0.972164112731975,2.887725830078125,5.611419677734375,-45.61424255371094,46.04873630207607
1785425416.214079,0.0512695349752903,-0.37890625,0.9023436903953552,0.9800115545757375,2.7027130126953125,5.4912567138671875,-44.81697082519531,45.232946309885584
1785425416.225322,0.04638671875,-0.384765625,0.8959960341453552,0.9762198559045174,2.155303955078125,5.489349365234375,-43.29490661621094,43.694704833638596
1785425416.236565,0.03857421875,-0.38525390625,0.9042968153953552,0.9836977548857362,2.3975372314453125,5.6705474853515625,-41.39900207519531,41.85427894949117
1785425416.247808,0.0224609412252903,-0.373046875,0.9130858778953552,0.9866074625908335,2.155303955078125,5.672454833984375,-39.02244567871094,39.49143382722782
1785425416.257886,-0.00927734375,-0.38232421875,0.9062499403953552,0.983639584307402,1.850128173828125,4.207611083984375,-33.34236145019531,33.657689052713216
1785425416.267963,-0.011718746274709702,-0.37646484375,0.8911132216453552,0.967442960274727,1.5468597412109375,4.0225982666015625,-30.229568481445312,30.535240009664847
1785425416.278039,0.009765625,-0.39208984375,0.8793944716453552,0.9628937894513359,1.2989044189453125,3.7174224853515625,-26.628494262695312,26.918081085444225
1785425416.286048,0.0278320349752903,-0.39013671875,0.8940429091453552,0.9758555245941749,1.056671142578125,4.085540771484375,-24.129867553710938,24.496095718678323
1785425416.294058,0.0371093787252903,-0.3642578125,0.9047850966453552,0.9760619504253851,0.568389892578125,4.512786865234375,-21.562576293945312,22.037082583527912
1785425416.302067,0.0463867224752903,-0.3837890625,0.9111327528953552,0.9897518203647301,0.202178955078125,5.001068115234375,-19.857406616210938,20.47848031824208
1785425416.310076,0.05615234375,-0.39599609375,0.9101561903953552,0.9941580774146851,-0.0438690185546875,5.0601959228515625,-18.087387084960938,18.781934906437204
1785425416.320777,0.0751953125,-0.37353515625,0.9033202528953552,0.9803929453375382,-0.225067138671875,5.306243896484375,-16.744613647460938,17.56670047870751
1785425416.331477,0.08251953125,-0.38525390625,0.9150390028953552,0.996256203061406,-0.652313232421875,5.428314208984375,-15.951156616210938,16.862132282114985
1785425416.342179,0.07421875,-0.37060546875,0.9086913466453552,0.9841629945223093,-0.8983612060546875,5.4912567138671875,-15.462875366210938,16.433547022633565
1785425416.35282,0.0624999962747097,-0.39306640625,0.9218749403953552,1.0041219323297188,-0.8983612060546875,5.5484771728515625,-14.303207397460938,15.367966477350873
1785425416.36346,0.0625,-0.39453125,0.9077147841453552,0.9917193587818135,-0.835418701171875,5.428314208984375,-13.566970825195312,14.636502892748327
1785425416.3741,0.0498046875,-0.3837890625,0.8984374403953552,0.9782455651296146,-0.896453857421875,5.123138427734375,-12.655258178710938,13.682314732458295
1785425416.382107,0.0380859412252903,-0.365234375,0.8906249403953552,0.9633584338421951,-1.140594482421875,4.512786865234375,-11.125564575195312,12.060032677451748
1785425416.390115,0.0498046875,-0.36181640625,0.8876952528953552,0.9598929527512879,-1.5659332275390625,4.2057037353515625,-9.416580200195312,10.431302576829577
1785425416.398123,0.0322265662252903,-0.37744140625,0.8935546278953552,0.9705361609728188,-1.934051513671875,3.475189208984375,-7.6465606689453125,8.619013015400272
1785425416.414126,0.0366210974752903,-0.37646484375,0.8979491591453552,0.9743611115853593,-3.3397674560546875,2.7408599853515625,-3.4351348876953125,5.519647798228149
1785425416.42212,0.0356445349752903,-0.36376953125,0.8862304091453552,0.9586465161014216,-3.8280487060546875,2.5577545166015625,-1.1157989501953125,4.737200899305372
1785425416.430114,0.0239257849752903,-0.36767578125,0.9042968153953552,0.9764787010675977,-4.0111541748046875,2.3784637451171875,0.8373260498046875,4.73788586972834
1785425416.438108,0.0415039099752903,-0.37451171875,0.9111327528953552,0.9859738817144116,-4.2552947998046875,2.5577545166015625,2.3021697998046875,5.472625310358207
1785425416.449145,0.08154296875,-0.392578125,0.9072265028953552,0.9918804199785451,-4.131317138671875,2.620697021484375,3.2787322998046875,5.889475330832415
1785425416.460181,0.0673828125,-0.38671875,0.9052733778953552,0.9867176514829555,-4.0111541748046875,2.3136138916015625,3.8852691650390625,6.044624350467789
1785425416.471219,0.07568359375,-0.3876953125,0.9155272841453552,0.9971087552077545,-3.7021636962890625,2.5577545166015625,3.9501190185546875,5.987617594842195
1785425416.478976,0.08251953125,-0.3701171875,0.9057616591453552,0.9819370594383209,-3.6449432373046875,2.9239654541015625,3.8852691650390625,6.077047117207161
1785425416.486735,0.07763671875,-0.376953125,0.9130858778953552,0.9908818996012915,-3.276824951171875,3.170013427734375,4.1332244873046875,6.153869640729636
1785425416.494493,0.083984375,-0.38916015625,0.9038085341453552,0.9876076492467243,-2.971649169921875,2.376556396484375,4.0721893310546875,5.573279558996102
1785425416.50225,0.0908203125,-0.37744140625,0.9125975966453552,0.9917382304406005,-3.032684326171875,2.010345458984375,3.9501190185546875,5.3704844611464155
1785425416.51288,0.0693359375,-0.38916015625,0.9174804091453552,0.9990112114521321,-3.154754638671875,1.705169677734375,4.0111541748046875,5.38046822071644
1785425416.523509,0.072265625,-0.396484375,0.9238280653953552,1.0079089614582788,-3.0345916748046875,0.8487701416015625,4.1332244873046875,5.197374534178132
1785425416.534137,0.064453125,-0.38916015625,0.9101561903953552,0.991959738825007,-2.605438232421875,0.484466552734375,4.5604705810546875,5.274552885728726
1785425416.542471,0.0537109375,-0.380859375,0.9116210341453552,0.9894400629794442,-2.422332763671875,-0.247955322265625,5.6552886962890625,6.15722893014162
1785425416.550807,0.0522460974752903,-0.373046875,0.9086913466453552,0.9836735175437084,-2.117156982421875,-0.492095947265625,6.5097808837890625,6.8630721447816985
1785425416.559143,0.0654296875,-0.3984375,0.9121093153953552,0.9974852824195358,-1.934051513671875,-0.431060791015625,7.3680877685546875,7.629881128052565
1785425416.567478,0.06005859375,-0.3818359375,0.9052733778953552,0.9843401884388334,-1.689910888671875,-0.797271728515625,8.222579956054688,8.432215732205526
1785425416.577674,0.06396484375,-0.38720703125,0.9082030653953552,0.9893703018985966,-1.934051513671875,-0.736236572265625,8.832931518554688,9.07211545116985
1785425416.587869,0.05419921875,-0.384765625,0.8945311903953552,0.9752785202622286,-1.811981201171875,-0.675201416015625,9.870529174804688,10.05815683991159
1785425416.598064,0.06689453125,-0.38720703125,0.8940429091453552,0.9765842957746584,-2.605438232421875,-0.492095947265625,10.480880737304688,10.81107431451127
1785425416.606132,0.04345703125,-0.38671875,0.8959960341453552,0.9768565904833885,-2.910614013671875,-0.247955322265625,11.152267456054688,11.528496224130858
1785425416.614197,0.0527343787252903,-0.3974609375,0.9067382216453552,0.9914284210826834,-2.910614013671875,-0.553131103515625,12.128829956054688,12.48543727937268
1785425416.622264,0.0556640625,-0.390625,0.9106444716453552,0.992451375240748,-3.154754638671875,-0.308990478515625,12.800216674804688,13.186868425368587
1785425416.63033,0.04443359375,-0.390625,0.8959960341453552,0.9784534368495746,-3.215789794921875,-0.492095947265625,13.654708862304688,14.03689910702293
1785425416.639873,0.0473632849752903,-0.4013671875,0.8989257216453552,0.98559948914401,-3.154754638671875,-0.247955322265625,14.017105102539062,14.369871054664623
1785425416.649416,0.0527343787252903,-0.3916015625,0.9023436903953552,0.9850669185635524,-3.276824951171875,-0.614166259765625,14.993667602539062,15.359845381080063
1785425416.658959,0.0507812537252903,-0.3974609375,0.9062499403953552,0.9908798549949818,-3.2138824462890625,-0.5550384521484375,15.546798706054688,15.885215077817234
1785425416.668502,0.05322265625,-0.396484375,0.9111327528953552,0.9950856265448289,-3.093719482421875,-0.492095947265625,16.336441040039062,16.63407840885405
1785425416.678045,0.0581054650247097,-0.39404296875,0.9052733778953552,0.9890227474700053,-3.215789794921875,-0.736236572265625,16.950607299804688,17.268654728370045
1785425416.688743,0.0439453087747097,-0.3974609375,0.9096679091453552,0.9936810816004126,-2.6683807373046875,-1.1653900146484375,17.313003540039062,17.55615223284607
1785425416.699441,0.0556640662252903,-0.40673828125,0.9047850966453552,0.9935645871378883,-2.666473388671875,-1.407623291015625,18.049240112304688,18.299359341068023
1785425416.710139,0.06787109375,-0.4150390625,0.9077147841453552,1.0004049370748571,-2.3632049560546875,-1.4057159423828125,18.289566040039062,18.495107485709315
1785425416.718197,0.0507812537252903,-0.39697265625,0.9062499403953552,0.9906840969787887,-2.178192138671875,-1.590728759765625,17.927169799804688,18.12893697962312
1785425416.726255,0.05810546875,-0.3955078125,0.8896483778953552,0.9753342563137158,-1.6918182373046875,-1.4705657958984375,18.049240112304688,18.187904808959487
1785425416.734313,0.06494140625,-0.40576171875,0.9013671278953552,0.9906173115280206,-1.506805419921875,-2.262115478515625,18.232345581054688,18.433829075877053
1785425416.742371,0.04931640625,-0.4033203125,0.9106444716453552,0.9971823986306422,-1.811981201171875,-2.140045166015625,17.927169799804688,18.145150487582526
1785425416.75299,0.044921875,-0.40087890625,0.9135741591453552,0.9986689224101523,-1.750946044921875,-2.628326416015625,18.537521362304688,18.80461672194506
1785425416.763609,0.05419921875,-0.4072265625,0.9057616591453552,0.9945728790271849,-1.811981201171875,-3.360748291015625,18.720626831054688,19.10601407663486
1785425416.774228,0.04931640625,-0.412109375,0.9169921278953552,1.006548959321084,-1.873016357421875,-4.215240478515625,18.903732299804688,19.458353923946536
1785425416.784849,0.0400390625,-0.3984375,0.9023436903953552,0.9872080345744951,-1.995086669921875,-4.398345947265625,19.449234008789062,20.03992318899863
1785425416.79547,0.04296875,-0.404296875,0.9174804091453552,1.0035300582328646,-1.995086669921875,-4.703521728515625,19.514083862304688,20.171835723507634
1785425416.806093,0.05322265625,-0.400390625,0.8959960341453552,0.9828296886696092,-1.750946044921875,-4.886627197265625,19.754409790039062,20.425024934380737
1785425416.81673,0.06396484375,-0.40185546875,0.9003905653953552,0.9880700831688062,-1.445770263671875,-4.886627197265625,19.937515258789062,20.57848127814151
1785425416.827368,0.0654296875,-0.40673828125,0.9106444716453552,0.9994950861203871,-1.3866424560546875,-4.7664642333984375,20.063400268554688,20.668381381362213
1785425416.838006,0.0537109337747097,-0.4033203125,0.9057616591453552,0.9929533332739235,-1.384735107421875,-4.703521728515625,19.697189331054688,20.29827272237123
1785425416.846037,0.07177734375,-0.4033203125,0.8994140028953552,0.9883141252431584,-0.957489013671875,-4.520416259765625,19.636154174804688,20.172493627451104
1785425416.854069,0.06689453125,-0.3984375,0.9077147841453552,0.993566026529418,-1.140594482421875,-4.337310791015625,19.266128540039062,19.78122669584724
1785425416.862101,0.06494140625,-0.39404296875,0.9135741591453552,0.9970481391212682,-0.8983612060546875,-4.2781829833984375,18.777847290039062,19.279975397909908
1785425416.870133,0.06591796875,-0.40478515625,0.9003905653953552,0.9893934361907958,-0.652313232421875,-3.971099853515625,18.537521362304688,18.969313241593305
1785425416.880828,0.07568359375,-0.38916015625,0.8999022841453552,0.9833604398110934,-0.347137451171875,-4.032135009765625,17.560958862304688,18.0212622563055
1785425416.891523,0.08056640625,-0.39794921875,0.8881835341453552,0.9765882022872838,-0.530242919921875,-3.849029541015625,17.313003540039062,17.74362639200745
1785425416.902218,0.0751953125,-0.40576171875,0.9086913466453552,0.9980064483223923,-0.469207763671875,-4.093170166015625,16.336441040039062,16.847952510264353
1785425416.910182,0.07666015625,-0.392578125,0.8950194716453552,0.9803337280789236,-0.957489013671875,-4.337310791015625,14.753341674804688,15.407470288230048
1785425416.918145,0.0771484375,-0.40966796875,0.8945311903953552,0.9868970445890359,-0.7152557373046875,-4.2781829833984375,14.265060424804688,14.909942633441489
1785425416.92611,0.08447265625,-0.40771484375,0.8847655653953552,0.9778431004907587,-1.0776519775390625,-4.1561126708984375,13.711929321289062,14.368424131752345
1785425416.934074,0.07958984375,-0.40478515625,0.8999022841453552,0.989954386301972,-1.201629638671875,-4.215240478515625,12.800216674804688,13.529882224254552
1785425416.944885,0.07568359375,-0.3955078125,0.8955077528953552,0.9818801207923189,-1.140594482421875,-4.459381103515625,12.006759643554688,12.858822369790204
1785425416.955696,0.07080078125,-0.38916015625,0.8852538466453552,0.9696044300840074,-1.445770263671875,-4.154205322265625,11.392593383789062,12.212242116958384
1785425416.966506,0.06689453125,-0.40576171875,0.8999022841453552,0.9894147622327751,-1.628875732421875,-3.910064697265625,10.599136352539062,11.414181245634348
1785425416.977026,0.06787109375,-0.40087890625,0.9008788466453552,0.9883790159529304,-1.445770263671875,-4.032135009765625,9.870529174804688,10.759912201452481
1785425416.987545,0.06298828125,-0.40771484375,0.9062499403953552,0.9957348401334066,-1.445770263671875,-4.093170166015625,9.077072143554688,10.061686357791855
1785425416.998066,0.068359375,-0.41015625,0.8989257216453552,0.9904385930485927,-1.323699951171875,-4.398345947265625,8.646011352539062,9.790359592006553
1785425417.00611,0.06005859375,-0.400390625,0.9111327528953552,0.9970369003551406,-1.079559326171875,-4.398345947265625,7.9174041748046875,9.12119423528341
1785425417.014153,0.0576171912252903,-0.40478515625,0.8940429091453552,0.983098920169338,-1.140594482421875,-4.947662353515625,7.7342987060546875,9.252010322746415
1785425417.022196,0.04638671875,-0.40869140625,0.8950194716453552,0.9850077399915825,-0.774383544921875,-4.581451416015625,7.7915191650390625,9.07177699522692
1785425417.030239,0.06884765625,-0.408203125,0.8969725966453552,0.9878915072838692,-0.713348388671875,-4.520416259765625,7.4291229248046875,8.725531302851005
1785425417.040906,0.05517578125,-0.40966796875,0.8833007216453552,0.9752396507092521,-0.5893707275390625,-4.6443939208984375,7.3680877685546875,8.729631728319555
1785425417.051574,0.06787109375,-0.41748046875,0.8950194716453552,0.9899274123787419,-0.652313232421875,-4.581451416015625,7.6122283935546875,8.908492057926775
1785425417.062243,0.05029296875,-0.416015625,0.9033202528953552,0.9957840439777882,-0.591278076171875,-4.581451416015625,7.5511932373046875,8.852108570718569
1785425417.072853,0.0576171912252903,-0.40625,0.9023436903953552,0.9912532162979348,-0.4100799560546875,-4.5833587646484375,7.7342987060546875,8.999706640236484
1785425417.083464,0.05615234375,-0.42431640625,0.9096679091453552,1.005332384463176,-0.5321502685546875,-3.9730072021484375,7.4291229248046875,8.441554215220366
1785425417.094075,0.0537109375,-0.41015625,0.9038085341453552,0.9939732796283647,-0.2269744873046875,-3.6067962646484375,7.7342987060546875,8.536970960888198
1785425417.104745,0.0502929724752903,-0.40234375,0.8999022841453552,0.9870329261248029,-0.652313232421875,-3.360748291015625,8.039474487304688,8.738037059934003
1785425417.115415,0.04638671875,-0.423828125,0.9038085341453552,0.9993257094718333,-0.652313232421875,-2.811431884765625,8.344650268554688,8.82965740560523
1785425417.126085,0.064453125,-0.41357421875,0.8891600966453552,0.9827530296078033,-0.3490447998046875,-3.1795501708984375,8.279800415039062,8.876174089911261
1785425417.134082,0.05419921875,-0.41064453125,0.8808593153953552,0.9733856480745011,-0.957489013671875,-2.933502197265625,8.222579956054688,8.782541857934802
1785425417.142081,0.06298828125,-0.40576171875,0.8989257216453552,0.9882699777962527,-1.079559326171875,-2.933502197265625,8.588790893554688,9.139924096692207
1785425417.150079,0.0693359375,-0.42236328125,0.8886718153953552,0.9863750853784512,-1.0776519775390625,-2.9964447021484375,8.222579956054688,8.817643436397255
1785425417.158079,0.06591796875,-0.40234375,0.8930663466453552,0.9817296834050961,-1.201629638671875,-2.750396728515625,7.7342987060546875,8.29626255775716
1785425417.168776,0.06591796875,-0.4111328125,0.9003905653953552,0.9920073277810268,-1.140594482421875,-2.567291259765625,8.039474487304688,8.516166403835893
1785425417.179473,0.0527343787252903,-0.4052734375,0.9062499403953552,0.9941410505100339,-1.2035369873046875,-2.6302337646484375,7.2460174560546875,7.802012555101176
1785425417.19017,0.0595703125,-0.4130859375,0.8867186903953552,0.9800299229044261,-1.2035369873046875,-2.8705596923828125,7.1849822998046875,7.830235301435711
1785425417.200812,0.06884765625,-0.4111328125,0.9091796278953552,1.000188874695782,-0.5893707275390625,-2.6912689208984375,6.5097808837890625,7.06877170476026
1785425417.211455,0.06640625,-0.41357421875,0.8989257216453552,0.9917262109520742,-0.7152557373046875,-3.1185150146484375,5.9642791748046875,6.76826068804563
1785425417.222098,0.07470703125,-0.41259765625,0.8940429091453552,0.9874870580692546,-0.2841949462890625,-3.1795501708984375,5.4149627685546875,6.285867310211851
1785425417.23011,0.07470703125,-0.41748046875,0.9082030653953552,1.0023491858127227,-0.164031982421875,-2.811431884765625,5.0449371337890625,5.777754444229855
1785425417.238122,0.07177734375,-0.41943359375,0.8999022841453552,0.9954399266916479,0.0782012939453125,-2.9354095458984375,4.8618316650390625,5.679802090187905
1785425417.246134,0.0751953125,-0.4169921875,0.8925780653953552,0.9880447471055767,-0.2269744873046875,-2.8133392333984375,4.3735504150390625,5.205222213599962
1785425417.254146,0.0693359375,-0.40771484375,0.8959960341453552,0.9868372506382678,-0.286102294921875,-3.116607666015625,3.5228729248046875,4.7122957792724405
1785425417.26482,0.08642578125,-0.40869140625,0.9018554091453552,0.9939020375328805,0.0782012939453125,-2.9354095458984375,3.0956268310546875,4.266807954627449
1785425417.275494,0.07861328125,-0.41845703125,0.8945311903953552,0.9906928815640024,0.141143798828125,-2.628326416015625,2.8514862060546875,3.8805920816794606
1785425417.286168,0.07275390625,-0.40869140625,0.9018554091453552,0.9928066153194047,0.0782012939453125,-2.8133392333984375,2.4204254150390625,3.7120684630433
1785425417.296787,0.07470703125,-0.41015625,0.9096679091453552,1.0006522846929062,0.6275177001953125,-2.5081634521484375,1.5659332275390625,3.0227155406790245
1785425417.307408,0.06640625,-0.41357421875,0.8955077528953552,0.9886291316512092,0.507354736328125,-2.323150634765625,1.5087127685546875,2.81614131717257
1785425417.318028,0.072265625,-0.42333984375,0.8994140028953552,0.996686757445468,0.568389892578125,-2.262115478515625,1.1425018310546875,2.59721850102918
1785425417.326049,0.06103515625,-0.39990234375,0.8955077528953552,0.9826399698419018,0.6275177001953125,-2.3250579833984375,1.2035369873046875,2.6922433712489044
1785425417.334069,0.0615234412252903,-0.42138671875,0.8940429091453552,0.9902851225541981,0.568389892578125,-2.262115478515625,1.2035369873046875,2.6246399349121
1785425417.342091,0.0561523474752903,-0.41259765625,0.8979491591453552,0.9897992748430509,0.507354736328125,-2.140045166015625,1.2607574462890625,2.535095950735345
1785425417.350111,0.0429687537252903,-0.408203125,0.8969725966453552,0.9864258432285629,0.3871917724609375,-2.2029876708984375,1.6307830810546875,2.7681267319698684
1785425417.360819,0.04052734375,-0.41015625,0.9174804091453552,1.0058036170997904,0.568389892578125,-2.384185791015625,1.8749237060546875,3.0858949851852735
1785425417.371526,0.0610351599752903,-0.40673828125,0.9018554091453552,0.9912136496195709,0.568389892578125,-2.445220947265625,2.2373199462890625,3.3627032418865728
1785425417.382233,0.05517578125,-0.41357421875,0.8911132216453552,0.983956693682392,0.5702972412109375,-2.0198822021484375,2.3632049560546875,3.160680420132707
1785425417.392883,0.0625,-0.4052734375,0.8940429091453552,0.9835982576927209,0.7495880126953125,-1.9588470458984375,3.1566619873046875,3.7899180518971542
1785425417.403533,0.0473632849752903,-0.41796875,0.9057616591453552,0.998671787885269,0.751495361328125,-2.262115478515625,3.0956268310546875,3.90702152456105
1785425417.414183,0.0507812537252903,-0.408203125,0.8994140028953552,0.9890167215946978,0.446319580078125,-1.956939697265625,3.7670135498046875,4.2683960958078035
1785425417.422171,0.05859375,-0.4013671875,0.9008788466453552,0.9879835742935144,0.568389892578125,-2.262115478515625,3.8852691650390625,4.531616708518968
1785425417.430161,0.0624999962747097,-0.412109375,0.8974608778953552,0.9895334324063695,0.7495880126953125,-2.1419525146484375,4.0111541748046875,4.608600717987874
1785425417.438151,0.0654296875,-0.40625,0.8872069716453552,0.9779858470563211,0.7495880126953125,-2.1419525146484375,4.1904449462890625,4.7654665680985335
1785425417.446141,0.0673828125,-0.3876953125,0.8881835341453552,0.9714515371761044,0.202178955078125,-2.140045166015625,3.8852691650390625,4.4402686998949354
1785425417.456858,0.0634765625,-0.40380859375,0.8852538466453552,0.9750718062653473,0.141143798828125,-2.140045166015625,3.7670135498046875,4.33475558353024
1785425417.467575,0.0703125,-0.39013671875,0.8959960341453552,0.9797751783840368,-0.102996826171875,-1.956939697265625,3.4618377685546875,3.978007297721719
1785425417.478292,0.06591796875,-0.3984375,0.8920897841453552,0.9792455274275612,-0.347137451171875,-1.773834228515625,3.3969879150390625,3.84792400849876
1785425417.486232,0.08056640625,-0.404296875,0.8837890028953552,0.9752076243495904,-0.591278076171875,-1.468658447265625,2.5424957275390625,2.995138047342823
1785425417.494173,0.06982421875,-0.4052734375,0.8994140028953552,0.9889729669062549,-0.774383544921875,-1.224517822265625,2.2373199462890625,2.66546699731113
1785425417.502114,0.0625,-0.41943359375,0.8935546278953552,0.9890756607051084,-0.652313232421875,-1.224517822265625,1.7490386962890625,2.232508188418436
1785425417.510055,0.0673828125,-0.41064453125,0.8964843153953552,0.9883589946046027,-0.5321502685546875,-0.8602142333984375,1.8749237060546875,2.1303735210497554
1785425417.520741,0.06494140625,-0.4111328125,0.9121093153953552,1.0025921299266574,-0.286102294921875,-0.919342041015625,1.4476776123046875,1.738624393221992
1785425417.531427,0.07568359375,-0.41455078125,0.9008788466453552,0.9945667664520899,-0.1010894775390625,-1.0433197021484375,0.9593963623046875,1.4209772916425132
1785425417.542113,0.07080078125,-0.4072265625,0.9086913466453552,0.9982816172299908,-0.0438690185546875,-1.1653900146484375,1.3866424560546875,1.811859729108358
1785425417.552787,0.05810546875,-0.41064453125,0.9062499403953552,0.9966414254940311,0.446319580078125,-1.468658447265625,0.8983612060546875,1.7785420036731838
1785425417.563462,0.0571289099752903,-0.40087890625,0.8994140028953552,0.9863636035638212,0.141143798828125,-1.712799072265625,0.6542205810546875,1.838914571854047
1785425417.574136,0.05615234375,-0.41015625,0.8803710341453552,0.9728485971027778,0.4444122314453125,-1.6536712646484375,0.9593963623046875,1.9627970508908026
1785425417.582137,0.0576171912252903,-0.39501953125,0.9023436903953552,0.9867037581716055,-0.286102294921875,-1.895904541015625,1.3256072998046875,2.330996195856764
1785425417.590137,0.06884765625,-0.4013671875,0.8935546278953552,0.9819753011181009,-0.0438690185546875,-1.8367767333984375,1.3256072998046875,2.2655921902315654
1785425417.598137,0.0478515662252903,-0.41259765625,0.8891600966453552,0.9813930282000092,-0.286102294921875,-2.017974853515625,1.2607574462890625,2.396578054425578
1785425417.606137,0.064453125,-0.41552734375,0.9096679091453552,1.0021541217073742,-0.0438690185546875,-1.6536712646484375,1.6307830810546875,2.3229306058871266
1785425417.616793,0.05126953125,-0.404296875,0.8959960341453552,0.9843238395840898,0.0782012939453125,-2.1419525146484375,1.7490386962890625,2.766443995185883
1785425417.627449,0.0522460974752903,-0.41748046875,0.8989257216453552,0.9925155160120873,0.141143798828125,-1.956939697265625,1.8749237060546875,2.713830034141334
1785425417.638105,0.0522460974752903,-0.41162109375,0.9086913466453552,0.9989402099172368,0.202178955078125,-1.895904541015625,2.6073455810546875,3.2301054684894663
1785425417.64877,0.0693359375,-0.41162109375,0.8911132216453552,0.9840336228199289,0.507354736328125,-1.529693603515625,2.2373199462890625,2.7573487068512197
1785425417.659435,0.06103515625,-0.40478515625,0.8901366591453552,0.9797548596323742,0.385284423828125,-1.895904541015625,2.5424957275390625,3.1948681726235004
1785425417.6701,0.06591796875,-0.40576171875,0.8803710341453552,0.9716176762334259,-0.102996826171875,-1.956939697265625,2.6683807373046875,3.310661124934756
1785425417.680958,0.07958984375,-0.412109375,0.8906249403953552,0.9845717163545122,-0.530242919921875,-0.736236572265625,2.4852752685546875,2.645712570359503
1785425417.691818,0.0712890625,-0.41552734375,0.8940429091453552,0.9884623549883675,-0.835418701171875,-0.797271728515625,2.3632049560546875,2.6302669597741275
1785425417.70268,0.06689453125,-0.39892578125,0.8872069716453552,0.9750655710223811,-1.445770263671875,-0.858306884765625,2.1800994873046875,2.753139324171604
1785425417.710516,0.078125,-0.4140625,0.9042968153953552,0.9976492368891138,-1.567840576171875,-0.492095947265625,1.6918182373046875,2.3585019486281857
1785425417.718352,0.0751953125,-0.4150390625,0.8916015028953552,0.9863391903336842,-1.750946044921875,-0.492095947265625,1.7490386962890625,2.5233126708078317
1785425417.726187,0.076171875,-0.4296875,0.9008788466453552,1.0010075916447043,-1.995086669921875,-0.003814697265625,1.2035369873046875,2.3299971356689753
1785425417.734024,0.0673828125,-0.416015625,0.8955077528953552,0.9897189394773849,-1.750946044921875,-0.003814697265625,1.0204315185546875,2.0265998835987853
1785425417.744744,0.06103515625,-0.41357421875,0.8945311903953552,0.9873980835019207,-1.384735107421875,-0.125885009765625,0.8373260498046875,1.6230998943662973
1785425417.755464,0.06591796875,-0.40869140625,0.8925780653953552,0.9839052022281636,-1.2035369873046875,-0.3719329833984375,0.5893707275390625,1.3907527740148606
1785425417.766184,0.05615234375,-0.4248046875,0.9072265028953552,1.0033304718717193,-0.469207763671875,-0.431060791015625,0.3490447998046875,0.7264995549287506
1785425417.774195,0.064453125,-0.41015625,0.8847655653953552,0.9773394806543378,-0.164031982421875,-1.163482666015625,0.4100799560546875,1.2444934615070868
1785425417.782206,0.0576171912252903,-0.4267578125,0.8886718153953552,0.9875118058699618,-0.102996826171875,-0.797271728515625,0.3490447998046875,0.8764033475303858
1785425417.790217,0.064453125,-0.419921875,0.8779296278953552,0.9753199567128,-0.2269744873046875,-1.0433197021484375,0.2841949462890625,1.1048982696495515
1785425417.798228,0.06005859375,-0.4169921875,0.8911132216453552,0.9856836677709673,-0.530242919921875,-1.407623291015625,0.2841949462890625,1.5307931444297684
1785425417.808939,0.06689453125,-0.40966796875,0.8867186903953552,0.979067290244834,-0.7152557373046875,-1.3484954833984375,0.7152557373046875,1.6857110097049641
1785425417.819649,0.0585937462747097,-0.4130859375,0.8950194716453552,0.9874882649870275,-0.957489013671875,-1.163482666015625,0.8373260498046875,1.7238306294710883
1785425417.830361,0.0581054650247097,-0.40283203125,0.8867186903953552,0.975663838810885,-1.079559326171875,-1.102447509765625,1.1425018310546875,1.9199347083889113
1785425417.840986,0.05908203125,-0.41162109375,0.8842772841453552,0.977173948942591,-1.445770263671875,-1.102447509765625,1.1425018310546875,2.1473128791747103
1785425417.851612,0.06396484375,-0.42724609375,0.8891600966453552,0.9885526811085857,-1.811981201171875,-1.102447509765625,1.2035369873046875,2.4386815423501162
1785425417.862238,0.05615234375,-0.41015625,0.8867186903953552,0.9785965823663674,-1.3866424560546875,-1.1653900146484375,1.4476776123046875,2.318767270845408
1785425417.872843,0.076171875,-0.41455078125,0.9057616591453552,0.9990288724324976,-1.689910888671875,-0.919342041015625,1.3866424560546875,2.371448059933828
1785425417.883449,0.0625,-0.4189453125,0.8935546278953552,0.9888686959849267,-2.117156982421875,-0.736236572265625,1.6918182373046875,2.808317454746859
1785425417.894055,0.06591796875,-0.41796875,0.9018554091453552,0.9961858428955034,-1.7490386962890625,-0.5550384521484375,1.2035369873046875,2.19447153645025
1785425417.90207,0.06884765625,-0.404296875,0.9003905653953552,0.9893933157035433,-1.6918182373046875,-0.7343292236328125,1.3866424560546875,2.307437032226727
1785425417.910086,0.06787109375,-0.4345703125,0.9028319716453552,1.0042725779877735,-1.750946044921875,-0.247955322265625,1.6307830810546875,2.40556591086622
1785425417.918102,0.07275390625,-0.42138671875,0.9013671278953552,0.9976585572548592,-1.689910888671875,-0.614166259765625,1.0776519775390625,2.096266393133305
1785425417.926118,0.0576171912252903,-0.41650390625,0.9013671278953552,0.9946144699814709,-1.5087127685546875,-0.5550384521484375,1.3256072998046875,2.083630632971871
1785425417.936825,0.064453125,-0.4267578125,0.8969725966453552,0.995407592388546,-1.6918182373046875,-0.6771087646484375,0.9593963623046875,2.059409285995365
1785425417.947531,0.07080078125,-0.41748046875,0.9111327528953552,1.0047216459358277,-1.0776519775390625,-0.8602142333984375,1.6307830810546875,2.135592603819683
1785425417.958239,0.06201171875,-0.41455078125,0.9008788466453552,0.9936198970584174,-1.079559326171875,-0.675201416015625,1.2607574462890625,1.791885774620552
1785425417.966201,0.06298828125,-0.41845703125,0.8916015028953552,0.9869280878274003,-0.469207763671875,-0.675201416015625,1.3866424560546875,1.6120887626346272
1785425417.974163,0.0654296875,-0.4208984375,0.8842772841453552,0.9815206844238049,-0.8373260498046875,-0.8602142333984375,1.3256072998046875,1.7883842300574724
1785425417.982125,0.072265625,-0.40576171875,0.8837890028953552,0.9751655729148568,-0.774383544921875,-0.736236572265625,1.3866424560546875,1.7505688977931095
1785425417.990087,0.0595703125,-0.4052734375,0.8994140028953552,0.9883019426666428,-1.323699951171875,-0.736236572265625,1.4476776123046875,2.095231805849191
1785425418.00076,0.0703125,-0.42041015625,0.8818358778953552,0.9794503880635667,-1.445770263671875,-0.492095947265625,1.4476776123046875,2.1043242492071648
1785425418.011433,0.06640625,-0.41259765625,0.8818358778953552,0.9758489286388173,-1.934051513671875,-0.553131103515625,1.3256072998046875,2.409096093664252
1785425418.022106,0.07421875,-0.40576171875,0.8935546278953552,0.984170141940774,-2.361297607421875,-0.431060791015625,1.6307830810546875,2.9018947695982202
1785425418.032742,0.0703125,-0.4296875,0.8852538466453552,0.9865341191833652,-2.3632049560546875,-0.4940032958984375,1.3256072998046875,2.754271525099773
1785425418.043377,0.06884765625,-0.42041015625,0.8964843153953552,0.9925567122331833,-2.605438232421875,-0.370025634765625,1.3256072998046875,2.9466017828415163
1785425418.054012,0.05810546875,-0.41455078125,0.9033202528953552,0.9955983502520337,-2.605438232421875,-0.125885009765625,1.2607574462890625,2.897182209841596
1785425418.064769,0.05078125,-0.41552734375,0.9062499403953552,0.9982638244582832,-2.3632049560546875,-0.2460479736328125,1.3256072998046875,2.720755774218944
1785425418.075528,0.056640625,-0.4345703125,0.9077147841453552,1.0079710542782403,-2.300262451171875,-0.247955322265625,1.3256072998046875,2.6664440551803383
1785425418.086287,0.0522460974752903,-0.42138671875,0.8940429091453552,0.9897520623031705,-2.178192138671875,-0.431060791015625,1.5087127685546875,2.6845015583014518
1785425418.094252,0.06396484375,-0.41552734375,0.8974608778953552,0.9910552466904125,-2.2373199462890625,-0.5550384521484375,1.8749237060546875,2.9713645230688326
1785425418.10222,0.06884765625,-0.43505859375,0.9091796278953552,1.0102591625651223,-1.934051513671875,-0.614166259765625,1.8138885498046875,2.7217544200907473
1785425418.110188,0.06982421875,-0.41748046875,0.9042968153953552,0.9984578577215709,-1.5087127685546875,-0.5550384521484375,1.9321441650390625,2.5134563803372
1785425418.118155,0.0634765625,-0.42138671875,0.8999022841453552,0.9957008394772677,-1.323699951171875,-0.247955322265625,2.1190643310546875,2.5107960972011494
1785425418.128794,0.05908203125,-0.423828125,0.9072265028953552,1.0030856860275585,-0.8983612060546875,-0.2460479736328125,2.1190643310546875,2.314741044052465
1785425418.139432,0.06640625,-0.4306640625,0.8979491591453552,0.9980951944468608,-0.2269744873046875,-0.1888275146484375,2.4204254150390625,2.438366756241265
1785425418.150069,0.06396484375,-0.43017578125,0.8950194716453552,0.995089221444158,-0.469207763671875,-0.370025634765625,2.5424957275390625,2.6117732329641585
1785425418.160746,0.06494140625,-0.43310546875,0.8979491591453552,0.9990547661248282,-0.4100799560546875,-0.2460479736328125,2.7904510498046875,2.831134443477157
1785425418.171421,0.0673828125,-0.42333984375,0.8916015028953552,0.9892978857209495,-0.102996826171875,-0.125885009765625,2.4852752685546875,2.490592006406257
1785425418.182096,0.06787109375,-0.41064453125,0.8911132216453552,0.9835233551896556,-0.4100799560546875,0.3604888916015625,2.5424957275390625,2.6004619466318526
1785425418.190106,0.08056640625,-0.42529296875,0.8984374403953552,0.9972737284158176,-0.286102294921875,0.240325927734375,2.1800994873046875,2.2118871691944673
1785425418.198118,0.0546875,-0.41162109375,0.8886718153953552,0.9808976720098139,-0.286102294921875,0.667572021484375,2.3632049560546875,2.4722954094019056
1785425418.20613,0.0634765625,-0.41552734375,0.8916015028953552,0.9857207958423132,-0.286102294921875,0.362396240234375,2.1800994873046875,2.2284567154516903
1785425418.214142,0.04931640625,-0.42431640625,0.8862304091453552,0.9838093609192148,-0.0438690185546875,0.6046295166015625,1.7490386962890625,1.8511179606527872
1785425418.224794,0.0673828125,-0.42822265625,0.8828124403953552,0.9835003262139868,-0.286102294921875,0.789642333984375,1.7490386962890625,1.9402386193188708
1785425418.235445,0.0673828125,-0.412109375,0.8842772841453552,0.9779166097570825,0.263214111328125,0.545501708984375,1.5087127685546875,1.6257515188081721
1785425418.246098,0.0673828125,-0.4130859375,0.8891600966453552,0.9827441745678483,-0.164031982421875,0.850677490234375,1.5659332275390625,1.7896104483265656
1785425418.256768,0.0751953125,-0.41357421875,0.8857421278953552,0.9804269919607668,0.0782012939453125,0.3604888916015625,0.7152557373046875,0.8047722989082791
1785425418.267442,0.064453125,-0.419921875,0.8891600966453552,0.9854411519173323,-0.041961669921875,0.179290771484375,0.8373260498046875,0.8573335851135291
1785425418.278115,0.064453125,-0.42041015625,0.8857421278953552,0.9825670572174741,-0.102996826171875,0.179290771484375,0.4100799560546875,0.45925929201133886
1785425418.286103,0.0605468787252903,-0.42236328125,0.8881835341453552,0.9853561062877598,-0.225067138671875,-0.125885009765625,0.1659393310546875,0.3066563454170053
1785425418.294091,0.060546875,-0.4248046875,0.8725585341453552,0.9723596773335108,-0.5321502685546875,-0.3719329833984375,0.1659393310546875,0.6701148513899432
1785425418.30208,0.052734375,-0.4287109375,0.8974608778953552,0.995996992762263,-0.713348388671875,-0.797271728515625,0.2841949462890625,1.1069213613474518
1785425418.31007,0.0605468787252903,-0.4169921875,0.8896483778953552,0.9843894784338397,-0.896453857421875,-0.614166259765625,0.1659393310546875,1.0992568283672082
1785425418.320753,0.05419921875,-0.4248046875,0.8901366591453552,0.9877954493666882,-0.8983612060546875,-0.7343292236328125,0.5893707275390625,1.3014031349682256
1785425418.331435,0.0478515662252903,-0.4208984375,0.9018554091453552,0.9963876986820396,-1.201629638671875,-0.797271728515625,0.5321502685546875,1.5371206543234721
1785425418.342119,0.0693359375,-0.42333984375,0.8891600966453552,0.987233393378514,-1.0776519775390625,-0.8602142333984375,0.8983612060546875,1.6457081055214944
1785425418.350264,0.0483398400247097,-0.431640625,0.8964843153953552,0.9961598752378474,-0.7152557373046875,-1.0433197021484375,1.3866424560546875,1.8769347542127703
1785425418.358409,0.04931640625,-0.42041015625,0.8808593153953552,0.9772870309803248,-0.652313232421875,-1.224517822265625,1.7490386962890625,2.232508188418436
1785425418.366554,0.056640625,-0.4296875,0.8862304091453552,0.9865312190450864,-1.018524169921875,-1.407623291015625,2.1190643310546875,2.740297146893554
1785425418.374698,0.0590820275247097,-0.42724609375,0.8955077528953552,0.9939638052246937,-0.835418701171875,-1.468658447265625,2.6683807373046875,3.1583441548081943
1785425418.385174,0.0561523474752903,-0.4326171875,0.8994140028953552,0.9996280636574996,-1.0204315185546875,-1.3484954833984375,2.6683807373046875,3.159110050635229
1785425418.395648,0.0605468787252903,-0.4228515625,0.8969725966453552,0.9934934360954669,-0.774383544921875,-1.590728759765625,2.9735565185546875,3.460076044082027
1785425418.406124,0.0634765625,-0.42724609375,0.8876952528953552,0.9872038090609248,-0.286102294921875,-1.346588134765625,3.2138824462890625,3.4963115574010417
1785425418.416932,0.05859375,-0.43896484375,0.9023436903953552,1.0051604335546804,-0.0438690185546875,-1.3484954833984375,3.1566619873046875,3.432911222509157
1785425418.427741,0.0576171912252903,-0.44189453125,0.9028319716453552,1.006824754611441,-0.041961669921875,-1.285552978515625,3.2787322998046875,3.5220012402177776
1785425418.43855,0.060546875,-0.44580078125,0.8911132216453552,0.9982419718818378,0.202178955078125,-1.346588134765625,3.3969879150390625,3.6597408145235484
1785425418.449131,0.076171875,-0.4267578125,0.9106444716453552,1.0085622136532029,0.507354736328125,-1.285552978515625,2.9087066650390625,3.220346216214592
1785425418.459713,0.0673828125,-0.4287109375,0.8974608778953552,0.9968799018463762,0.812530517578125,-0.980377197265625,2.3021697998046875,2.6308422754028666
1785425418.470297,0.068359375,-0.43701171875,0.8940429091453552,0.9974793079900502,0.934600830078125,-0.919342041015625,2.1190643310546875,2.4918070027812638
1785425418.478251,0.0634765625,-0.43310546875,0.9013671278953552,1.002034091385266,0.8754730224609375,-1.0433197021484375,1.9969940185546875,2.417220330067409
1785425418.486204,0.07275390625,-0.43212890625,0.8876952528953552,0.9899653451027484,0.263214111328125,-0.614166259765625,1.4476776123046875,1.594444207931075
1785425418.494157,0.06689453125,-0.42724609375,0.8935546278953552,0.9927003455066377,0.507354736328125,-0.736236572265625,1.1425018310546875,1.450780325472927
1785425418.50211,0.06005859375,-0.41162109375,0.8930663466453552,0.98519361498827,0.446319580078125,-0.797271728515625,0.7724761962890625,1.1964793564807645
1785425418.512779,0.06298828125,-0.41162109375,0.8901366591453552,0.9827220972122432,0.2613067626953125,-0.6771087646484375,0.8373260498046875,1.108094047035521
1785425418.523448,0.0693359375,-0.4326171875,0.8862304091453552,0.9886199680581804,0.2613067626953125,-0.4940032958984375,0.2269744873046875,0.6031897698701871
1785425418.534117,0.06396484375,-0.4140625,0.8901366591453552,0.9838102088800798,0.568389892578125,-0.614166259765625,0.3490447998046875,0.9066970480210929
1785425418.542292,0.0751953125,-0.41650390625,0.9033202528953552,0.9975556717469005,0.690460205078125,-0.370025634765625,-0.0171661376953125,0.7835489400564617
1785425418.550467,0.0620117224752903,-0.41796875,0.8916015028953552,0.9866592976636722,0.873565673828125,-0.370025634765625,0.2269744873046875,0.9754759734415377
1785425418.558642,0.0615234412252903,-0.41796875,0.8803710341453552,0.9764917652284255,0.507354736328125,-0.919342041015625,-0.2613067626953125,1.0820720128917765
1785425418.566817,0.0654296875,-0.42822265625,0.8774413466453552,0.9785494387791389,0.446319580078125,-0.431060791015625,-0.3223419189453125,0.6992273491658322
1785425418.57725,0.06689453125,-0.42724609375,0.8925780653953552,0.9918214081984246,-0.041961669921875,-0.308990478515625,-0.0782012939453125,0.32148303210382423
1785425418.587682,0.048828125,-0.4140625,0.8813475966453552,0.9749900131846527,-0.102996826171875,-0.736236572265625,0.0438690185546875,0.7446993536534511
1785425418.598116,0.056640625,-0.39501953125,0.8925780653953552,0.9777239862529074,-0.102996826171875,-0.675201416015625,0.1659393310546875,0.7028806157391607
1785425418.608776,0.07275390625,-0.42138671875,0.8828124403953552,0.9809269608540322,-0.469207763671875,-0.553131103515625,0.3490447998046875,0.8049485793745272
1785425418.619435,0.06591796875,-0.421875,0.8891600966453552,0.986371822233129,-0.652313232421875,-0.614166259765625,0.1010894775390625,0.9016273233971411
1785425418.630094,0.0693359375,-0.41259765625,0.8857421278953552,0.9795832865563749,-0.957489013671875,-0.247955322265625,0.4711151123046875,1.0955439298284886
1785425418.64078,0.0566406287252903,-0.416015625,0.8945311903953552,0.9881615311560494,-0.8983612060546875,-0.5550384521484375,0.7724761962890625,1.3083730407420446
1785425418.651469,0.0673828125,-0.40966796875,0.8886718153953552,0.9808699625935323,-1.0204315185546875,-0.5550384521484375,0.8983612060546875,1.4684689387137855
1785425418.662158,0.06298828125,-0.41748046875,0.8930663466453552,0.9878385317819054,-0.7724761962890625,-0.0667572021484375,0.8373260498046875,1.1411796140631971
1785425418.670146,0.064453125,-0.4208984375,0.9028319716453552,0.9982060253460938,-0.957489013671875,-0.064849853515625,0.8983612060546875,1.314550710831412
1785425418.678136,0.05419921875,-0.42919921875,0.8911132216453552,0.9905717028463334,-0.957489013671875,-0.308990478515625,1.0776519775390625,1.4743114025908866
1785425418.686125,0.0673828125,-0.42236328125,0.8950194716453552,0.9919632248188476,-0.652313232421875,-0.614166259765625,1.2607574462890625,1.5466809904438894
1785425418.694113,0.05126953125,-0.435546875,0.8901366591453552,0.9923068664033897,-0.530242919921875,-0.614166259765625,1.1425018310546875,1.4013094528779455
1785425418.704854,0.06298828125,-0.42431640625,0.8999022841453552,0.9969132646312676,-0.286102294921875,-0.370025634765625,1.1425018310546875,1.2345379408939123
1785425418.715595,0.06494140625,-0.41650390625,0.9116210341453552,1.004363380487104,-0.2841949462890625,-0.5550384521484375,1.2607574462890625,1.4065360959580435
1785425418.726336,0.06591796875,-0.43505859375,0.9111327528953552,1.0118221444495679,-0.1659393310546875,-0.5550384521484375,1.1425018310546875,1.2809816465966732
1785425418.734311,0.072265625,-0.43408203125,0.8881835341453552,0.9912212269406361,0.019073486328125,-0.797271728515625,1.2607574462890625,1.4918161231681069
1785425418.742287,0.07666015625,-0.4228515625,0.8989257216453552,0.9963672397768749,0.0782012939453125,-0.7343292236328125,0.8983612060546875,1.1629306546823517
1785425418.750262,0.06640625,-0.42431640625,0.8994140028953552,0.9966944121726697,0.0171661376953125,-0.5550384521484375,1.3256072998046875,1.4372185195516312
1785425418.758239,0.0512695349752903,-0.44091796875,0.8886718153953552,0.9933653989651969,-0.347137451171875,-0.308990478515625,1.0204315185546875,1.1212760631883865
1785425418.768886,0.07763671875,-0.42822265625,0.8930663466453552,0.993463438146847,-0.1659393310546875,-0.0667572021484375,1.2035369873046875,1.216755384389158
1785425418.779532,0.06787109375,-0.43896484375,0.8994140028953552,1.0031162285695159,-0.347137451171875,-0.003814697265625,1.1425018310546875,1.1940809838049713
1785425418.790179,0.068359375,-0.42919921875,0.8925780653953552,0.9927641091170228,-0.347137451171875,-0.125885009765625,1.0204315185546875,1.085187509027644
1785425418.798188,0.06884765625,-0.43359375,0.8950194716453552,0.9968968825482962,-0.286102294921875,0.179290771484375,1.0204315185546875,1.0748396103413995
1785425418.806197,0.05712890625,-0.4189453125,0.8959960341453552,0.9907511191006794,-0.225067138671875,0.057220458984375,1.2607574462890625,1.2819667453602865
1785425418.814207,0.05908203125,-0.42529296875,0.8979491591453552,0.9953278294585483,-0.041961669921875,0.179290771484375,1.2035369873046875,1.2175414745677202
1785425418.822216,0.064453125,-0.41845703125,0.9091796278953552,1.002929752328031,0.263214111328125,-0.125885009765625,0.9593963623046875,1.002781174578688
1785425418.832852,0.0615234375,-0.4287109375,0.8847655653953552,0.9850828934680106,0.4444122314453125,-0.1888275146484375,0.9593963623046875,1.0740574666888059
1785425418.843488,0.068359375,-0.439453125,0.9038085341453552,1.0073042835293773,0.9326934814453125,-0.1888275146484375,0.7152557373046875,1.1904468616306045
1785425418.854124,0.0566406287252903,-0.41748046875,0.8935546278953552,0.9878957311595807,0.934600830078125,-0.247955322265625,0.6542205810546875,1.1674609724089724
1785425418.864784,0.06591796875,-0.42626953125,0.8911132216453552,0.9900170027163092,0.690460205078125,-0.370025634765625,0.2269744873046875,0.8155805803643537
1785425418.875446,0.0624999962747097,-0.4267578125,0.9003905653953552,0.9983644877083175,0.812530517578125,-0.247955322265625,0.1010894775390625,0.8555154974077012
1785425418.886108,0.0585937462747097,-0.41259765625,0.8789061903953552,0.9727004392724281,0.8106231689453125,-0.0667572021484375,0.1659393310546875,0.8301218631384824
1785425418.894113,0.068359375,-0.4189453125,0.8940429091453552,0.9896973792069994,0.324249267578125,-0.247955322265625,0.2841949462890625,0.4973793289442612
1785425418.902118,0.0615234412252903,-0.42626953125,0.8833007216453552,0.982705964137545,0.019073486328125,-0.492095947265625,0.1010894775390625,0.5027338278503671
1785425418.910122,0.06005859375,-0.419921875,0.8896483778953552,0.9856042066055622,-0.591278076171875,-0.308990478515625,0.2841949462890625,0.7251562912028493
1785425418.918128,0.0541992150247097,-0.4130859375,0.8852538466453552,0.978392518200107,-0.469207763671875,-0.186920166015625,0.4711151123046875,0.6906840978299191
1785425418.928775,0.05810546875,-0.4208984375,0.8945311903953552,0.9903119663917678,-0.774383544921875,-0.247955322265625,0.5893707275390625,1.0042457721920184
1785425418.939422,0.05419921875,-0.42529296875,0.8847655653953552,0.9831692480395536,-1.018524169921875,-0.003814697265625,0.8373260498046875,1.3185298443007631
1785425418.950069,0.04736328125,-0.4248046875,0.8798827528953552,0.9782105917313756,-1.2035369873046875,-0.0667572021484375,0.7152557373046875,1.4016235491730307
1785425418.960788,0.0576171912252903,-0.4184570014476776,0.8852538466453552,0.9808671550142106,-1.0776519775390625,0.1163482666015625,0.5321502685546875,1.207499321804309
1785425418.971508,0.0527343787252903,-0.4248046875,0.8925780653953552,0.9899169359327226,-1.018524169921875,-0.003814697265625,0.5893707275390625,1.1767599122634136
1785425418.982228,0.0556640625,-0.43359375,0.8896483778953552,0.991249849525791,-1.018524169921875,-0.003814697265625,0.8373260498046875,1.3185298443007631
1785425418.990194,0.06396484375,-0.427734375,0.8984374403953552,0.997114853513255,-1.0204315185546875,-0.1888275146484375,0.9593963623046875,1.4132861332198794
1785425418.998159,0.060546875,-0.43359375,0.8974608778953552,0.9985516969411398,-0.835418701171875,0.057220458984375,1.0204315185546875,1.320029950892748
1785425419.006124,0.0561523474752903,-0.43115234375,0.8852538466453552,0.9862655842360627,-0.4100799560546875,-0.0057220458984375,0.8373260498046875,0.9323696830381178
1785425419.014089,0.0634765625,-0.42626953125,0.8999022841453552,0.9977770834554874,-0.469207763671875,0.118255615234375,0.4711151123046875,0.6753441826700523
1785425419.02476,0.06005859375,-0.4267578125,0.8901366591453552,0.9889754987700489,-0.4100799560546875,-0.1277923583984375,0.7724761962890625,0.8838642039680459
1785425419.035431,0.0595703125,-0.4228515625,0.8984374403953552,0.99475720673147,-0.4100799560546875,-0.0057220458984375,0.5893707275390625,0.7180223998225975
1785425419.046102,0.05908203125,-0.421875,0.8862304091453552,0.983297279633972,0.2613067626953125,-0.1888275146484375,0.4100799560546875,0.5216345702466667
1785425419.054094,0.06103515625,-0.4140625,0.8950194716453552,0.9880449882616898,0.4444122314453125,-0.6771087646484375,0.0438690185546875,0.8111122002601654
1785425419.062083,0.068359375,-0.42041015625,0.8872069716453552,0.984151367506372,0.3223419189453125,-0.5550384521484375,-0.0171661376953125,0.6420799579149424
1785425419.070074,0.05517578125,-0.42431640625,0.8828124403953552,0.9810436200120082,0.202178955078125,-0.736236572265625,0.1659393310546875,0.7813171454721806
1785425419.078064,0.06298828125,-0.42578125,0.8730468153953552,0.9733796475673626,-0.041961669921875,-0.919342041015625,0.2841949462890625,0.9631808436724906
1785425419.088734,0.07470703125,-0.4228515625,0.8833007216453552,0.9821429372988869,-0.3490447998046875,-0.5550384521484375,0.0438690185546875,0.6571335073050066
1785425419.099404,0.06005859375,-0.4248046875,0.8833007216453552,0.981980764610186,-0.5893707275390625,-0.3719329833984375,0.1010894775390625,0.7042095434518811
1785425419.110074,0.06298828125,-0.4296875,0.8808593153953552,0.982095720767509,-0.957489013671875,-0.370025634765625,-0.0171661376953125,1.026644465221246
1785425419.11809,0.07177734375,-0.4248046875,0.8925780653953552,0.9911138241507347,-1.018524169921875,-0.247955322265625,0.1010894775390625,1.0531345635881557
1785425419.126108,0.0537109337747097,-0.42724609375,0.8974608778953552,0.9954195680135521,-1.140594482421875,-0.431060791015625,0.1659393310546875,1.23057102211661
1785425419.134125,0.05810546875,-0.4296875,0.8940429091453552,0.9936399330481828,-1.445770263671875,-0.675201416015625,-0.0782012939453125,1.5975806865013327
1785425419.142142,0.06640625,-0.43212890625,0.8852538466453552,0.9873295066269832,-1.445770263671875,-0.186920166015625,0.1659393310546875,1.4672173204307632
1785425419.150185,0.060546875,-0.43505859375,0.9047850966453552,1.0057723277061952,-1.079559326171875,-0.125885009765625,0.2269744873046875,1.110321031186742
1785425419.158228,0.06689453125,-0.4384765625,0.9028319716453552,1.0059036450863537,-0.8983612060546875,0.1163482666015625,0.2269744873046875,0.9338667964824784
1785425419.166271,0.060546875,-0.4306640625,0.8999022841453552,0.999480655046058,-0.4100799560546875,-0.2460479736328125,0.2269744873046875,0.5293605515845069
1785425419.174314,0.06396484375,-0.43408203125,0.8886718153953552,0.9910884453812203,-0.286102294921875,-0.125885009765625,-0.2040863037109375,0.373299850262022
1785425419.184876,0.07568359375,-0.4287109375,0.8876952528953552,0.9886981017014206,-0.2841949462890625,-0.5550384521484375,0.0438690185546875,0.6251071441349298
1785425419.19544,0.07958984375,-0.43115234375,0.8930663466453552,0.9948841069490202,0.0782012939453125,-0.4291534423828125,0.1010894775390625,0.44778030545442676
1785425419.206003,0.07470703125,-0.43017578125,0.8920897841453552,0.9932051783336325,-0.041961669921875,-0.431060791015625,-0.3223419189453125,0.5398874882815818
1785425419.214032,0.07421875,-0.4189453125,0.8969725966453552,0.9927655497900782,-0.0438690185546875,-0.1888275146484375,-0.3871917724609375,0.43301014969478463
1785425419.22206,0.0712890625,-0.4306640625,0.8955077528953552,0.9962368195649172,0.4444122314453125,-0.0057220458984375,-0.5054473876953125,0.6730616873626677
1785425419.23009,0.0625,-0.4384765625,0.8974608778953552,1.0008016652736536,0.629425048828125,0.179290771484375,-0.9326934814453125,1.1394025641371566
1785425419.238119,0.0732421875,-0.4462890625,0.8994140028953552,1.006719371990606,0.507354736328125,-0.003814697265625,-0.9937286376953125,1.1157598244091742
1785425419.246114,0.08154296875,-0.42333984375,0.8881835341453552,0.9872871261116349,0.934600830078125,0.179290771484375,-0.7495880126953125,1.2114066538940136
1785425419.254111,0.06982421875,-0.4296875,0.9042968153953552,1.003623186018776,0.995635986328125,0.118255615234375,-0.7495880126953125,1.2518616523332549
1785425419.262107,0.0625,-0.419921875,0.8901366591453552,0.9861966857873585,1.2989044189453125,0.4215240478515625,-0.3223419189453125,1.4031177873515013
1785425419.270103,0.06298828125,-0.4326171875,0.8833007216453552,0.9855685259556763,1.4820098876953125,0.4215240478515625,-0.5702972412109375,1.6429469782913402
1785425419.278105,0.0546875,-0.435546875,0.8847655653953552,0.9876750015505497,1.1806488037109375,0.9098052978515625,-0.7495880126953125,1.668400271661254
1785425419.286107,0.0732421875,-0.42333984375,0.8896483778953552,0.9879550989938238,1.117706298828125,0.728607177734375,-0.2613067626953125,1.3595650091541858
1785425419.294109,0.06494140625,-0.4228515625,0.8955077528953552,0.9924489738269205,0.873565673828125,0.545501708984375,-0.2040863037109375,1.049923959321842
1785425419.302111,0.05810546875,-0.41552734375,0.8935546278953552,0.9871570756145116,1.239776611328125,0.850677490234375,0.0438690185546875,1.5042016916546317
1785425419.312768,0.06005859375,-0.41845703125,0.8964843153953552,0.9911596488132827,0.7495880126953125,0.7877349853515625,-0.2040863037109375,1.1063723673726344
1785425419.323425,0.06884765625,-0.43505859375,0.8872069716453552,0.9905312666962955,0.995635986328125,1.094818115234375,0.2269744873046875,1.4971423247654692
1785425419.334082,0.068359375,-0.42578125,0.8999022841453552,0.9978911754354685,0.629425048828125,0.972747802734375,0.4711151123046875,1.2507452293967387
1785425419.342087,0.07177734375,-0.43408203125,0.8906249403953552,0.9933740390125774,1.056671142578125,1.461029052734375,0.1010894775390625,1.8059288133701135
1785425419.350091,0.06494140625,-0.42236328125,0.8891600966453552,0.9865159933120048,1.2378692626953125,1.2760162353515625,-0.0171661376953125,1.7778730046575275
1785425419.358097,0.05810546875,-0.42041015625,0.8930663466453552,0.9887812925451657,1.4820098876953125,0.9098052978515625,0.2269744873046875,1.7537435402910737
1785425419.366102,0.06396484375,-0.42236328125,0.8823241591453552,0.9802949374529007,0.9326934814453125,0.9098052978515625,-0.1392364501953125,1.3103623923908758
1785425419.376773,0.05029296875,-0.42041015625,0.8867186903953552,0.9826210450017299,1.178741455078125,0.484466552734375,-0.2040863037109375,1.2906550577131046
1785425419.387444,0.06884765625,-0.4228515625,0.8759765028953552,0.9751298771469296,0.7495880126953125,0.6046295166015625,-0.0171661376953125,0.9631997287197093
1785425419.398114,0.0532226525247097,-0.408203125,0.8793944716453552,0.970977383239149,0.446319580078125,0.240325927734375,-0.0171661376953125,0.5072005475015542
1785425419.408752,0.06005859375,-0.4248046875,0.8803710341453552,0.9793463202398641,0.324249267578125,0.179290771484375,-0.1392364501953125,0.39581505444766074
1785425419.419388,0.0625,-0.43017578125,0.8803710341453552,0.9818404200969779,0.0782012939453125,0.3604888916015625,-0.2613067626953125,0.4520496737894505
1785425419.430024,0.0566406287252903,-0.4306640625,0.8901366591453552,0.9904660355135124,-0.1659393310546875,-0.0667572021484375,-0.3223419189453125,0.3686416937066546
1785425419.438057,0.0571289099752903,-0.42236328125,0.8896483778953552,0.9864728531465365,-0.469207763671875,-0.736236572265625,0.0438690185546875,0.8741422690960268
1785425419.44609,0.05322265625,-0.42626953125,0.9013671278953552,0.9984994059390933,-0.1010894775390625,-0.5550384521484375,0.1659393310546875,0.5880668562530379
1785425419.454124,0.0512695349752903,-0.427734375,0.8842772841453552,0.9836318295117886,-0.1659393310546875,-0.5550384521484375,0.6542205810546875,0.8738467334891992
1785425419.462159,0.0556640625,-0.4189453125,0.8989257216453552,0.9933182348851496,-0.286102294921875,-0.797271728515625,0.4100799560546875,0.9410963301424942
1785425419.472815,0.0595703125,-0.43115234375,0.8950194716453552,0.9952390769442269,-0.286102294921875,-0.736236572265625,0.5893707275390625,0.9855235501909247
1785425419.483471,0.056640625,-0.4248046875,0.8876952528953552,0.985733252424464,-0.347137451171875,-0.736236572265625,0.8373260498046875,1.1677600841050635
1785425419.494127,0.064453125,-0.421875,0.8920897841453552,0.9889170359154362,-0.469207763671875,-0.614166259765625,0.9593963623046875,1.2319892451348455
1785425419.502142,0.0561523474752903,-0.43603515625,0.8852538466453552,0.9884098930167311,-0.102996826171875,-0.736236572265625,1.1425018310546875,1.363071190549573
1785425419.510155,0.0625,-0.44287109375,0.8930663466453552,0.9988035618627934,-0.1659393310546875,-0.3719329833984375,1.1425018310546875,1.2129222727338522
1785425419.51817,0.0576171912252903,-0.42578125,0.8979491591453552,0.9954507049503278,0.0782012939453125,-0.6771087646484375,1.2035369873046875,1.3831460520671335
1785425419.526184,0.07275390625,-0.42333984375,0.9038085341453552,1.0006895725323033,0.507354736328125,-0.614166259765625,1.0204315185546875,1.2945615115431572
1785425419.536855,0.0791015625,-0.42626953125,0.9042968153953552,1.0028536786571696,0.507354736328125,-0.614166259765625,0.8983612060546875,1.2006922501844972
1785425419.547528,0.064453125,-0.43212890625,0.8867186903953552,0.9885138506037944,0.7495880126953125,-0.6771087646484375,0.7724761962890625,1.2716437951617816
1785425419.5582,0.0595703125,-0.42822265625,0.8837890028953552,0.9838730950157747,0.690460205078125,-0.736236572265625,0.9593963623046875,1.3925591424214019
1785425419.566163,0.064453125,-0.427734375,0.8789061903953552,0.9795851123787982,0.873565673828125,-0.675201416015625,0.6542205810546875,1.2833621886886897
1785425419.574126,0.0703125,-0.42333984375,0.8867186903953552,0.9851043126791083,0.629425048828125,-0.797271728515625,0.6542205810546875,1.2082312153963384
1785425419.582089,0.07763671875,-0.4208984375,0.8740233778953552,0.9731905362753046,0.324249267578125,-0.736236572265625,0.5893707275390625,0.9972661291482385
1785425419.590052,0.0703125,-0.42041015625,0.9028319716453552,0.9983957713048663,0.446319580078125,-0.614166259765625,0.4711151123046875,0.8935047908307315
1785425419.598082,0.0673828125,-0.4267578125,0.8994140028953552,0.9978016950047948,0.385284423828125,-0.431060791015625,0.2841949462890625,0.6442237656993335
1785425419.606112,0.06640625,-0.41796875,0.8969725966453552,0.9918001336702552,0.507354736328125,-0.492095947265625,-0.0171661376953125,0.7070091414353908
1785425419.614142,0.072265625,-0.421875,0.8906249403953552,0.9881364382694683,0.4444122314453125,-0.3719329833984375,0.3490447998046875,0.6765121195282157
1785425419.622172,0.0654296875,-0.44189453125,0.8862304091453552,0.9924495749653726,0.629425048828125,-0.125885009765625,-0.2613067626953125,0.6930397910699525
1785425419.632827,0.0693359375,-0.42041015625,0.8769530653953552,0.9749865899659664,0.5054473876953125,-0.0667572021484375,-0.2613067626953125,0.5729003490983464
1785425419.643481,0.0791015625,-0.43408203125,0.8862304091453552,0.9899942450024702,0.7495880126953125,-0.2460479736328125,-0.3871917724609375,0.8788283465880943
1785425419.654137,0.06982421875,-0.42333984375,0.8754882216453552,0.9749726514472439,0.507354736328125,0.118255615234375,-0.5054473876953125,0.7258583062396251
1785425419.662118,0.0634765625,-0.42529296875,0.8930663466453552,0.9911966922692421,0.4444122314453125,-0.0667572021484375,-0.6923675537109375,0.8254281222060206
1785425419.670099,0.0693359375,-0.43310546875,0.8906249403953552,0.9927741957486562,0.019073486328125,-0.247955322265625,-0.7495880126953125,0.7897644132885877
1785425419.67808,0.0624999962747097,-0.43115234375,0.8906249403953552,0.9914693023536769,0.202178955078125,0.240325927734375,-0.5054473876953125,0.5950713765136801
1785425419.68606,0.0576171912252903,-0.4208984375,0.8852538466453552,0.9819112018991489,0.3871917724609375,0.1163482666015625,-0.7495880126953125,0.8516669399355236
1785425419.696747,0.05078125,-0.43359375,0.8867186903953552,0.9883583921266004,0.324249267578125,0.545501708984375,-0.1392364501953125,0.6496895343876304
1785425419.707433,0.0512695349752903,-0.421875,0.8930663466453552,0.9890270877746798,0.2613067626953125,0.4215240478515625,-0.3871917724609375,0.6291909215881243
1785425419.718119,0.05517578125,-0.4267578125,0.8969725966453552,0.9948499567769222,0.385284423828125,0.728607177734375,-0.2040863037109375,0.8490958285452911
1785425419.726108,0.0712890625,-0.42578125,0.8862304091453552,0.9857870669559604,0.568389892578125,0.667572021484375,-0.2040863037109375,0.9002059171190224
1785425419.734096,0.07373046875,-0.423828125,0.8935546278953552,0.9917188788141108,0.446319580078125,0.545501708984375,-0.5054473876953125,0.867323667262691
1785425419.742084,0.0625,-0.41552734375,0.8964843153953552,0.9900774470483658,0.385284423828125,0.484466552734375,-0.0171661376953125,0.6192306551247876
1785425419.750072,0.0654296875,-0.42041015625,0.8974608778953552,0.993207818554203,0.690460205078125,0.545501708984375,-0.2613067626953125,0.9179262680257628
1785425419.760805,0.0576171875,-0.4140625,0.8935546278953552,0.9865127303967581,0.3871917724609375,0.4215240478515625,-0.3223419189453125,0.6568898722677609
1785425419.771538,0.0537109375,-0.41357421875,0.8857421278953552,0.9790135935472978,0.202178955078125,0.240325927734375,-0.0782012939453125,0.3236484571144928
1785425419.782271,0.068359375,-0.4169921875,0.8808593153953552,0.9769690998722527,0.324249267578125,0.362396240234375,-0.2040863037109375,0.5273706873000759
1785425419.792879,0.0571289099752903,-0.41796875,0.8803710341453552,0.9762247415906286,-0.0438690185546875,-0.0667572021484375,-0.0171661376953125,0.08170490261308248
1785425419.803487,0.06201171875,-0.41015625,0.8916015028953552,0.983375229829208,-0.102996826171875,-0.247955322265625,-0.0171661376953125,0.2690443538242418
1785425419.814095,0.05908203125,-0.4150390625,0.8793944716453552,0.9742087797684429,-0.2269744873046875,-0.3108978271484375,0.0438690185546875,0.38742659640478605
1785425419.824728,0.05078125,-0.42626953125,0.9003905653953552,0.9974906610473226,-0.286102294921875,-0.797271728515625,0.3490447998046875,0.9161490078150772
1785425419.835363,0.060546875,-0.4248046875,0.9013671278953552,0.9982923649134856,-0.102996826171875,-0.431060791015625,0.7724761962890625,0.8905847660867067
1785425419.845997,0.05712890625,-0.4345703125,0.8872069716453552,0.9895712601787661,0.3223419189453125,-0.3719329833984375,1.0204315185546875,1.1329249493716846
1785425419.854249,0.05859375,-0.41943359375,0.8955077528953552,0.9906017881070027,-0.102996826171875,-0.431060791015625,1.2607574462890625,1.3363873278828313
1785425419.862503,0.05859375,-0.41455078125,0.8818358778953552,0.9761762613982783,-0.4100799560546875,-0.4291534423828125,1.2035369873046875,1.3419536233705232
1785425419.870757,0.06591796875,-0.43408203125,0.8872069716453552,0.9899033281055146,-0.5321502685546875,-0.0057220458984375,1.0204315185546875,1.1508679916445306
1785425419.879011,0.07421875,-0.41796875,0.8842772841453552,0.9808937832831903,-0.7152557373046875,0.2994537353515625,1.1425018310546875,1.3807873635453758
1785425419.889381,0.0610351599752903,-0.4267578125,0.8867186903953552,0.9859602208910095,-1.0204315185546875,0.2994537353515625,1.1425018310546875,1.5608534388721904
1785425419.899751,0.060546875,-0.42333984375,0.8808593153953552,0.9791811277273036,-1.750946044921875,0.301361083984375,0.9593963623046875,2.0191760535355163
1785425419.910121,0.07763671875,-0.4189453125,0.8842772841453552,0.981574729819118,-1.8749237060546875,0.2994537353515625,1.0776519775390625,2.183196103843102
1785425419.918118,0.06640625,-0.42822265625,0.8867186903953552,0.9869419786701354,-2.239227294921875,0.118255615234375,0.6542205810546875,2.335835575877106
1785425419.926115,0.0673828125,-0.42626953125,0.8940429091453552,0.9927531818561927,-2.361297607421875,0.057220458984375,0.5893707275390625,2.434411309993153
1785425419.934112,0.07470703125,-0.4228515625,0.8886718153953552,0.9869762813284604,-1.9969940185546875,-0.1888275146484375,0.4100799560546875,2.0473901706292623
1785425419.942109,0.0712890625,-0.43115234375,0.8959960341453552,0.9968868376889383,-1.8749237060546875,-0.3108978271484375,0.1010894775390625,1.9032118759929448
1785425419.953017,0.0576171912252903,-0.4375,0.8950194716453552,0.9978906980972527,-1.6918182373046875,-0.3719329833984375,0.1659393310546875,1.740149118267535
1785425419.963925,0.05859375,-0.42578125,0.9023436903953552,0.9994733793288012,-1.079559326171875,-0.431060791015625,0.1010894775390625,1.1668251054656005
1785425419.974833,0.0624999962747097,-0.42578125,0.8881835341453552,0.9869477760818121,-1.0204315185546875,-0.3719329833984375,-0.1392364501953125,1.0949892315737537
1785425419.985237,0.05810546875,-0.435546875,0.8974608778953552,0.9992564001164188,-0.408172607421875,-0.614166259765625,0.0438690185546875,0.7387351100854899
1785425419.995641,0.0522460974752903,-0.4365234375,0.9033202528953552,1.004624230983477,-0.225067138671875,-0.431060791015625,0.0438690185546875,0.4882551722715417
1785425420.006045,0.06005859375,-0.43603515625,0.8872069716453552,0.9903887634183415,-0.286102294921875,-0.247955322265625,0.0438690185546875,0.3811310218131883
1785425420.016721,0.06103515625,-0.4296875,0.9042968153953552,1.003050032794423,-0.102996826171875,-0.308990478515625,0.1010894775390625,0.3410315886892517
1785425420.027397,0.0693359375,-0.423828125,0.8740233778953552,0.9738350049559866,0.3223419189453125,-0.0667572021484375,-0.0782012939453125,0.3383434336923874
1785425420.038073,0.07373046875,-0.43603515625,0.8945311903953552,0.9978721812427621,0.019073486328125,-0.003814697265625,0.1659393310546875,0.16707546614274255
1785425420.04607,0.05712890625,-0.423828125,0.8999022841453552,0.996352403761021,0.019073486328125,-0.186920166015625,0.1659393310546875,0.2506767000239455
1785425420.054067,0.0693359375,-0.4306640625,0.8901366591453552,0.9912730597128433,-0.102996826171875,-0.003814697265625,0.2269744873046875,0.249279594038368
1785425420.062064,0.0571289099752903,-0.4379882514476776,0.8925780653953552,0.9958880577585384,0.507354736328125,0.362396240234375,0.8983612060546875,1.0935230770105515
1785425420.07006,0.0576171912252903,-0.42529296875,0.8872069716453552,0.9855607847966569,0.3223419189453125,0.1163482666015625,0.5321502685546875,0.632949555788896
1785425420.08077,0.0712890625,-0.44189453125,0.8930663466453552,0.9989596621942589,0.324249267578125,-0.003814697265625,0.5893707275390625,0.6726886307349803
1785425420.09148,0.06689453125,-0.42529296875,0.8959960341453552,0.9940613063506447,0.385284423828125,0.057220458984375,0.6542205810546875,0.7613953223171822
1785425420.10219,0.06103515625,-0.435546875,0.8828124403953552,0.986298218358692,0.507354736328125,-0.003814697265625,0.6542205810546875,0.8279057609808875
1785425420.110184,0.06005859375,-0.42578125,0.8798827528953552,0.9793315916366115,0.385284423828125,0.362396240234375,0.8373260498046875,0.9903989276357801
1785425420.118175,0.0600585974752903,-0.42236328125,0.8920897841453552,0.9888488051544948,0.385284423828125,0.057220458984375,0.5321502685546875,0.6594711339352003
1785425420.126165,0.0673828125,-0.419921875,0.8852538466453552,0.9821146559971111,0.202178955078125,0.484466552734375,0.4100799560546875,0.6661454352861887
1785425420.134156,0.07080078125,-0.41552734375,0.8964843153953552,0.9906360844323306,0.141143798828125,0.240325927734375,0.2841949462890625,0.39805136726968465
1785425420.144809,0.06591796875,-0.42333984375,0.8813475966453552,0.9799670341511209,0.507354736328125,0.362396240234375,0.1659393310546875,0.6451943311913623
1785425420.155461,0.0791015625,-0.4296875,0.8842772841453552,0.9863238413937264,0.446319580078125,0.362396240234375,0.2841949462890625,0.6413259467644887
1785425420.166112,0.0615234375,-0.43896484375,0.8720702528953552,0.9782544624969759,0.4444122314453125,-0.0057220458984375,-0.0782012939453125,0.45127642930047546
1785425420.174116,0.0673828125,-0.416015625,0.8867186903953552,0.9817736396751569,-0.164031982421875,-0.614166259765625,-0.0782012939453125,0.6404858532914436
1785425420.182117,0.06689453125,-0.42626953125,0.8847655653953552,0.9843732510042187,-0.530242919921875,-0.492095947265625,-0.3223419189453125,0.7919724036555031
1785425420.190118,0.05810546875,-0.4140625,0.8813475966453552,0.9754986342980962,-0.957489013671875,-0.186920166015625,-0.2613067626953125,1.0099532583223607
1785425420.198119,0.07080078125,-0.4228515625,0.8935546278953552,0.9910883248063759,-0.957489013671875,-0.186920166015625,-0.5054473876953125,1.0987271824678155
1785425420.208801,0.07421875,-0.42431640625,0.8959960341453552,0.9941638339170673,-1.2035369873046875,-0.3719329833984375,-0.2040863037109375,1.2761217196304195
1785425420.219483,0.07470703125,-0.43798828125,0.8764647841453552,0.9826522237686545,-1.262664794921875,-0.370025634765625,-0.0782012939453125,1.31808831156851
1785425420.230165,0.068359375,-0.4365234375,0.9042968153953552,1.006468303510542,-1.262664794921875,-0.370025634765625,0.1659393310546875,1.3261889821249766
1785425420.240782,0.0576171912252903,-0.44140625,0.9086913466453552,1.011869152475706,-1.079559326171875,-0.431060791015625,-0.0782012939453125,1.1650653143280896
1785425420.251401,0.05859375,-0.44140625,0.9013671278953552,1.0053533728637143,-0.774383544921875,-0.370025634765625,0.2269744873046875,0.887753492201917
1785425420.262018,0.06787109375,-0.43994140625,0.8969725966453552,1.0013564627208236,-0.286102294921875,-0.431060791015625,0.4711151123046875,0.699726645021067
1785425420.27004,0.06884765625,-0.44140625,0.8984374403953552,1.0033789471651964,0.019073486328125,0.057220458984375,0.4100799560546875,0.41449191688729725
1785425420.27806,0.0615234375,-0.43408203125,0.8916015028953552,0.9935620681070703,0.202178955078125,-0.553131103515625,0.8983612060546875,1.074189556873892
1785425420.286082,0.064453125,-0.43017578125,0.8901366591453552,0.9907313864265974,0.507354736328125,-0.247955322265625,0.7152557373046875,0.9113075441703
1785425420.294102,0.0625,-0.4345703125,0.8999022841453552,1.0012900316673363,0.9326934814453125,-0.0057220458984375,0.5321502685546875,1.0738406680987023
1785425420.304749,0.06884765625,-0.431640625,0.9028319716453552,1.003074871555732,1.7261505126953125,0.1163482666015625,0.4711151123046875,1.7930649627554873
1785425420.315393,0.06396484375,-0.43896484375,0.9042968153953552,1.0072409670076992,1.667022705078125,-0.186920166015625,0.3490447998046875,1.7133989961418772
1785425420.326039,0.0625,-0.42919921875,0.9018554091453552,1.00073043242441,2.0923614501953125,-0.3719329833984375,0.1659393310546875,2.131629996972732
1785425420.334053,0.06982421875,-0.4375,0.8994140028953552,1.0026102034830355,2.277374267578125,0.057220458984375,-0.2040863037109375,2.287216420655417
1785425420.342067,0.0468750037252903,-0.421875,0.8959960341453552,0.9914558360327759,2.3975372314453125,-0.0667572021484375,-0.1392364501953125,2.402504545108736
1785425420.35008,0.0585937462747097,-0.41259765625,0.8886718153953552,0.9815333150349888,2.399444580078125,-0.125885009765625,-0.5054473876953125,2.45533264350841
1785425420.358095,0.0654296875,-0.41162109375,0.8769530653953552,0.9709581081244464,2.2144317626953125,-0.0667572021484375,-0.4444122314453125,2.259572257559107
1785425420.366096,0.06005859375,-0.41552734375,0.8955077528953552,0.9890420332740397,1.972198486328125,0.118255615234375,-0.3223419189453125,2.001863025463719
1785425420.374097,0.06396484375,-0.4208984375,0.8911132216453552,0.9875878541765625,1.7261505126953125,-0.0057220458984375,-0.3223419189453125,1.7559990452722065
1785425420.382098,0.0634765625,-0.4111328125,0.8847655653953552,0.9776858233657371,1.300811767578125,0.240325927734375,-0.5054473876953125,1.4161019977173712
1785425420.390099,0.06640625,-0.41259765625,0.8789061903953552,0.9732022952589724,1.056671142578125,0.179290771484375,-0.5702972412109375,1.2140584943196224
1785425420.400735,0.0605468787252903,-0.40771484375,0.8779296278953552,0.9698751207624303,0.8106231689453125,0.1163482666015625,-0.3871917724609375,0.9058500482053149
1785425420.411373,0.06640625,-0.416015625,0.8828124403953552,0.9781802467848172,0.202178955078125,-0.003814697265625,-0.1392364501953125,0.24551511329183504
1785425420.42201,0.05322265625,-0.40869140625,0.8842772841453552,0.9756062894100229,0.2613067626953125,-0.0057220458984375,-0.2040863037109375,0.33160998990072843
1785425420.432714,0.0537109337747097,-0.412109375,0.8813475966453552,0.9744191025849122,-0.2269744873046875,-0.1888275146484375,0.2269744873046875,0.3724119574647911
1785425420.44342,0.046875,-0.41845703125,0.8930663466453552,0.9873555854594864,-0.286102294921875,0.057220458984375,0.2841949462890625,0.40730267809356374
1785425420.454124,0.0576171912252903,-0.4135741889476776,0.8798827528953552,0.973938914578902,-0.3490447998046875,-0.0667572021484375,0.3490447998046875,0.4981175248674514
1785425420.462106,0.0532226525247097,-0.4267578125,0.8789061903953552,0.9784840176450649,-0.4100799560546875,-0.0667572021484375,0.7724761962890625,0.8771211821805012
1785425420.47009,0.06591796875,-0.41162109375,0.8930663466453552,0.9855681625004706,-0.591278076171875,-0.247955322265625,0.4100799560546875,0.7610894661990651
1785425420.478074,0.06494140625,-0.4306640625,0.8994140028953552,0.9993170015460447,-0.835418701171875,-0.125885009765625,0.3490447998046875,0.9141136221619763
1785425420.486058,0.0498046875,-0.42529296875,0.8828124403953552,0.9811790973527533,-0.591278076171875,-0.125885009765625,0.5321502685546875,0.8053823361410599
1785425420.49674,0.0634765625,-0.42138671875,0.8940429091453552,0.9904083824962296,-0.957489013671875,-0.431060791015625,0.2841949462890625,1.0878259899219174
1785425420.507422,0.0561523474752903,-0.421875,0.8881835341453552,0.9848865884348914,-0.835418701171875,-0.492095947265625,0.5321502685546875,1.106013894987663
1785425420.518104,0.07080078125,-0.41455078125,0.9067382216453552,0.9995195363039069,-0.774383544921875,-0.186920166015625,0.3490447998046875,0.8697363367019759
1785425420.526103,0.0654296875,-0.42138671875,0.8959960341453552,0.9922986969403134,-0.5893707275390625,-0.5550384521484375,0.4100799560546875,0.9075192054172031
1785425420.534102,0.064453125,-0.43017578125,0.9057616591453552,1.0047933077374969,-0.5321502685546875,-0.5550384521484375,0.4711151123046875,0.9017766024509716
1785425420.542102,0.064453125,-0.41650390625,0.8989257216453552,0.9928228252207929,-0.347137451171875,-0.247955322265625,0.5321502685546875,0.6820338409263736
1785425420.550101,0.0673828125,-0.419921875,0.9028319716453552,0.9979881730506456,-0.4100799560546875,-0.7343292236328125,0.5321502685546875,0.9952833201464846
1785425420.56078,0.05810546875,-0.4248046875,0.8930663466453552,0.9906577449003827,-0.530242919921875,-0.736236572265625,0.9593963623046875,1.320470834389075
1785425420.571459,0.0488281212747097,-0.42236328125,0.8872069716453552,0.9838247492880053,-0.4100799560546875,-0.6771087646484375,0.9593963623046875,1.24381800498506
1785425420.582138,0.052734375,-0.423828125,0.8857421278953552,0.9833363163110819,-0.530242919921875,-0.492095947265625,0.8983612060546875,1.1534161573285513
1785425420.590132,0.0527343787252903,-0.41748046875,0.8852538466453552,0.9801761216677645,-0.4100799560546875,-0.7343292236328125,0.9593963623046875,1.2758708238071952
1785425420.598128,0.0673828125,-0.421875,0.8930663466453552,0.989993160863191,-0.469207763671875,-0.797271728515625,1.0776519775390625,1.420257694671677
1785425420.606123,0.0556640625,-0.419921875,0.8872069716453552,0.9831424512722668,-0.5893707275390625,-0.8602142333984375,1.1425018310546875,1.5468150554557254
1785425420.61412,0.07275390625,-0.42236328125,0.8867186903953552,0.984862380294503,-0.5893707275390625,-0.3719329833984375,1.0204315185546875,1.235707280337626
1785425420.624758,0.06298828125,-0.42578125,0.8852538466453552,0.9843432172909964,-0.6542205810546875,-0.5550384521484375,1.1425018310546875,1.4287696406356694
1785425420.635396,0.05859375,-0.41455078125,0.9013671278953552,0.9938552595948615,-0.5893707275390625,-0.3719329833984375,0.7152557373046875,0.9986404600089356
1785425420.646034,0.07470703125,-0.41796875,0.8828124403953552,0.9796105457841671,-0.469207763671875,-0.492095947265625,0.8983612060546875,1.126661973863167
1785425420.656716,0.072265625,-0.4169921875,0.8911132216453552,0.9865027008497441,-0.286102294921875,-0.431060791015625,0.1010894775390625,0.5271498944130601
1785425420.667398,0.078125,-0.41357421875,0.8994140028953552,0.9930220031016024,-0.2269744873046875,-0.1888275146484375,0.1010894775390625,0.31207744334484067
1785425420.67808,0.0712890625,-0.43017578125,0.8930663466453552,0.9938313904866652,-0.286102294921875,-0.186920166015625,0.1010894775390625,0.3563884875974433
1785425420.688749,0.07958984375,-0.4248046875,0.8901366591453552,0.9895134348277321,-0.286102294921875,-0.125885009765625,-0.0782012939453125,0.32220645744301313
1785425420.69942,0.06787109375,-0.43505859375,0.8984374403953552,1.0005360061820396,0.019073486328125,-0.003814697265625,-0.2040863037109375,0.20501114398571255
1785425420.71009,0.0703125,-0.4208984375,0.8833007216453552,0.9809788515586851,0.0782012939453125,-0.3108978271484375,-0.3223419189453125,0.45461765694887757
1785425420.718091,0.0712890625,-0.44873046875,0.8837890028953552,0.9937425047040556,0.0782012939453125,-0.0057220458984375,0.1659393310546875,0.1835321382615649
1785425420.726092,0.056640625,-0.42041015625,0.8808593153953552,0.9776839946512953,0.0782012939453125,-0.1888275146484375,-0.2040863037109375,0.28882952069589435
1785425420.734092,0.0703125,-0.412109375,0.8994140028953552,0.9918283789161241,0.4444122314453125,-0.0667572021484375,0.2841949462890625,0.5317194024982843
1785425420.742091,0.0634765625,-0.44091796875,0.8945311903953552,0.9993117530298409,0.629425048828125,-0.003814697265625,0.3490447998046875,0.7197379497276841
1785425420.752759,0.0693359375,-0.43115234375,0.8881835341453552,0.9897321890678586,0.934600830078125,-0.125885009765625,0.2269744873046875,0.9699707032450194
1785425420.763427,0.05810546875,-0.43359375,0.9033202528953552,1.0036768727178325,1.300811767578125,0.057220458984375,0.1659393310546875,1.3126009664734313
1785425420.774096,0.0634765625,-0.4375,0.8823241591453552,0.9868796511218451,0.9326934814453125,0.1163482666015625,0.1659393310546875,0.954457914767667
1785425420.784832,0.06884765625,-0.41259765625,0.8867186903953552,0.9804319770440809,0.690460205078125,-0.125885009765625,0.3490447998046875,0.7838460325541696
1785425420.795569,0.05810546875,-0.43408203125,0.8720702528953552,0.9758637104318164,0.629425048828125,0.240325927734375,0.3490447998046875,0.7587916155996783
1785425420.806306,0.056640625,-0.41357421875,0.8862304091453552,0.9796204024564857,0.507354736328125,0.118255615234375,0.1659393310546875,0.5467440723043269
1785425420.814338,0.06591796875,-0.4248046875,0.8842772841453552,0.9832347208991269,0.019073486328125,0.118255615234375,0.2269744873046875,0.25664295490504985
1785425420.822374,0.06689453125,-0.4326171875,0.8857421278953552,0.9880139808525784,0.0782012939453125,0.0591278076171875,0.1659393310546875,0.1927366119843697
1785425420.830409,0.07373046875,-0.42333984375,0.8872069716453552,0.98579359698899,0.0782012939453125,0.3604888916015625,-0.1392364501953125,0.39427715176742867
1785425420.838444,0.0605468787252903,-0.431640625,0.8852538466453552,0.98673903676411,0.019073486328125,0.118255615234375,-0.1392364501953125,0.18367084003227474
1785425420.846373,0.0600585974752903,-0.42724609375,0.8979491591453552,0.9962223407278032,0.446319580078125,0.057220458984375,-0.0171661376953125,0.45029992757146964
1785425420.854302,0.076171875,-0.431640625,0.8876952528953552,0.9900094169776139,0.568389892578125,0.057220458984375,-0.1392364501953125,0.5879864283929918
1785425420.862231,0.06591796875,-0.42626953125,0.8989257216453552,0.9970548354588344,0.7495880126953125,0.1773834228515625,-0.0782012939453125,0.7742496431085812
1785425420.87016,0.0703125,-0.42822265625,0.9072265028953552,1.0056731171398545,0.3223419189453125,-0.0667572021484375,0.1010894775390625,0.34435435123888647
1785425420.880766,0.0537109375,-0.4150390625,0.8930663466453552,0.9862605070256487,0.690460205078125,0.301361083984375,-0.2613067626953125,0.7973926397748278
1785425420.891371,0.06884765625,-0.41748046875,0.8852538466453552,0.9811749663333426,0.568389892578125,0.484466552734375,-0.0782012939453125,0.7509263299938435
1785425420.901978,0.0634765625,-0.41650390625,0.8881835341453552,0.983043624787455,0.629425048828125,0.240325927734375,-0.3223419189453125,0.7468847008360943
1785425420.912694,0.068359375,-0.4228515625,0.8911132216453552,0.9887159459876461,0.385284423828125,0.301361083984375,-0.0171661376953125,0.48944587695493175
1785425420.92341,0.05908203125,-0.43017578125,0.8984374403953552,0.9978635796013557,0.812530517578125,0.484466552734375,-0.1392364501953125,0.9561906043133327
1785425420.934126,0.07275390625,-0.41748046875,0.8979491591453552,0.9929228394352725,0.8106231689453125,0.1163482666015625,-0.3871917724609375,0.9058500482053149
1785425420.942125,0.0566406287252903,-0.42138671875,0.8876952528953552,0.9842651012680661,1.117706298828125,0.362396240234375,-0.2040863037109375,1.1925810767987515
1785425420.950124,0.06494140625,-0.423828125,0.9047850966453552,1.0012410982866653,1.178741455078125,0.118255615234375,-0.2040863037109375,1.20210940759007
1785425420.958122,0.05224609375,-0.41943359375,0.8911132216453552,0.9862742862253572,0.9326934814453125,-0.0667572021484375,-0.2613067626953125,0.9709041552076957
1785425420.966122,0.06591796875,-0.4111328125,0.8872069716453552,0.980056926231537,1.117706298828125,-0.003814697265625,-0.1392364501953125,1.1263519482907134
1785425420.97424,0.0712890625,-0.40966796875,0.8842772841453552,0.9771674832429521,1.056671142578125,-0.003814697265625,-0.0171661376953125,1.0568174543202637
1785425420.982358,0.06884765625,-0.4150390625,0.8930663466453552,0.9872005483600983,1.117706298828125,0.057220458984375,-0.3223419189453125,1.164665558894825
1785425420.990475,0.06640625,-0.427734375,0.8828124403953552,0.9832213842835731,0.629425048828125,0.179290771484375,0.2841949462890625,0.7135039175281331
1785425420.998594,0.06689453125,-0.404296875,0.8867186903953552,0.9768320619954981,0.507354736328125,0.484466552734375,-0.2040863037109375,0.7305942023827613
1785425421.009096,0.07470703125,-0.41162109375,0.8876952528953552,0.9813337492163833,0.141143798828125,0.667572021484375,-0.0782012939453125,0.6867964896467441
1785425421.019598,0.0419921912252903,-0.42041015625,0.8842772841453552,0.9800277337185597,-0.0438690185546875,0.6046295166015625,-0.0782012939453125,0.6112420024094481
1785425421.0301,0.064453125,-0.43115234375,0.8896483778953552,0.9907173083858082,-0.164031982421875,0.789642333984375,-0.3223419189453125,0.8685308397442707
1785425421.038291,0.0693359375,-0.42236328125,0.8842772841453552,0.9824176957042029,-0.4100799560546875,0.7877349853515625,-0.4444122314453125,0.9930731136038489
1785425421.046482,0.0468750037252903,-0.4208984375,0.8955077528953552,0.9905992611343277,-0.774383544921875,0.789642333984375,-0.4444122314453125,1.1919341935376562
1785425421.054673,0.0283203162252903,-0.431640625,0.8979491591453552,0.9967087648211695,-0.6542205810546875,0.4215240478515625,-0.0782012939453125,0.782178070497646
1785425421.062864,0.05224609375,-0.42919921875,0.8964843153953552,0.9953018393621218,-0.225067138671875,0.362396240234375,-0.2040863037109375,0.47290323662283057
1785425421.070719,0.05322265625,-0.41943359375,0.8818358778953552,0.9779528139168155,-0.286102294921875,0.301361083984375,-0.0782012939453125,0.42283385445647825
1785425421.078573,0.0429687537252903,-0.4228515625,0.8876952528953552,0.9842015137756823,0.263214111328125,-0.125885009765625,0.1659393310546875,0.33565542700338286
1785425421.086429,0.0478515662252903,-0.4208984375,0.8896483778953552,0.9853524767168302,0.1392364501953125,-0.0667572021484375,0.2269744873046875,0.2745190903906408
1785425421.094284,0.0576171875,-0.42919921875,0.8823241591453552,0.9828670466968453,0.385284423828125,-0.247955322265625,0.5893707275390625,0.7465144228776455
1785425421.104936,0.05908203125,-0.423828125,0.8925780653953552,0.989856842569953,0.2613067626953125,-0.1888275146484375,0.4100799560546875,0.5216345702466667
1785425421.115587,0.06591796875,-0.4306640625,0.8808593153953552,0.9827155472729144,0.2613067626953125,-0.4940032958984375,0.2269744873046875,0.6031897698701871
1785425421.12624,0.0712890625,-0.42578125,0.8891600966453552,0.9884217119985117,0.019073486328125,-0.492095947265625,0.7724761962890625,0.9161013552163211
1785425421.136929,0.0771484375,-0.40771484375,0.8862304091453552,0.9785640568285359,-0.286102294921875,-0.247955322265625,0.5321502685546875,0.6530851960672815
1785425421.147618,0.072265625,-0.41650390625,0.8950194716453552,0.9898270955588558,-0.3490447998046875,-0.0667572021484375,0.1659393310546875,0.3922048672572268
1785425421.158307,0.0625,-0.40966796875,0.8974608778953552,0.9885191560978739,-0.2269744873046875,0.1773834228515625,0.2841949462890625,0.40465919498511965
1785425421.168926,0.06005859375,-0.4248046875,0.9077147841453552,1.0039981008753198,-0.347137451171875,-0.247955322265625,-0.0171661376953125,0.42694370604253
1785425421.179543,0.06396484375,-0.4326171875,0.8964843153953552,0.997463412815854,-0.286102294921875,-0.247955322265625,0.1010894775390625,0.3918615156768193
1785425421.190162,0.05517578125,-0.421875,0.9042968153953552,0.9993876188925541,-0.041961669921875,-0.247955322265625,-0.2040863037109375,0.32387318960493683
1785425421.198173,0.0532226525247097,-0.427734375,0.8955077528953552,0.9938427852503107,0.1392364501953125,-0.0667572021484375,-0.2613067626953125,0.30352024204652883
1785425421.206183,0.0595703125,-0.40625,0.8872069716453552,0.9776113211125728,0.141143798828125,-0.308990478515625,-0.2040863037109375,0.39629270384823156
1785425421.214193,0.0654296875,-0.42626953125,0.9091796278953552,1.0062774731943367,0.324249267578125,-0.125885009765625,0.1010894775390625,0.36222052078500827
1785425421.222203,0.06396484375,-0.4287109375,0.8925780653953552,0.9922601332276763,0.5702972412109375,-0.0667572021484375,0.4100799560546875,0.7055926854278664
1785425421.232835,0.05126953125,-0.40966796875,0.8935546278953552,0.9843252930243906,0.5702972412109375,0.1163482666015625,0.5893707275390625,0.8283318881667652
1785425421.243466,0.06591796875,-0.4208984375,0.8867186903953552,0.9837533782358875,0.690460205078125,-0.308990478515625,0.5321502685546875,0.9248752991255996
1785425421.254099,0.05810546875,-0.43017578125,0.8925780653953552,0.9925336523753843,0.507354736328125,-0.247955322265625,0.5893707275390625,0.816240482207514
1785425421.264764,0.06298828125,-0.42578125,0.8872069716453552,0.986100099869437,0.812530517578125,-0.308990478515625,1.1425018310546875,1.4356153355869408
1785425421.27543,0.05810546875,-0.42041015625,0.8984374403953552,0.99363513388012,0.873565673828125,-0.492095947265625,0.9593963623046875,1.3877019809056648
1785425421.286096,0.06005859375,-0.4091796875,0.9057616591453552,0.9957104170006317,0.9326934814453125,-0.8602142333984375,0.9593963623046875,1.5907001721491407
1785425421.296745,0.06103515625,-0.42041015625,0.8847655653953552,0.9814683364663243,0.995635986328125,-0.980377197265625,0.8373260498046875,1.628970650402119
1785425421.307395,0.06982421875,-0.412109375,0.8867186903953552,0.980295666818635,0.690460205078125,-1.102447509765625,0.8983612060546875,1.5808790792242735
1785425421.318045,0.0620117224752903,-0.41162109375,0.8891600966453552,0.9817754610962102,0.5702972412109375,-0.8602142333984375,0.8983612060546875,1.3683056410093837
1785425421.326047,0.07373046875,-0.42919921875,0.8906249403953552,0.9913934314145596,0.7495880126953125,-0.7343292236328125,0.9593963623046875,1.4218167875859198
