timestamp,accel_x,accel_y,accel_z,accel_rms,gyro_x,gyro_y,gyro_z,gyro_rms
1782416818.765661,-0.10400390625,-0.58056640625,1.0791015625,1.229770038166177,2.4433135986328125,15.256881713867188,-21.364212036132812,26.366110386195402
1782416818.773631,-0.1137695237994194,-0.58251953125,1.06982421875,1.2234362949730215,-1.0986328125,15.380859375,-21.547317504882812,26.496503935924384
1782416818.781601,-0.08642578125,-0.56005859375,0.9653319716453552,1.1193752094711626,-2.38037109375,14.70947265625,-22.157669067382812,26.70200462266045
1782416818.789571,-0.07470703125,-0.53955078125,0.8540038466453552,1.012925839413102,-3.108978271484375,12.26806640625,-22.096633911132812,25.46433642259987
1782416818.800238,-0.0600585900247097,-0.546875,0.8500975966453552,1.0125933160370777,-4.6367645263671875,10.190963745117188,-21.242141723632812,24.012161758870693
1782416818.810905,-0.06591796875,-0.55712890625,0.8725585341453552,1.0373505638371912,-6.6509246826171875,7.0781707763671875,-20.509719848632812,22.693256904698977
1782416818.821572,-0.0502929650247097,-0.57763671875,0.8525390028953552,1.03102682440228,-7.50732421875,2.9296875,-19.594192504882812,21.186678967962212
1782416818.832236,-0.0273437462747097,-0.58642578125,0.7822265625,0.978019055262,-8.4228515625,-5.126953125,-16.298294067382812,19.049001713915136
1782416818.842903,-0.012695308774709702,-0.5908203125,0.734375,0.9426221157773049,-9.82666015625,-8.23974609375,-15.016555786132812,19.74724317959189
1782416818.85357,0.005859375,-0.6005859375,0.71826171875,0.9362893234571505,-10.496139526367188,-11.598587036132812,-13.368606567382812,20.577069950437224
1782416818.861578,0.029296875,-0.5908203125,0.72998046875,0.9395735379968047,-10.068893432617188,-14.585494995117188,-11.842727661132812,21.315944212390647
1782416818.869588,0.0507812537252903,-0.59326171875,0.7685546875,0.9722214307154204,-9.519577026367188,-17.335891723632812,-10.072708129882812,22.194930450088503
1782416818.877599,0.0375976599752903,-0.5849609375,0.79248046875,0.9857069421418905,-7.6274871826171875,-19.105911254882812,-8.363723754882812,22.20734744737512
1782416818.885608,0.04833984375,-0.59619140625,0.8422850966453552,1.0330658824155419,-5.6133270263671875,-20.505905151367188,-6.8378448486328125,22.33288401787342
1782416818.896262,0.0556640625,-0.60546875,0.8803710341453552,1.069927125014937,-3.5400390625,-21.54541015625,-4.9457550048828125,22.387431025765103
1782416818.906916,0.0429687537252903,-0.59130859375,0.8969725966453552,1.0751985890857643,-1.8291473388671875,-20.875930786132812,-3.0536651611328125,21.177231572871108
1782416818.91757,0.0581054650247097,-0.58349609375,0.8891600966453552,1.0651054473401327,0.3662109375,-18.9208984375,-2.0771026611328125,19.03808980958488
1782416818.925572,0.06640625,-0.58837890625,0.8535155653953552,1.03879177303787,3.2367706298828125,-15.256881713867188,0.4863739013671875,15.604027791353683
1782416818.933574,0.0810546875,-0.583984375,0.826171875,1.0149717137195888,3.604888916015625,-12.6953125,1.0967254638671875,13.242695734349681
1782416818.941576,0.08203125,-0.5830078125,0.8090819716453552,1.0006202437758958,2.62451171875,-10.498046875,1.4629364013671875,10.91958025136491
1782416818.949578,0.09521484375,-0.57861328125,0.8154296278953552,1.0043827327064052,1.7719268798828125,-8.790969848632812,1.7070770263671875,9.128799905856908
1782416818.960244,0.111328125,-0.5869140625,0.7880859375,0.9889092542096688,0.4291534423828125,-8.668899536132812,1.8291473388671875,8.870161883075056
1782416818.970911,0.10498046875,-0.5859375,0.7666015625,0.9705779764411828,-1.6460418701171875,-8.790969848632812,2.1343231201171875,9.19488661696363
1782416818.981576,0.1044921875,-0.59912109375,0.7822265625,0.9908294996139839,-4.57763671875,-9.21630859375,2.5005340576171875,10.589984541885878
1782416818.992344,0.1044921875,-0.609375,0.763671875,0.9825737837636168,-7.0781707763671875,-10.007858276367188,2.6226043701171875,12.53538122680868
1782416819.003114,0.1005859375,-0.6005859375,0.7666015625,0.9790295985173019,-9.580612182617188,-10.744094848632812,2.7446746826171875,14.654587780743979
1782416819.013884,0.10107421875,-0.6025390625,0.74951171875,0.9669731827087454,-11.533737182617188,-11.110305786132812,2.9888153076171875,16.291071327635557
1782416819.021796,0.09423828125,-0.59326171875,0.72802734375,0.9438559921062317,-14.829635620117188,-10.622024536132812,3.7212371826171875,18.61701114682345
1782416819.029708,0.09228515625,-0.6083984375,0.72900390625,0.9539978533226828,-15.68603515625,-9.58251953125,3.9653778076171875,18.80427080870305
1782416819.037621,0.0908203125,-0.5986328125,0.72412109375,0.9439072686328642,-15.684127807617188,-7.9975128173828125,4.5757293701171875,18.190364911634568
1782416819.045532,0.07568359375,-0.60009765625,0.7211913466453552,0.9412556304616717,-15.806198120117188,-5.9833526611328125,5.0029754638671875,17.625724710545615
1782416819.056208,0.0673828125,-0.59375,0.72412109375,0.9388454954539146,-15.012741088867188,-3.9081573486328125,5.3691864013671875,16.415975495707226
1782416819.066884,0.0610351599752903,-0.5947265625,0.7333984375,0.9462020096278158,-14.280319213867188,-2.1343231201171875,5.6133270263671875,15.491684619045
1782416819.07756,0.06884765625,-0.5888671875,0.73974609375,0.948013105132868,-12.75634765625,-0.18310546875,5.9795379638671875,14.089457313932641
1782416819.08557,0.05517578125,-0.58203125,0.7548827528953552,0.954805065671512,-11.29150390625,1.46484375,6.4678192138671875,13.094904087470157
1782416819.09358,0.0527343787252903,-0.59130859375,0.7695311903953552,0.971907928115332,-9.46044921875,2.74658203125,7.1392059326171875,12.166021273335392
1782416819.10159,0.0478515662252903,-0.58740234375,0.7597655653953552,0.9615482308203424,-7.5664520263671875,2.9888153076171875,7.5054168701171875,11.068671808514454
1782416819.1096,0.04052734375,-0.5908203125,0.7509765028953552,0.9563873771411696,-6.7138671875,2.0751953125,7.6885223388671875,10.416132869336437
1782416819.12025,0.0361328125,-0.5712890625,0.7456054091453552,0.940002233623996,-5.9795379638671875,0.4901885986328125,8.726119995117188,10.589633104727591
1782416819.1309,0.03662109375,-0.58154296875,0.74951171875,0.9493688142937858,-5.67626953125,-1.64794921875,9.275436401367188,10.998613224165277
1782416819.14155,0.0390625,-0.578125,0.73291015625,0.9342974321197984,-5.7353973388671875,-3.6029815673828125,9.946823120117188,12.033933230348378
1782416819.149573,0.05078125,-0.56201171875,0.7353515625,0.9269184580291208,-5.9185028076171875,-5.6781768798828125,10.862350463867188,13.611062624309827
1782416819.157598,0.0458984375,-0.57666015625,0.7255859375,0.9279647380525672,-6.4067840576171875,-7.3833465576171875,11.960983276367188,15.44751790056742
1782416819.165623,0.03466796875,-0.59033203125,0.73681640625,0.9447709731443737,-7.1392059326171875,-8.790969848632812,12.693405151367188,17.010936087254066
1782416819.173648,0.0371093787252903,-0.58154296875,0.7392578125,0.9413136798295378,-7.8125,-10.3759765625,13.486862182617188,18.72408869367102
1782416819.184284,0.0405273474752903,-0.58935546875,0.744140625,0.9501197841400345,-8.4228515625,-12.02392578125,14.768600463867188,20.823803190057653
1782416819.194921,0.029296875,-0.5810546875,0.74365234375,0.9441936586926204,-9.27734375,-13.61083984375,16.355514526367188,23.212645771865056
1782416819.205556,0.0336914025247097,-0.609375,0.7700194716453552,0.9825492292715282,-10.1318359375,-14.46533203125,18.125534057617188,25.306815586172913
1782416819.216231,0.021484375,-0.6123046875,0.76904296875,0.9832627809936806,-10.92529296875,-17.39501953125,22.031784057617188,30.122221692748063
1782416819.226908,0.0205078125,-0.60693359375,0.7856444716453552,0.9929885162592439,-11.838912963867188,-18.739700317382812,24.229049682617188,32.83874353068448
1782416819.237585,0.0175781287252903,-0.60205078125,0.7998046278953552,1.0012300318188851,-11.533737182617188,-20.570755004882812,26.426315307617188,35.41939010776724
1782416819.248247,0.015625,-0.61328125,0.7905272841453552,1.0006455012664544,-10.982513427734375,-21.8505859375,28.806686401367188,37.78741706480018
1782416819.25891,0.0258789099752903,-0.62890625,0.78173828125,1.0036471141005068,-9.94873046875,-23.3154296875,31.614303588867188,40.52222465341274
1782416819.269573,0.0229492224752903,-0.60791015625,0.79638671875,1.0021542948496063,-9.885787963867188,-24.106979370117188,33.81156921386719,42.68603367287629
1782416819.277582,0.02490234375,-0.61962890625,0.8090819716453552,1.0193987173948915,-8.543014526367188,-26.124954223632812,38.38920593261719,47.214695408543314
1782416819.285591,0.03369140625,-0.62255859375,0.7993163466453552,1.013716397974087,-7.869720458984375,-27.099609375,40.46440124511719,49.3324345284721
1782416819.2936,0.0302734375,-0.625,0.76220703125,0.9861546732156193,-7.8105926513671875,-27.833938598632812,42.11235046386719,51.080167942848696
1782416819.30161,0.0517578162252903,-0.61865234375,0.7504882216453552,0.9739826306439899,-7.50732421875,-28.62548828125,43.88236999511719,52.92863962595083
1782416819.312275,0.0537109375,-0.607421875,0.75634765625,0.9715492659410087,-6.9561004638671875,-29.970169067382812,45.65238952636719,55.052148341895645
1782416819.322942,0.04833984375,-0.60693359375,0.76416015625,0.9770598098970651,-6.7138671875,-31.18896484375,46.93412780761719,56.75068187870352
1782416819.333607,0.06201171875,-0.6064453125,0.74267578125,0.9608270845323053,-6.1016082763671875,-32.04536437988281,48.58207702636719,58.51797339274122
1782416819.341599,0.0532226525247097,-0.58935546875,0.71728515625,0.9298766126018468,-5.6743621826171875,-34.05952453613281,49.92485046386719,60.702061675419635
1782416819.349593,0.05859375,-0.595703125,0.7001953125,0.9211780046879109,-5.916595458984375,-35.7666015625,51.81694030761719,63.23963307925707
1782416819.357587,0.0473632849752903,-0.59326171875,0.69482421875,0.9148679919307499,-6.04248046875,-37.4755859375,53.52592468261719,65.61978150453857
1782416819.365581,0.0546875,-0.595703125,0.69921875,0.9201955206055821,-6.3457489013671875,-39.61372375488281,55.23490905761719,68.26720162311189
1782416819.376297,0.05029296875,-0.59521484375,0.6884765625,0.9114878331814648,-6.9580078125,-41.80908203125,57.00492858886719,71.03502725019855
1782416819.387011,0.05029296875,-0.58642578125,0.66748046875,0.8899183983844142,-7.381439208984375,-43.9453125,59.26322937011719,74.1471947607845
1782416819.397727,0.0556640662252903,-0.599609375,0.64794921875,0.884572258741681,-7.99560546875,-45.95947265625,60.85014343261719,76.67426419224759
1782416819.40835,0.0473632849752903,-0.603515625,0.6279296875,0.872221349673716,-10.374069213867188,-49.98588562011719,64.93949890136719,82.60356282172225
1782416819.418973,0.0478515662252903,-0.6162109375,0.61474609375,0.8717330162760419,-11.90185546875,-51.94091796875,66.89262390136719,85.52272362036415
1782416819.429596,0.0439453087747097,-0.6240234375,0.65869140625,0.9084111455614267,-15.928268432617188,-53.46870422363281,68.54057312011719,88.37659322609109
1782416819.437587,0.0341796875,-0.66162109375,0.8212890625,1.0551902420486425,-18.798828125,-54.50439453125,70.37162780761719,90.9741224875802
1782416819.445574,0.0205078125,-0.66650390625,0.8715819716453552,1.0974074725083882,-21.177291870117188,-56.15425109863281,71.71440124511719,93.51327688272987
1782416819.453562,0.0244140625,-0.66845703125,0.9550780653953552,1.1660209946972018,-24.961471557617188,-57.61909484863281,73.11820983886719,96.38105500324268
1782416819.46155,0.015625,-0.67138671875,1.08544921875,1.2764028647820707,-28.745651245117188,-58.90083312988281,74.76615905761719,99.42635037619112
1782416819.472261,0.01025390625,-0.63671875,1.0732421875,1.2479441903485633,-29.233932495117188,-60.36567687988281,75.68168640136719,101.12544393400889
1782416819.482972,0.008789066225290298,-0.583984375,0.9174804091453552,1.087605304830195,-25.449752807617188,-61.58638000488281,76.47514343261719,101.43480508737629
1782416819.493683,0.0244140625,-0.533203125,0.7758788466453552,0.9417481635921815,-20.44677734375,-61.95068359375,77.32963562011719,101.17228101915025
1782416819.504331,0.0019531287252902985,-0.525390625,0.7080078125,0.8816542327413527,-15.073776245117188,-54.99458312988281,77.45170593261719,96.17894601101666
1782416819.514982,-0.0195312462747097,-0.5458984375,0.7197265625,0.9035446300067591,-13.5498046875,-48.7060546875,76.90238952636719,92.03181235396947
1782416819.525633,-0.0341796800494194,-0.57177734375,0.701171875,0.9053947093092062,-13.303756713867188,-41.74995422363281,75.13236999511719,86.97655799961497
1782416819.536343,-0.0615234375,-0.630859375,0.64013671875,0.9008572045997211,-15.562057495117188,-33.87641906738281,73.30131530761719,82.23668419955284
1782416819.547051,-0.0830078050494194,-0.66552734375,0.63720703125,0.9251214739981402,-20.017623901367188,-29.661178588867188,71.10404968261719,79.60073280570572
1782416819.557759,-0.10400390625,-0.677734375,0.66552734375,0.9555455723568762,-24.900436401367188,-26.979446411132812,68.54057312011719,77.75430808169956
1782416819.565728,-0.1279296875,-0.6650390625,0.67919921875,0.9591426058440616,-32.95707702636719,-25.819778442382812,64.08500671386719,76.54879470280403
1782416819.573699,-0.1064453050494194,-0.66650390625,0.716796875,0.984558693031217,-35.33744812011719,-26.185989379882812,62.37602233886719,76.32305970192867
1782416819.58167,-0.1357421875,-0.654296875,0.7236328125,0.9849745120705972,-36.74125671386719,-26.430130004882812,61.09428405761719,76.03277754693771
1782416819.589642,-0.1455077975988388,-0.63916015625,0.72998046875,0.9811063700007552,-37.044525146484375,-27.2216796875,59.93461608886719,75.53459402192654
1782416819.600327,-0.16796875,-0.646484375,0.7333984375,0.9919822660829902,-35.88676452636719,-27.284622192382812,58.77494812011719,74.07297079822344
1782416819.611013,-0.1655273288488388,-0.64892578125,0.73193359375,0.9920840447394286,-34.48295593261719,-26.857376098632812,57.67631530761719,72.36677585893895
1782416819.621699,-0.18603515625,-0.65185546875,0.73681640625,1.001210791002279,-33.81156921386719,-26.369094848632812,56.21147155761719,70.69852127529353
1782416819.62972,-0.1831054538488388,-0.66943359375,0.720703125,1.0005408227828563,-32.5927734375,-24.90234375,54.44145202636719,68.16368023610968
1782416819.637741,-0.19482421875,-0.69921875,0.68798828125,1.0000956012804174,-32.1044921875,-23.86474609375,52.24418640136719,65.800300436071
1782416819.645762,-0.18017578125,-0.6904296875,0.68310546875,0.9878206046477026,-31.8603515625,-23.01025390625,50.16899108886719,63.72975328205049
1782416819.653783,-0.20556640625,-0.7099609375,0.68310546875,1.0064468001790141,-32.40966796875,-22.39990234375,48.27690124511719,62.31212880880378
1782416819.664389,-0.20849609375,-0.71923828125,0.6748046875,1.008035561176507,-32.77397155761719,-22.279739379882812,46.14067077636719,60.82336309501561
1782416819.674995,-0.2197265625,-0.72900390625,0.67919921875,1.0203127149783224,-33.203125,-22.3388671875,44.06547546386719,59.5251091963977
1782416819.685601,-0.2099609225988388,-0.73193359375,0.68359375,1.0232843151917301,-33.203125,-22.8271484375,42.17338562011719,58.32770071086628
1782416819.696275,-0.2172851413488388,-0.73779296875,0.67626953125,1.024154176032602,-33.0810546875,-22.94921875,38.38920593261719,55.630512783989396
1782416819.706949,-0.2187499850988388,-0.755859375,0.68994140625,1.0465152148030914,-32.1044921875,-23.13232421875,36.98539733886719,54.16384826332505
1782416819.717624,-0.2172851413488388,-0.751953125,0.6796875,1.0366394901336242,-30.70068359375,-22.8271484375,35.09330749511719,51.91484286654499
1782416819.725617,-0.2182617038488388,-0.74560546875,0.677734375,1.0309653580278757,-29.296875,-22.3388671875,34.17778015136719,50.25388072638349
1782416819.733609,-0.2119140475988388,-0.75830078125,0.66796875,1.0325259751651024,-28.13720703125,-21.05712890625,32.46879577636719,47.84692044908735
1782416819.741601,-0.2182617038488388,-0.77099609375,0.6708984375,1.0450731368591857,-26.85546875,-19.95849609375,31.187057495117188,45.74046702112043
1782416819.749593,-0.2177734225988388,-0.7744140625,0.6650390625,1.0437525369737048,-26.241302490234375,-19.53125,29.783248901367188,44.239321853609724
1782416819.760507,-0.2128906100988388,-0.7919921875,0.650390625,1.0467005312013469,-26.243209838867188,-19.289016723632812,28.928756713867188,43.5619695815228
1782416819.771421,-0.2260742038488388,-0.7978515625,0.65283203125,1.0553986557010477,-26.67236328125,-18.37158203125,27.830123901367188,42.7018241496001
1782416819.782335,-0.2270507663488388,-0.78955078125,0.6640625,1.056371852416719,-26.731491088867188,-18.186569213867188,27.219772338867188,42.263931688671924
1782416819.792751,-0.2324218600988388,-0.79833984375,0.64404296875,1.0517403542542676,-25.5126953125,-18.73779296875,26.365280151367188,41.19624382038092
1782416819.80317,-0.2329101413488388,-0.79248046875,0.63330078125,1.0408373104502049,-24.5361328125,-18.5546875,25.876998901367188,40.19847402273691
1782416819.813589,-0.2128906100988388,-0.7939453125,0.640625,1.042147763867475,-23.0712890625,-18.5546875,26.060104370117188,39.44223430549402
1782416819.821575,-0.2041015475988388,-0.796875,0.6279296875,1.034873373800432,-21.8505859375,-18.73779296875,25.815963745117188,38.66544937332314
1782416819.829563,-0.2031249850988388,-0.8037109375,0.62109375,1.035841916953352,-20.200729370117188,-18.739700317382812,25.938034057617188,37.84213849459544
1782416819.837551,-0.21142578125,-0.796875,0.615234375,1.0287001325866607,-18.674850463867188,-18.129348754882812,25.632858276367188,36.53035381077355
1782416819.845539,-0.2128906100988388,-0.8056640625,0.6162109375,1.036403836815982,-17.02880859375,-18.1884765625,25.266647338867188,35.485271163313236
1782416819.856198,-0.2021484225988388,-0.80224609375,0.58349609375,1.012388498116134,-15.317916870117188,-17.457962036132812,24.534225463867188,33.78383096699876
1782416819.866858,-0.1835937350988388,-0.80712890625,0.5888671875,1.0158387152427417,-13.975143432617188,-17.335891723632812,24.106979370117188,32.81743789766349
1782416819.877516,-0.185546875,-0.8193359375,0.5849609375,1.0236788166715909,-12.998580932617188,-16.786575317382812,23.679733276367188,31.803804570960633
1782416819.888217,-0.1923827975988388,-0.81640625,0.61328125,1.0390592848594256,-10.984420776367188,-16.969680786132812,22.764205932617188,30.44399181313344
1782416819.898917,-0.1943359225988388,-0.82421875,0.6240234375,1.0519069584393959,-9.946823120117188,-17.824172973632812,22.642135620117188,30.484532763627193
1782416819.909617,-0.1933593600988388,-0.818359375,0.630859375,1.0512294991169215,-9.214401245117188,-18.312454223632812,22.459030151367188,30.408209505636545
1782416819.92028,-0.1992187350988388,-0.7958984375,0.640625,1.0409336279774628,-8.30078125,-18.5546875,22.459030151367188,30.29170567866769
1782416819.930944,-0.19482421875,-0.7939453125,0.6123046875,1.0213827224829795,-6.8950653076171875,-18.434524536132812,22.581100463867188,29.954627666336492
1782416819.941608,-0.1831054538488388,-0.79345703125,0.59375,1.0077900228565735,-5.245208740234375,-17.88330078125,22.214889526367188,28.996999469427635
1782416819.949621,-0.1835937350988388,-0.79736328125,0.580078125,1.0029882815650564,-4.8198699951171875,-15.871047973632812,21.909713745117188,27.48011766612658
1782416819.957633,-0.18701171875,-0.79443359375,0.59423828125,1.0095629018200516,-5.4302215576171875,-15.073776245117188,21.665573120117188,26.946300211268596
1782416819.965645,-0.16650390625,-0.81884765625,0.63427734375,1.0490675782508878,-5.4912567138671875,-14.585494995117188,21.665573120117188,26.68871715113569
1782416819.973657,-0.1704101413488388,-0.81103515625,0.63525390625,1.0442055192125144,-5.4912567138671875,-14.833450317382812,20.689010620117188,26.042663248123787
1782416819.984321,-0.171875,-0.814453125,0.62060546875,1.0382803360796509,-5.37109375,-15.93017578125,20.078659057617188,26.187243040168354
1782416819.994986,-0.1513671875,-0.80712890625,0.6025390625,1.0185393554469853,-5.245208740234375,-16.78466796875,19.834518432617188,26.50745961052557
1782416820.005649,-0.1611327975988388,-0.810546875,0.6201171875,1.0331966614673143,-5.37109375,-17.63916015625,19.712448120117188,26.992021598565717
1782416820.013634,-0.1586913913488388,-0.79736328125,0.65625,1.0448134869315178,-4.940032958984375,-18.73779296875,19.590377807617188,27.55524838612
1782416820.021621,-0.1562499850988388,-0.7958984375,0.642578125,1.0347825990935702,-3.23486328125,-18.85986328125,19.529342651367188,27.341433902235835
1782416820.029606,-0.15380859375,-0.78076171875,0.62548828125,1.012166752545195,-2.3784637451171875,-19.166946411132812,18.857955932617188,26.993544162829114
1782416820.037592,-0.15087890625,-0.79296875,0.619140625,1.0172998556734143,-2.0122528076171875,-19.166946411132812,18.430709838867188,26.666684481830806
1782416820.048249,-0.14794921875,-0.79248046875,0.60498046875,1.0079264021980596,-1.5850067138671875,-18.983840942382812,18.491744995117188,26.548881260292976
1782416820.058906,-0.1411132663488388,-0.79638671875,0.6103515625,1.0132491251351867,-1.644134521484375,-19.04296875,18.125534057617188,26.341465828842058
1782416820.069563,-0.14208984375,-0.8037109375,0.60009765625,1.0130439239197733,-1.40380859375,-18.85986328125,17.820358276367188,25.98519368127582
1782416820.080237,-0.1347656100988388,-0.80224609375,0.58935546875,1.0045399111772406,-2.620697021484375,-17.88330078125,17.026901245117188,24.83134844751785
1782416820.090909,-0.12841796875,-0.82177734375,0.62060546875,1.037766989859038,-2.74658203125,-16.41845703125,16.233444213867188,23.251540920681492
1782416820.101581,-0.12744140625,-0.8076171875,0.6337890625,1.0344928270979052,-2.3784637451171875,-15.199661254882812,15.195846557617188,21.62407326690947
1782416820.112268,-0.1235351487994194,-0.81787109375,0.64501953125,1.0489157519432557,-1.7681121826171875,-13.429641723632812,14.097213745117188,19.55026682403541
1782416820.122953,-0.12353515625,-0.8046875,0.63232421875,1.030833073345903,-1.0356903076171875,-12.025833129882812,12.876510620117188,17.649301477142657
1782416820.133638,-0.1357421725988388,-0.81640625,0.63818359375,1.045094924776013,-0.1220703125,-10.43701171875,11.777877807617188,15.737360656402334
1782416820.141624,-0.1308593600988388,-0.81494140625,0.63720703125,1.0427302951485795,1.5888214111328125,-6.9599151611328125,9.275436401367188,11.704635533088927
1782416820.149611,-0.14208984375,-0.7998046875,0.61669921875,1.0198994990932844,2.50244140625,-5.92041015625,8.481979370117188,10.642248044705413
1782416820.157598,-0.12939453125,-0.791015625,0.60595703125,1.004804750900821,3.1757354736328125,-5.0678253173828125,7.4443817138671875,9.549186789866255
1782416820.165586,-0.1303710788488388,-0.78662109375,0.62109375,1.0107060945802786,3.9691925048828125,-4.5795440673828125,6.5898895263671875,8.952840721002634
1782416820.176254,-0.1352538913488388,-0.80126953125,0.5986328125,1.009300609846372,4.093170166015625,-4.7607421875,5.3081512451171875,8.22162866011606
1782416820.186921,-0.146484375,-0.7939453125,0.61181640625,1.0129788479117066,4.3354034423828125,-5.0067901611328125,4.6367645263671875,8.084754541655437
1782416820.197589,-0.125,-0.80859375,0.6123046875,1.0219422111222998,4.0912628173828125,-4.7016143798828125,3.7822723388671875,7.290349323823918
1782416820.208292,-0.138671875,-0.80859375,0.62255859375,1.029870353057634,4.0302276611328125,-4.3964385986328125,2.9277801513671875,6.644042742701779
1782416820.218994,-0.15185546875,-0.81201171875,0.64111328125,1.045681287090743,4.2724609375,-4.21142578125,2.0122528076171875,6.327652877268458
1782416820.229696,-0.14892578125,-0.82421875,0.6494140625,1.0598368085442396,4.0302276611328125,-3.7250518798828125,1.3408660888671875,5.6494839035661055
1782416820.237887,-0.1450195163488388,-0.8408203125,0.6640625,1.0811976978984457,6.1664581298828125,-3.2939910888671875,-0.2460479736328125,6.995435852501479
1782416820.246078,-0.15771484375,-0.82958984375,0.654296875,1.0682685436850614,6.9580078125,-3.662109375,-1.0395050048828125,7.931298030489734
1782416820.254267,-0.14599609375,-0.8369140625,0.650390625,1.0699289567482522,8.119583129882812,-3.5419464111328125,-1.0395050048828125,8.919281654796567
1782416820.262457,-0.15625,-0.849609375,0.65966796875,1.086927772017369,9.70458984375,-3.662109375,-1.1615753173828125,10.4374022787201
1782416820.270547,-0.16015625,-0.84326171875,0.65625,1.080464906058159,11.110305786132812,-4.2133331298828125,-1.3446807861328125,11.958228846335862
1782416820.278637,-0.1572265625,-0.84716796875,0.638671875,1.0725276328130586,12.025833129882812,-4.3964385986328125,-0.9784698486328125,12.841601849614362
1782416820.286727,-0.16064453125,-0.8583984375,0.64501953125,1.0856816930467896,13.3056640625,-4.2724609375,-0.7953643798828125,13.997400583799614
1782416820.294817,-0.1474609375,-0.861328125,0.6494140625,1.0887467527286354,14.955520629882812,-4.8847198486328125,-0.7953643798828125,15.753116828337944
1782416820.305119,-0.15625,-0.86572265625,0.66845703125,1.1048640561952041,16.78466796875,-4.7607421875,-0.4901885986328125,17.453653768172845
1782416820.315421,-0.1450195163488388,-0.86474609375,0.66796875,1.102269802613905,19.22607421875,-4.2724609375,-0.3070831298828125,19.697465633324644
1782416820.325723,-0.14111328125,-0.8720703125,0.67431640625,1.1113605192856657,22.218704223632812,-3.7250518798828125,-0.6122589111328125,22.537118046887862
1782416820.336357,-0.1303710788488388,-0.86376953125,0.68701171875,1.1113413170650517,24.965286254882812,-2.0771026611328125,-0.6732940673828125,25.060590538818087
1782416820.34699,-0.1318359375,-0.84326171875,0.67822265625,1.0901637547527039,27.650833129882812,-0.1239776611328125,-1.5277862548828125,27.69328572195242
1782416820.357623,-0.13427734375,-0.84912109375,0.67236328125,1.0913795943066824,31.1279296875,2.0751953125,-1.8939971923828125,31.25446636210127
1782416820.368287,-0.1303710788488388,-0.826171875,0.68115234375,1.0786682069280358,36.13471984863281,7.2040557861328125,-3.9081573486328125,37.05253152175388
1782416820.378951,-0.12353515625,-0.82666015625,0.69384765625,1.0863022226087014,39.00146484375,9.033203125,-4.8236846923828125,40.32345412619441
1782416820.389615,-0.142578125,-0.81787109375,0.697265625,1.084168344643477,42.1142578125,10.498046875,-5.4950714111328125,43.749462957856565
1782416820.397636,-0.1455077975988388,-0.8046875,0.7119140625,1.08421221363881,44.49653625488281,12.144088745117188,-6.3495635986328125,46.558968932145234
1782416820.405657,-0.15673828125,-0.79931640625,0.7255859375,1.0908476331767756,47.60932922363281,13.303756713867188,-6.8988800048828125,49.91225017115333
1782416820.413678,-0.162109375,-0.7998046875,0.74267578125,1.1034193689006737,50.6591796875,14.0380859375,-7.3871612548828125,53.08474823152776
1782416820.421699,-0.15673828125,-0.77294921875,0.7373046875,1.0796460465286353,52.978515625,15.19775390625,-7.5702667236328125,55.632758154618294
1782416820.432332,-0.1635742038488388,-0.7666015625,0.7294921875,1.0707909821322545,55.60302734375,15.5029296875,-7.6313018798828125,58.226061579564885
1782416820.442965,-0.1552734225988388,-0.751953125,0.72705078125,1.0574243124115592,57.74116516113281,16.233444213867188,-8.485794067382812,60.577021767036264
1782416820.453598,-0.17236328125,-0.740234375,0.705078125,1.0367213671032458,59.63134765625,17.08984375,-8.241653442382812,62.57703439892551
1782416820.464279,-0.1650390625,-0.71923828125,0.685546875,1.007231907352323,62.5,16.357421875,-7.6923370361328125,65.06141175438933
1782416820.474963,-0.169921875,-0.7109375,0.671875,0.992835126360246,63.236236572265625,15.68603515625,-6.8988800048828125,65.51692804205969
1782416820.485647,-0.17529296875,-0.6767578125,0.66943359375,0.9679205019597497,62.5,14.83154296875,-6.1054229736328125,64.52519551710665
1782416820.496284,-0.18212890625,-0.6357421875,0.6806640625,0.9490219351722647,61.58638000488281,13.608932495117188,-5.1898956298828125,63.28522941738904
1782416820.506922,-0.1689452975988388,-0.64208984375,0.681640625,0.9515544244435261,60.6689453125,12.39013671875,-3.9081573486328125,62.04442043489572
1782416820.51756,-0.1708984375,-0.6162109375,0.67822265625,0.9321524375794852,59.75532531738281,10.805130004882812,-2.3822784423828125,60.77108678299008
1782416820.525571,-0.1572265625,-0.60400390625,0.68212890625,0.9245759868516197,56.33735656738281,7.6923370361328125,-0.0629425048828125,56.860124479610604
1782416820.533583,-0.15087890625,-0.59326171875,0.703125,0.9322599835402142,55.11665344238281,6.4067840576171875,1.0356903076171875,55.49743258081367
1782416820.541595,-0.1445312350988388,-0.57080078125,0.69921875,0.9141168799154562,54.20112609863281,5.3081512451171875,1.8901824951171875,54.49322278839619
1782416820.549608,-0.1318359375,-0.54150390625,0.71435546875,0.9060413515030895,53.95698547363281,4.4536590576171875,2.7446746826171875,54.210004607237565
1782416820.560271,-0.14013671875,-0.51220703125,0.7119140625,0.8881531259806549,53.46870422363281,4.1484832763671875,3.5381317138671875,53.7459823695995
1782416820.570935,-0.1318359375,-0.50048828125,0.7353515625,0.8992280881713351,53.40576171875,3.96728515625,3.5991668701171875,53.673724842140906
1782416820.581599,-0.1171874925494194,-0.48486328125,0.7421875,0.8942413516891213,53.40576171875,3.72314453125,4.3315887451171875,53.71033281424819
1782416820.589591,-0.10009765625,-0.4672851264476776,0.7919921875,0.9250008406736723,52.61421203613281,3.1108856201171875,4.2095184326171875,52.873934627178436
1782416820.597582,-0.0908203125,-0.4443359375,0.8032225966453552,0.9224149252252527,52.42919921875,1.64794921875,4.8198699951171875,52.67606490728769
1782416820.605573,-0.0942382737994194,-0.4345703125,0.8237304091453552,0.936089736994171,52.42919921875,0.6103515625,4.5757293701171875,52.63203168240587
1782416820.613564,-0.0971679612994194,-0.43896484375,0.8139647841453552,0.9298765598617604,51.51557922363281,-1.1005401611328125,4.6367645263671875,51.73553591744877
1782416820.624252,-0.07958984375,-0.4306640625,0.8051757216453552,0.9165773402633691,50.11177062988281,-1.8939971923828125,5.3081512451171875,50.427703206350564
1782416820.63494,-0.07275390625,-0.4326171875,0.8286132216453552,0.937577001040735,48.09761047363281,-2.8057098388671875,5.8574676513671875,48.534133022647495
1782416820.645628,-0.0927734300494194,-0.40869140625,0.83544921875,0.934671585090572,46.38671875,-3.35693359375,5.8574676513671875,46.875437137495176
1782416820.653642,-0.0810546875,-0.4111328125,0.84130859375,0.9398937183519663,43.8232421875,-3.173828125,6.2847137451171875,44.38521564270456
1782416820.661656,-0.0830078050494194,-0.40185546875,0.8447265028953552,0.9391171269640551,41.015625,-3.173828125,6.4678192138671875,41.64357530869481
1782416820.66967,-0.10498046875,-0.40283203125,0.85546875,0.9513786451495184,38.57612609863281,-2.6226043701171875,6.4678192138671875,39.20240099589625
1782416820.677685,-0.10986328125,-0.39892578125,0.8583983778953552,0.9529215574675161,35.888671875,-2.38037109375,7.4443817138671875,36.72984827898336
1782416820.685815,-0.123046875,-0.40185546875,0.8881835341453552,0.982597751645342,33.573150634765625,-2.197265625,8.543014526367188,34.71264203383532
1782416820.693946,-0.11474609375,-0.3955078125,0.8813475966453552,0.9728137961048675,31.068801879882812,-1.8939971923828125,10.374069213867188,32.80973921978458
1782416820.702077,-0.138671875,-0.37646484375,0.8808593153953552,0.9679198319150721,28.995513916015625,-1.8310546875,12.693405151367188,31.70512770608607
1782416820.710208,-0.13671875,-0.3984375,0.8842772841453552,0.9794849530560935,26.613235473632812,-0.9784698486328125,15.195846557617188,30.66162843396217
1782416820.720696,-0.13525390625,-0.3896484375,0.8925780653953552,0.9832675764139639,24.232864379882812,-0.6122589111328125,18.186569213867188,30.30442008682622
1782416820.731184,-0.1259765475988388,-0.3984375,0.8876952528953552,0.9811347481177706,21.97265625,0.6103515625,20.750045776367188,30.22804246774581
1782416820.741673,-0.1225585862994194,-0.40380859375,0.9003905653953552,0.9943767684912154,19.8974609375,0.79345703125,22.886276245117188,30.336779100418582
1782416820.749647,-0.1162109300494194,-0.3994140625,0.9218749403953552,1.0113802347854366,18.24951171875,1.220703125,25.449752807617188,31.340464451903028
1782416820.757622,-0.1103515625,-0.408203125,0.9257811903953552,1.0177809543785923,17.152786254882812,1.1577606201171875,27.463912963867188,32.4010030901215
1782416820.765597,-0.1118163987994194,-0.39111328125,0.9194335341453552,1.0054006810827365,16.481399536132812,1.5239715576171875,29.172897338867188,33.54127247321051
1782416820.773572,-0.08447265625,-0.40283203125,0.9179686903953552,1.006019776943324,16.481399536132812,1.8901824951171875,30.393600463867188,34.62629448398535
1782416820.784256,-0.0888671875,-0.38427734375,0.9165038466453552,0.9977703918484696,17.826080322265625,2.0751953125,31.919479370117188,36.61869383935239
1782416820.79494,-0.0771484300494194,-0.388671875,0.9135741591453552,0.9958089429871819,19.289016723632812,2.0122528076171875,32.22465515136719,37.61042045963971
1782416820.805624,-0.06591796875,-0.39208984375,0.9038085341453552,0.9873953061312379,21.3623046875,2.25830078125,32.46879577636719,38.93161547056092
1782416820.813607,-0.0610351525247097,-0.38134765625,0.8813475966453552,0.9622499212177814,24.10888671875,1.52587890625,32.16361999511719,40.225180875222435
1782416820.821589,-0.0581054612994194,-0.37158203125,0.8857421278953552,0.9622829977243108,24.965286254882812,0.8525848388671875,31.858444213867188,40.48398308496577
1782416820.82957,-0.0327148400247097,-0.36962890625,0.8823241591453552,0.9571790380618308,25.819778442382812,-0.2460479736328125,31.003952026367188,40.348067359817165
1782416820.837552,-0.0454101525247097,-0.36376953125,0.8471679091453552,0.9230838640686311,25.45166015625,-1.15966796875,30.393600463867188,39.6598384220634
1782416820.848226,-0.0400390587747097,-0.3544921875,0.8520507216453552,0.9237198003087681,24.96337890625,-2.62451171875,29.783248901367188,38.9499712875331
1782416820.858901,-0.02880859375,-0.36962890625,0.8339843153953552,0.9126802845108922,23.62060546875,-4.33349609375,29.050827026367188,37.691680010591135
1782416820.869574,-0.012207027524709702,-0.3681640625,0.83544921875,0.9130548644782953,21.8505859375,-6.103515625,28.074264526367188,36.095225965397844
1782416820.880267,0.0175781287252903,-0.36474609375,0.8173827528953552,0.8952448091143316,20.01953125,-7.87353515625,26.792526245117188,34.360058933618326
1782416820.890958,0.0170898474752903,-0.3662109375,0.8237304091453552,0.9016286933001477,17.946243286132812,-10.133743286132812,25.754928588867188,32.986008362515726
1782416820.901649,0.0273437537252903,-0.36328125,0.8334960341453552,0.9096354140013387,15.810012817382812,-12.449264526367188,24.290084838867188,31.542810813442717
1782416820.912307,0.014160159975290298,-0.35693359375,0.8291015028953552,0.9027798195469107,11.903762817382812,-16.359329223632812,21.421432495117188,29.465318460905436
1782416820.922962,0.0341796875,-0.36083984375,0.8325194716453552,0.907999071884869,10.133743286132812,-18.007278442382812,19.163131713867188,28.181207337049436
1782416820.933619,0.03369140625,-0.345703125,0.8144530653953552,0.8854262008895822,8.180618286132812,-18.617630004882812,17.515182495117188,26.8387831389462
1782416820.941739,0.0512695349752903,-0.3447265625,0.8613280653953552,0.9291668334305494,5.8612823486328125,-19.227981567382812,15.867233276367188,25.609353716418966
1782416820.949861,0.0424804724752903,-0.35791015625,0.8769530653953552,0.9481302386249125,4.7607421875,-20.08056640625,13.853073120117188,24.855612007009036
1782416820.957983,0.0434570275247097,-0.3642578125,0.9072265028953552,0.9785868355768458,3.7250518798828125,-20.448684692382812,11.960983276367188,23.98103079714976
1782416820.966105,0.0498046875,-0.36669921875,0.9648436903953552,1.0333790063788606,1.9550323486328125,-20.265579223632812,10.496139526367188,22.905999164203823
1782416820.974039,0.0419921912252903,-0.35400390625,0.9829100966453552,1.0455593564458892,1.956939697265625,-19.71435546875,8.726119995117188,21.647877371607386
1782416820.981973,0.03955078125,-0.34716796875,0.9951171278953552,1.054679079651335,2.0160675048828125,-19.655227661132812,6.5898895263671875,20.828325582363284
1782416820.989908,0.01953125,-0.3427734375,0.9951171278953552,1.0526790571740419,2.62451171875,-18.798828125,5.1250457763671875,19.66087726539704
1782416820.997841,0.01513671875,-0.322265625,1.001953125,1.052613090365317,3.47900390625,-18.12744140625,4.0874481201171875,18.90541806603015
1782416821.008429,0.008789066225290298,-0.33935546875,0.9960936903953552,1.0523507124058418,5.3119659423828125,-17.335891723632812,2.8667449951171875,18.356697712104566
1782416821.019017,0.0073242224752902985,-0.32861328125,0.9877929091453552,1.0410452267824886,7.14111328125,-16.11328125,2.2563934326171875,17.768642122008217
1782416821.029605,0.007812503725290298,-0.32763671875,1.00732421875,1.0592964346055462,8.544921875,-14.58740234375,1.0356903076171875,16.937551517311725
1782416821.037618,-0.0200195275247097,-0.3251953125,0.9916991591453552,1.0438486456397258,9.645462036132812,-12.941360473632812,0.6084442138671875,16.151902462569957
1782416821.045631,-0.0273437462747097,-0.32958984375,0.9682616591453552,1.0231851182139042,10.438919067382812,-11.655807495117188,-0.6732940673828125,15.661487942075343
1782416821.053644,-0.0380859337747097,-0.32373046875,0.9374999403953552,0.9925513049660863,10.560989379882812,-11.232376098632812,-1.4667510986328125,15.48716011050689
1782416821.061657,-0.0356445275247097,-0.34765625,0.9213866591453552,0.98543836750837,9.33837890625,-10.8642578125,-2.5043487548828125,14.543355221517672
1782416821.072285,-0.06494140625,-0.34521484375,0.9111327528953552,0.9765006748537007,8.4228515625,-11.65771484375,-3.5419464111328125,14.811891445775398
1782416821.082913,-0.06982421875,-0.34912109375,0.9125975966453552,0.9795893695973444,7.568359375,-12.63427734375,-4.4574737548828125,15.387465675133576
1782416821.093541,-0.0859375,-0.3466796875,0.9101561903953552,0.9777302033517906,6.89697265625,-13.73291015625,-4.6405792236328125,16.052913402604123
1782416821.104242,-0.0922851487994194,-0.3515625,0.9208983778953552,0.9900336168562547,5.558013916015625,-16.41845703125,-6.0443878173828125,18.35733842539685
1782416821.114943,-0.1220703050494194,-0.36083984375,0.9125975966453552,0.9889089571923501,5.31005859375,-18.1884765625,-6.0443878173828125,19.888489787326634
1782416821.125644,-0.12939453125,-0.33642578125,0.9184569716453552,0.986655187880263,4.638671875,-19.34814453125,-6.4716339111328125,20.92247640805886
1782416821.13362,-0.1254882663488388,-0.3623046875,0.8959960341453552,0.9745875459803056,4.7016143798828125,-19.899368286132812,-6.7157745361328125,21.521888011613644
1782416821.141598,-0.15283203125,-0.36865234375,0.8647460341453552,0.9523906151881637,4.7607421875,-20.3857421875,-6.9599151611328125,22.060905914336924
1782416821.149575,-0.1547851413488388,-0.3623046875,0.8500975966453552,0.9369573364828634,4.94384765625,-20.99609375,-6.9599151611328125,22.665348033003244
1782416821.157553,-0.15771484375,-0.36865234375,0.8154296278953552,0.9086825631324795,4.45556640625,-21.8505859375,-6.5326690673828125,23.237382446319476
1782416821.168228,-0.1684570163488388,-0.369140625,0.8310546875,0.9248213130103924,4.5185089111328125,-22.947311401367188,-5.9223175048828125,24.126124180231365
1782416821.178903,-0.18115234375,-0.38671875,0.8281249403953552,0.9317502241225871,4.2724609375,-24.84130859375,-4.8236846923828125,25.66344616617007
1782416821.189578,-0.1835937350988388,-0.37109375,0.826171875,0.9241088669078015,4.0302276611328125,-27.162551879882812,-3.1147003173828125,27.635996774044354
1782416821.197579,-0.1879882663488388,-0.37060546875,0.8325194716453552,0.93047120988288,3.0536651611328125,-32.46879577636719,1.7070770263671875,32.65672491321974
1782416821.205578,-0.2104492038488388,-0.3681640625,0.8227538466453552,0.9256119794421649,2.0160675048828125,-34.36470031738281,3.9043426513671875,34.644495199483856
1782416821.213578,-0.19921875,-0.35595703125,0.8242186903953552,0.9196357801025961,1.15966796875,-36.0107421875,6.6509246826171875,36.638138350988626
1782416821.221576,-0.2045898288488388,-0.36181640625,0.8183593153953552,0.9178671358069297,-0.244140625,-37.41455078125,9.458541870117188,38.59238563649921
1782416821.232218,-0.201171875,-0.3701171875,0.8100585341453552,0.9130452806491294,-1.7070770263671875,-37.78266906738281,12.266159057617188,39.76056905850419
1782416821.24286,-0.2055663913488388,-0.3525390625,0.8212890625,0.9170916290222542,-3.292083740234375,-37.90283203125,14.768600463867188,40.811445098197694
1782416821.253502,-0.20654296875,-0.34814453125,0.8334960341453552,0.9265960562809346,-4.2705535888671875,-37.83988952636719,17.332077026367188,41.838926388842545
1782416821.264196,-0.2026367038488388,-0.3681640625,0.8745116591453552,0.9702458722635143,-5.0029754638671875,-37.17231750488281,20.444869995117188,42.717720694029516
1782416821.27489,-0.2026367038488388,-0.36328125,0.8969725966453552,0.988733907318342,-5.3691864013671875,-36.50093078613281,22.764205932617188,43.351530337570416
1782416821.285584,-0.1958007663488388,-0.3681640625,0.8969725966453552,0.9891625529466871,-5.428314208984375,-34.7900390625,25.693893432617188,43.58886982761111
1782416821.29358,-0.1992187350988388,-0.3701171875,0.8808593153953552,0.9760061323660141,-7.01904296875,-30.76171875,30.515670776367188,43.89483417878339
1782416821.301578,-0.20654296875,-0.39990234375,0.8759765028953552,0.9848434982785756,-8.11767578125,-28.86962890625,32.77397155761719,44.423927617147704
1782416821.309577,-0.1889648288488388,-0.40234375,0.8676757216453552,0.9749099228332438,-9.334564208984375,-26.123046875,34.54399108886719,44.303893591340646
1782416821.317575,-0.169921875,-0.4189453125,0.8735350966453552,0.9835914718725699,-10.80322265625,-23.0712890625,36.06986999511719,44.15913858116574
1782416821.328254,-0.166015625,-0.43017578125,0.8608397841453552,0.9765539024987869,-11.655807495117188,-20.448684692382812,36.74125671386719,43.63400622136377
1782416821.338933,-0.1572265625,-0.4248046875,0.8496093153953552,0.9628162874007187,-13.486862182617188,-17.641067504882812,36.98539733886719,43.13956803861886
1782416821.349611,-0.1352538913488388,-0.4375,0.8437499403953552,0.9600072015574513,-15.378952026367188,-14.894485473632812,37.10746765136719,42.84065847359054
1782416821.360293,-0.15234375,-0.455078125,0.8471679091453552,0.9736519831558353,-17.333984375,-12.451171875,36.61918640136719,42.384708422632926
1782416821.370975,-0.14794921875,-0.47900390625,0.9111327528953552,1.039950290605355,-19.47021484375,-9.3994140625,36.19194030761719,42.157974263598476
1782416821.381655,-0.16455078125,-0.48291015625,0.9526366591453552,1.0806460026146436,-21.177291870117188,-6.5326690673828125,35.58158874511719,41.91900420719369
1782416821.389648,-0.14990234375,-0.482421875,0.9472655653953552,1.07355187556263,-21.299362182617188,-3.2367706298828125,34.11674499511719,40.3496196085989
1782416821.397641,-0.13671875,-0.462890625,0.9345702528953552,1.0518466166277958,-19.59228515625,-1.89208984375,32.83500671386719,38.282833065492156
1782416821.405634,-0.14013671875,-0.45849609375,0.9257811903953552,1.0425582863398413,-18.12744140625,-0.06103515625,31.553268432617188,36.38978711133279
1782416821.413627,-0.16552734375,-0.46875,0.9111327528953552,1.0379252176470128,-15.928268432617188,1.1577606201171875,30.576705932617188,34.496160519755676
1782416821.424323,-0.1689452975988388,-0.47509765625,0.8847655653953552,1.0183665363042749,-14.22119140625,2.74658203125,29.294967651367188,32.67998053185213
1782416821.435019,-0.1591796725988388,-0.4960937201976776,0.8637694716453552,1.008734279944298,-12.510299682617188,4.0912628173828125,28.318405151367188,31.22784174269446
1782416821.445715,-0.1640624850988388,-0.4951171875,0.8432616591453552,0.9915380749922285,-11.653900146484375,5.37109375,26.792526245117188,29.706926789737288
1782416821.456335,-0.1782226413488388,-0.4868163764476776,0.8188475966453552,0.969156788553265,-11.167526245117188,5.7353973388671875,26.060104370117188,28.926414656010635
1782416821.466955,-0.1733398288488388,-0.50732421875,0.83544921875,0.992673136689831,-11.165618896484375,5.37109375,25.388717651367188,28.25078188995239
1782416821.477576,-0.16455078125,-0.5029296875,0.8647460341453552,1.0138051754400117,-11.23046875,4.5166015625,24.473190307617188,27.303116339567392
1782416821.485597,-0.14990234375,-0.5078125,0.9135741591453552,1.055917606670206,-9.82666015625,-0.9765625,23.435592651367188,25.431160552826785
1782416821.493619,-0.13525390625,-0.50927734375,0.9262694716453552,1.0656604365908988,-8.420944213867188,-5.1898956298828125,22.397994995117188,24.485046414157246
1782416821.501642,-0.1416015625,-0.49365234375,0.9458007216453552,1.0762354036441955,-6.4697265625,-8.544921875,21.360397338867188,23.898527697698366
1782416821.509663,-0.1210937425494194,-0.48779296875,0.9409179091453552,1.066739043345199,-3.72314453125,-11.962890625,20.139694213867188,23.71876557357834
1782416821.520316,-0.1074218675494194,-0.4775390625,0.9423827528953552,1.0619172598634095,-1.0986328125,-13.97705078125,18.491744995117188,23.205809090888955
1782416821.530969,-0.1103515625,-0.4526366889476776,0.9370116591453552,1.04644554989834,1.8310546875,-15.68603515625,17.454147338867188,23.53830324213305
1782416821.541622,-0.10498046875,-0.4404296875,0.9438475966453552,1.0468273468645775,4.7016143798828125,-17.641067504882812,16.538619995117188,24.634090034581003
1782416821.552272,-0.1123046800494194,-0.40478515625,0.9892577528953552,1.0747531184159955,7.1430206298828125,-19.594192504882812,15.745162963867188,26.131691112441846
1782416821.562925,-0.1162109300494194,-0.38916015625,1.00634765625,1.0852125196086448,9.033203125,-20.93505859375,15.867233276367188,27.77849039937033
1782416821.573578,-0.0917968675494194,-0.36962890625,1.0126953125,1.0819445407168196,10.07080078125,-21.8505859375,15.989303588867188,28.888180341528255
1782416821.584261,-0.10400390625,-0.34912109375,1.0205078125,1.0835767374717815,9.767532348632812,-20.448684692382812,16.782760620117188,28.19954694427263
1782416821.594944,-0.1079101487994194,-0.35107421875,0.9975585341453552,1.0630243347784027,8.544921875,-18.798828125,17.087936401367188,26.803156515237422
1782416821.605627,-0.09423828125,-0.3486328125,0.9497069716453552,1.0160556203261737,6.2255859375,-16.357421875,17.759323120117188,24.93424810068784
1782416821.613625,-0.1020507737994194,-0.37109375,0.8999022841453552,0.9787487178699905,3.604888916015625,-13.48876953125,18.308639526367188,23.024951875529418
1782416821.621624,-0.1103515625,-0.39013671875,0.8789061903953552,0.9679153982546638,0.7343292236328125,-10.622024536132812,18.186569213867188,21.074106017235238
1782416821.629623,-0.095703125,-0.39501953125,0.8725585341453552,0.9625787831204397,-2.3784637451171875,-7.6923370361328125,18.369674682617188,20.056771594887454
1782416821.637622,-0.0791015625,-0.4111328125,0.8735350966453552,0.9686850942258334,-5.1860809326171875,-4.8847198486328125,18.125534057617188,19.47539237892586
1782416821.648416,-0.0742187425494194,-0.42333984375,0.8774413466453552,0.9770508491653368,-7.8125,-2.99072265625,17.576217651367188,19.46543103002958
1782416821.65921,-0.083984375,-0.4326171875,0.8906249403953552,0.993691999876612,-10.068893432617188,-1.6460418701171875,17.332077026367188,20.1120104127734
1782416821.670004,-0.09033203125,-0.44140625,0.8955077528953552,1.0024637095199518,-11.716842651367188,-0.9784698486328125,16.904830932617188,20.59162727474329
1782416821.677914,-0.0722656175494194,-0.44384765625,0.8876952528953552,0.9951009614362584,-13.120651245117188,-0.0019073486328125,16.355514526367188,20.96793619210489
1782416821.685825,-0.1000976487994194,-0.45947265625,0.8969725966453552,1.0127657677218922,-13.301849365234375,0.1220703125,16.294479370117188,21.034831961291125
1782416821.693737,-0.0947265625,-0.4760741889476776,0.8916015028953552,1.015171411629835,-12.5732421875,-0.1220703125,15.562057495117188,20.006972628262794
1782416821.701647,-0.0976562425494194,-0.47802734375,0.9042968153953552,1.027521101202176,-11.653900146484375,-0.54931640625,15.256881713867188,19.206446229569355
1782416821.712296,-0.0888671800494194,-0.4775390625,0.8994140028953552,1.0221968893063413,-10.251998901367188,-0.7953643798828125,14.341354370117188,17.6468277925439
1782416821.722943,-0.08984375,-0.4819335639476776,0.9160155653953552,1.0389496501370723,-8.1787109375,-1.28173828125,13.792037963867188,16.085847096673447
1782416821.733591,-0.09130859375,-0.4760741889476776,0.9370116591453552,1.0549761807970466,-5.67626953125,-2.3193359375,12.937545776367188,14.317103257921016
1782416821.744323,-0.0878906175494194,-0.4775390625,0.9277343153953552,1.0471195141093903,-2.5005340576171875,-3.1757354736328125,12.510299682617188,13.147074371155165
1782416821.755054,-0.09326171875,-0.46142578125,0.9384765028953552,1.0499284005459957,0.4291534423828125,-3.6029815673828125,12.632369995117188,13.143151088895932
1782416821.765785,-0.0937499925494194,-0.45703125,0.9414061903953552,1.0506722799685326,2.9315948486328125,-4.2705535888671875,11.533737182617188,12.643534699980188
1782416821.773747,-0.0976562425494194,-0.44921875,0.9174804091453552,1.0262088131691143,7.1430206298828125,-4.0302276611328125,11.533737182617188,14.152475829945013
1782416821.781711,-0.1108398362994194,-0.45263671875,0.9121093153953552,1.0242601582130548,8.056640625,-3.47900390625,11.533737182617188,14.49275749254742
1782416821.789675,-0.1206054612994194,-0.43798828125,0.9018554091453552,1.0098131464841953,8.913040161132812,-3.2367706298828125,11.716842651367188,15.073266757452934
1782416821.797639,-0.10009765625,-0.42236328125,0.8955077528953552,0.9951604984276147,8.544921875,-2.62451171875,12.144088745117188,15.079212282509705
1782416821.808277,-0.1103515625,-0.4111328125,0.8955077528953552,0.9915350686466113,8.729934692382812,-2.2602081298828125,12.144088745117188,15.126109611295936
1782416821.818915,-0.1069335862994194,-0.423828125,0.9057616591453552,1.0057182779474665,9.033203125,-1.28173828125,11.838912963867188,14.946620751365641
1782416821.829553,-0.10009765625,-0.39111328125,0.8999022841453552,0.9863129627896575,8.485794067382812,-0.9784698486328125,11.716842651367188,14.500017445355372
1782416821.840245,-0.0947265625,-0.39697265625,0.9008788466453552,0.9890111767752235,8.23974609375,-0.3662109375,11.106491088867188,13.834076421911918
1782416821.850935,-0.0917968600988388,-0.38330078125,0.9228515028953552,1.0034944189317059,8.302688598632812,-0.2460479736328125,10.618209838867188,13.481155653482087
1782416821.861626,-0.0839843675494194,-0.3798828125,0.8955077528953552,0.9763700429249531,7.3261260986328125,-0.6694793701171875,9.702682495117188,12.176303784036223
1782416821.869663,-0.0971679612994194,-0.3798828125,0.8818358778953552,0.9650839753510921,5.92041015625,0.06103515625,8.298873901367188,10.194424443749636
1782416821.877701,-0.0947265625,-0.3759765625,0.8779296278953552,0.9597353430653993,4.94384765625,0.42724609375,7.6274871826171875,9.09960051836468
1782416821.885739,-0.0947265625,-0.3662109375,0.8784179091453552,0.956400332232791,4.150390625,0.6103515625,7.4443817138671875,8.545003830993538
1782416821.893777,-0.1020507737994194,-0.38232421875,0.8916015028953552,0.9754688147968208,3.5419464111328125,0.0591278076171875,6.2847137451171875,7.214326533712979
1782416821.904598,-0.0991210862994194,-0.37060546875,0.8911132216453552,0.9701835790239639,2.5653839111328125,-0.3070831298828125,5.9185028076171875,6.4578765971432315
1782416821.915419,-0.09423828125,-0.37939453125,0.8935546278953552,0.9753260670301845,2.5653839111328125,-0.5512237548828125,5.1860809326171875,5.812097528354265
1782416821.92624,-0.0966796800494194,-0.38134765625,0.8837890028953552,0.9673965045939501,2.0160675048828125,-0.6122589111328125,4.2095184326171875,4.707380863394188
1782416821.936686,-0.0849609375,-0.3681640625,0.8833007216453552,0.9607201999940399,1.4667510986328125,-0.6122589111328125,3.4160614013671875,3.7677175129662857
1782416821.947134,-0.1015624925494194,-0.359375,0.8793944716453552,0.9554056558751702,1.2836456298828125,-0.9784698486328125,2.8667449951171875,3.2898900004149385
1782416821.957582,-0.1064453050494194,-0.3740234375,0.8964843153953552,0.977194076177429,1.03759765625,-0.8544921875,2.1343231201171875,2.5223205537403044
1782416821.968266,-0.1103515625,-0.3759765625,0.8852538466453552,0.968096181118336,1.956939697265625,-1.8310546875,1.0967254638671875,2.895717698679292
1782416821.978952,-0.10498046875,-0.3759765625,0.8945311903953552,0.9759945312133759,2.197265625,-1.89208984375,0.7305145263671875,2.990256122284848
1782416821.989638,-0.11962890625,-0.3818359375,0.8920897841453552,0.9777187434807526,2.7484893798828125,-2.3174285888671875,0.9746551513671875,3.72486533983635
1782416821.997632,-0.12841796875,-0.38720703125,0.8916015028953552,0.980496659715152,3.11279296875,-2.62451171875,0.9746551513671875,4.186585063299456
1782416822.005626,-0.1318359375,-0.3740234375,0.9096679091453552,0.9923557583572046,3.47900390625,-2.685546875,1.2187957763671875,4.5608215643692445
1782416822.01362,-0.12548828125,-0.39013671875,0.9150390028953552,1.00262173568491,3.604888916015625,-2.99072265625,1.2187957763671875,4.839949302204503
1782416822.021614,-0.119140625,-0.36865234375,0.9042968153953552,0.9837945768360079,3.7841796875,-2.8076171875,1.4629364013671875,4.93385377704672
1782416822.029695,-0.1171874925494194,-0.3896484375,0.9204100966453552,1.006336702730713,3.8471221923828125,-3.2367706298828125,1.4629364013671875,5.236145164912972
1782416822.037774,-0.1230468675494194,-0.36474609375,0.9013671278953552,0.9801239430653298,3.1757354736328125,-3.2367706298828125,1.8901824951171875,4.912715112217402
1782416822.045855,-0.1181640625,-0.37841796875,0.9179686903953552,0.9999147070053243,2.7484893798828125,-3.4198760986328125,2.5615692138671875,5.080490452580415
1782416822.064498,-0.1225585862994194,-0.37939453125,0.9062499403953552,0.9900756394764515,2.2602081298828125,-3.6029815673828125,2.9277801513671875,5.163517558799267
1782416822.075062,-0.1181640625,-0.36767578125,0.9169921278953552,0.994998888645788,1.8310546875,-3.2958984375,3.1108856201171875,4.8880790828691145
1782416822.085626,-0.0971679612994194,-0.37939453125,0.9160155653953552,0.9962260481899,1.285552978515625,-2.99072265625,2.6836395263671875,4.218884873359044
1782416822.093611,-0.1098632737994194,-0.39990234375,0.9262694716453552,1.014872877541239,0.797271728515625,-2.50244140625,2.8057098388671875,3.843157933356488
1782416822.101596,-0.0971679612994194,-0.37841796875,0.9272460341453552,1.0061943050992939,0.0,-1.77001953125,2.1953582763671875,2.8200296279685393
1782416822.109581,-0.1054687425494194,-0.39453125,0.9213866591453552,1.0078352735107843,-0.79345703125,-1.28173828125,1.6460418701171875,2.232012750913546
1782416822.117566,-0.1215820163488388,-0.392578125,0.9262694716453552,1.0133483631161253,-1.155853271484375,-0.54931640625,1.4629364013671875,1.94368933058288
1782416822.128244,-0.1113281175494194,-0.400390625,0.9213866591453552,1.0107719713150078,-1.708984375,0.42724609375,1.2798309326171875,2.177414529827188
1782416822.138922,-0.1210937350988388,-0.388671875,0.9160155653953552,1.0024041276564934,-2.25830078125,1.46484375,1.2187957763671875,2.954852411711779
1782416822.1496,-0.1215820163488388,-0.39794921875,0.9267577528953552,1.0158866570414402,-2.5615692138671875,2.1343231201171875,1.0967254638671875,3.509954239244954
1782416822.157609,-0.1298828125,-0.40478515625,0.9316405653953552,1.024048197495325,-2.9888153076171875,3.0498504638671875,1.3408660888671875,4.475771069131185
1782416822.165618,-0.1352538913488388,-0.39697265625,0.9296874403953552,1.0199017804494956,-2.5634765625,3.41796875,1.4019012451171875,4.496581986745544
1782416822.173628,-0.13330078125,-0.400390625,0.9311522841453552,1.022314201769135,-2.132415771484375,2.9296875,1.9512176513671875,4.1155213756143265
1782416822.192276,-0.138671875,-0.3837890625,0.9311522841453552,1.0166457149271604,-2.315521240234375,3.0517578125,2.1953582763671875,4.4152533700508325
1782416822.202916,-0.13330078125,-0.3828125,0.9326171278953552,1.0169017728777405,-1.3408660888671875,1.7719268798828125,2.3174285888671875,3.2106264186952975
1782416822.213557,-0.1264648288488388,-0.3876953125,0.8940429091453552,0.9826564667590238,-0.9765625,1.64794921875,2.6226043701171875,3.2476860418061895
1782416822.221587,-0.12548828125,-0.384765625,0.9311522841453552,1.0153011726487033,-0.6103515625,2.0751953125,2.9277801513671875,3.6401732417026302
1782416822.229619,-0.1298827975988388,-0.39697265625,0.9072265028953552,0.9987576074694088,-0.1811981201171875,1.1577606201171875,2.9277801513671875,3.153591448962248
1782416822.237649,-0.1328125,-0.38916015625,0.8925780653953552,0.982741263097103,-0.3032684326171875,1.1577606201171875,2.6836395263671875,2.938418367625094
1782416822.24568,-0.13427734375,-0.38330078125,0.8930663466453552,0.9810797080063871,-0.1220703125,1.40380859375,3.0498504638671875,3.35963801339238
1782416822.25632,-0.1240234375,-0.37890625,0.8950194716453552,0.9798018238208733,-0.2422332763671875,1.8291473388671875,3.0498504638671875,3.5645539411566483
1782416822.26696,-0.13623046875,-0.39111328125,0.8989257216453552,0.9897453169485617,-0.42724609375,1.5869140625,3.3550262451171875,3.7359117457201827
1782416822.2776,-0.1186523362994194,-0.37109375,0.9062499403953552,0.9864471109314265,-0.48828125,1.03759765625,3.4160614013671875,3.6034015836800384
1782416822.285596,-0.1215820163488388,-0.37841796875,0.9033202528953552,0.9868990956846874,-0.5474090576171875,0.4253387451171875,3.4160614013671875,3.48569149845048
1782416822.293592,-0.1171874925494194,-0.38720703125,0.8837890028953552,0.9719800384258027,-0.48828125,-0.06103515625,3.8433074951171875,3.8746814541874244
1782416822.301589,-0.1157226487994194,-0.390625,0.8857421278953552,0.9749455057585247,-1.2187957763671875,-0.3070831298828125,3.7822723388671875,3.9856426380834726
1782416822.309584,-0.1123046800494194,-0.384765625,0.8710936903953552,0.958885365822861,-1.3408660888671875,-0.7953643798828125,4.0264129638671875,4.317699355056823
1782416822.320262,-0.1162109300494194,-0.3857421875,0.8740233778953552,0.962402660318353,-2.0751953125,-0.8544921875,4.3315887451171875,4.878447861804654
1782416822.33094,-0.1215820237994194,-0.39208984375,0.8823241591453552,0.9731457012670919,-2.8057098388671875,-0.6122589111328125,4.0874481201171875,4.995407972210799
1782416822.341619,-0.0976562425494194,-0.396484375,0.8955077528953552,0.9842107176939805,-3.41796875,-1.28173828125,4.0874481201171875,5.48020031862411
1782416822.352351,-0.1088867112994194,-0.3955078125,0.8979491591453552,0.9872160037479076,-3.7822723388671875,-1.6460418701171875,3.7822723388671875,5.596482996391449
1782416822.363086,-0.09521484375,-0.40087890625,0.9077147841453552,0.9968529948305227,-3.6602020263671875,-0.8525848388671875,3.7212371826171875,5.288817065335249
1782416822.373821,-0.09423828125,-0.39697265625,0.8881835341453552,0.9774140032709109,-3.72314453125,-0.8544921875,3.4160614013671875,5.12459145659301
1782416822.384408,-0.1005859375,-0.4052734375,0.9038085341453552,0.9956073304068206,-3.72314453125,-0.54931640625,3.2329559326171875,4.961406834457024
1782416822.394998,-0.0986328125,-0.40185546875,0.9135741591453552,1.002912754791804,-3.8433074951171875,0.0591278076171875,2.6226043701171875,4.653231380644566
1782416822.405588,-0.095703125,-0.41064453125,0.9125975966453552,1.0052971663061507,-3.9653778076171875,0.1811981201171875,2.0122528076171875,4.450417427347703
1782416822.413599,-0.1020507737994194,-0.41015625,0.9077147841453552,1.0012934830523823,-3.60107421875,0.48828125,1.2798309326171875,3.852806940936863
1782416822.421607,-0.1064452975988388,-0.42236328125,0.9125975966453552,1.0112149702867588,-3.292083740234375,0.42724609375,0.9136199951171875,3.443117202887249
1782416822.429616,-0.10498046875,-0.4233398139476776,0.9130858778953552,1.011910725955682,-3.1719207763671875,0.4253387451171875,0.5474090576171875,3.246790898103699
1782416822.437625,-0.1088867112994194,-0.4140625,0.9116210341453552,1.0071529078050165,-2.5634765625,0.1220703125,0.3032684326171875,2.5842377967019114
1782416822.448617,-0.1020507737994194,-0.41943359375,0.8984374403953552,0.9967591154854104,-2.44140625,0.06103515625,-0.1239776611328125,2.4453139324629642
1782416822.459609,-0.10400390625,-0.40234375,0.9096679091453552,1.0000965006479143,-2.38037109375,-0.18310546875,-0.4291534423828125,2.4256683272359694
1782416822.470602,-0.1108398362994194,-0.41357421875,0.8984374403953552,0.9952481791139898,-2.132415771484375,-0.18310546875,-0.4901885986328125,2.1956797347042807
1782416822.478352,-0.1147460862994194,-0.423828125,0.9033202528953552,1.004382607950266,-1.8291473388671875,-0.3070831298828125,-0.6122589111328125,1.9531873976157728
1782416822.486104,-0.1210937425494194,-0.4111328125,0.9023436903953552,0.9989584674024711,-1.953125,0.1220703125,-0.8563995361328125,2.136122326157223
1782416822.493856,-0.1142578125,-0.40087890625,0.9038085341453552,0.9953032761864381,-1.3408660888671875,0.0591278076171875,-0.7953643798828125,1.5601353988336957
1782416822.501608,-0.1176757737994194,-0.41162109375,0.9125975966453552,1.0080247447171706,-1.2187957763671875,0.2422332763671875,-0.6732940673828125,1.4133170224132194
1782416822.512291,-0.1142578125,-0.3974609375,0.9243163466453552,1.0126157974431766,-0.3643035888671875,0.2422332763671875,-0.2460479736328125,0.501929945679582
1782416822.522974,-0.1123046800494194,-0.388671875,0.9125975966453552,0.9982547475368683,-0.244140625,-0.18310546875,-0.1850128173828125,0.3568781305396476
1782416822.533657,-0.1225585862994194,-0.3935546875,0.8959960341453552,0.9862630441890943,0.54931640625,0.30517578125,0.0,0.6283953943473511
1782416822.541656,-0.1142578125,-0.39306640625,0.9091796278953552,0.9970775512564265,1.2836456298828125,1.3408660888671875,0.2422332763671875,1.8719895650272234
1782416822.549655,-0.1127929612994194,-0.38671875,0.9038085341453552,0.9895168063829085,1.3427734375,1.89208984375,0.1201629638671875,2.323248505683973
1782416822.557654,-0.1118163987994194,-0.39599609375,0.9150390028953552,1.0033006479243674,1.3427734375,2.0751953125,0.0,2.471735440834544
1782416822.565653,-0.1142578050494194,-0.3994140625,0.8999022841453552,0.9911662627165498,1.52587890625,2.0751953125,0.0591278076171875,2.5764778514852953
1782416822.576365,-0.1064453050494194,-0.39990234375,0.8959960341453552,0.9869454801092163,1.52587890625,2.25830078125,0.1811981201171875,2.7314943920621655
1782416822.587077,-0.1186523362994194,-0.3857421875,0.8906249403953552,0.977797625575367,1.1005401611328125,2.3784637451171875,0.1201629638671875,2.623493390688923
1782416822.59779,-0.12890625,-0.38134765625,0.8945311903953552,0.9809326719028997,1.03759765625,2.25830078125,0.0,2.4852628261111245
1782416822.608379,-0.1166992112994194,-0.38916015625,0.8959960341453552,0.9838054819600445,0.6122589111328125,1.7070770263671875,0.4863739013671875,1.877640146605125
1782416822.618969,-0.1079101487994194,-0.396484375,0.8925780653953552,0.9826189814256432,0.6122589111328125,1.6460418701171875,0.4253387451171875,1.8069941506652114
1782416822.629559,-0.1142578125,-0.375,0.8833007216453552,0.9663850229471121,0.3070831298828125,0.7305145263671875,0.1201629638671875,0.8014927696351649
1782416822.637617,-0.1069335862994194,-0.376953125,0.8994140028953552,0.9810575920558217,0.0,0.0,-0.1850128173828125,0.1850128173828125
1782416822.645677,-0.11962890625,-0.38818359375,0.8940429091453552,0.9819930249550279,-0.3643035888671875,0.3070831298828125,0.0591278076171875,0.48011795545860625
1782416822.653738,-0.1044921875,-0.38330078125,0.9072265028953552,0.9904029653182241,-0.6103515625,-0.6103515625,-0.4901885986328125,0.9926444085985592
1782416822.661797,-0.0952148362994194,-0.3896484375,0.8989257216453552,0.9843572638698509,-0.48828125,-0.42724609375,-0.6122589111328125,0.8920867547429081
1782416822.672517,-0.1108398288488388,-0.38330078125,0.9116210341453552,0.9951170114425475,-0.5474090576171875,-0.9784698486328125,-0.7343292236328125,1.3402609185252048
1782416822.683237,-0.1108398288488388,-0.3837890625,0.9033202528953552,0.9877079484568286,-0.5474090576171875,-1.4057159423828125,-0.8563995361328125,1.7346798415036224
1782416822.693957,-0.1157226413488388,-0.39697265625,0.8964843153953552,0.9872502961664845,-0.6694793701171875,-1.2836456298828125,-0.8563995361328125,1.6820727973599254
1782416822.704575,-0.109375,-0.38330078125,0.9277343153953552,1.0097392433167827,-0.91552734375,-1.3427734375,-1.1615753173828125,1.997620594497984
1782416822.715195,-0.1088867112994194,-0.38525390625,0.9028319716453552,0.9876145286515009,-0.9136199951171875,-1.4667510986328125,-1.3446807861328125,2.1895722635741555
1782416822.725815,-0.1118163987994194,-0.37890625,0.9155272841453552,0.997127404770375,-1.46484375,-1.5869140625,-1.1615753173828125,2.4522073060056115
1782416822.733799,-0.1049804612994194,-0.384765625,0.9121093153953552,0.9954942926341984,-2.1343231201171875,-2.0771026611328125,-1.2226104736328125,3.2193892303026095
1782416822.741783,-0.0961913913488388,-0.392578125,0.9135741591453552,0.9989935496569955,-2.5005340576171875,-2.1991729736328125,-1.4667510986328125,3.638734824990827
1782416822.749768,-0.1108398362994194,-0.38525390625,0.8979491591453552,0.9833711069589224,-2.6226043701171875,-2.0771026611328125,-1.7108917236328125,3.7576002497655385
1782416822.757753,-0.103515625,-0.3876953125,0.9091796278953552,0.9937961238269899,-3.108978271484375,-2.50244140625,-1.5888214111328125,4.29561548101672
1782416822.767329,-0.0942382737994194,-0.380859375,0.9208983778953552,1.0009937752975198,-3.3550262451171875,-2.6226043701171875,-1.5277862548828125,4.524199998694991
1782416822.776908,-0.0878906175494194,-0.37890625,0.9038085341453552,0.983953542265211,-3.1719207763671875,-2.5653839111328125,-1.2836456298828125,4.276683542906366
1782416822.786487,-0.1030273362994194,-0.39697265625,0.9062499403953552,0.9947315599204235,-2.8057098388671875,-3.0536651611328125,-1.3446807861328125,4.359477610084399
1782416822.796066,-0.0947265550494194,-0.39990234375,0.9169921278953552,1.0048729110640435,-2.74658203125,-2.197265625,-1.5277862548828125,3.8348168042034114
1782416822.805645,-0.0961913913488388,-0.38818359375,0.9052733778953552,0.989676298065361,-2.8057098388671875,-1.9550323486328125,-1.3446807861328125,3.674551074718057
1782416822.815263,-0.1103515625,-0.3974609375,0.9140624403953552,1.0028274074466068,-2.6836395263671875,-1.4667510986328125,-1.2836456298828125,3.3167794614562642
1782416822.824879,-0.103515625,-0.3916015625,0.9189452528953552,1.0042547715547536,-2.5634765625,-0.8544921875,-1.4667510986328125,3.0745613947888426
1782416822.834496,-0.1166992112994194,-0.39453125,0.9096679091453552,0.9983833522617208,-2.5005340576171875,-0.3643035888671875,-1.2836456298828125,2.834278352823207
1782416822.844113,-0.1005859375,-0.39208984375,0.9228515028953552,1.0077236093249324,-2.3174285888671875,-0.2460479736328125,-1.7108917236328125,2.8910491797655453
1782416822.85373,-0.1113281100988388,-0.40283203125,0.9150390028953552,1.0059641993226727,-1.708984375,-0.3662109375,-1.5277862548828125,2.3213937376816585
1782416822.861706,-0.10400390625,-0.39697265625,0.9228515028953552,1.009979702133491,-1.5869140625,-0.3662109375,-1.5888214111328125,2.275249474009157
1782416822.86968,-0.0971679612994194,-0.39599609375,0.9042968153953552,0.9919713954053945,-1.338958740234375,-0.3662109375,-1.7108917236328125,2.2031957354692544
1782416822.877655,-0.1118163987994194,-0.40185546875,0.9091796278953552,1.0002991155572865,-0.7305145263671875,-0.0019073486328125,-1.8939971923828125,2.029995191118999
1782416822.88563,-0.0976562425494194,-0.40380859375,0.9101561903953552,1.0004910859224132,-0.1811981201171875,-0.4291534423828125,-1.5888214111328125,1.6557049593200723
1782416822.896272,-0.1059570163488388,-0.39208984375,0.9116210341453552,0.9980051326429611,-0.1811981201171875,0.0591278076171875,-1.8939971923828125,1.903563558466487
1782416822.906914,-0.1132812425494194,-0.39013671875,0.9082030653953552,0.9949231664928085,0.2460479736328125,0.0591278076171875,-1.9550323486328125,1.971341468940163
1782416822.917557,-0.1166992112994194,-0.3955078125,0.9067382216453552,0.9961020722089795,0.18310546875,0.30517578125,-2.3822784423828125,2.408715518111175
1782416822.928212,-0.115234375,-0.39111328125,0.9057616591453552,0.9933039530423348,-0.0591278076171875,0.4253387451171875,-2.3212432861328125,2.3606311738914525
1782416822.938871,-0.1103515625,-0.39990234375,0.8950194716453552,0.9864883205123441,0.18310546875,0.6103515625,-2.6264190673828125,2.7026160955719094
1782416822.94953,-0.1157226487994194,-0.39501953125,0.9086913466453552,0.9975731176120739,0.18310546875,0.54931640625,-2.5653839111328125,2.629918390057125
1782416822.957556,-0.10302734375,-0.388671875,0.8969725966453552,0.9829752281257689,-0.244140625,1.0986328125,-2.6874542236328125,2.913590380544062
1782416822.965582,-0.10986328125,-0.39794921875,0.9121093153953552,1.0011877568676795,-0.2422332763671875,0.7305145263671875,-2.5043487548828125,2.619941052675833
1782416822.973609,-0.1083984300494194,-0.39501953125,0.9057616591453552,0.9940798926061704,-0.244140625,0.6103515625,-2.3822784423828125,2.4713122529667233
1782416822.981636,-0.10986328125,-0.38671875,0.9130858778953552,0.9976708638526589,0.1239776611328125,0.4253387451171875,-2.0771026611328125,2.1238264932528828
1782416822.992277,-0.12451171875,-0.40576171875,0.9082030653953552,1.00248618369659,0.3070831298828125,0.1811981201171875,-1.8939971923828125,1.92726702149614
1782416823.002918,-0.1254882663488388,-0.39208984375,0.9111327528953552,0.999822306193358,-0.2422332763671875,0.1811981201171875,-1.7719268798828125,1.7975635139167752
1782416823.013559,-0.1123046800494194,-0.3896484375,0.8984374403953552,0.9857119662007514,0.18310546875,0.06103515625,-1.2836456298828125,1.298075115739402
1782416823.024253,-0.1123046800494194,-0.3974609375,0.9121093153953552,1.001264670918916,-0.179290771484375,0.1220703125,-0.9174346923828125,0.9427262363596633
1782416823.034948,-0.1162109300494194,-0.40478515625,0.8969725966453552,0.9909166675942024,-0.362396240234375,0.1220703125,-0.8563995361328125,0.9378978417814783
1782416823.045643,-0.10009765625,-0.380859375,0.9130858778953552,0.9943838417452615,-1.0356903076171875,0.1811981201171875,-0.9784698486328125,1.4362765808540172
1782416823.053635,-0.1098632737994194,-0.39453125,0.9116210341453552,0.9993886911771294,-0.8525848388671875,0.2422332763671875,-0.9174346923828125,1.2756426938736867
1782416823.061627,-0.08837890625,-0.40771484375,0.9174804091453552,1.0078752532181559,-1.2798309326171875,0.1811981201171875,-1.1005401611328125,1.697642076847773
1782416823.069619,-0.1137695237994194,-0.404296875,0.8989257216453552,0.9922030642544574,-1.0356903076171875,-0.1811981201171875,-1.1615753173828125,1.5667623910405715
1782416823.077611,-0.0947265625,-0.40625,0.9243163466453552,1.014087221504582,-0.9765625,-0.30517578125,-1.2226104736328125,1.5942342814355888
1782416823.088267,-0.10546875,-0.41064453125,0.9033202528953552,0.9978677605589947,-0.8525848388671875,-0.7953643798828125,-1.1615753173828125,1.6458318936651886
1782416823.098923,-0.11376953125,-0.39697265625,0.9189452528953552,1.007467703636168,-0.6694793701171875,-0.9174346923828125,-0.9784698486328125,1.4990971571194347
1782416823.109579,-0.1088867112994194,-0.39990234375,0.9169921278953552,1.0063064955849175,-0.7305145263671875,-0.9784698486328125,-0.9174346923828125,1.527331376193307
1782416823.120251,-0.115234375,-0.4013671875,0.9101561903953552,1.0013784855379542,-0.4253387451171875,-1.1005401611328125,-0.6122589111328125,1.3292714804078352
1782416823.130923,-0.1108398362994194,-0.39013671875,0.9096679091453552,0.9959858601188979,-0.48828125,-1.220703125,-0.2460479736328125,1.3375628223807439
1782416823.141595,-0.1166992112994194,-0.39013671875,0.9038085341453552,0.9913098565175769,-0.6084442138671875,-1.4667510986328125,0.1201629638671875,1.5924830563036987
1782416823.15228,-0.1113281100988388,-0.3974609375,0.8974608778953552,0.987828513604087,-1.28173828125,-1.52587890625,0.4863739013671875,2.051272539203784
1782416823.162965,-0.1123046800494194,-0.38427734375,0.9018554091453552,0.986724174774944,-1.3408660888671875,-1.4057159423828125,0.6694793701171875,2.0547899663848113
1782416823.173651,-0.109375,-0.37890625,0.8808593153953552,0.9651144856610724,-1.1577606201171875,-1.6460418701171875,1.5239715576171875,2.5243519564631196
1782416823.181647,-0.1015624925494194,-0.3896484375,0.8916015028953552,0.9783118545250785,-1.40380859375,-2.38037109375,1.5850067138671875,3.1857638636363155
1782416823.189647,-0.1025390625,-0.3876953125,0.8945311903953552,0.980310137284616,-1.5850067138671875,-2.4433135986328125,1.8901824951171875,3.472004822737941
1782416823.197647,-0.10302734375,-0.3974609375,0.9096679091453552,0.9980408485264728,-1.1577606201171875,-2.6226043701171875,1.6460418701171875,3.3057400342178744
1782416823.205647,-0.10400390625,-0.39306640625,0.9038085341453552,0.9910539231704422,-1.338958740234375,-2.50244140625,1.8291473388671875,3.376507587293329
1782416823.2163,-0.0927734300494194,-0.388671875,0.8945311903953552,0.9797238316634344,-1.46484375,-1.953125,1.7681121826171875,3.014412905999836
1782416823.226954,-0.08544921875,-0.38427734375,0.8964843153953552,0.979109173511524,-2.0122528076171875,-1.1577606201171875,1.8291473388671875,2.9555627218082012
1782416823.237606,-0.08837890625,-0.392578125,0.8964843153953552,0.9826558619620303,-2.25830078125,-0.6103515625,1.4629364013671875,2.7591002814116288
1782416823.245602,-0.0810546875,-0.390625,0.8886718153953552,0.9741125953752979,-2.44140625,-0.30517578125,1.4019012451171875,2.831770441978257
1782416823.253598,-0.0874023362994194,-0.38720703125,0.8925780653953552,0.9768644001420823,-2.9296875,-0.30517578125,1.5850067138671875,3.3449136592925472
1782416823.261594,-0.099609375,-0.4072265625,0.9042968153953552,0.9967488305123002,-3.0498504638671875,0.1811981201171875,1.4019012451171875,3.3615097369702833
1782416823.26959,-0.0947265625,-0.392578125,0.9077147841453552,0.9934972748969324,-3.1108856201171875,0.1811981201171875,1.2187957763671875,3.3460282791208438
1782416823.280243,-0.10498046875,-0.390625,0.8974608778953552,0.9844007399411439,-2.986907958984375,0.6103515625,0.7915496826171875,3.149714127558526
1782416823.290896,-0.1020507737994194,-0.38818359375,0.9042968153953552,0.9893703013654223,-3.0517578125,0.244140625,0.9746551513671875,3.2129088152353114
1782416823.301549,-0.0878906175494194,-0.404296875,0.8940429091453552,0.9851362581800924,-3.0517578125,0.91552734375,0.7915496826171875,3.282981413800585
1782416823.312232,-0.095703125,-0.3916015625,0.9033202528953552,0.9891907557079855,-2.6836395263671875,0.9136199951171875,-0.0629425048828125,2.8355924181516556
1782416823.322918,-0.1010742038488388,-0.4072265625,0.8974608778953552,0.990699497951798,-2.8057098388671875,1.2187957763671875,-0.1850128173828125,3.064588159443706
1782416823.333604,-0.08935546875,-0.4013671875,0.8925780653953552,0.9827388370376473,-2.620697021484375,1.28173828125,-0.8563995361328125,3.0404483329810548
1782416823.344246,-0.0908203125,-0.40625,0.9003905653953552,0.9919629841458627,-2.6226043701171875,1.1577606201171875,-1.1615753173828125,3.093173217523533
1782416823.354891,-0.1064453050494194,-0.40576171875,0.8969725966453552,0.9902186700435056,-2.0122528076171875,0.9784698486328125,-1.3446807861328125,2.6105039787446276
1782416823.365536,-0.0981445237994194,-0.4052734375,0.8994140028953552,0.9913750326183968,-1.5850067138671875,1.3408660888671875,-1.1005401611328125,2.3497567528457677
1782416823.373544,-0.1083984300494194,-0.40869140625,0.9047850966453552,0.9987066417578918,-0.9765625,1.40380859375,-1.6498565673828125,2.3762111811092885
1782416823.381552,-0.1157226487994194,-0.4091796875,0.8925780653953552,0.9886937599341196,-1.220703125,0.6103515625,-1.1615753173828125,1.7921781069927003
1782416823.38956,-0.115234375,-0.4111328125,0.9023436903953552,0.9982651382734496,-1.1577606201171875,0.3643035888671875,-0.7343292236328125,1.4185789252053678
1782416823.397568,-0.1108398288488388,-0.388671875,0.8925780653953552,0.9798198287951568,-0.7305145263671875,0.4901885986328125,-0.5512237548828125,1.0381637459525275
1782416823.408246,-0.1279296875,-0.39990234375,0.9018554091453552,0.9948020247694146,-0.667572021484375,0.1220703125,-0.4901885986328125,0.8371609327316839
1782416823.418924,-0.1215820237994194,-0.40869140625,0.8979491591453552,0.9940440364810885,-1.0356903076171875,-0.0019073486328125,0.1201629638671875,1.0426395298262667
1782416823.429602,-0.1142578050494194,-0.3994140625,0.8935546278953552,0.9854066735975923,-1.0356903076171875,-0.4291534423828125,0.9136199951171875,1.4462118053311321
1782416823.44027,-0.1171874925494194,-0.40478515625,0.8979491591453552,0.9919156332774515,-0.91552734375,-0.3662109375,0.8525848388671875,1.3035343015681435
1782416823.450936,-0.12451171875,-0.4072265625,0.8935546278953552,0.9898366099235026,-1.0356903076171875,-0.6694793701171875,1.0967254638671875,1.650352623956283
1782416823.461602,-0.1123046875,-0.40771484375,0.9042968153953552,0.9982967830173254,-0.9765625,-0.79345703125,1.3408660888671875,1.83879586825735
1782416823.469615,-0.10791015625,-0.3984375,0.9047850966453552,0.9945014400893013,-0.91552734375,-0.91552734375,1.4629364013671875,1.953602710059811
1782416823.477628,-0.1215820237994194,-0.40869140625,0.9077147841453552,1.0028743607301036,-0.8525848388671875,-0.9174346923828125,1.6460418701171875,2.068342611955916
1782416823.485641,-0.11767578125,-0.40234375,0.8872069716453552,0.9812564869558735,-0.5474090576171875,-0.6694793701171875,1.8901824951171875,2.0786171288193698
1782416823.493654,-0.0961913913488388,-0.40283203125,0.8969725966453552,0.9879707831223237,-0.48828125,-0.732421875,1.8901824951171875,2.085101975186709
1782416823.504295,-0.109375,-0.4013671875,0.8950194716453552,0.9869743484260323,-0.9136199951171875,-0.4291534423828125,1.8291473388671875,2.0891754736909633
1782416823.514936,-0.1083984300494194,-0.41357421875,0.8862304091453552,0.983970625651902,-1.5239715576171875,-0.5512237548828125,1.8901824951171875,2.489804570889189
1782416823.525578,-0.09814453125,-0.4130859375,0.8950194716453552,0.9906221254337433,-1.5239715576171875,-0.1811981201171875,1.8901824951171875,2.434771433216596
1782416823.533587,-0.10791015625,-0.40234375,0.8955077528953552,0.9876533959247296,-2.25830078125,-0.3662109375,1.8291473388671875,2.9291317581535834
1782416823.541595,-0.1113281175494194,-0.400390625,0.8989257216453552,0.9903403734982285,-2.5634765625,-0.42724609375,1.7070770263671875,3.109350942730989
1782416823.549604,-0.0961913913488388,-0.39794921875,0.9082030653953552,0.9962174323243298,-2.8057098388671875,-0.4901885986328125,1.4019012451171875,3.1745266833351486
1782416823.557613,-0.10400390625,-0.40234375,0.8930663466453552,0.985020205472864,-3.0517578125,-0.732421875,1.2798309326171875,3.389341346813136
1782416823.565602,-0.1166992112994194,-0.40673828125,0.9038085341453552,0.9979602205228856,-2.9296875,-1.15966796875,1.2187957763671875,3.3783667340730634
1782416823.573591,-0.09375,-0.40771484375,0.9086913466453552,1.0003701413887942,-3.1719207763671875,-0.9174346923828125,0.6084442138671875,3.3575247114095568
1782416823.58158,-0.1069335862994194,-0.40673828125,0.9067382216453552,0.9995223979009379,-2.6226043701171875,-1.1005401611328125,0.1811981201171875,2.8499254529124105
1782416823.589569,-0.119140625,-0.41259765625,0.9042968153953552,1.001091426795058,-2.620697021484375,-1.03759765625,0.0,2.8186276403016715
1782416823.600244,-0.09814453125,-0.4169921875,0.9072265028953552,1.00328199475823,-2.5005340576171875,-0.6694793701171875,-0.3681182861328125,2.6146480208435974
1782416823.610917,-0.0976562425494194,-0.396484375,0.9130858778953552,1.0002311841469167,-2.132415771484375,-0.54931640625,-0.7953643798828125,2.3412710294703363
1782416823.621591,-0.1162109300494194,-0.419921875,0.9057616591453552,1.0051087227480484,-1.8291473388671875,-0.7343292236328125,-0.7343292236328125,2.103392213698447
1782416823.632284,-0.10546875,-0.4111328125,0.9023436903953552,0.9971850291380389,-1.46484375,-0.732421875,-0.7953643798828125,1.8206629319231358
1782416823.642979,-0.1176757737994194,-0.4091796875,0.9072265028953552,1.0021654214537765,-1.5869140625,-0.54931640625,-0.7953643798828125,1.8581305801051873
1782416823.653674,-0.1083984300494194,-0.42041015625,0.9008788466453552,1.0000388069712063,-1.28173828125,-0.54931640625,-1.0395050048828125,1.7393022138126355
1782416823.661646,-0.1030273362994194,-0.4013671875,0.9033202528953552,0.9938298297583658,-0.8525848388671875,-0.9174346923828125,-1.3446807861328125,1.8375945523560122
1782416823.669617,-0.11767578125,-0.4130859375,0.8989257216453552,0.9962705627933982,-0.8525848388671875,-0.9784698486328125,-0.9784698486328125,1.625333011057496
1782416823.677588,-0.10546875,-0.40966796875,0.9038085341453552,0.9979084969275936,-0.6694793701171875,-0.9784698486328125,-0.9174346923828125,1.4990971571194347
1782416823.685559,-0.0971679612994194,-0.41845703125,0.8999022841453552,0.997182039908299,-0.5474090576171875,-1.1577606201171875,-1.1615753173828125,1.7289660343131248
1782416823.696229,-0.1142578050494194,-0.39501953125,0.9160155653953552,1.004081566472691,-0.3643035888671875,-1.1005401611328125,-1.1005401611328125,1.5984662640775333
1782416823.706899,-0.1166992112994194,-0.396484375,0.9082030653953552,0.9978233177925674,0.06103515625,-1.03759765625,-0.6732940673828125,1.2384099029508955
1782416823.717569,-0.1259765475988388,-0.39794921875,0.8969725966453552,0.9893399367160759,0.3070831298828125,-1.1577606201171875,-1.1005401611328125,1.6266217594815937
1782416823.728245,-0.1181640625,-0.3984375,0.9033202528953552,0.9943352887048122,0.5512237548828125,-1.2836456298828125,-0.7953643798828125,1.6075441604667413
1782416823.73892,-0.1040038987994194,-0.40087890625,0.8916015028953552,0.9830940689511519,0.1239776611328125,-1.0395050048828125,-1.1615753173828125,1.5637129959136875
1782416823.749595,-0.11279296875,-0.392578125,0.8959960341453552,0.9847074343337511,-0.1220703125,-1.0986328125,-0.9174346923828125,1.436517188439823
1782416823.757605,-0.12744140625,-0.39892578125,0.8945311903953552,0.9877090368944853,-0.5474090576171875,-1.2226104736328125,-1.4057159423828125,1.9417699032756652
1782416823.765617,-0.1074218675494194,-0.4013671875,0.8920897841453552,0.9841032770019473,-0.732421875,-1.3427734375,-1.0395050048828125,1.849338520285158
1782416823.773629,-0.1171874925494194,-0.392578125,0.8916015028953552,0.9812256277756874,-1.0986328125,-1.708984375,-1.0395050048828125,2.282146425160361
1782416823.781641,-0.1157226413488388,-0.40234375,0.9018554091453552,0.9942914069273406,-1.46484375,-1.46484375,-0.7953643798828125,2.2190400899070064
1782416823.792296,-0.1132812425494194,-0.4013671875,0.9057616591453552,0.9971621945766632,-1.2187957763671875,-1.6460418701171875,-0.6122589111328125,2.1377038983289807
1782416823.802951,-0.1123046800494194,-0.41552734375,0.8852538466453552,0.9843524204091394,-1.5239715576171875,-2.0771026611328125,-0.4291534423828125,2.6117077651261416
1782416823.813607,-0.1176757737994194,-0.388671875,0.8999022841453552,0.9872879697258219,-1.46484375,-1.89208984375,-0.3070831298828125,2.4124823807428286
1782416823.824262,-0.1005859375,-0.40234375,0.8935546278953552,0.9851080636255208,-1.46484375,-1.77001953125,-0.1239776611328125,2.300892612309513
1782416823.834917,-0.1157226413488388,-0.40771484375,0.8999022841453552,0.9947096282558375,-1.5239715576171875,-1.6460418701171875,0.1201629638671875,2.246415430077525
1782416823.845572,-0.1108398362994194,-0.41015625,0.8916015028953552,0.9876572577013752,-1.40380859375,-1.52587890625,0.2422332763671875,2.0875013687671276
1782416823.853598,-0.1171874925494194,-0.40478515625,0.8896483778953552,0.9844075210105792,-1.644134521484375,-1.8310546875,0.4863739013671875,2.508485432543613
1782416823.861626,-0.1083984300494194,-0.40625,0.8930663466453552,0.9870951228973126,-1.28173828125,-2.25830078125,0.6084442138671875,2.6670170231186234
1782416823.869654,-0.0971679612994194,-0.41552734375,0.8989257216453552,0.9950738862730941,-1.2187957763671875,-2.3822784423828125,1.0967254638671875,2.891975183957683
1782416823.877682,-0.1093749925494194,-0.404296875,0.9155272841453552,1.0067815354606584,-1.0986328125,-2.50244140625,1.2187957763671875,2.9924354951956165
1782416823.888324,-0.1240234375,-0.392578125,0.9145507216453552,1.002946867854859,-0.6694793701171875,-2.4433135986328125,1.1577606201171875,2.7853893124248654
1782416823.898966,-0.0874023362994194,-0.408203125,0.9018554091453552,0.9937867671966147,-0.1811981201171875,-1.7719268798828125,1.0356903076171875,2.0603912346147824
1782416823.909608,-0.1171874925494194,-0.40234375,0.8955077528953552,0.9887100369015029,-0.362396240234375,-1.03759765625,1.0356903076171875,1.5101636813550008
1782416823.9177,-0.1044921800494194,-0.3994140625,0.9140624403953552,1.0029757494355218,-0.2422332763671875,-0.6122589111328125,1.0356903076171875,1.2272702830808313
1782416823.925792,-0.1044921875,-0.408203125,0.9194335341453552,1.0113883686395246,-0.30517578125,-0.244140625,0.6084442138671875,0.7231467787561515
1782416823.933884,-0.0947265625,-0.40283203125,0.9072265028953552,0.9971492840090712,-0.42724609375,0.1220703125,0.7915496826171875,0.9077396575394576
1782416823.941976,-0.1083984375,-0.4169921875,0.8984374403953552,0.9964048072910097,-0.4253387451171875,-0.0019073486328125,0.7305145263671875,0.8453213349431962
1782416823.952546,-0.10546875,-0.421875,0.9038085341453552,1.0029815747288373,-0.9765625,-0.18310546875,0.8525848388671875,1.3092375019676894
1782416823.963116,-0.1201171875,-0.3935546875,0.8994140028953552,0.9890697545625278,-0.79345703125,0.1220703125,0.7915496826171875,1.1273979429133625
1782416823.973686,-0.115234375,-0.416015625,0.9013671278953552,0.9994051534168227,-0.9136199951171875,0.0591278076171875,0.2422332763671875,0.947034610397702
1782416823.984301,-0.1040038987994194,-0.40869140625,0.8994140028953552,0.9933735576873024,-1.40380859375,0.1220703125,0.3643035888671875,1.455436990715061
1782416823.994918,-0.10498046875,-0.41015625,0.8916015028953552,0.9870168631782784,-1.3408660888671875,-0.3070831298828125,-0.3681182861328125,1.4239848979248242
1782416824.005535,-0.1020507737994194,-0.41015625,0.8955077528953552,0.9902407007100906,-1.7070770263671875,0.1811981201171875,0.0,1.7166667506201203
1782416824.016273,-0.10009765625,-0.3935546875,0.8950194716453552,0.9828350255583572,-1.5239715576171875,0.0591278076171875,-0.3070831298828125,1.5557266645263865
1782416824.027012,-0.10791015625,-0.3984375,0.9077147841453552,0.9971675749763418,-1.708984375,0.1220703125,-0.5512237548828125,1.799826764756846
1782416824.037751,-0.1157226487994194,-0.4091796875,0.8964843153953552,0.9922216868510938,-1.8291473388671875,0.1811981201171875,-0.6122589111328125,1.9373883762117634
1782416824.045713,-0.1025390550494194,-0.4140625,0.8925780653953552,0.9892712542784172,-1.6460418701171875,-0.4291534423828125,-0.6732940673828125,1.8294675226581085
1782416824.053675,-0.1020507737994194,-0.40380859375,0.9038085341453552,0.9951610961112721,-1.6460418701171875,-0.4291534423828125,-0.2460479736328125,1.7187687804404406
1782416824.061637,-0.1083984375,-0.41650390625,0.8979491591453552,0.9957602209286133,-1.220703125,-0.3662109375,-0.4901885986328125,1.3654711393357954
1782416824.069599,-0.1166992112994194,-0.4091796875,0.9072265028953552,1.0020512213136812,-1.155853271484375,-0.67138671875,-0.4901885986328125,1.423742172426112
1782416824.080459,-0.1137695237994194,-0.404296875,0.9101561903953552,1.0023890255760477,-0.79345703125,-0.8544921875,-0.1239776611328125,1.172647184535298
1782416824.091319,-0.10986328125,-0.40625,0.9096679091453552,1.0022997096656763,-0.79345703125,-0.91552734375,0.0591278076171875,1.212955265138665
1782416824.102179,-0.1030273362994194,-0.4111328125,0.9052733778953552,0.9995822678825292,-0.48828125,-0.732421875,-0.1850128173828125,0.8994943716755565
1782416824.112649,-0.1142578125,-0.416015625,0.8974608778953552,0.995770995417183,0.06103515625,-0.8544921875,0.1811981201171875,0.8756226056532573
1782416824.123119,-0.1171874925494194,-0.41015625,0.9096679091453552,1.0047172551285088,-0.48828125,-0.9765625,0.1201629638671875,1.0984225204324425
1782416824.133589,-0.1127929612994194,-0.40576171875,0.8969725966453552,0.9909211187851218,-0.30517578125,-1.15966796875,0.0591278076171875,1.2006074099554416
1782416824.144228,-0.1059570163488388,-0.4130859375,0.9028319716453552,0.9984850775544126,-0.2422332763671875,-0.9784698486328125,0.0591278076171875,1.0097407105275673
1782416824.154869,-0.1025390550494194,-0.3916015625,0.8935546278953552,0.9809719234494308,-0.48828125,-0.6103515625,0.4253387451171875,0.8898655275071721
1782416824.16551,-0.1030273362994194,-0.3994140625,0.8999022841453552,0.9899345161967711,-0.1201629638671875,-0.4901885986328125,0.1201629638671875,0.5188093464850981
1782416824.173552,-0.1318359375,-0.41064453125,0.9008788466453552,0.9987954454216847,-0.42724609375,-0.732421875,-0.0629425048828125,0.850260422767091
1782416824.181595,-0.1123046800494194,-0.4052734375,0.8945311903953552,0.9884558416511079,-0.54931640625,-0.54931640625,0.1201629638671875,0.7860891592155289
1782416824.189638,-0.1113281175494194,-0.38427734375,0.8935546278953552,0.9790316132331273,-0.30517578125,-0.6103515625,0.0591278076171875,0.6849506441644934
1782416824.197681,-0.1098632737994194,-0.4091796875,0.8896483778953552,0.9853792122245936,-0.5474090576171875,-0.6122589111328125,0.2422332763671875,0.8562678382389804
1782416824.208314,-0.1123046800494194,-0.39697265625,0.9121093153953552,1.0010709436409424,-0.91552734375,-0.67138671875,0.0591278076171875,1.1368581885624247
1782416824.218948,-0.1074218675494194,-0.419921875,0.8911132216453552,0.9909372394468201,-0.6103515625,-0.8544921875,0.2422332763671875,1.0776654808076154
1782416824.229582,-0.10302734375,-0.40771484375,0.9023436903953552,0.9955250689814779,-0.79345703125,-0.8544921875,0.6694793701171875,1.3445942086559441
1782416824.240234,-0.0986328050494194,-0.400390625,0.8916015028953552,0.9823412455888552,-0.9765625,-1.15966796875,0.4863739013671875,1.5921883324789625
1782416824.250887,-0.1005859375,-0.41748046875,0.8979491591453552,0.9953492678554218,-0.9765625,-1.220703125,0.6694793701171875,1.7005860939110145
1782416824.26154,-0.11376953125,-0.408203125,0.8974608778953552,0.9924763598460732,-0.732421875,-1.708984375,0.6694793701171875,1.9761761115814456
1782416824.272216,-0.0971679612994194,-0.40869140625,0.8989257216453552,0.9922387471175023,-0.7305145263671875,-0.9784698486328125,0.7915496826171875,1.4551995113964151
1782416824.282894,-0.1108398288488388,-0.3984375,0.9091796278953552,0.998822058649801,-0.91552734375,-1.03759765625,0.9746551513671875,1.6925577914789258
1782416824.293572,-0.09912109375,-0.3984375,0.9003905653953552,0.9895860765418103,-0.9765625,-1.220703125,0.7915496826171875,1.7522389494136883
1782416824.304246,-0.1044921800494194,-0.40966796875,0.9013671278953552,0.9955948772274559,-1.0986328125,-1.15966796875,1.0356903076171875,1.9038062579313568
1782416824.31492,-0.1103515625,-0.412109375,0.8979491591453552,0.9941450078931808,-1.0986328125,-1.03759765625,0.8525848388671875,1.7350803613733115
1782416824.325594,-0.1123046800494194,-0.4130859375,0.9047850966453552,1.0009437566780668,-1.2187957763671875,-0.6122589111328125,0.7915496826171875,1.5769828847528444
1782416824.336277,-0.1079101487994194,-0.404296875,0.8989257216453552,0.9915482925124227,-1.220703125,-0.54931640625,0.3643035888671875,1.387292953352569
1782416824.346956,-0.1010742038488388,-0.41748046875,0.9038085341453552,1.000687664991116,-0.9746551513671875,-0.4901885986328125,0.7305145263671875,1.3129695348901558
1782416824.357636,-0.10986328125,-0.3876953125,0.9062499403953552,0.9917996523331081,-1.28173828125,-0.6103515625,0.1811981201171875,1.431158555227861
1782416824.365627,-0.1040038987994194,-0.41455078125,0.9023436903953552,0.998445440070099,-1.28173828125,-0.3662109375,0.0,1.3330279338282198
1782416824.373616,-0.1015624925494194,-0.40478515625,0.8959960341453552,0.9884203841571623,-1.0356903076171875,-0.4901885986328125,0.0591278076171875,1.1473601758625755
1782416824.381605,-0.1215820237994194,-0.40576171875,0.9160155653953552,1.0092122061096411,-0.9765625,-0.244140625,0.1201629638671875,1.0137643212635705
1782416824.389594,-0.1005859375,-0.41796875,0.9062499403953552,1.0030475368923955,-0.6103515625,-0.244140625,-0.1850128173828125,0.6829080591247316
1782416824.397594,-0.1108398288488388,-0.3984375,0.8969725966453552,0.98772351809512,-0.732421875,-0.18310546875,0.0,0.7549631882844837
1782416824.405594,-0.1118163987994194,-0.392578125,0.8847655653953552,0.974387293112112,-0.7915496826171875,0.1811981201171875,0.4253387451171875,0.9166769915751332
1782416824.413594,-0.11376953125,-0.40625,0.8959960341453552,0.9903491616319212,-0.3643035888671875,0.3070831298828125,0.3643035888671875,0.5997785077690345
1782416824.432266,-0.10400390625,-0.4013671875,0.9033202528953552,0.9939315424151944,-0.6103515625,0.30517578125,0.6084442138671875,0.914256883319015
1782416824.442938,-0.1142578050494194,-0.400390625,0.8955077528953552,0.9875736094581964,-0.6694793701171875,0.7305145263671875,0.2422332763671875,1.0200642432835123
1782416824.453611,-0.1015624850988388,-0.41259765625,0.8906249403953552,0.9867950895584529,-0.667572021484375,0.6103515625,0.7305145263671875,1.1626834938831816
1782416824.461605,-0.0986328125,-0.408203125,0.9008788466453552,0.9939521715326605,-0.79345703125,0.6103515625,0.6694793701171875,1.2042863933877028
1782416824.4696,-0.1210937350988388,-0.38720703125,0.9042968153953552,0.9911335470378386,-0.8525848388671875,0.3070831298828125,0.4253387451171875,1.001056444074297
1782416824.477595,-0.10986328125,-0.4013671875,0.9013671278953552,0.9927881239312839,-1.3408660888671875,0.3070831298828125,0.3643035888671875,1.423003521356896
1782416824.48559,-0.1079101487994194,-0.39892578125,0.9130858778953552,1.0022535605183787,-1.28173828125,0.244140625,0.4863739013671875,1.3924859921479402
1782416824.496264,-0.1015624925494194,-0.40087890625,0.8906249403953552,0.9819529631419609,-1.4019012451171875,-0.0019073486328125,0.3032684326171875,1.4343299764217483
1782416824.506936,-0.11376953125,-0.39892578125,0.9003905653953552,0.991356875922962,-1.4019012451171875,-0.1239776611328125,0.1811981201171875,1.4189891896188236
1782416824.517609,-0.1157226413488388,-0.40673828125,0.8862304091453552,0.9819532052235991,-1.338958740234375,-0.3662109375,0.2422332763671875,1.4091124578876717
1782416824.525618,-0.1064453050494194,-0.404296875,0.8945311903953552,0.9874070167321887,-1.0967254638671875,-0.4901885986328125,0.0,1.2012874782183898
1782416824.533625,-0.1069335862994194,-0.4052734375,0.9082030653953552,1.0002570464712766,-0.8525848388671875,-0.3070831298828125,0.0591278076171875,0.9081283244995871
1782416824.541632,-0.1235351487994194,-0.39599609375,0.8935546278953552,0.9851465435595661,-0.732421875,-0.732421875,-0.1239776611328125,1.043194165252564
1782416824.549639,-0.115234375,-0.392578125,0.8886718153953552,0.9783323264045979,-0.54931640625,-0.54931640625,0.3643035888671875,0.8580292146613324
1782416824.560287,-0.1142578050494194,-0.40869140625,0.9038085341453552,0.9984755269666299,-0.8525848388671875,-0.7343292236328125,0.1811981201171875,1.1397249996737633
1782416824.570935,-0.1108398362994194,-0.41064453125,0.9042968153953552,0.9993333431296063,-0.5474090576171875,-0.7953643798828125,0.5474090576171875,1.1099179471965688
1782416824.581583,-0.1035156175494194,-0.40478515625,0.9038085341453552,0.9957089796677292,-0.48828125,-0.67138671875,0.6084442138671875,1.029263361149086
1782416824.592288,-0.10498046875,-0.392578125,0.8920897841453552,0.9802870324675278,-0.179290771484375,0.1220703125,0.6694793701171875,0.7037392762563535
1782416824.602991,-0.10546875,-0.41064453125,0.9042968153953552,0.9987518804018723,-0.30517578125,0.30517578125,0.7305145263671875,0.8484786315261994
1782416824.613694,-0.1074218675494194,-0.400390625,0.8950194716453552,0.9863629985152659,-0.48828125,0.42724609375,0.5474090576171875,0.8488901460657519
1782416824.621665,-0.10009765625,-0.40283203125,0.8935546278953552,0.9852578643283955,-1.0967254638671875,-0.6122589111328125,0.5474090576171875,1.370154879463476
1782416824.629635,-0.1123046800494194,-0.41357421875,0.8950194716453552,0.9923284890599514,-1.0356903076171875,-0.7343292236328125,0.6084442138671875,1.4078700875300296
1782416824.637605,-0.1098632737994194,-0.40869140625,0.9062499403953552,1.0001937606979527,-1.1577606201171875,-0.7953643798828125,0.6694793701171875,1.5560259564971952
1782416824.645576,-0.1093749925494194,-0.4150390625,0.8999022841453552,0.9970177698547263,-1.3408660888671875,-0.9174346923828125,0.6694793701171875,1.7572168079306663
1782416824.656281,-0.1137695237994194,-0.4208984375,0.8872069716453552,0.9885520774201074,-1.338958740234375,-1.03759765625,1.0356903076171875,1.985465642512532
1782416824.666987,-0.1040038987994194,-0.41845703125,0.8798827528953552,0.9798554775122462,-1.708984375,-1.03759765625,0.7305145263671875,2.1285882559769775
1782416824.677693,-0.1176757737994194,-0.41943359375,0.8916015028953552,0.9923332944482858,-1.7070770263671875,-0.6694793701171875,0.6084442138671875,1.9319728161523404
1782416824.685687,-0.099609375,-0.40625,0.9047850966453552,0.9967934395848698,-1.6460418701171875,-0.4291534423828125,0.4863739013671875,1.769233191871282
1782416824.693685,-0.11962890625,-0.42529296875,0.9028319716453552,1.005132206977669,-1.5869140625,0.06103515625,0.3032684326171875,1.6167848571411105
1782416824.701681,-0.1035156175494194,-0.41064453125,0.8935546278953552,0.9888297564067217,-1.5869140625,0.1220703125,0.2422332763671875,1.6099299249140266
1782416824.717643,-0.1064453050494194,-0.416015625,0.9028319716453552,0.9997525555037327,-1.40380859375,0.244140625,0.1201629638671875,1.4299378834575613
1782416824.72561,-0.1191406175494194,-0.41552734375,0.8969725966453552,0.9956994020720805,-1.0356903076171875,0.0591278076171875,-0.1239776611328125,1.0447588101498653
1782416824.733575,-0.1123046800494194,-0.4072265625,0.8906249403953552,0.9857274465189649,-1.0356903076171875,-0.1811981201171875,0.0591278076171875,1.053082745875082
1782416824.741541,-0.1074218675494194,-0.41357421875,0.9072265028953552,1.0028175405317827,-0.732421875,-0.18310546875,0.0,0.7549631882844837
1782416824.752255,-0.1044921875,-0.41650390625,0.9042968153953552,1.0010728502482849,-0.5474090576171875,-0.1811981201171875,-0.0629425048828125,0.580044131093715
1782416824.762969,-0.1162109225988388,-0.41259765625,0.9077147841453552,1.003836607137992,-0.3032684326171875,-0.0019073486328125,0.0591278076171875,0.3089845915810493
1782416824.773684,-0.1230468675494194,-0.41357421875,0.8964843153953552,0.9949212500385525,-0.48828125,0.18310546875,-0.3681182861328125,0.6383237927361621
1782416824.784339,-0.1191406175494194,-0.4052734375,0.8935546278953552,0.9883728643211175,-0.244140625,0.1220703125,-0.3070831298828125,0.410859896592333
1782416824.794997,-0.1157226487994194,-0.41455078125,0.8808593153953552,0.9803862581650729,-0.0591278076171875,-0.0019073486328125,-0.3681182861328125,0.3728415322865486
1782416824.805655,-0.1069335862994194,-0.41748046875,0.8984374403953552,0.9964509862360178,0.1239776611328125,0.4253387451171875,-0.3681182861328125,0.576016129238744
1782416824.813632,-0.1157226487994194,-0.42431640625,0.9135741591453552,1.0139299227837255,-0.30517578125,0.6103515625,-0.3681182861328125,0.7753530549969468
1782416824.821609,-0.12451171875,-0.41259765625,0.9018554091453552,0.9995414814072542,0.18310546875,0.54931640625,-0.2460479736328125,0.6291388814803814
1782416824.829587,-0.109375,-0.421875,0.8989257216453552,0.9990039335686435,0.0,0.6103515625,-0.0629425048828125,0.6135884522765355
1782416824.837563,-0.1279296875,-0.40380859375,0.9013671278953552,0.9959367874421157,0.4901885986328125,0.5474090576171875,0.0,0.7348071438077735
1782416824.848234,-0.11865234375,-0.4130859375,0.9042968153953552,1.0012347880351558,0.797271728515625,0.6103515625,0.3032684326171875,1.0488770095481021
1782416824.858905,-0.12548828125,-0.40087890625,0.9057616591453552,0.9984264566732104,0.4901885986328125,0.5474090576171875,0.3032684326171875,0.7949297332550994
1782416824.869576,-0.1196288987994194,-0.41015625,0.8872069716453552,0.9847209926563698,0.6122589111328125,0.7305145263671875,0.1811981201171875,0.9702294606066217
1782416824.877559,-0.13232421875,-0.400390625,0.8891600966453552,0.9840874091878556,0.1239776611328125,0.7953643798828125,0.4253387451171875,0.910432867016672
1782416824.885543,-0.11376953125,-0.40771484375,0.8847655653953552,0.9808083430335889,0.3662109375,0.6103515625,0.6084442138671875,0.936399403021638
1782416824.893527,-0.1103515625,-0.4135741889476776,0.8891600966453552,0.9868266081618889,-0.3643035888671875,0.3643035888671875,0.3643035888671875,0.6309923252976524
1782416824.901511,-0.1254882663488388,-0.40185546875,0.8945311903953552,0.988646131507958,-0.42724609375,0.244140625,0.3643035888671875,0.6122589111328125
1782416824.912192,-0.11865234375,-0.40283203125,0.8847655653953552,0.9793682299256657,-0.8525848388671875,-0.0019073486328125,0.3643035888671875,0.9271578346249941
1782416824.922873,-0.12744140625,-0.41796875,0.8862304091453552,0.9881009695863494,-0.91552734375,-0.244140625,0.0,0.9475204282385269
1782416824.933554,-0.10546875,-0.41552734375,0.8833007216453552,0.9818384772912999,-1.28173828125,-0.54931640625,0.4253387451171875,1.4579144638472392
1782416824.944238,-0.1318359375,-0.4052734375,0.9077147841453552,1.0027828293881078,-1.0356903076171875,-0.7343292236328125,0.3643035888671875,1.3208372067877503
1782416824.954921,-0.1186523362994194,-0.4091796875,0.8959960341453552,0.9921266485565805,-1.4019012451171875,-0.9784698486328125,0.0591278076171875,1.7106216540714825
1782416824.965602,-0.1210937425494194,-0.40478515625,0.9140624403953552,1.0069880148971357,-0.8525848388671875,-0.8525848388671875,0.0,1.2057370421996565
1782416824.976268,-0.1206054538488388,-0.4169921875,0.8959960341453552,0.9956088856264412,-0.6694793701171875,-0.9174346923828125,0.1201629638671875,1.1420718802620957
1782416824.986934,-0.1201171800494194,-0.4091796875,0.8955077528953552,0.9918620312832379,-0.9136199951171875,-1.1005401611328125,0.1811981201171875,1.4417776876058837
1782416824.9976,-0.1118163913488388,-0.40771484375,0.8974608778953552,0.9920535905590309,-0.9765625,-0.91552734375,0.5474090576171875,1.4462092898061185
1782416825.008269,-0.1093749925494194,-0.4140625,0.8920897841453552,0.9895629469002677,-0.7305145263671875,-1.4667510986328125,0.6084442138671875,1.7479172234297877
1782416825.01894,-0.1176757737994194,-0.404296875,0.8906249403953552,0.9851478748534597,-0.6103515625,-1.0986328125,0.3643035888671875,1.3085259613050726
1782416825.029611,-0.1113281175494194,-0.40576171875,0.8916015028953552,0.9858954113521918,-0.48828125,-1.28173828125,0.8525848388671875,1.6149837485836984
1782416825.040252,-0.126953125,-0.39453125,0.8955077528953552,0.9867654932503045,-0.5474090576171875,-1.2836456298828125,0.9136199951171875,1.6679641108118932
1782416825.050892,-0.1181640550494194,-0.404296875,0.8847655653953552,0.9799126556738873,-0.6103515625,-1.0986328125,0.8525848388671875,1.518691540114068
1782416825.061532,-0.1064453050494194,-0.4013671875,0.9023436903953552,0.9933027523192678,-0.7305145263671875,-0.9174346923828125,0.7305145263671875,1.3816618114627395
1782416825.069556,-0.1127929612994194,-0.4140625,0.8837890028953552,0.9824729042898377,-0.30517578125,-0.67138671875,0.6084442138671875,0.9560840679374901
1782416825.077581,-0.1171874925494194,-0.41015625,0.8994140028953552,0.9954429197238427,-0.6084442138671875,-0.4901885986328125,0.9136199951171875,1.202160854085671
1782416825.085606,-0.1254882663488388,-0.40234375,0.8994140028953552,0.9932639864404356,-0.244140625,-0.3662109375,0.9136199951171875,1.0141087668479891
1782416825.093631,-0.1303710788488388,-0.4228515625,0.9023436903953552,1.004999600848284,-0.48828125,-0.3662109375,0.9136199951171875,1.0987404267269505
1782416825.104316,-0.1103515625,-0.40771484375,0.8891600966453552,0.9843853608352044,-0.6694793701171875,-0.4901885986328125,0.8525848388671875,1.18970096944917
1782416825.115001,-0.13330078125,-0.40380859375,0.8818358778953552,0.9790122543725818,-0.91552734375,-0.06103515625,0.4863739013671875,1.038496595749611
1782416825.125686,-0.1181640625,-0.40185546875,0.8945311903953552,0.9877431923434944,-1.0356903076171875,-0.3070831298828125,0.8525848388671875,1.3761741784443555
1782416825.133652,-0.1132812425494194,-0.3955078125,0.8999022841453552,0.9894863266726343,-0.9765625,-0.06103515625,0.7305145263671875,1.2210860247903046
1782416825.141616,-0.126953125,-0.40771484375,0.8999022841453552,0.9960786167624422,-0.8525848388671875,-0.1811981201171875,0.5474090576171875,1.0292668956891249
1782416825.14958,-0.1108398362994194,-0.41064453125,0.9106444716453552,1.0050809689247242,-1.0967254638671875,-0.3070831298828125,0.1811981201171875,1.1532300509817304
1782416825.157544,-0.1328125,-0.40283203125,0.9091796278953552,1.0032549034702933,-1.3408660888671875,-0.1811981201171875,0.1811981201171875,1.365132735576286
1782416825.168225,-0.1162109300494194,-0.41015625,0.8974608778953552,0.99356386660834,-1.1577606201171875,-0.4901885986328125,0.3643035888671875,1.3089734988093715
1782416825.178906,-0.119140625,-0.416015625,0.9116210341453552,1.0091166427454152,-1.0356903076171875,-0.6122589111328125,0.3032684326171875,1.2407607060895374
1782416825.189587,-0.125,-0.4072265625,0.8994140028953552,0.9951904449952343,-1.0967254638671875,-1.2836456298828125,0.1201629638671875,1.6926287200970231
1782416825.200227,-0.1191406175494194,-0.41357421875,0.9116210341453552,1.0081126083235825,-0.79345703125,-1.15966796875,0.6694793701171875,1.5564724492252733
1782416825.210869,-0.12939453125,-0.41845703125,0.8940429091453552,0.9955711702902312,-0.850677490234375,-1.03759765625,0.7915496826171875,1.5578228361075974
1782416825.221509,-0.1240234375,-0.40185546875,0.9038085341453552,0.9968648339707717,-0.732421875,-1.708984375,0.6694793701171875,1.9761761115814456
1782416825.229532,-0.1186523362994194,-0.404296875,0.8964843153953552,0.9905647216582846,-0.6103515625,-1.52587890625,0.8525848388671875,1.8514146952671289
1782416825.237553,-0.12548828125,-0.4189453125,0.9013671278953552,1.0018608600235481,-0.42724609375,-1.40380859375,0.9136199951171875,1.7285598884588627
1782416825.245574,-0.1220703050494194,-0.396484375,0.9047850966453552,0.9953577699026334,-0.1811981201171875,-1.4667510986328125,0.7915496826171875,1.6765268993147517
1782416825.253595,-0.14306640625,-0.41650390625,0.9174804091453552,1.017700251392485,0.244140625,-1.8310546875,1.0356903076171875,2.1177866574995927
1782416825.264278,-0.1416015625,-0.408203125,0.9023436903953552,1.0004523623634038,0.3662109375,-1.52587890625,1.2798309326171875,2.0249405184763094
1782416825.274961,-0.15771484375,-0.4189453125,0.9038085341453552,1.0085925902954003,0.3070831298828125,-2.1343231201171875,2.0732879638671875,2.9913472233831264
1782416825.285644,-0.21435546875,-0.39990234375,0.9047850966453552,1.0121789479293275,0.7343292236328125,-2.2602081298828125,3.6602020263671875,4.364041598437393
1782416825.296282,-0.2451171725988388,-0.421875,0.9038085341453552,1.0270982476481132,1.15966796875,-5.67626953125,10.129928588867188,11.66963233374088
1782416825.306919,-0.267578125,-0.41650390625,0.8911132216453552,1.0193901758851653,1.52587890625,-7.87353515625,16.111373901367188,17.997145087010306
1782416825.317556,-0.294921875,-0.4248046875,0.8959960341453552,1.0345273452546786,1.468658447265625,-9.033203125,23.252487182617188,24.988674965071898
1782416825.325582,-0.3950195014476776,-0.4306640625,0.9013671278953552,1.0742321166783728,1.2226104736328125,-10.316848754882812,31.309127807617188,32.987779990097415
1782416825.333608,-0.45556640625,-0.4384765625,0.8974608778953552,1.0978335364334877,0.91552734375,-12.02392578125,41.31889343261719,43.04258282220223
1782416825.341634,-0.4916991889476776,-0.4404296875,0.8945311903953552,1.1117249896594403,0.67138671875,-14.16015625,52.91557312011719,54.78155404678656
1782416825.34966,-0.52294921875,-0.44384765625,0.8945311903953552,1.12723674440642,0.6732940673828125,-16.542434692382812,66.09916687011719,68.14106934423998
1782416825.360341,-0.521484375,-0.44677734375,0.8906249403953552,1.124619372370793,0.492095947265625,-18.5546875,81.05278015136719,83.15089751115038
1782416825.371022,-0.4995116889476776,-0.45654296875,0.9243163466453552,1.1455584308040518,0.6122589111328125,-20.082473754882812,95.94535827636719,98.02648819513162
1782416825.381703,-0.5048828125,-0.45263671875,0.9199218153953552,1.1428222958793561,1.64794921875,-19.59228515625,111.26518249511719,112.98900039359197
1782416825.392363,-0.4887695014476776,-0.4575195014476776,0.9082030653953552,1.1282962943056503,2.5634765625,-15.93017578125,139.5244598388672,140.45432284495794
1782416825.403022,-0.4609374701976776,-0.46630859375,0.8896483778953552,1.1051612064894307,3.11279296875,-14.7705078125,152.0977020263672,152.84491598612956
1782416825.413682,-0.4570312201976776,-0.48974609375,0.8950194716453552,1.1179394559648983,3.421783447265625,-14.46533203125,163.8164520263672,164.48946588533065
1782416825.421715,-0.431640625,-0.5126953125,0.8964843153953552,1.1193097160123922,4.8236846923828125,-14.894485473632812,174.5586395263672,175.25932861001147
1782416825.429749,-0.4184570014476776,-0.52783203125,0.9121093153953552,1.1338678576029335,5.4950714111328125,-16.054153442382812,184.3852996826172,185.16444148813662
1782416825.437784,-0.3896484076976776,-0.52783203125,0.9160155653953552,1.1267284725617832,6.3495635986328125,-17.030715942382812,193.9067840576172,194.75677946343896
1782416825.445819,-0.3564453125,-0.517578125,0.9272460341453552,1.1201453406232726,7.5092315673828125,-17.641067504882812,202.4517059326172,203.35753995480795
1782416825.456437,-0.3349609375,-0.51904296875,0.9443358778953552,1.1284390472418453,8.85009765625,-17.333984375,209.4097137451172,210.31219520905066
1782416825.467055,-0.326171875,-0.515625,0.9291991591453552,1.1116061847715903,9.462356567382812,-16.721725463867188,215.2690887451172,216.1248085330566
1782416825.477674,-0.30908203125,-0.51025390625,0.9067382216453552,1.0853870063150706,10.438919067382812,-16.416549682617188,219.3584442138672,220.21943870309335
1782416825.488314,-0.28173828125,-0.51171875,0.9047850966453552,1.0769719631145518,11.232376098632812,-15.504837036132812,224.3022918701172,225.11793438667968
1782416825.498955,-0.2607421875,-0.50390625,0.9072265028953552,1.0700317400372212,11.903762817382812,-14.406204223632812,224.8516082763672,225.62686904226277
1782416825.509596,-0.240234375,-0.478515625,0.9047850966453552,1.0513447719051663,12.451171875,-13.61083984375,223.7529754638672,224.51209471038962
1782416825.517591,-0.17919921875,-0.4384765625,0.9038085341453552,1.020413603523788,12.20703125,-12.14599609375,222.5322723388672,223.19755613659308
1782416825.525585,-0.16015625,-0.42822265625,0.8940429091453552,1.0041600425893067,11.65771484375,-10.8642578125,219.6636199951172,220.24086896521703
1782416825.533579,-0.1562499850988388,-0.4033203125,0.8891600966453552,0.9887805670546234,11.295318603515625,-8.72802734375,215.6963348388672,216.16815571815587
1782416825.541573,-0.1264648288488388,-0.3876953125,0.8930663466453552,0.9817680519250566,10.19287109375,-6.28662109375,210.3862762451172,210.72684085848425
1782416825.552272,-0.12939453125,-0.36865234375,0.8837890028953552,0.9662973128952298,9.21630859375,-3.47900390625,204.4048309326172,204.64207465931034
1782416825.562971,-0.115234375,-0.3603515625,0.8837890028953552,0.9613611243526535,7.87353515625,-1.708984375,197.6909637451172,197.85507405655267
1782416825.57367,-0.1176757737994194,-0.33740234375,0.8916015028953552,0.9605421225914776,6.9599151611328125,-0.3070831298828125,190.3057098388672,190.433184913696
1782416825.581647,-0.1196288987994194,-0.31640625,0.8881835341453552,0.950417791707393,4.7016143798828125,1.4667510986328125,174.9248504638672,174.99417089254362
1782416825.589626,-0.1064453050494194,-0.2958984375,0.8979491591453552,0.9514195608099802,3.910064697265625,2.0751953125,166.9292449951172,166.9879273365643
1782416825.597605,-0.1245117112994194,-0.27783203125,0.9072265028953552,0.9569502240947263,2.933502197265625,2.74658203125,158.7505340576172,158.8013891991327
1782416825.605584,-0.1171874925494194,-0.265625,0.9033202528953552,0.948829293564416,1.89208984375,3.5400390625,150.6938934326172,150.7473429232563
1782416825.616255,-0.13916015625,-0.244140625,0.9018554091453552,0.944623402667778,0.9784698486328125,4.1484832763671875,142.2100067138672,142.27386733443754
1782416825.626924,-0.1157226487994194,-0.224609375,0.8793944716453552,0.9149730813217719,0.1239776611328125,4.8847198486328125,133.9702606201172,134.05933980548394
1782416825.637594,-0.125,-0.21630859375,0.8911132216453552,0.9254713293891208,-0.79345703125,5.31005859375,125.36430358886719,125.47922103141681
1782416825.648301,-0.1547851413488388,-0.1953125,0.9184569716453552,0.9516662342452772,-1.0986328125,5.37109375,116.69731140136719,116.82601649647931
1782416825.659008,-0.162109375,-0.17578125,0.9189452528953552,0.9495466682229797,-1.40380859375,4.8828125,107.90824890136719,108.02778678394488
1782416825.669715,-0.16259765625,-0.1787109375,0.9189452528953552,0.9501768123981086,-1.4019012451171875,3.9653778076171875,99.48539733886719,99.57426289925769
1782416825.680328,-0.17578125,-0.1552734375,0.9208983778953552,0.9502961173523363,-2.25830078125,2.86865234375,83.37211608886719,83.45201513338934
1782416825.690943,-0.17626953125,-0.14111328125,0.9096679091453552,0.937272431431288,-2.5615692138671875,2.0122528076171875,75.31547546386719,75.38588490259683
1782416825.701556,-0.1835937350988388,-0.150390625,0.9067382216453552,0.9372823492672924,-2.620697021484375,1.77001953125,67.74711608886719,67.82088734584553
1782416825.709568,-0.1953124850988388,-0.1318359375,0.9184569716453552,0.9482040339589074,-3.2329559326171875,0.6694793701171875,60.72807312011719,60.817752930962165
1782416825.717581,-0.2167968600988388,-0.13232421875,0.9165038466453552,0.951046727733315,-3.4770965576171875,-0.6122589111328125,53.89213562011719,54.00766004135301
1782416825.725594,-0.2280273288488388,-0.125,0.9194335341453552,0.9554996004253243,-3.90625,-1.15966796875,47.42240905761719,47.59714802052973
1782416825.733608,-0.2353515625,-0.119140625,0.9077147841453552,0.9452676741815679,-4.57763671875,-1.8310546875,41.31889343261719,41.61199915521291
1782416825.744256,-0.2338867038488388,-0.11083984375,0.9121093153953552,0.9481201740448214,-5.18798828125,-2.62451171875,35.27641296386719,35.752322942230485
1782416825.754905,-0.25341796875,-0.1005859375,0.9091796278953552,0.9491816440956212,-5.3081512451171875,-2.9315948486328125,29.783248901367188,30.39428619195324
1782416825.765554,-0.24951171875,-0.10888671875,0.9121093153953552,0.9518696436722333,-6.04248046875,-3.2958984375,24.900436401367188,25.834206968747313
1782416825.776227,-0.27490234375,-0.10986328125,0.9130858778953552,0.9598786691963684,-6.5898895263671875,-4.4536590576171875,15.928268432617188,17.803692264042557
1782416825.786902,-0.283203125,-0.11962890625,0.9091796278953552,0.9597513641565056,-6.6509246826171875,-5.1898956298828125,12.266159057617188,14.887191602504732
1782416825.797577,-0.30029296875,-0.11474609375,0.9243163466453552,0.9786231357307004,-6.6509246826171875,-6.3495635986328125,9.214401245117188,13.01756303356917
1782416825.80559,-0.31298828125,-0.11376953125,0.9243163466453552,0.9824794548063029,-6.4067840576171875,-6.5326690673828125,6.4678192138671875,11.205147588860557
1782416825.813602,-0.3251953125,-0.11767578125,0.9130858778953552,0.9763838390595688,-6.5898895263671875,-7.0209503173828125,4.4536590576171875,10.609216103481792
1782416825.821614,-0.318359375,-0.1059570237994194,0.9155272841453552,0.9750742487407773,-6.2847137451171875,-7.6313018798828125,2.6226043701171875,10.228022727884683
1782416825.829626,-0.3330077826976776,-0.1123046875,0.9204100966453552,0.9852214330689363,-5.859375,-8.056640625,0.9136199951171875,10.00382102231459
1782416825.840284,-0.34521484375,-0.115234375,0.9291991591453552,0.997929519997987,-5.6743621826171875,-8.180618286132812,-0.0629425048828125,9.956147019899193
1782416825.850942,-0.357421875,-0.1113281175494194,0.9208983778953552,0.9940815705443439,-5.4912567138671875,-8.359909057617188,-1.3446807861328125,10.092083341204438
1782416825.8616,-0.3623046875,-0.12939453125,0.9213866591453552,0.9984793472841182,-5.245208740234375,-8.23974609375,-1.9550323486328125,9.961314265813533
1782416825.869603,-0.35302734375,-0.12890625,0.9174804091453552,0.991471344966546,-4.69970703125,-8.36181640625,-2.6874542236328125,9.961407028905816
1782416825.877609,-0.3613280951976776,-0.12158203125,0.9404296278953552,1.0147650307955307,-4.1484832763671875,-8.485794067382812,-2.5653839111328125,9.787737688548189
1782416825.885615,-0.37841796875,-0.1215820237994194,0.9252929091453552,1.0070498077546677,-4.0283203125,-8.4228515625,-1.8329620361328125,9.514806504071059
1782416825.893621,-0.37451171875,-0.1298828125,0.9331054091453552,1.0138117562152797,-3.8433074951171875,-8.485794067382812,-1.8939971923828125,9.506152682384565
1782416825.904315,-0.3657226264476776,-0.11572265625,0.9165038466453552,0.9935411786036229,-3.35693359375,-7.9345703125,-1.2836456298828125,8.710577208197565
1782416825.915009,-0.3681640625,-0.12255859375,0.9248046278953552,1.0029102579967701,-3.35693359375,-7.4462890625,-0.8563995361328125,8.212773229588342
1782416825.925704,-0.36767578125,-0.1259765625,0.9140624403953552,0.9932601468692009,-3.23486328125,-7.14111328125,-0.1850128173828125,7.84181542033607
1782416825.936365,-0.3603515625,-0.126953125,0.9121093153953552,0.9888952157708322,-2.9296875,-6.4697265625,0.2422332763671875,7.106272412548924
1782416825.947026,-0.3681640625,-0.12646484375,0.9213866591453552,1.0002457244458758,-3.1108856201171875,-6.0443878173828125,0.7305145263671875,6.83709623316881
1782416825.957687,-0.36376953125,-0.138671875,0.9326171278953552,1.0106101464094064,-2.803802490234375,-6.28662109375,1.2187957763671875,6.990591986743142
1782416825.96832,-0.365234375,-0.13037109375,0.9350585341453552,1.012288117605493,-2.0751953125,-6.28662109375,2.0122528076171875,6.919335352703153
1782416825.978953,-0.3515624701976776,-0.1328125,0.9252929091453552,0.9987003045570866,-2.0122528076171875,-5.8002471923828125,2.5005340576171875,6.629079832662406
1782416825.989586,-0.3544921875,-0.12158203125,0.9296874403953552,1.0023799869063021,-1.5869140625,-5.31005859375,2.8667449951171875,6.239651062186725
1782416825.997581,-0.3447265625,-0.1201171875,0.9428710341453552,1.0110738492594435,-0.9765625,-4.82177734375,2.6836395263671875,5.60402820983151
1782416826.005579,-0.3486328125,-0.125,0.9379882216453552,1.008460084434221,-0.4253387451171875,-4.0912628173828125,2.5005340576171875,4.813731926717615
1782416826.013577,-0.3515624701976776,-0.12255859375,0.9262694716453552,0.9982945023667295,-0.179290771484375,-3.662109375,2.4394989013671875,4.403901127974386
