timestamp,accel_x,accel_y,accel_z,accel_rms,gyro_x,gyro_y,gyro_z,gyro_rms
1785514957.399319,-0.0576171837747097,-0.17041015625,0.9799804091453552,0.9963538345025706,-0.02288818359375,0.1678466796875,0.4940032958984375,0.5222409723383054
1785514957.409986,-0.0449218712747097,-0.16796875,0.9697265028953552,0.9851908271563634,0.2803802490234375,-0.1964569091796875,0.4329681396484375,0.5519690309768381
1785514957.420653,-0.0463867150247097,-0.17041015625,0.9575194716453552,0.9736708310635239,-0.0858306884765625,-0.0743865966796875,0.0667572021484375,0.13174519683326052
1785514957.431312,-0.0361328087747097,-0.16455078125,0.9697265028953552,0.9842520154399433,0.0972747802734375,0.0476837158203125,-0.0553131103515625,0.12163741122056979
1785514957.441973,-0.0561523400247097,-0.16064453125,0.9755858778953552,0.9903168966849115,-0.1468658447265625,-0.1964569091796875,-0.7266998291015625,0.7669794880750872
1785514957.452634,-0.0458984337747097,-0.16796875,0.9790038466453552,0.9943684925348028,0.0972747802734375,-0.5626678466796875,-0.5435943603515625,0.7883858935638222
1785514957.460643,-0.0424804650247097,-0.1728515625,0.9599608778953552,0.9763232762036497,0.4024505615234375,-0.7457733154296875,-0.4215240478515625,0.9464812810587881
1785514957.468653,-0.0517578087747097,-0.1640625,0.9775390028953552,0.9925612710845889,0.2193450927734375,-0.2574920654296875,-0.6046295166015625,0.6928140340877006
1785514957.476663,-0.0439453087747097,-0.18115234375,0.9750975966453552,0.9927550980946764,0.217437744140625,-0.3204345703125,-0.6656646728515625,0.7701083969876567
1785514957.484674,-0.0454101525247097,-0.15771484375,0.9716796278953552,0.9854427193694518,0.0972747802734375,-0.3795623779296875,-0.6046295166015625,0.7204906897127288
1785514957.495358,-0.06494140625,-0.17041015625,0.9809569716453552,0.9977642947202026,-0.0247955322265625,-0.5626678466796875,-0.1163482666015625,0.5751059408898008
1785514957.506041,-0.0410156212747097,-0.1552734375,0.9770507216453552,0.9901617212603839,0.2193450927734375,-0.4405975341796875,-0.2994537353515625,0.5761171725135542
1785514957.516726,-0.0493164025247097,-0.1767578125,0.9672850966453552,0.9845384147050731,0.339508056640625,-0.7476806640625,-0.0553131103515625,0.8230137520804855
1785514957.527344,-0.0493163987994194,-0.173828125,0.9848632216453552,1.0013010983621395,0.827789306640625,-0.4425048828125,0.3108978271484375,0.988788737004569
1785514957.537962,-0.0488281175494194,-0.1689453125,0.9736327528953552,0.9893874070300928,0.4634857177734375,-0.5016326904296875,0.5550384521484375,0.8800693438877522
1785514957.54858,-0.0366210900247097,-0.1748046875,0.9750975966453552,0.9913188720034126,0.5855560302734375,-0.5016326904296875,0.5550384521484375,0.950041527545321
1785514957.556592,-0.0229492150247097,-0.1708984375,0.9775390028953552,0.9926305680321542,0.8907318115234375,0.2307891845703125,0.8602142333984375,1.259617138306603
1785514957.564603,-0.0390624962747097,-0.16796875,0.9692382216453552,0.9844603140249103,1.0128021240234375,0.4749298095703125,0.1888275146484375,1.1344524215378915
1785514957.572614,-0.0317382775247097,-0.169921875,0.9741210341453552,0.989339451870877,0.522613525390625,0.8392333984375,-0.4215240478515625,1.0747651449927744
1785514957.580625,-0.0434570237994194,-0.16064453125,0.9677733778953552,0.9819778456263774,0.522613525390625,1.2054443359375,-0.4215240478515625,1.3798200849683933
1785514957.591298,-0.04248046875,-0.16357421875,0.9628905653953552,0.9776089996477525,0.4024505615234375,1.0242462158203125,-0.9098052978515625,1.4278628943604952
1785514957.601971,-0.0498046837747097,-0.16748046875,0.9614257216453552,0.9771743100286205,-0.1468658447265625,0.5970001220703125,-0.7266998291015625,0.9518778092357522
1785514957.612644,-0.0424804650247097,-0.169921875,0.9746093153953552,0.9902228795415879,0.0362396240234375,0.4749298095703125,-0.6046295166015625,0.769706753714486
1785514957.620631,-0.0434570237994194,-0.16943359375,0.9609374403953552,0.9767277102458598,-0.6351470947265625,0.1087188720703125,-0.4215240478515625,0.7700091869588312
1785514957.628616,-0.0551757775247097,-0.18212890625,0.9716796278953552,0.9901396892278046,-0.820159912109375,0.3509521484375,-0.3604888916015625,0.9621756247651869
1785514957.636602,-0.0478515625,-0.1748046875,0.9628905653953552,0.9797982913503427,-0.6961822509765625,0.0476837158203125,-0.3604888916015625,0.7854270840105712
1785514957.644588,-0.0415039025247097,-0.1708984375,0.9624022841453552,0.9783389016046122,-0.7572174072265625,-0.0133514404296875,-0.0553131103515625,0.759352357568757
1785514957.655267,-0.0498046837747097,-0.17041015625,0.9736327528953552,0.9896872563540646,-0.5741119384765625,-0.0743865966796875,0.3719329833984375,0.6880930371734372
1785514957.665946,-0.037109375,-0.17333984375,0.9672850966453552,0.9833942573232667,-0.759124755859375,-0.3204345703125,0.0667572021484375,0.8266832723894924
1785514957.676625,-0.0415039025247097,-0.166015625,0.9731444716453552,0.988075869740193,-0.6961822509765625,-0.6847381591796875,0.3108978271484375,1.024789506258334
1785514957.684634,-0.0346679650247097,-0.16650390625,0.9736327528953552,0.988375513712299,-0.3299713134765625,-0.3795623779296875,0.3108978271484375,0.5912749997951093
1785514957.692643,-0.0419921837747097,-0.17138671875,0.9794921278953552,0.9952595538205256,-0.2079010009765625,-0.3185272216796875,0.2498626708984375,0.45509754060699814
1785514957.700652,-0.0307617150247097,-0.169921875,0.9667968153953552,0.9820976575541649,-0.2079010009765625,-0.4405975341796875,0.0667572021484375,0.49173726457424893
1785514957.708662,-0.0502929650247097,-0.17041015625,0.9667968153953552,0.9829878361112749,-0.0247955322265625,-0.6847381591796875,0.0057220458984375,0.6852108484725336
1785514957.71933,-0.0488281175494194,-0.16943359375,0.9721679091453552,0.9880295397033996,0.339508056640625,-0.682830810546875,0.0057220458984375,0.7625984383443621
1785514957.729997,-0.0317382775247097,-0.17919921875,0.9799804091453552,0.9967353111882531,0.2803802490234375,-0.8068084716796875,0.1277923583984375,0.8636456917518854
1785514957.740665,-0.0375976525247097,-0.1845703125,0.9877929091453552,1.0055916741349644,0.5245208740234375,-0.6847381591796875,-0.0553131103515625,0.8643194051390157
1785514957.751351,-0.0502929650247097,-0.1689453125,0.9760741591453552,0.991863229028081,0.522613525390625,-0.499725341796875,0.4329681396484375,0.8427999312445688
1785514957.762035,-0.0473632775247097,-0.18701171875,0.9692382216453552,0.9882506733141964,0.339508056640625,-0.3204345703125,0.1888275146484375,0.5035869981081285
1785514957.77272,-0.0390624962747097,-0.18212890625,0.9594725966453552,0.9773865564966675,0.2803802490234375,-0.0743865966796875,0.8602142333984375,0.9078077864555321
1785514957.780688,-0.0390624962747097,-0.16796875,0.9731444716453552,0.9883064010142258,0.2193450927734375,0.0476837158203125,0.9822845458984375,1.007605545632377
1785514957.788655,-0.0449218712747097,-0.16796875,0.9638671278953552,0.9794239713896251,-0.0858306884765625,0.2918243408203125,1.0433197021484375,1.0867586456387983
1785514957.796622,-0.0395507775247097,-0.1513671875,0.9721679091453552,0.9846759533097784,0.156402587890625,-0.1373291015625,0.9822845458984375,1.0040936115451327
1785514957.804589,-0.0390624962747097,-0.1669921875,0.9741210341453552,0.9891026531486321,-0.148773193359375,-0.011444091796875,1.2874603271484375,1.2960781320123271
1785514957.815288,-0.0449218712747097,-0.16455078125,0.9760741591453552,0.9908661353987829,0.2803802490234375,0.0476837158203125,1.3484954833984375,1.3781606907552046
1785514957.825987,-0.0458984337747097,-0.16357421875,0.9814452528953552,0.9960411516064344,-0.2079010009765625,0.1087188720703125,1.2264251708984375,1.2486638135080872
1785514957.836686,-0.03662109375,-0.17822265625,0.9721679091453552,0.9890474524916909,0.034332275390625,0.3509521484375,0.9212493896484375,0.9864312208937901
1785514957.844672,-0.0434570237994194,-0.16552734375,0.9697265028953552,0.984711787714603,-0.148773193359375,1.0223388671875,0.5550384521484375,1.1727650684548463
1785514957.852656,-0.0410156212747097,-0.1591796875,0.9614257216453552,0.9753767848080249,-0.0247955322265625,1.0852813720703125,0.4940032958984375,1.192681739333565
1785514957.860641,-0.0498046800494194,-0.17333984375,0.9780272841453552,0.9945172578285602,-0.2079010009765625,0.5970001220703125,0.3108978271484375,0.7044781266190203
1785514957.868624,-0.0478515587747097,-0.171875,0.9804686903953552,0.9965689339668141,-0.331878662109375,0.2288818359375,0.1888275146484375,0.44518105471137837
1785514957.879287,-0.04736328125,-0.18359375,0.9721679091453552,0.9904849261961944,-0.270843505859375,0.3509521484375,0.2498626708984375,0.5088761828456851
1785514957.889948,-0.0546874962747097,-0.177734375,0.9790038466453552,0.9965082849890607,-0.2079010009765625,0.0476837158203125,0.1277923583984375,0.24865126146175826
1785514957.90061,-0.0473632775247097,-0.1650390625,0.9667968153953552,0.9819252794726094,-0.2689361572265625,-0.1964569091796875,0.3108978271484375,0.4556088593891103
1785514957.911279,-0.0493164025247097,-0.1572265625,0.9736327528953552,0.9874781197698171,-0.3299713134765625,-0.3795623779296875,0.6160736083984375,0.7952957672603056
1785514957.921948,-0.0605468712747097,-0.1708984375,0.9726561903953552,0.9894100587094833,-0.0858306884765625,-0.5626678466796875,0.6160736083984375,0.8387542570601882
1785514957.932617,-0.0410156212747097,-0.17431640625,0.9687499403953552,0.9851623915337357,-0.2079010009765625,-0.4405975341796875,0.4940032958984375,0.693821496993857
1785514957.94062,-0.0424804650247097,-0.1611328125,0.9785155653953552,0.9926031860183945,-0.0858306884765625,-0.2574920654296875,0.4329681396484375,0.5110092766224856
1785514957.948627,-0.0371093712747097,-0.16943359375,0.9780272841453552,0.9932885867964978,-0.1468658447265625,-0.5626678466796875,0.6160736083984375,0.8471784776536019
1785514957.956632,-0.0444335900247097,-0.17626953125,0.9677733778953552,0.9846982291710312,-0.148773193359375,-0.6256103515625,0.4329681396484375,0.7752310526514852
1785514957.964638,-0.0346679650247097,-0.17236328125,0.9692382216453552,0.9850551755208801,-0.02288818359375,-0.3204345703125,0.1888275146484375,0.3726365697135529
1785514957.975304,-0.0468749962747097,-0.1591796875,0.9790038466453552,0.9929672552177911,0.0972747802734375,-0.1964569091796875,-0.0553131103515625,0.2260912210114441
1785514957.98597,-0.0317382775247097,-0.1708984375,0.9809569716453552,0.9962380109290164,0.0362396240234375,0.2918243408203125,-0.1773834228515625,0.3434234047747856
1785514957.996636,-0.0351562462747097,-0.1708984375,0.9702147841453552,0.9857783548883023,-0.0247955322265625,0.1087188720703125,-0.4825592041015625,0.4952756778055762
1785514958.004631,-0.0449218712747097,-0.17529296875,0.9672850966453552,0.9840660839619585,-0.3299713134765625,0.1087188720703125,-0.6656646728515625,0.7508730369005578
1785514958.012627,-0.0483398362994194,-0.1640625,0.9775390028953552,0.99238890857433,-0.2079010009765625,0.0476837158203125,-0.5435943603515625,0.5839446819412891
1785514958.020624,-0.0512695275247097,-0.16064453125,0.9672850966453552,0.9818735601213393,0.034332275390625,0.0457763671875,-0.5435943603515625,0.5465976669657555
1785514958.028621,-0.0434570237994194,-0.169921875,0.9619140028953552,0.9777732382752068,-0.20599365234375,0.1678466796875,-0.9098052978515625,0.9478141023886522
1785514958.039308,-0.0473632775247097,-0.16552734375,0.9624022841453552,0.9776813070295506,-0.6961822509765625,0.1087188720703125,-0.7877349853515625,1.0568897420572596
1785514958.049995,-0.0439453050494194,-0.1689453125,0.9663085341453552,0.9819500453759114,-0.0858306884765625,0.0476837158203125,-0.6046295166015625,0.6125499948450185
1785514958.060683,-0.0322265587747097,-0.17724609375,0.9682616591453552,0.9848783525953901,-0.148773193359375,0.2288818359375,-0.3604888916015625,0.45218646469414553
1785514958.071355,-0.0498046800494194,-0.17431640625,0.9848632216453552,1.001410146239995,0.0972747802734375,-0.1964569091796875,-0.5435943603515625,0.5861335416504552
1785514958.08203,-0.0380859337747097,-0.17626953125,0.9794921278953552,0.9959549761949871,-0.1468658447265625,0.1087188720703125,-0.1163482666015625,0.216624764587699
1785514958.092705,-0.0419921875,-0.1787109375,0.9750975966453552,0.9922279304558564,0.0972747802734375,-0.0743865966796875,-0.3604888916015625,0.3807203561814828
1785514958.100744,-0.0419921837747097,-0.1552734375,0.9638671278953552,0.977196512544164,-0.0247955322265625,-0.0743865966796875,-0.4215240478515625,0.42875483332686914
1785514958.108782,-0.0351562462747097,-0.17724609375,0.9658202528953552,0.9825786992931456,-0.51116943359375,-0.1373291015625,-0.4825592041015625,0.7162519510895954
1785514958.116821,-0.0371093712747097,-0.18212890625,0.9682616591453552,0.9859405075861025,-0.3910064697265625,-0.1964569091796875,-0.6046295166015625,0.7463633357007191
1785514958.124858,-0.02734375,-0.173828125,0.9824218153953552,0.9980563716893869,0.0362396240234375,-0.3795623779296875,-0.6656646728515625,0.7671312571989077
1785514958.135506,-0.0351562462747097,-0.1748046875,0.9809569716453552,0.997030200467231,-0.2079010009765625,-0.1354217529296875,-0.8487701416015625,0.8842921636246374
1785514958.146154,-0.0400390587747097,-0.17529296875,0.9716796278953552,0.9881761231620653,0.0362396240234375,-0.3795623779296875,-0.7877349853515625,0.8751613086944746
1785514958.156802,-0.0332031212747097,-0.171875,0.9794921278953552,0.9950117042006863,-0.2079010009765625,0.0476837158203125,-0.9708404541015625,0.9939958502335998
1785514958.167426,-0.0473632775247097,-0.1845703125,0.9775390028953552,0.9959377402708844,-0.0247955322265625,0.2307891845703125,-0.2384185791015625,0.33274898195762564
1785514958.178051,-0.052734375,-0.17333984375,0.9794921278953552,0.9961086508744345,-0.0247955322265625,-0.1354217529296875,-0.5435943603515625,0.560757254247301
1785514958.188676,-0.0419921875,-0.17333984375,0.9809569716453552,0.9970389287595223,-0.148773193359375,0.0457763671875,-0.0553131103515625,0.16519224870433522
1785514958.199349,-0.0395507775247097,-0.1708984375,0.9726561903953552,0.9883474109123552,-0.148773193359375,-0.011444091796875,0.0667572021484375,0.1634654530415789
1785514958.210024,-0.0517578087747097,-0.17041015625,0.9882811903953552,1.0042002805275296,-0.2079010009765625,0.1087188720703125,0.1277923583984375,0.26715820447130634
1785514958.220699,-0.0332031212747097,-0.1806640625,0.9677733778953552,0.9850519081268626,-0.1468658447265625,-0.0743865966796875,0.2498626708984375,0.29922282068942224
1785514958.228701,-0.0322265625,-0.17333984375,0.9663085341453552,0.9822613887983106,0.2803802490234375,0.2307891845703125,0.1277923583984375,0.38497742612016783
1785514958.236702,-0.0473632775247097,-0.16943359375,0.9765624403953552,0.9922828340447367,-0.148773193359375,-0.011444091796875,-0.0553131103515625,0.15913506991284296
1785514958.244704,-0.0395507737994194,-0.16357421875,0.9790038466453552,0.9933626329262681,0.0972747802734375,-0.1964569091796875,-0.1163482666015625,0.24818263271806468
1785514958.252705,-0.0458984337747097,-0.1796875,0.9697265028953552,0.9873012479972244,-0.02288818359375,0.1678466796875,-0.2994537353515625,0.3440478403454134
1785514958.26343,-0.0390624925494194,-0.1640625,0.9814452528953552,0.9958298884153112,-0.331878662109375,-0.0762939453125,0.0057220458984375,0.3405832559949465
1785514958.274156,-0.0424804650247097,-0.1728515625,0.9594725966453552,0.9758431822177104,-0.0247955322265625,-0.0133514404296875,0.1277923583984375,0.13085857344851615
1785514958.284883,-0.0322265587747097,-0.17626953125,0.9833983778953552,0.9995908504907247,-0.2079010009765625,-0.0743865966796875,0.1277923583984375,0.25512169417295316
1785514958.292922,-0.0434570237994194,-0.17822265625,0.9804686903953552,0.9974821707498795,-0.1468658447265625,0.1087188720703125,0.0667572021484375,0.19454021057399698
1785514958.300965,-0.0551757737994194,-0.17333984375,0.9790038466453552,0.995760814248101,0.0362396240234375,-0.0743865966796875,0.2498626708984375,0.2632072005539504
1785514958.309008,-0.0400390587747097,-0.17041015625,0.9716796278953552,0.9873216531848018,-0.1468658447265625,-0.3795623779296875,0.5550384521484375,0.6882622018171701
1785514958.324964,-0.0444335900247097,-0.17041015625,0.9716796278953552,0.9875096275695187,0.2803802490234375,-0.1964569091796875,1.1043548583984375,1.1562041577831805
1785514958.332878,-0.0468749962747097,-0.171875,0.9707030653953552,0.9869157623975277,0.339508056640625,-0.4425048828125,0.9212493896484375,1.0769293058341465
1785514958.340792,-0.0439453087747097,-0.1728515625,0.9799804091453552,0.9960775346983255,0.705718994140625,-0.6256103515625,1.1043548583984375,1.4522490364745446
1785514958.348706,-0.0410156212747097,-0.16357421875,0.9545897841453552,0.9693711684504027,0.7076263427734375,0.1087188720703125,1.1043548583984375,1.3161134021805965
1785514958.359363,-0.0385742150247097,-0.171875,0.9726561903953552,0.9884781486730893,0.2803802490234375,0.2918243408203125,0.7991790771484375,0.8958022813598339
1785514958.37002,-0.0405273400247097,-0.1640625,0.9726561903953552,0.9872279543804126,0.339508056640625,0.3509521484375,0.3108978271484375,0.5788700976405765
1785514958.380677,-0.0317382775247097,-0.162109375,0.9731444716453552,0.9870648055811957,-0.2079010009765625,0.3528594970703125,-0.1163482666015625,0.42575764235179475
1785514958.391382,-0.0522460900247097,-0.177734375,0.9619140028953552,0.9795905833284005,-0.5741119384765625,0.5970001220703125,0.1277923583984375,0.8380599921952598
1785514958.402086,-0.0400390587747097,-0.16552734375,0.9692382216453552,0.984085950542302,-0.4520416259765625,0.4138946533203125,0.0057220458984375,0.6129299776254543
1785514958.412791,-0.0395507737994194,-0.16455078125,0.9638671278953552,0.9786118043204666,-0.6961822509765625,0.0476837158203125,0.0667572021484375,0.7009992777228184
1785514958.420755,-0.04150390625,-0.18310546875,0.9716796278953552,0.9896522046593046,-0.9403228759765625,0.2307891845703125,0.1277923583984375,0.9766276904043312
1785514958.428721,-0.0468749962747097,-0.1826171875,0.9697265028953552,0.9878845038079196,-1.125335693359375,0.0457763671875,0.0667572021484375,1.128243068926283
1785514958.436687,-0.0527343712747097,-0.1806640625,0.9765624403953552,0.9945323611545652,-1.0013580322265625,0.0476837158203125,0.3719329833984375,1.069264134626589
1785514958.452651,-0.0395507775247097,-0.1669921875,0.9711913466453552,0.9862369322265633,-0.820159912109375,-0.011444091796875,0.7381439208984375,1.103471656467728
1785514958.460645,-0.0400390587747097,-0.1708984375,0.9707030653953552,0.9864450533787704,-0.5741119384765625,-0.0133514404296875,0.5550384521484375,0.798655408938171
1785514958.468641,-0.0498046837747097,-0.169921875,0.9711913466453552,0.9872013887390115,-0.2079010009765625,0.0476837158203125,0.6160736083984375,0.6519534139235412
1785514958.476635,-0.0385742112994194,-0.17822265625,0.9780272841453552,0.9948812258309618,0.0362396240234375,-0.1964569091796875,0.4940032958984375,0.5328676044500316
1785514958.487299,-0.0483398400247097,-0.1767578125,0.9697265028953552,0.9868888259733489,0.217437744140625,0.1678466796875,0.8602142333984375,0.9030062058481899
1785514958.497963,-0.0400390587747097,-0.1796875,0.9750975966453552,0.9923235595648037,0.1583099365234375,0.1087188720703125,0.8602142333984375,0.881391148405495
1785514958.508627,-0.0346679650247097,-0.1796875,0.9804686903953552,0.9974007811811596,0.4024505615234375,-0.1964569091796875,0.6160736083984375,0.7616485164431409
1785514958.519301,-0.046875,-0.17822265625,0.9794921278953552,0.9966771841648512,0.339508056640625,-0.1373291015625,0.4940032958984375,0.6149506151052916
1785514958.529975,-0.0463867150247097,-0.171875,0.9677733778953552,0.984011206195727,0.2803802490234375,-0.1964569091796875,0.7381439208984375,0.8136736748637009
1785514958.540649,-0.0400390550494194,-0.18896484375,0.9750975966453552,0.9940453516244921,0.4634857177734375,-0.0743865966796875,0.1888275146484375,0.5059725354541005
1785514958.548643,-0.0439453050494194,-0.17822265625,0.9682616591453552,0.9855075573569226,0.3414154052734375,0.1087188720703125,0.4329681396484375,0.5620014964863487
1785514958.556639,-0.0424804650247097,-0.1748046875,0.9721679091453552,0.9886716908320679,0.0972747802734375,-0.1964569091796875,0.0667572021484375,0.22915982213374333
1785514958.564635,-0.0375976525247097,-0.17041015625,0.9692382216453552,0.9848227937688937,0.0972747802734375,0.2918243408203125,-0.0553131103515625,0.3125433873068179
1785514958.572631,-0.0415039025247097,-0.17041015625,0.9687499403953552,0.9844991834907403,0.156402587890625,0.4119873046875,0.0057220458984375,0.44071311590627693
1785514958.583277,-0.0532226525247097,-0.16650390625,0.9858397841453552,1.0012173997399543,0.156402587890625,-0.011444091796875,-0.0553131103515625,0.16628973784543685
1785514958.593923,-0.046875,-0.17333984375,0.9682616591453552,0.9847713478910678,0.0362396240234375,-0.1964569091796875,0.0667572021484375,0.2106303671185222
1785514958.604569,-0.0454101525247097,-0.16943359375,0.9775390028953552,0.9931527207962544,0.156402587890625,-0.3204345703125,0.4940032958984375,0.6092448930510295
1785514958.615271,-0.0253906212747097,-0.1728515625,0.9624022841453552,0.9781311276283994,0.156402587890625,-0.5645751953125,0.4940032958984375,0.766319892094386
1785514958.625973,-0.0351562462747097,-0.1767578125,0.9824218153953552,0.9988152528353873,0.0972747802734375,0.2918243408203125,0.2498626708984375,0.39630188377164743
1785514958.636675,-0.0498046800494194,-0.18408203125,0.9814452528953552,0.9998007225516387,0.5245208740234375,0.2918243408203125,-0.1163482666015625,0.6114086295782134
1785514958.644663,-0.0253906212747097,-0.17626953125,0.9692382216453552,0.9854635262626726,0.2193450927734375,0.4749298095703125,-0.3604888916015625,0.6353131784485541
1785514958.652652,-0.0410156212747097,-0.1689453125,0.9785155653953552,0.9938397816173715,0.217437744140625,0.3509521484375,-0.1773834228515625,0.44934559280402114
1785514958.66064,-0.0380859337747097,-0.166015625,0.9692382216453552,0.98409067488412,0.1583099365234375,0.1087188720703125,-0.6046295166015625,0.6343963126407143
1785514958.668629,-0.0512695275247097,-0.17333984375,0.9716796278953552,0.9883504262915747,0.2803802490234375,-0.3185272216796875,-0.6046295166015625,0.7386809374413724
1785514958.679278,-0.0498046837747097,-0.17138671875,0.9619140028953552,0.9783314688059236,0.2803802490234375,-0.3795623779296875,-0.1163482666015625,0.48602222369277726
1785514958.689927,-0.0595703087747097,-0.1630859375,0.9726561903953552,0.9880312289660553,-0.0247955322265625,-0.4405975341796875,-0.5435943603515625,0.7001684327000495
1785514958.700577,-0.0454101525247097,-0.16064453125,0.9667968153953552,0.9811038832006783,-0.0247955322265625,-0.3795623779296875,0.0057220458984375,0.38041445683267777
1785514958.711468,-0.0478515587747097,-0.18212890625,0.9790038466453552,0.9969499696150218,-0.2079010009765625,-0.3795623779296875,-0.0553131103515625,0.4362911471981293
1785514958.722361,-0.0395507775247097,-0.166015625,0.9775390028953552,0.9923245204712997,-0.087738037109375,-0.3204345703125,-0.1773834228515625,0.37661805016448535
1785514958.733254,-0.0512695275247097,-0.17041015625,0.9809569716453552,0.9969677858513697,0.0972747802734375,0.1697540283203125,-0.1163482666015625,0.2276306924590954
1785514958.741083,-0.04296875,-0.169921875,0.9726561903953552,0.9883217197828265,0.0972747802734375,0.0476837158203125,0.0057220458984375,0.10848438339660549
1785514958.748914,-0.0419921837747097,-0.171875,0.9750975966453552,0.991019516511515,-0.087738037109375,0.1678466796875,0.1277923583984375,0.22847616484648675
1785514958.756746,-0.0478515587747097,-0.1708984375,0.9721679091453552,0.9882340265287178,0.156402587890625,0.0457763671875,0.0667572021484375,0.1761072665464343
1785514958.764576,-0.0278320275247097,-0.16650390625,0.9731444716453552,0.9876782549224026,0.2803802490234375,0.3528594970703125,0.0057220458984375,0.4507279118541723
1785514958.77526,-0.0478515587747097,-0.171875,0.9726561903953552,0.9888836392703516,-0.0858306884765625,0.2918243408203125,-0.1773834228515625,0.35212672673642204
1785514958.785944,-0.0449218712747097,-0.16943359375,0.9687499403953552,0.984480657111081,-0.0247955322265625,0.0476837158203125,-0.3604888916015625,0.36447331334537225
1785514958.796628,-0.0498046800494194,-0.1787109375,0.9638671278953552,0.9815589363732546,0.2803802490234375,0.3528594970703125,-0.4215240478515625,0.6170943458113395
1785514958.807304,-0.0424804650247097,-0.1953125,0.9643554091453552,0.9848517237192973,-0.0247955322265625,0.2918243408203125,-0.9708404541015625,1.0140549549377176
1785514958.817978,-0.0405273400247097,-0.17236328125,0.9765624403953552,0.9924846427041966,0.1583099365234375,0.1087188720703125,-0.4825592041015625,0.5193700170489526
1785514958.828652,-0.0454101525247097,-0.17138671875,0.9819335341453552,0.9978120839092882,0.0972747802734375,0.3528594970703125,-0.4825592041015625,0.6056695410973651
1785514958.83675,-0.0493164025247097,-0.17626953125,0.9741210341453552,0.9911684238157964,0.034332275390625,0.0457763671875,-0.2384185791015625,0.24518890632977372
1785514958.844848,-0.0454101525247097,-0.1591796875,0.9614257216453552,0.9755714597640744,0.0972747802734375,0.2307891845703125,0.0667572021484375,0.25919597726539406
1785514958.852947,-0.0454101525247097,-0.16748046875,0.9755858778953552,0.990898377490794,0.3414154052734375,-0.1964569091796875,0.0667572021484375,0.3995201123362238
1785514958.861044,-0.0449218675494194,-0.17333984375,0.9746093153953552,0.9909227988449982,0.2193450927734375,0.0476837158203125,0.0667572021484375,0.23418482127778387
1785514958.871577,-0.0336913987994194,-0.17333984375,0.9716796278953552,0.9875946086584272,0.0362396240234375,-0.0133514404296875,0.2498626708984375,0.2528298353031313
1785514958.88211,-0.04296875,-0.17822265625,0.9760741591453552,0.9931416781248688,0.2803802490234375,-0.1354217529296875,0.3108978271484375,0.44001090229062945
1785514958.892643,-0.0512695275247097,-0.185546875,0.9750975966453552,0.9939172652984857,-0.148773193359375,0.0457763671875,0.3719329833984375,0.4031911246479679
1785514958.90333,-0.0454101525247097,-0.169921875,0.9741210341453552,0.9898723729452445,0.3414154052734375,-0.1964569091796875,0.3719329833984375,0.5417508101167214
1785514958.914016,-0.0512695275247097,-0.171875,0.9731444716453552,0.9895351144711968,0.339508056640625,-0.1373291015625,0.3719329833984375,0.5219761937095596
1785514958.924702,-0.04248046875,-0.17333984375,0.9643554091453552,0.9807306698601811,0.034332275390625,-0.1373291015625,0.1888275146484375,0.23599537613641297
1785514958.932696,-0.0380859337747097,-0.17626953125,0.9638671278953552,0.9805923343754158,0.4024505615234375,-0.1964569091796875,0.0057220458984375,0.44787778851404314
1785514958.940689,-0.0400390550494194,-0.17822265625,0.9536132216453552,0.9709503682613697,0.7076263427734375,-0.5016326904296875,0.0667572021484375,0.8699579996375253
1785514958.948683,-0.0405273400247097,-0.1728515625,0.9697265028953552,0.985844621817163,0.2803802490234375,-0.1354217529296875,0.1888275146484375,0.36415376628191015
1785514958.956675,-0.0498046837747097,-0.1650390625,0.9687499403953552,0.983968925166228,0.156402587890625,-0.011444091796875,0.3108978271484375,0.34820998788311586
1785514958.967345,-0.0410156212747097,-0.17041015625,0.9648436903953552,0.9806351255372346,0.0972747802734375,0.1697540283203125,-0.1163482666015625,0.2276306924590954
1785514958.978015,-0.0498046800494194,-0.17333984375,0.9804686903953552,0.9969182817220689,0.2803802490234375,0.0476837158203125,-0.2994537353515625,0.41298832963278853
1785514958.988685,-0.0341796837747097,-0.17578125,0.9667968153953552,0.983241262810457,0.2193450927734375,0.1087188720703125,0.0667572021484375,0.25374906286864635
1785514958.996667,-0.0356445237994194,-0.17333984375,0.9750975966453552,0.9910260120156835,0.2803802490234375,-0.1354217529296875,-0.0553131103515625,0.3162462258838171
1785514959.004648,-0.0361328087747097,-0.16552734375,0.9824218153953552,0.9969240215601116,0.2193450927734375,-0.0133514404296875,0.0057220458984375,0.21982555014055855
1785514959.01263,-0.0375976525247097,-0.1728515625,0.9726561903953552,0.98861079846847,0.2803802490234375,0.4138946533203125,-0.0553131103515625,0.5029725720815705
1785514959.02061,-0.0463867150247097,-0.16796875,0.9692382216453552,0.9847781265877085,0.0972747802734375,0.1697540283203125,0.3108978271484375,0.36733672826691144
1785514959.031321,-0.0463867150247097,-0.1865234375,0.9667968153953552,0.9857174049017298,0.2803802490234375,0.1697540283203125,0.0667572021484375,0.3344937042936767
1785514959.042032,-0.0444335862994194,-0.1845703125,0.9726561903953552,0.9910098932715965,0.2193450927734375,-0.1964569091796875,0.4329681396484375,0.5236114941813756
1785514959.052743,-0.0444335900247097,-0.177734375,0.9775390028953552,0.9945583714195814,0.339508056640625,-0.2593994140625,0.6771087646484375,0.8006435259861877
1785514959.063356,-0.052734375,-0.17822265625,0.9755858778953552,0.9931324356078082,0.2193450927734375,-0.4405975341796875,1.0433197021484375,1.1535833120065986
1785514959.073972,-0.0366210900247097,-0.18212890625,0.9741210341453552,0.9916772821290379,0.5855560302734375,-0.1964569091796875,0.7991790771484375,1.0100289001339768
1785514959.084586,-0.0415039025247097,-0.171875,0.9824218153953552,0.9982064981327691,0.888824462890625,-0.3204345703125,0.5550384521484375,1.0957896344862448
1785514959.092854,-0.0244140587747097,-0.162109375,0.9663085341453552,0.980116155815672,0.7686614990234375,0.1697540283203125,0.4329681396484375,0.898397651467634
1785514959.10112,-0.0341796837747097,-0.17236328125,0.9746093153953552,0.9903235174232755,0.5855560302734375,0.2307891845703125,0.2498626708984375,0.67717860761598
1785514959.109385,-0.0366210900247097,-0.162109375,0.9628905653953552,0.9771278292142105,0.5245208740234375,0.2918243408203125,-0.0553131103515625,0.602779506418628
1785514959.117651,-0.0483398362994194,-0.1748046875,0.9736327528953552,0.990380813655038,-0.02288818359375,0.6561279296875,0.0057220458984375,0.6565519559589248
1785514959.12586,-0.0419921837747097,-0.16455078125,0.9599608778953552,0.9748667550992676,-0.02288818359375,0.3509521484375,0.1277923583984375,0.3741953584775644
1785514959.134069,-0.0322265587747097,-0.16796875,0.9707030653953552,0.9856553623021393,-0.1468658447265625,0.1087188720703125,-0.0553131103515625,0.19091597541392882
1785514959.142278,-0.0527343712747097,-0.17578125,0.9702147841453552,0.987419206385778,-0.5130767822265625,0.1087188720703125,-0.0553131103515625,0.5273775855883226
1785514959.150487,-0.0595703050494194,-0.17431640625,0.9746093153953552,0.9918659931598617,-0.6961822509765625,-0.0743865966796875,0.1277923583984375,0.7117120058039028
1785514959.160605,-0.0532226525247097,-0.17138671875,0.9677733778953552,0.9842719995350084,-0.6961822509765625,-0.1354217529296875,-0.0553131103515625,0.7113847889279802
1785514959.170723,-0.0581054612994194,-0.1806640625,0.9853515028953552,1.0034606780387347,-0.5130767822265625,-0.1964569091796875,0.1888275146484375,0.5809465826672064
1785514959.180841,-0.0512695275247097,-0.1669921875,0.9672850966453552,0.982932049193054,-0.820159912109375,-0.2593994140625,0.3719329833984375,0.937168331510881
1785514959.191433,-0.0463867150247097,-0.17724609375,0.9633788466453552,0.980646066246203,-0.2689361572265625,-0.3795623779296875,0.1888275146484375,0.5020458999849866
1785514959.202024,-0.0498046837747097,-0.17138671875,0.9633788466453552,0.9797717673282514,-0.3910064697265625,-0.0743865966796875,0.4329681396484375,0.5881163448538432
1785514959.212615,-0.0405273400247097,-0.18017578125,0.9628905653953552,0.9804407265948886,-0.3910064697265625,-0.2574920654296875,0.6160736083984375,0.7737796288946531
1785514959.22062,-0.0468749962747097,-0.1728515625,0.9824218153953552,0.9986128135063914,0.2803802490234375,0.1697540283203125,0.4940032958984375,0.59284801638526
1785514959.228625,-0.0458984337747097,-0.16650390625,0.9765624403953552,0.9917179120145062,0.156402587890625,0.0457763671875,0.4940032958984375,0.5201889095802492
1785514959.23663,-0.0400390587747097,-0.17724609375,0.9711913466453552,0.9880445009087481,0.5245208740234375,-0.0743865966796875,0.3108978271484375,0.6142580662698024
1785514959.244635,-0.0444335900247097,-0.18212890625,0.9721679091453552,0.9900786463641951,0.339508056640625,0.2288818359375,0.2498626708984375,0.47967068875898117
1785514959.255374,-0.04296875,-0.173828125,0.9575194716453552,0.9741180981264943,0.4634857177734375,0.0476837158203125,0.3719329833984375,0.5961768961256829
1785514959.266114,-0.0361328087747097,-0.17529296875,0.9687499403953552,0.985144482692332,0.5245208740234375,0.1087188720703125,0.2498626708984375,0.59107807837802
1785514959.276852,-0.0361328087747097,-0.1728515625,0.9833983778953552,0.9991274253947076,0.6465911865234375,-0.0743865966796875,0.1888275146484375,0.6776941482288888
1785514959.287448,-0.0512695275247097,-0.16845703125,0.9672850966453552,0.9831819740121279,0.522613525390625,0.2288818359375,0.2498626708984375,0.6228508216674672
1785514959.298046,-0.0341796800494194,-0.17822265625,0.9692382216453552,0.9860802685518746,0.339508056640625,0.3509521484375,0.1277923583984375,0.5047415357208336
1785514959.308644,-0.0493164025247097,-0.16748046875,0.9833983778953552,0.9987763436415156,0.4634857177734375,0.3528594970703125,-0.1163482666015625,0.5940250452580772
1785514959.316634,-0.0507812462747097,-0.16943359375,0.9570311903953552,0.9732395270712156,0.2193450927734375,0.4749298095703125,0.2498626708984375,0.5797430017264392
1785514959.324624,-0.03271484375,-0.1640625,0.9633788466453552,0.9777962809663227,0.4024505615234375,-0.1964569091796875,0.1888275146484375,0.48602222369277726
1785514959.332614,-0.0546874925494194,-0.16943359375,0.9653319716453552,0.9816131009787368,-0.0247955322265625,-0.1354217529296875,0.4329681396484375,0.45432948345399804
1785514959.340604,-0.0317382775247097,-0.15625,0.9814452528953552,0.9943119053853591,0.3414154052734375,-0.1964569091796875,0.5550384521484375,0.680608168835634
1785514959.351389,-0.0390624962747097,-0.1630859375,0.9653319716453552,0.9797901393187086,0.339508056640625,-0.499725341796875,0.0667572021484375,0.6078220642561314
1785514959.362175,-0.0278320275247097,-0.162109375,0.9716796278953552,0.985502597909251,-0.0247955322265625,0.0476837158203125,-0.1163482666015625,0.12816190664163468
1785514959.372959,-0.0458984337747097,-0.18359375,0.9707030653953552,0.9889781455775315,0.2803802490234375,0.2918243408203125,-0.2994537353515625,0.5034352684841005
1785514959.383526,-0.0498046837747097,-0.17626953125,0.9819335341453552,0.9988718234349095,0.156402587890625,0.5340576171875,-0.2994537353515625,0.6319429148197475
1785514959.394092,-0.0463867150247097,-0.15087890625,0.9687499403953552,0.981525658705866,0.2803802490234375,0.3528594970703125,-0.4825592041015625,0.6602925822529677
1785514959.404658,-0.04248046875,-0.1787109375,0.9697265028953552,0.9869709619968584,0.4024505615234375,-0.1964569091796875,-0.1163482666015625,0.4627079973116462
1785514959.412664,-0.0556640587747097,-0.16650390625,0.9692382216453552,0.985010034737735,0.156402587890625,-0.194549560546875,-0.1163482666015625,0.2754055557701317
1785514959.42067,-0.0493163987994194,-0.1796875,0.9741210341453552,0.9917819790716151,0.156402587890625,-0.499725341796875,-0.1773834228515625,0.5528580879714291
1785514959.428674,-0.0478515587747097,-0.17041015625,0.9633788466453552,0.979504055731294,0.2193450927734375,-0.1964569091796875,-0.0553131103515625,0.29961162705240263
1785514959.436679,-0.0585937462747097,-0.17626953125,0.9741210341453552,0.991673315116433,-0.0858306884765625,-0.0743865966796875,0.0057220458984375,0.11372341297732425
1785514959.447336,-0.03662109375,-0.16845703125,0.9648436903953552,0.9801235752601495,0.034332275390625,-0.3204345703125,0.1888275146484375,0.37351418885118687
1785514959.457994,-0.0561523400247097,-0.1689453125,0.9702147841453552,0.9864138742334231,-0.0247955322265625,-0.0743865966796875,0.0057220458984375,0.07861886537752132
1785514959.468651,-0.0468749962747097,-0.1845703125,0.9702147841453552,0.98872655112843,0.2193450927734375,-0.1964569091796875,0.3108978271484375,0.4282114498864359
1785514959.479319,-0.0356445275247097,-0.1650390625,0.9726561903953552,0.9872023547417946,0.5245208740234375,-0.0133514404296875,0.2498626708984375,0.5811469371478776
1785514959.489986,-0.0468749962747097,-0.16796875,0.9687499403953552,0.984320686193438,-0.0247955322265625,0.0476837158203125,0.0667572021484375,0.08570343757118595
1785514959.500654,-0.0419921837747097,-0.16748046875,0.9736327528953552,0.9888244477264286,0.2193450927734375,0.1087188720703125,0.0667572021484375,0.25374906286864635
1785514959.508683,-0.0395507775247097,-0.177734375,0.9843749403953552,1.0010733216592123,0.0972747802734375,-0.2574920654296875,-0.1773834228515625,0.32745904375819007
1785514959.516712,-0.0429687462747097,-0.166015625,0.9663085341453552,0.9814069920592099,0.0972747802734375,0.1087188720703125,-0.2994537353515625,0.3330986575137915
1785514959.524741,-0.0419921837747097,-0.171875,0.9750975966453552,0.991019516511515,0.400543212890625,0.3509521484375,-0.3604888916015625,0.6430820451962289
1785514959.53277,-0.0419921875,-0.17333984375,0.9785155653953552,0.9946369975841947,0.217437744140625,0.3509521484375,-0.2384185791015625,0.47674941209263066
1785514959.543442,-0.0346679650247097,-0.17041015625,0.9765624403953552,0.9919252437270843,0.0362396240234375,0.5970001220703125,0.0667572021484375,0.6018130774086049
1785514959.554114,-0.0439453050494194,-0.16845703125,0.9853515028953552,1.000613084799307,0.034332275390625,0.5340576171875,-0.1773834228515625,0.5637917366475179
1785514959.564786,-0.0449218712747097,-0.16943359375,0.9809569716453552,0.9964950062240593,0.156402587890625,0.293731689453125,-0.1163482666015625,0.35252942292673956
1785514959.575403,-0.0439453050494194,-0.18408203125,0.9824218153953552,1.0004848861575661,0.2193450927734375,0.2307891845703125,0.3108978271484375,0.4450094115454609
1785514959.58602,-0.0556640587747097,-0.17724609375,0.9736327528953552,0.9911989723055084,0.2803802490234375,0.1697540283203125,0.0057220458984375,0.3278143620750654
1785514959.596637,-0.0551757737994194,-0.17333984375,0.9711913466453552,0.9880808161504087,0.0362396240234375,-0.0133514404296875,0.1888275146484375,0.1927366119843697
1785514959.604654,-0.0546874962747097,-0.1748046875,0.9672850966453552,0.984473391825794,-0.148773193359375,0.1678466796875,-0.0553131103515625,0.23100976412530344
1785514959.61267,-0.0444335900247097,-0.166015625,0.9658202528953552,0.9809914844530877,0.2803802490234375,-0.2574920654296875,0.1277923583984375,0.40155464717361444
1785514959.620686,-0.0405273400247097,-0.185546875,0.9785155653953552,0.996776213516723,0.156402587890625,-0.0762939453125,0.0057220458984375,0.17411282950861273
1785514959.628702,-0.0429687462747097,-0.16748046875,0.9721679091453552,0.9874241561462793,0.2193450927734375,-0.3795623779296875,0.1277923583984375,0.45662977928346016
1785514959.639332,-0.0463867150247097,-0.1708984375,0.9794921278953552,0.9953707007340009,0.2803802490234375,-0.2574920654296875,0.3719329833984375,0.5322117923734438
1785514959.649962,-0.0458984337747097,-0.17578125,0.9628905653953552,0.9798795614777975,0.339508056640625,-0.682830810546875,0.4329681396484375,0.8769179244984248
1785514959.660592,-0.0512695275247097,-0.17236328125,0.9741210341453552,0.990580362383734,0.217437744140625,-0.6256103515625,0.2498626708984375,0.7078833511727901
1785514959.671283,-0.04248046875,-0.173828125,0.9711913466453552,0.9875390822975331,0.2803802490234375,-0.0743865966796875,0.1277923583984375,0.3169816030514484
1785514959.681972,-0.0439453050494194,-0.1689453125,0.9716796278953552,0.9872360445802539,0.156402587890625,-0.194549560546875,-0.1163482666015625,0.2754055557701317
1785514959.692661,-0.0380859337747097,-0.1708984375,0.9692382216453552,0.9849261619987987,0.034332275390625,0.0457763671875,0.1277923583984375,0.1400180980852734
1785514959.700655,-0.04296875,-0.16943359375,0.9775390028953552,0.9930440868104738,0.0972747802734375,0.1087188720703125,-0.1163482666015625,0.1865987544510273
1785514959.708651,-0.0478515587747097,-0.1611328125,0.9794921278953552,0.9938100339352086,0.156402587890625,-0.0762939453125,0.0057220458984375,0.17411282950861273
1785514959.716645,-0.0522460900247097,-0.162109375,0.9858397841453552,1.000444492907788,0.4634857177734375,-0.0133514404296875,0.0667572021484375,0.468458958266563
1785514959.724641,-0.0405273400247097,-0.1728515625,0.9755858778953552,0.9916087600949383,0.0972747802734375,-0.0743865966796875,0.1888275146484375,0.22505905654102862
1785514959.735337,-0.0444335900247097,-0.17578125,0.9721679091453552,0.9889306524454069,0.217437744140625,0.1678466796875,0.0057220458984375,0.27474428523328004
1785514959.746032,-0.0449218712747097,-0.17041015625,0.9692382216453552,0.9851295986672117,0.400543212890625,0.1678466796875,0.1888275146484375,0.4735643605289239
1785514959.756728,-0.0468749962747097,-0.17236328125,0.9887694716453552,1.0047743199628738,0.0972747802734375,0.1697540283203125,0.0667572021484375,0.20672526949288603
1785514959.767478,-0.0375976525247097,-0.177734375,0.9809569716453552,0.9976370440955146,0.2803802490234375,-0.1354217529296875,0.1277923583984375,0.3365754329626998
1785514959.778229,-0.0400390587747097,-0.17041015625,0.9790038466453552,0.9945306829490562,0.217437744140625,0.1678466796875,-0.3604888916015625,0.45321509399754684
1785514959.788978,-0.0439453087747097,-0.1669921875,0.9804686903953552,0.9955583527322357,0.2193450927734375,0.4138946533203125,0.1888275146484375,0.5050513677431588
1785514959.799546,-0.0532226525247097,-0.17138671875,0.9628905653953552,0.9794714385999442,0.156402587890625,0.1678466796875,0.0057220458984375,0.22949296109089432
1785514959.810112,-0.0468749962747097,-0.16650390625,0.9892577528953552,1.0042667562634096,0.034332275390625,-0.1373291015625,0.3108978271484375,0.34160715185001744
1785514959.820678,-0.0478515587747097,-0.1767578125,0.9750975966453552,0.9921433459639301,-0.0858306884765625,-0.2574920654296875,0.6160736083984375,0.673213013695278
1785514959.828684,-0.0356445275247097,-0.18115234375,0.9741210341453552,0.9914628047249147,0.0972747802734375,-0.6237030029296875,0.6771087646484375,0.9257127512919374
1785514959.836688,-0.0356445275247097,-0.17578125,0.9770507216453552,0.9933769137954293,0.156402587890625,-0.499725341796875,0.8602142333984375,1.007052984740202
1785514959.844693,-0.0454101525247097,-0.17431640625,0.9726561903953552,0.9891958128473037,0.2193450927734375,-0.5626678466796875,0.9212493896484375,1.101547916950762
1785514959.852698,-0.0273437462747097,-0.1630859375,0.9658202528953552,0.9798742084438377,0.3414154052734375,-0.1964569091796875,0.6160736083984375,0.7312362730934051
1785514959.862304,-0.0537109337747097,-0.16162109375,0.9692382216453552,0.9840878886817723,0.4024505615234375,0.2307891845703125,0.3719329833984375,0.5946126859770335
1785514959.87191,-0.02783203125,-0.1689453125,0.9580077528953552,0.9731885712372662,0.339508056640625,0.6561279296875,0.0057220458984375,0.7387843544967385
1785514959.881516,-0.0434570275247097,-0.1611328125,0.9663085341453552,0.9806143378859952,0.156402587890625,0.965118408203125,-0.2384185791015625,1.0063591457388492
1785514959.891122,-0.0439453087747097,-0.16796875,0.9697265028953552,0.9851467817323074,-0.148773193359375,0.965118408203125,-0.2384185791015625,1.00520168313413
1785514959.900728,-0.0332031212747097,-0.1767578125,0.9770507216453552,0.9934655928666466,-0.2689361572265625,0.7190704345703125,-0.4215240478515625,0.8758261639469871
1785514959.908696,-0.0537109300494194,-0.16796875,0.9892577528953552,1.004852858207063,-0.2689361572265625,0.7190704345703125,-0.2994537353515625,0.8240518710329661
1785514959.916664,-0.0546874962747097,-0.15966796875,0.9785155653953552,0.9929638937114175,-0.6351470947265625,0.2918243408203125,-0.5435943603515625,0.8854762032041444
1785514959.924632,-0.0517578087747097,-0.158203125,0.9672850966453552,0.9815027038786696,-0.8792877197265625,-0.0133514404296875,-0.3604888916015625,0.9504090677132707
1785514959.9326,-0.0556640587747097,-0.17529296875,0.9643554091453552,0.9817369645074837,-0.6961822509765625,-0.5626678466796875,-0.3604888916015625,0.9649958928565825
1785514959.94334,-0.0419921837747097,-0.17236328125,0.9648436903953552,0.981017732315356,-0.6351470947265625,-0.6847381591796875,-0.4215240478515625,1.024675900708876
1785514959.954081,-0.0512695275247097,-0.1796875,0.9750975966453552,0.9928401105376459,-0.4520416259765625,0.1087188720703125,-1.0929107666015625,1.1876932973261196
1785514959.96482,-0.0581054650247097,-0.17138671875,0.9653319716453552,0.982148394037448,0.0362396240234375,0.4138946533203125,-0.6046295166015625,0.7336204377894204
1785514959.975406,-0.0512695275247097,-0.18212890625,0.9921874403953552,1.0100670372914438,-0.148773193359375,-0.1373291015625,1.1043548583984375,1.1227610602735305
1785514959.985992,-0.0449218712747097,-0.17529296875,0.9780272841453552,0.9946270496747761,-0.331878662109375,-0.3204345703125,1.0433197021484375,1.1407619213078466
1785514959.996578,-0.0463867150247097,-0.16650390625,0.9746093153953552,0.9898174557880334,0.0362396240234375,-0.7457733154296875,1.1043548583984375,1.3330756923838125
1785514960.00726,-0.0415039025247097,-0.1796875,0.9697265028953552,0.9871067125689532,-0.0858306884765625,-0.1964569091796875,1.1653900146484375,1.184945614992976
1785514960.017944,-0.0400390587747097,-0.1806640625,0.9667968153953552,0.9843468453574528,-0.02288818359375,-0.3204345703125,0.9822845458984375,1.0334820326984293
1785514960.028629,-0.0302734337747097,-0.1806640625,0.9707030653953552,0.98783623411953,0.0362396240234375,-0.5016326904296875,0.7381439208984375,0.8931993699149174
1785514960.036655,-0.0283203087747097,-0.16748046875,0.9770507216453552,0.9917055308757353,0.522613525390625,-0.499725341796875,-0.6046295166015625,0.9425641445021448
1785514960.04468,-0.0356445275247097,-0.18212890625,0.9711913466453552,0.9887639266443227,0.7686614990234375,-0.1964569091796875,-0.7266998291015625,1.0758849654408384
1785514960.052706,-0.0400390587747097,-0.16796875,0.9819335341453552,0.9970005479854636,0.4634857177734375,0.2307891845703125,-0.9098052978515625,1.0468181973453454
1785514960.06073,-0.0419921837747097,-0.1748046875,0.9746093153953552,0.9910516333297396,0.4634857177734375,0.2307891845703125,-0.9708404541015625,1.1002789853554036
1785514960.071375,-0.0424804650247097,-0.166015625,0.9741210341453552,0.9890791509365024,0.6465911865234375,0.0476837158203125,-1.0318756103515625,1.2186554781736423
1785514960.08202,-0.0546874962747097,-0.17578125,0.9746093153953552,0.9918432778195161,0.2193450927734375,0.7801055908203125,-0.7266998291015625,1.0884712417740474
1785514960.092665,-0.0517578087747097,-0.17724609375,0.9760741591453552,0.9933860340623405,0.0972747802734375,0.7801055908203125,-0.7266998291015625,1.0705698283262959
1785514960.10345,-0.06689453125,-0.16015625,0.9643554091453552,0.9798501201067055,0.217437744140625,0.6561279296875,0.1277923583984375,0.7029323719661825
1785514960.114236,-0.0449218712747097,-0.1748046875,0.9687499403953552,0.9854192510331826,-0.2689361572265625,0.4749298095703125,0.6771087646484375,0.8696903241073898
1785514960.125022,-0.0488281175494194,-0.154296875,0.9614257216453552,0.9749518598061535,-0.1468658447265625,0.1087188720703125,1.0433197021484375,1.059200344780246
1785514960.135679,-0.0356445275247097,-0.169921875,0.9736327528953552,0.9889917661217222,0.034332275390625,0.3509521484375,0.4329681396484375,0.5583972829241056
1785514960.146336,-0.0473632775247097,-0.1806640625,0.9755858778953552,0.9933028685580937,0.156402587890625,1.2054443359375,0.1277923583984375,1.2222473986095121
1785514960.156992,-0.0424804650247097,-0.15185546875,0.9731444716453552,0.9858371244743805,0.400543212890625,0.8392333984375,-0.6656646728515625,1.1436157655122974
1785514960.164917,-0.046875,-0.17822265625,0.9658202528953552,0.9832442940229318,0.7076263427734375,0.9021759033203125,-0.2384185791015625,1.171110507330346
1785514960.17284,-0.0444335900247097,-0.166015625,0.9799804091453552,0.9949357436414286,0.4634857177734375,0.5970001220703125,-0.2384185791015625,0.7925096688323333
1785514960.180763,-0.0541992150247097,-0.17041015625,0.9721679091453552,0.9884774250505146,0.2803802490234375,0.4749298095703125,-0.1163482666015625,0.5636562136640795
1785514960.188686,-0.0458984337747097,-0.1572265625,0.9653319716453552,0.9791285276506076,0.0972747802734375,0.2918243408203125,0.1277923583984375,0.3330986575137915
1785514960.19933,-0.0624999962747097,-0.16015625,0.9790038466453552,0.9939843085757458,0.0972747802734375,-0.1964569091796875,1.0433197021484375,1.0661021062416047
1785514960.209975,-0.0488281212747097,-0.166015625,0.9682616591453552,0.9836035856696916,0.3414154052734375,-0.1964569091796875,1.0433197021484375,1.115202132805334
1785514960.220618,-0.0522460900247097,-0.171875,0.9692382216453552,0.9857450988192236,-0.148773193359375,-0.6256103515625,1.4095306396484375,1.5492896434018508
1785514960.231301,-0.0356445275247097,-0.1787109375,0.9829100966453552,0.9996601370525736,-0.148773193359375,-0.4425048828125,0.7381439208984375,0.8733844985655339
1785514960.241986,-0.0361328087747097,-0.16943359375,0.9633788466453552,0.9788320206882919,-0.0858306884765625,-0.5016326904296875,0.7381439208984375,0.8965816812490685
1785514960.252671,-0.0175781212747097,-0.18505859375,0.9702147841453552,0.9878625414714813,-0.148773193359375,-0.4425048828125,0.0667572021484375,0.47159363695234235
1785514960.260665,-0.0200195275247097,-0.1611328125,0.9755858778953552,0.9890057481609112,-0.2689361572265625,-0.5016326904296875,-0.7877349853515625,0.9718479407388501
1785514960.268661,-0.02880859375,-0.17529296875,0.9907225966453552,1.006523136083198,-0.2689361572265625,-0.0743865966796875,-1.1539459228515625,1.187203106168073
1785514960.276655,-0.0527343712747097,-0.1748046875,0.9750975966453552,0.9920448153532477,0.0362396240234375,0.2918243408203125,-0.7877349853515625,0.8408336121917322
1785514960.284651,-0.0463867150247097,-0.17578125,0.9790038466453552,0.9957405821441387,0.2803802490234375,-0.0133514404296875,-0.4215240478515625,0.5064324909809388
1785514960.29285,-0.0302734337747097,-0.162109375,0.9765624403953552,0.990388878292933,0.3414154052734375,-0.5626678466796875,-0.4215240478515625,0.7815638857843601
1785514960.30105,-0.03759765625,-0.17822265625,0.9780272841453552,0.9948438407554415,0.2803802490234375,-0.3795623779296875,-0.5435943603515625,0.719844088249746
1785514960.30925,-0.0302734337747097,-0.16748046875,0.9570311903953552,0.9720467517536294,0.3414154052734375,0.1087188720703125,-0.6046295166015625,0.7028236794873275
1785514960.317451,-0.0468749962747097,-0.1845703125,0.9731444716453552,0.991601547107516,-0.3910064697265625,0.4138946533203125,-0.9098052978515625,1.0732849218236233
1785514960.327991,-0.0415039025247097,-0.1650390625,0.9677733778953552,0.9826218891509824,-0.02288818359375,0.1678466796875,-0.6656646728515625,0.6868812368327709
1785514960.338532,-0.0488281175494194,-0.16943359375,0.9780272841453552,0.9937953996106036,-0.02288818359375,0.1678466796875,-0.2994537353515625,0.3440478403454134
1785514960.349073,-0.0336913987994194,-0.1630859375,0.9702147841453552,0.9844027939504914,0.156402587890625,0.293731689453125,-0.3604888916015625,0.49060403163446875
1785514960.359586,-0.0522460900247097,-0.18115234375,0.9677733778953552,0.9859671072261864,-0.02288818359375,0.8392333984375,0.1888275146484375,0.8605186786406689
1785514960.370101,-0.0478515587747097,-0.158203125,0.9731444716453552,0.9870806264590815,0.0362396240234375,0.1087188720703125,0.4329681396484375,0.44787778851404314
1785514960.380616,-0.037109375,-0.173828125,0.9741210341453552,0.9902045808409101,-0.02288818359375,0.1678466796875,0.4940032958984375,0.5222409723383054
1785514960.388631,-0.0395507775247097,-0.18017578125,0.9604491591453552,0.9780031510454743,0.156402587890625,0.0457763671875,0.8602142333984375,0.8755145759112357
1785514960.396643,-0.0449218712747097,-0.1630859375,0.9736327528953552,0.9882184652391713,0.2803802490234375,0.0476837158203125,0.3108978271484375,0.42136003574437014
1785514960.404656,-0.0590820237994194,-0.17822265625,0.9663085341453552,0.9843811171996271,0.0972747802734375,0.3528594970703125,0.3719329833984375,0.5218298110395972
1785514960.412669,-0.0473632775247097,-0.15283203125,0.9726561903953552,0.9857286515813006,0.0972747802734375,0.2918243408203125,0.6771087646484375,0.7437070040924643
1785514960.423326,-0.0532226525247097,-0.17724609375,0.9760741591453552,0.993463432967068,0.2193450927734375,0.0476837158203125,0.7991790771484375,0.8301043330991885
1785514960.433981,-0.0463867150247097,-0.1552734375,0.9711913466453552,0.9846188092468418,0.4024505615234375,-0.0743865966796875,0.9212493896484375,1.0080675861090542
1785514960.444638,-0.0502929650247097,-0.1572265625,0.9741210341453552,0.9880087871324624,0.46539306640625,-0.3204345703125,0.7991790771484375,0.9787523780110049
1785514960.455293,-0.0366210900247097,-0.1533203125,0.9916991591453552,1.0041491147779298,0.156402587890625,-0.4425048828125,0.2498626708984375,0.5316988763579343
1785514960.46595,-0.024414055049419403,-0.18408203125,0.9633788466453552,0.9811121457187333,0.156402587890625,-0.1373291015625,0.3108978271484375,0.3741370211038569
1785514960.476608,-0.0292968712747097,-0.1708984375,0.9819335341453552,0.9971248909166874,0.034332275390625,-0.8087158203125,-0.2994537353515625,0.8630599763476586
1785514960.487283,-0.0200195275247097,-0.18505859375,0.9731444716453552,0.9907863681424759,0.4024505615234375,-0.4405975341796875,-0.6656646728515625,0.8939810391044817
1785514960.497955,-0.0410156212747097,-0.169921875,0.9741210341453552,0.9896805110521689,-0.0247955322265625,-0.0743865966796875,-1.1539459228515625,1.1566068377152754
1785514960.508628,-0.0507812462747097,-0.16845703125,0.9814452528953552,0.9970914154587853,-0.2079010009765625,0.2307891845703125,-1.3370513916015625,1.372659060985415
1785514960.519298,-0.0415039025247097,-0.158203125,0.9790038466453552,0.9925720802193403,0.3414154052734375,0.2918243408203125,-0.2994537353515625,0.5398133607731834
1785514960.529969,-0.0478515625,-0.17822265625,0.9663085341453552,0.9837709440701338,0.339508056640625,0.3509521484375,0.0057220458984375,0.4883296763724837
1785514960.540641,-0.0527343712747097,-0.18115234375,0.9692382216453552,0.9874309170053912,0.034332275390625,0.1678466796875,-0.1163482666015625,0.20709450054698267
1785514960.548637,-0.0517578087747097,-0.17236328125,0.9833983778953552,0.9997301341560341,0.034332275390625,0.3509521484375,0.4329681396484375,0.5583972829241056
1785514960.556634,-0.0415039025247097,-0.16748046875,0.9877929091453552,1.0027497757144324,0.4634857177734375,0.2918243408203125,0.9212493896484375,1.0717653168500962
1785514960.564631,-0.0507812462747097,-0.18212890625,0.9516600966453552,0.9702611055855433,0.0972747802734375,-0.0133514404296875,1.1653900146484375,1.1695189310486078
1785514960.572628,-0.0341796837747097,-0.162109375,0.9863280653953552,1.0001453658505717,0.3414154052734375,-0.3795623779296875,0.8602142333984375,1.0003002574421973
1785514960.583298,-0.0390624925494194,-0.16943359375,0.9565429091453552,0.9722180609572488,0.2193450927734375,0.2307891845703125,0.7991790771484375,0.860269210648763
1785514960.593968,-0.0434570275247097,-0.1669921875,0.9848632216453552,0.999865225556418,0.156402587890625,-0.011444091796875,0.5550384521484375,0.5767672148269815
1785514960.604639,-0.0400390550494194,-0.18359375,0.9638671278953552,0.9820130504252751,-0.148773193359375,-0.011444091796875,0.4329681396484375,0.4579583389895091
1785514960.612642,-0.0322265587747097,-0.1748046875,0.9550780653953552,0.9714779157869554,-0.2079010009765625,-0.8068084716796875,-0.1773834228515625,0.8518377867198108
1785514960.620644,-0.0263671837747097,-0.1748046875,0.9868163466453552,1.0025260142054508,0.0362396240234375,-0.7457733154296875,-0.2384185791015625,0.7837949777953137
1785514960.628646,-0.0356445237994194,-0.17822265625,0.9711913466453552,0.9880518605197358,0.034332275390625,-0.4425048828125,-0.4825592041015625,0.6556314985641977
1785514960.636648,-0.0380859337747097,-0.17041015625,0.9882811903953552,1.0035884968421576,0.339508056640625,-0.9307861328125,-0.4215240478515625,1.0767130854954392
1785514960.647321,-0.0385742112994194,-0.1630859375,0.9687499403953552,0.9831385659222358,0.4024505615234375,0.2307891845703125,-0.4215240478515625,0.626827428485964
1785514960.657995,-0.0493164025247097,-0.1630859375,0.9726561903953552,0.9874660476606973,0.6465911865234375,0.7190704345703125,-0.4215240478515625,1.0549051972950418
1785514960.668667,-0.0502929650247097,-0.169921875,0.9672850966453552,0.9833835895146443,0.7686614990234375,1.0242462158203125,-0.0553131103515625,1.281787950824922
1785514960.67933,-0.0463867150247097,-0.173828125,0.9785155653953552,0.9949174116944537,0.5855560302734375,0.7190704345703125,0.4329681396484375,1.0234254073518763
1785514960.689995,-0.0493164025247097,-0.1708984375,0.9663085341453552,0.9825429083048056,0.0972747802734375,0.9021759033203125,0.6160736083984375,1.0967818535944778
1785514960.700658,-0.0600585900247097,-0.169921875,0.9697265028953552,0.986331571154917,-0.0858306884765625,1.0852813720703125,0.3719329833984375,1.1504506542163566
1785514960.711319,-0.033203125,-0.16357421875,0.9853515028953552,0.9993880911875895,-0.637054443359375,-0.011444091796875,0.5550384521484375,0.8450071090850726
1785514960.721979,-0.0410156212747097,-0.15966796875,0.9672850966453552,0.9812321843608247,-0.3910064697265625,0.0476837158203125,0.3719329833984375,0.5417508101167214
1785514960.73264,-0.0493163987994194,-0.18310546875,0.9843749403953552,1.002473811705353,-0.637054443359375,-0.3204345703125,-0.2384185791015625,0.7519043134043637
1785514960.74064,-0.04296875,-0.173828125,0.9643554091453552,0.9808383585818224,-0.3910064697265625,-0.5016326904296875,-0.6656646728515625,0.9206687092316832
1785514960.748642,-0.0439453050494194,-0.16943359375,0.9814452528953552,0.9969321526351501,-0.331878662109375,-0.194549560546875,-0.9098052978515625,0.9877948460440868
1785514960.756644,-0.0546874962747097,-0.1748046875,0.9755858778953552,0.992630447935998,-0.331878662109375,-0.194549560546875,-1.0318756103515625,1.1012539457867565
1785514960.764646,-0.0483398400247097,-0.17236328125,0.9794921278953552,0.9957161590864396,-0.0858306884765625,-0.0743865966796875,-0.4215240478515625,0.4365578950919495
1785514960.775295,-0.0600585862994194,-0.15869140625,0.9726561903953552,0.9873449553830175,0.2193450927734375,-0.2574920654296875,-0.0553131103515625,0.34274476459867115
1785514960.785944,-0.06640625,-0.189453125,0.9677733778953552,0.9883762378640606,0.0362396240234375,-0.5016326904296875,0.6771087646484375,0.8434601031588986
1785514960.796593,-0.0517578087747097,-0.17431640625,0.9702147841453552,0.9871077993974583,-0.087738037109375,-0.3204345703125,1.0433197021484375,1.0949393946234043
1785514960.804609,-0.0317382775247097,-0.185546875,0.9653319716453552,0.9835145024671522,0.0972747802734375,-0.6847381591796875,1.4095306396484375,1.5700653978805361
1785514960.812621,-0.0219726525247097,-0.15673828125,0.9726561903953552,0.9854490098338834,0.034332275390625,-0.988006591796875,0.8602142333984375,1.310459559814356
1785514960.820634,-0.020507805049419403,-0.19287109375,0.9580077528953552,0.977444977213487,0.217437744140625,-0.3204345703125,0.3719329833984375,0.5369279565900651
1785514960.828647,-0.033203125,-0.15869140625,0.9702147841453552,0.9836676965833464,0.4024505615234375,-0.2574920654296875,-0.2994537353515625,0.5638627118774394
1785514960.839425,-0.0366210900247097,-0.181640625,0.9755858778953552,0.99302680025961,0.4024505615234375,0.2918243408203125,-0.3604888916015625,0.6140685151787731
1785514960.850201,-0.0424804650247097,-0.15380859375,0.9731444716453552,0.9861398664053622,0.8907318115234375,0.5359649658203125,-0.9098052978515625,1.3814511517405759
1785514960.860978,-0.0444335900247097,-0.15234375,0.9697265028953552,0.9826252859071977,0.2803802490234375,0.1697540283203125,-0.6046295166015625,0.6877545830594352
1785514960.871516,-0.0449218712747097,-0.1826171875,0.9760741591453552,0.9940260438441962,0.0972747802734375,0.5970001220703125,-0.4825592041015625,0.7737796288946531
1785514960.882056,-0.0478515587747097,-0.15576171875,0.9687499403953552,0.9823583519882793,-0.02288818359375,0.6561279296875,-0.4215240478515625,0.7801988541271978
1785514960.892594,-0.06689453125,-0.17626953125,0.9780272841453552,0.9960337316029971,-0.148773193359375,0.7171630859375,0.0667572021484375,0.7354677959859502
1785514960.901632,-0.0439453050494194,-0.150390625,0.9912108778953552,1.0035175805046257,-0.1468658447265625,-0.1964569091796875,0.6771087646484375,0.7201674615500313
1785514960.910668,-0.0444335900247097,-0.185546875,0.9790038466453552,0.9974219360386816,-0.0247955322265625,0.2307891845703125,0.9212493896484375,0.950041527545321
1785514960.919705,-0.0507812462747097,-0.17529296875,0.9653319716453552,0.9824317662550973,0.339508056640625,0.0457763671875,0.5550384521484375,0.6522490932765733
1785514960.928742,-0.03662109375,-0.17333984375,0.9790038466453552,0.9949051902996199,0.2803802490234375,0.8411407470703125,0.6771087646484375,1.1156196124074644
1785514960.938043,-0.0488281212747097,-0.171875,0.9726561903953552,0.9889313756609319,0.28228759765625,0.6561279296875,0.5550384521484375,0.9045760505727947
1785514960.947344,-0.0473632775247097,-0.15625,0.9760741591453552,0.989635340268927,0.705718994140625,-0.1373291015625,0.2498626708984375,0.7611372643192027
1785514960.956645,-0.0463867150247097,-0.1796875,0.9589843153953552,0.9767754307727707,0.3414154052734375,0.1087188720703125,-0.0553131103515625,0.3625518063381159
1785514960.967402,-0.0473632775247097,-0.1728515625,0.9716796278953552,0.9880699580411451,0.217437744140625,-0.1373291015625,-0.2994537353515625,0.394729013791653
1785514960.978158,-0.0449218712747097,-0.16748046875,0.9829100966453552,0.9980881424097388,0.0972747802734375,-0.3795623779296875,-0.3604888916015625,0.5324304861528945
1785514960.988914,-0.0541992112994194,-0.18359375,0.9492186903953552,0.9683286331305166,0.4634857177734375,0.0476837158203125,-0.6656646728515625,0.8125282789029368
1785514960.996844,-0.0600585900247097,-0.171875,0.9663085341453552,0.9833108526925254,-0.0247955322265625,-0.5016326904296875,0.1277923583984375,0.5182480693559407
1785514961.004776,-0.0405273400247097,-0.1689453125,0.9746093153953552,0.989973889332746,-0.0858306884765625,-0.5626678466796875,-0.1773834228515625,0.5961768961256829
1785514961.012706,-0.0410156212747097,-0.1591796875,0.9785155653953552,0.9922263682356661,-0.2689361572265625,-0.4405975341796875,0.4329681396484375,0.6737315887945585
1785514961.020638,-0.0385742112994194,-0.1796875,0.9746093153953552,0.9917857052251888,-0.331878662109375,-0.499725341796875,0.0667572021484375,0.6035937273002425
1785514961.031299,-0.0502929650247097,-0.15234375,0.9707030653953552,0.9838711509455791,-0.5130767822265625,-0.0743865966796875,0.1277923583984375,0.5339588346404474
1785514961.041961,-0.0410156212747097,-0.1767578125,0.9863280653953552,1.0028801813052644,-0.4520416259765625,-0.1964569091796875,0.3108978271484375,0.582747293177403
1785514961.052623,-0.0219726525247097,-0.171875,0.9638671278953552,0.9793179531292239,0.0362396240234375,-0.2574920654296875,-0.1773834228515625,0.31477031755097684
1785514961.063299,-0.0395507737994194,-0.15966796875,0.9780272841453552,0.9917638289863283,0.4024505615234375,-0.1354217529296875,-0.1773834228515625,0.46018516310243607
1785514961.073976,-0.0419921837747097,-0.15234375,0.9638671278953552,0.9767352772883103,0.034332275390625,0.5340576171875,-0.2994537353515625,0.6132444726416143
1785514961.084653,-0.06640625,-0.18115234375,0.9863280653953552,1.0050218974090688,0.4634857177734375,0.5970001220703125,0.0057220458984375,0.7558180324265824
1785514961.092747,-0.052734375,-0.1494140625,0.9824218153953552,0.9951171286557678,0.2803802490234375,0.3528594970703125,0.4940032958984375,0.6687018506581822
1785514961.100843,-0.0424804650247097,-0.17529296875,0.9584960341453552,0.9753188515938149,0.339508056640625,0.2288818359375,0.9212493896484375,1.00814336940419
1785514961.108939,-0.0395507775247097,-0.17236328125,0.9750975966453552,0.9910038787560942,-0.2079010009765625,-0.1964569091796875,0.7381439208984375,0.7916278111150539
1785514961.117036,-0.0400390550494194,-0.16357421875,0.9726561903953552,0.9871270007872993,-0.5741119384765625,-0.5626678466796875,0.4940032958984375,0.943524710830083
1785514961.127589,-0.0380859337747097,-0.17578125,0.9882811903953552,1.0045144585780308,-0.2079010009765625,-0.3185272216796875,-0.2994537353515625,0.4841022172785837
1785514961.138144,-0.0439453087747097,-0.1767578125,0.9472655653953552,0.9646173157407406,-0.3910064697265625,0.1087188720703125,-0.9098052978515625,0.9962186168261666
1785514961.148697,-0.0473632775247097,-0.17724609375,0.9804686903953552,0.997485995216524,-0.0858306884765625,0.2918243408203125,-1.0318756103515625,1.0757767557527818
1785514961.159342,-0.0297851525247097,-0.171875,0.9584960341453552,0.9742396103671284,-0.148773193359375,0.2288818359375,-0.9708404541015625,1.008489734803778
1785514961.169987,-0.0458984337747097,-0.16845703125,0.9853515028953552,1.000700765393267,-0.0247955322265625,-0.0743865966796875,-1.0318756103515625,1.0348504526850217
1785514961.180632,-0.0454101525247097,-0.1650390625,0.9692382216453552,0.9842371179758702,0.0362396240234375,-0.0743865966796875,-0.6656646728515625,0.6707876957708186
1785514961.18862,-0.0449218712747097,-0.1796875,0.9506835341453552,0.9685580799674196,0.339508056640625,0.0457763671875,0.0667572021484375,0.3490239538419477
1785514961.196608,-0.0537109337747097,-0.15673828125,1.0029296875,1.0165233451746216,0.0362396240234375,-0.3795623779296875,0.3719329833984375,0.5326490901415879
1785514961.204594,-0.0395507775247097,-0.18505859375,0.9653319716453552,0.9837056280230614,-0.0247955322265625,-0.1354217529296875,0.7991790771484375,0.81095071794578
1785514961.212581,-0.0454101525247097,-0.17041015625,0.9760741591453552,0.9918782523358293,0.339508056640625,-0.3204345703125,0.2498626708984375,0.5295048523703548
1785514961.223266,-0.0415039025247097,-0.1787109375,0.9765624403953552,0.993647006284345,-0.0858306884765625,0.2918243408203125,0.7991790771484375,0.8551114256817054
1785514961.233949,-0.0473632775247097,-0.1748046875,0.9780272841453552,0.9946543758324269,0.0972747802734375,-0.1964569091796875,0.6771087646484375,0.7117120058039028
1785514961.244633,-0.0566406212747097,-0.177734375,0.9775390028953552,0.9951784614915412,0.034332275390625,0.3509521484375,0.6771087646484375,0.7634280547570464
1785514961.252625,-0.0327148400247097,-0.16162109375,0.9653319716453552,0.9793147880959919,0.156402587890625,0.1678466796875,0.9822845458984375,1.0087205789969305
1785514961.260618,-0.0283203087747097,-0.16796875,0.9741210341453552,0.9889020831356731,0.217437744140625,-0.3204345703125,0.9822845458984375,1.055860035960837
1785514961.268611,-0.0458984300494194,-0.17822265625,0.9692382216453552,0.9865559849192836,-0.02288818359375,-0.3204345703125,0.4329681396484375,0.539132259051716
1785514961.276604,-0.0419921837747097,-0.1630859375,0.9790038466453552,0.9933825538305094,-0.0858306884765625,-0.6237030029296875,-0.0553131103515625,0.6320062366184646
1785514961.287286,-0.0307617150247097,-0.1708984375,0.9765624403953552,0.9918804156964359,-0.2079010009765625,-0.3795623779296875,-0.3604888916015625,0.5632429901160054
1785514961.297966,-0.0385742150247097,-0.1767578125,0.9780272841453552,0.9946198584772461,-0.2689361572265625,0.2307891845703125,-0.6046295166015625,0.7008331875163014
1785514961.308647,-0.052734375,-0.1845703125,0.9746093153953552,0.9933329916087511,-0.1468658447265625,0.2918243408203125,-0.6046295166015625,0.6872465893609774
1785514961.31667,-0.0468749962747097,-0.1796875,0.9677733778953552,0.9854289288908612,-0.0858306884765625,0.2307891845703125,-0.6656646728515625,0.7097464416829211
1785514961.324693,-0.05224609375,-0.16845703125,0.9887694716453552,1.004376669256874,-0.2079010009765625,0.4138946533203125,-0.4215240478515625,0.6262700161842052
1785514961.332716,-0.0600585900247097,-0.1875,0.9750975966453552,0.9947756567283419,-0.02288818359375,0.6561279296875,0.3108978271484375,0.7264194297992351
1785514961.340739,-0.0498046837747097,-0.17138671875,0.9604491591453552,0.9768912432777819,0.0972747802734375,0.0476837158203125,0.3719329833984375,0.387389034139249
1785514961.351361,-0.0434570237994194,-0.177734375,0.9814452528953552,0.9983550497718593,0.2803802490234375,0.1697540283203125,0.7991790771484375,0.86378047646682
1785514961.361981,-0.0444335900247097,-0.17138671875,0.9609374403953552,0.9771123352204456,-0.2689361572265625,0.7190704345703125,0.7991790771484375,1.1081859699025054
1785514961.372602,-0.0541992112994194,-0.154296875,0.9907225966453552,1.004129644838733,-0.0247955322265625,0.4749298095703125,1.0433197021484375,1.1465989461568487
1785514961.383287,-0.0424804650247097,-0.171875,0.9731444716453552,0.9891186825794128,-0.1468658447265625,0.1087188720703125,0.6160736083984375,0.6426010118701643
1785514961.393975,-0.0405273400247097,-0.169921875,0.9785155653953552,0.9939862275776188,0.0362396240234375,-0.0743865966796875,0.4940032958984375,0.5008851489847406
1785514961.404663,-0.0527343712747097,-0.1708984375,0.9594725966453552,0.9759994126878667,-0.087738037109375,0.1678466796875,-0.0553131103515625,0.19730689601402285
1785514961.41268,-0.0556640587747097,-0.16259765625,0.9833983778953552,0.9983029875265742,-0.0247955322265625,-0.1354217529296875,-0.3604888916015625,0.3858835453256214
1785514961.420698,-0.0605468712747097,-0.1806640625,0.9677733778953552,0.986352238332304,-0.415802001953125,0.080108642578125,-0.2765655517578125,0.5057639803930679
1785514961.428716,-0.0532226487994194,-0.169921875,0.9736327528953552,0.9897812038321043,-0.2899169921875,0.141143798828125,-0.3337860107421875,0.4640975493081868
1785514961.436734,-0.0498046837747097,-0.15673828125,0.9653319716453552,0.9792411402794573,0.0133514404296875,-0.0438690185546875,0.2117156982421875,0.216624764587699
1785514961.447374,-0.0483398362994194,-0.18408203125,0.9731444716453552,0.9915811094895355,-0.2899169921875,-0.164031982421875,0.2117156982421875,0.3946921464869478
1785514961.458014,-0.0507812462747097,-0.1669921875,0.9633788466453552,0.979062780327688,0.072479248046875,-0.225067138671875,0.5817413330078125,0.6279581489534888
1785514961.468654,-0.0532226525247097,-0.18115234375,0.9731444716453552,0.9912915742009522,0.133514404296875,-0.652313232421875,0.7648468017578125,1.0140657175482164
1785514961.47674,-0.0415039025247097,-0.1650390625,0.9843749403953552,0.9989767211271835,0.2574920654296875,-0.2880096435546875,0.2117156982421875,0.4405397319447153
1785514961.484829,-0.0229492150247097,-0.16650390625,0.9702147841453552,0.9846659050870896,0.072479248046875,0.019073486328125,0.6427764892578125,0.6471310952355391
1785514961.492918,-0.0283203087747097,-0.16748046875,0.9741210341453552,0.9888192638021526,0.1964569091796875,0.2613067626953125,0.0934600830078125,0.3400166591662349
1785514961.501007,-0.0385742112994194,-0.1689453125,0.9682616591453552,0.9836468517532148,0.133514404296875,0.141143798828125,-0.2117156982421875,0.28735205756103543
1785514961.51154,-0.04150390625,-0.17333984375,0.9633788466453552,0.9797285735493367,0.133514404296875,0.812530517578125,-1.0700225830078125,1.3501778646894032
1785514961.522073,-0.0561523400247097,-0.18017578125,0.9550780653953552,0.9735453294216109,-0.049591064453125,0.751495361328125,-0.9479522705078125,1.2107097335580481
1785514961.532606,-0.0434570237994194,-0.15478515625,0.9687499403953552,0.9819996968069005,-0.110626220703125,0.202178955078125,-0.8220672607421875,0.8537617183779691
1785514961.54329,-0.0322265625,-0.1689453125,0.9731444716453552,0.9882263063894862,-0.537872314453125,0.263214111328125,-0.6389617919921875,0.8757056963862251
1785514961.553975,-0.0546874962747097,-0.1767578125,0.9809569716453552,0.9982537887472342,-0.8411407470703125,-0.2269744873046875,-0.7648468017578125,1.1593212688588024
1785514961.564658,-0.0537109300494194,-0.18505859375,0.9755858778953552,0.9944341870010062,-1.026153564453125,0.324249267578125,-0.6389617919921875,1.2515593861222374
1785514961.575321,-0.0419921837747097,-0.169921875,0.9677733778953552,0.9834745030069009,-1.087188720703125,0.141143798828125,0.2117156982421875,1.1165681453695107
1785514961.585984,-0.0517578087747097,-0.18115234375,0.9765624403953552,0.9945698780911321,-1.0242462158203125,0.2002716064453125,0.8258819580078125,1.3308906925563926
1785514961.596648,-0.0454101487994194,-0.18359375,0.9702147841453552,0.9884763396395819,-0.5359649658203125,-0.2880096435546875,1.0089874267578125,1.1782459958440847
1785514961.604653,-0.03173828125,-0.17822265625,0.9746093153953552,0.9912789472963263,-0.7801055908203125,-0.4100799560546875,0.6427764892578125,1.090821671186231
1785514961.61266,-0.0410156212747097,-0.17138671875,0.9731444716453552,0.9889721185384144,-0.5359649658203125,-0.4100799560546875,0.3376007080078125,0.7545848216018922
1785514961.620667,-0.0400390587747097,-0.16748046875,0.9780272841453552,0.9930710962328043,-0.598907470703125,-0.225067138671875,0.3948211669921875,0.7518172179985189
1785514961.628674,-0.0332031212747097,-0.17236328125,0.9638671278953552,0.9797200560480992,-0.232696533203125,-0.164031982421875,0.0324249267578125,0.286540649292998
1785514961.639327,-0.0322265625,-0.16845703125,0.9702147841453552,0.9852578596907249,0.0152587890625,-0.347137451171875,-0.3948211669921875,0.5259477108561578
1785514961.649978,-0.0346679612994194,-0.19287109375,0.9663085341453552,0.9859783514393835,0.1983642578125,-0.041961669921875,-0.1506805419921875,0.25261390748570384
1785514961.66063,-0.0346679650247097,-0.18505859375,0.9731444716453552,0.9911905536341635,0.2574920654296875,-0.1049041748046875,-0.2765655517578125,0.39216776266006637
1785514961.67128,-0.0400390550494194,-0.18359375,0.9506835341453552,0.9690763504819503,0.3814697265625,-0.225067138671875,-0.5817413330078125,0.7311616426778145
1785514961.68193,-0.0581054612994194,-0.16015625,0.9853515028953552,0.9999719262584406,0.438690185546875,0.141143798828125,-0.0286102294921875,0.4617241558272444
1785514961.692578,-0.0581054612994194,-0.177734375,0.9609374403953552,0.9789619589356043,0.438690185546875,0.263214111328125,0.1544952392578125,0.5344151253947954
1785514961.700598,-0.0561523400247097,-0.17578125,0.9760741591453552,0.9933644332736729,0.438690185546875,0.019073486328125,0.5817413330078125,0.7288592836107443
1785514961.708616,-0.0327148400247097,-0.1767578125,0.9624022841453552,0.9790463429101937,0.072479248046875,0.080108642578125,1.0089874267578125,1.014754287189023
1785514961.716635,-0.0498046800494194,-0.18408203125,0.9697265028953552,0.9882996462620061,-0.232696533203125,0.019073486328125,0.9479522705078125,0.9762812000680845
1785514961.724654,-0.0483398362994194,-0.16064453125,0.9653319716453552,0.9798006025078244,-0.110626220703125,-0.041961669921875,0.6999969482421875,0.7099258200671846
1785514961.73534,-0.0458984337747097,-0.16845703125,0.9697265028953552,0.9853192010806398,-0.415802001953125,-0.469207763671875,0.6427764892578125,0.8978913327684968
1785514961.746027,-0.0434570237994194,-0.16357421875,0.9716796278953552,0.9863094530744558,-0.232696533203125,-0.164031982421875,0.8258819580078125,0.8735760850577479
1785514961.756712,-0.0463867150247097,-0.1728515625,0.9633788466453552,0.9798613127137993,-0.354766845703125,-0.347137451171875,0.8831024169921875,1.013031985533376
1785514961.764716,-0.0449218675494194,-0.17919921875,0.9707030653953552,0.9881269024536662,0.0133514404296875,0.3833770751953125,-0.2117156982421875,0.43815497216057786
1785514961.772722,-0.0522460900247097,-0.162109375,0.9716796278953552,0.9864939952440748,-0.232696533203125,0.751495361328125,-0.5817413330078125,0.9784252312732684
1785514961.780728,-0.0502929650247097,-0.169921875,0.9736327528953552,0.9896279924522549,0.1354217529296875,0.7495880126953125,-0.2765655517578125,0.810376298001219
1785514961.788734,-0.0449218712747097,-0.17724609375,0.9721679091453552,0.9892141304290528,-0.0476837158203125,0.2002716064453125,-0.3948211669921875,0.4452709366303748
1785514961.799375,-0.0571289025247097,-0.1552734375,0.9575194716453552,0.9717083361157012,-0.110626220703125,0.324249267578125,-0.2765655517578125,0.4403001847048333
1785514961.810016,-0.06396484375,-0.16064453125,0.9809569716453552,0.9960796890189662,-0.171661376953125,0.141143798828125,0.2117156982421875,0.3069409343298057
1785514961.820657,-0.0654296875,-0.1787109375,0.9653319716453552,0.9839128308286184,-0.232696533203125,-0.225067138671875,1.0089874267578125,1.0596501879535765
1785514961.831308,-0.0385742112994194,-0.1630859375,0.9877929091453552,1.0019080916658325,-0.3528594970703125,-0.4673004150390625,0.8258819580078125,1.0124033342157719
1785514961.84196,-0.0458984337747097,-0.169921875,0.9672850966453552,0.9831686366126114,-0.5359649658203125,-0.4100799560546875,0.5817413330078125,0.8909809164478719
1785514961.852612,-0.0458984337747097,-0.173828125,0.9746093153953552,0.991053076741801,-0.4749298095703125,-0.2269744873046875,0.2765655517578125,0.5946126859770335
1785514961.8633,-0.02783203125,-0.18896484375,0.9755858778953552,0.9941077101027905,-0.354766845703125,-0.164031982421875,-0.2765655517578125,0.4788052949649768
1785514961.873987,-0.0429687462747097,-0.16259765625,0.9780272841453552,0.9923818214312236,-0.3528594970703125,0.0209808349609375,-0.8220672607421875,0.8948433389664001
1785514961.884674,-0.0444335862994194,-0.17822265625,0.9707030653953552,0.9879281856289822,-0.3528594970703125,0.2613067626953125,-0.6389617919921875,0.7752826713714719
1785514961.892717,-0.0571289025247097,-0.1669921875,0.9809569716453552,0.996707922316934,-0.3528594970703125,0.2613067626953125,-0.8831024169921875,0.9862357364243407
1785514961.900762,-0.0390624925494194,-0.16357421875,0.9677733778953552,0.9822768012769274,-0.232696533203125,0.751495361328125,-0.3948211669921875,0.8802140129352151
1785514961.908808,-0.0483398400247097,-0.171875,0.9663085341453552,0.9826647133792684,-0.049591064453125,0.019073486328125,-0.4558563232421875,0.4589423264356742
1785514961.916852,-0.0488281175494194,-0.16357421875,0.9648436903953552,0.9798285855183144,-0.2918243408203125,0.0209808349609375,-0.0934600830078125,0.3071423586005278
1785514961.927466,-0.0351562462747097,-0.1611328125,0.9863280653953552,1.0000213985224677,0.072479248046875,0.080108642578125,-0.3337860107421875,0.3508329188949263
1785514961.938081,-0.0507812462747097,-0.1787109375,0.9711913466453552,0.9888017829444686,-0.049591064453125,-0.041961669921875,-0.0934600830078125,0.11381934164303355
1785514961.948694,-0.0541992112994194,-0.1591796875,0.9746093153953552,0.9890091228464375,0.0133514404296875,0.0782012939453125,-0.0934600830078125,0.12259074374558573
1785514961.956807,-0.0522460900247097,-0.17724609375,0.9667968153953552,0.9842976754676933,0.072479248046875,0.141143798828125,-0.0286102294921875,0.16122455947116213
1785514961.96492,-0.0400390587747097,-0.169921875,0.9658202528953552,0.9814710035115292,0.072479248046875,-0.164031982421875,0.2117156982421875,0.2774585906705138
1785514961.973033,-0.0463867150247097,-0.181640625,0.9702147841453552,0.9881608023775242,0.133514404296875,-0.347137451171875,0.0324249267578125,0.37333883006741314
1785514961.981146,-0.0458984337747097,-0.18896484375,0.9707030653953552,0.9899893027524957,-0.110626220703125,-0.225067138671875,0.0934600830078125,0.26763438630495284
1785514961.99163,-0.0478515625,-0.16455078125,0.9648436903953552,0.9799439160173428,-0.1697540283203125,-0.4100799560546875,-0.5817413330078125,0.7317137275044759
1785514962.002114,-0.0463867150247097,-0.17138671875,0.9589843153953552,0.9752825497613363,-0.0476837158203125,-0.1049041748046875,-0.3948211669921875,0.41129354061419143
1785514962.012599,-0.0390624962747097,-0.1630859375,0.9775390028953552,0.9918192394822309,-0.354766845703125,-0.530242919921875,-0.2117156982421875,0.6721908998339667
1785514962.023302,-0.0410156212747097,-0.17578125,0.9638671278953552,0.9806228476215277,-0.2307891845703125,-0.2880096435546875,-0.8220672607421875,0.9011147450126935
1785514962.034007,-0.0527343712747097,-0.166015625,0.9799804091453552,0.995340998837372,0.072479248046875,-0.347137451171875,-0.8831024169921875,0.9516446449704794
1785514962.04471,-0.0371093712747097,-0.16748046875,0.9721679091453552,0.9871865357779023,-0.049591064453125,0.019073486328125,-0.9479522705078125,0.9494401396166164
1785514962.052694,-0.0488281175494194,-0.17333984375,0.9780272841453552,0.9944688305962303,0.072479248046875,0.080108642578125,-0.5168914794921875,0.5280600700533725
1785514962.060676,-0.0546874962747097,-0.1865234375,0.9682616591453552,0.9875790376251051,0.3185272216796875,-0.1049041748046875,-0.3337860107421875,0.4731570329284105
1785514962.06866,-0.0546874925494194,-0.16943359375,0.9814452528953552,0.9974634073304196,0.1964569091796875,-0.1049041748046875,-0.0286102294921875,0.22454119507895215
1785514962.076642,-0.0551757775247097,-0.1767578125,0.9819335341453552,0.9992402895122018,0.1354217529296875,-0.2269744873046875,0.3948211669921875,0.47512127184419756
1785514962.087317,-0.0444335900247097,-0.17041015625,0.9741210341453552,0.9899119932802358,0.072479248046875,-0.225067138671875,0.2117156982421875,0.317383041748551
1785514962.097991,-0.0449218712747097,-0.1630859375,0.9648436903953552,0.9795602811592575,0.072479248046875,0.324249267578125,0.2765655517578125,0.43229542368789214
1785514962.108664,-0.0488281175494194,-0.18310546875,0.9707030653953552,0.9890279262576545,0.4405975341796875,0.5664825439453125,0.1544952392578125,0.7340963415474174
1785514962.119326,-0.0498046800494194,-0.1689453125,0.9672850966453552,0.9831904611837738,0.3185272216796875,0.2613067626953125,0.4596710205078125,0.6172829677514025
1785514962.12999,-0.0483398362994194,-0.1728515625,0.9692382216453552,0.9857165580076236,0.133514404296875,-0.347137451171875,0.3948211669921875,0.5424152100245052
1785514962.140654,-0.0317382775247097,-0.1806640625,0.9648436903953552,0.9821253324474262,-0.0476837158203125,-0.1049041748046875,0.3948211669921875,0.41129354061419143
1785514962.151319,-0.0278320275247097,-0.16748046875,0.9755858778953552,0.9902485214923105,-0.110626220703125,-0.408172607421875,-0.3948211669921875,0.5785557812879424
1785514962.161984,-0.0371093712747097,-0.18505859375,0.9682616591453552,0.9864858991024898,-0.2307891845703125,-0.2880096435546875,-0.3948211669921875,0.5404599489325742
1785514962.172651,-0.0444335862994194,-0.15869140625,0.9682616591453552,0.9821852913681545,-0.1697540283203125,-0.1049041748046875,-0.8831024169921875,0.9053679886763555
1785514962.180651,-0.0571289025247097,-0.1708984375,0.9619140028953552,0.9786462774719907,0.255584716796875,0.263214111328125,-0.8831024169921875,0.9562819117602491
1785514962.188652,-0.0473632775247097,-0.17236328125,0.9672850966453552,0.9836629702155935,-0.0476837158203125,0.3833770751953125,-0.6389617919921875,0.7466752240201975
1785514962.196653,-0.0429687462747097,-0.1572265625,0.9716796278953552,0.985255197590372,0.072479248046875,0.568389892578125,0.0934600830078125,0.5805644654112411
1785514962.204654,-0.052734375,-0.1640625,0.9780272841453552,0.9930935438042229,0.255584716796875,0.629425048828125,0.4596710205078125,0.8202419683527051
1785514962.215344,-0.0454101487994194,-0.16357421875,0.9638671278953552,0.978702430205882,0.1354217529296875,-0.1049041748046875,1.0700225830078125,1.083647666543288
1785514962.226034,-0.0502929650247097,-0.1611328125,0.9707030653953552,0.9852703216696808,-0.0476837158203125,-0.4100799560546875,1.0700225830078125,1.1469034986688975
1785514962.236724,-0.0415039025247097,-0.17431640625,0.9682616591453552,0.9847027084270723,-0.0476837158203125,0.0782012939453125,0.8831024169921875,0.8878395452031842
1785514962.244707,-0.0410156212747097,-0.1708984375,0.9824218153953552,0.9980186273277655,-0.110626220703125,0.141143798828125,0.4596710205078125,0.49341380174188937
1785514962.252692,-0.0458984337747097,-0.17236328125,0.9658202528953552,0.9821530063330692,0.072479248046875,0.080108642578125,0.4596710205078125,0.4721949630267608
1785514962.260677,-0.0405273400247097,-0.181640625,0.9746093153953552,0.9922192799957437,0.1354217529296875,-0.4673004150390625,0.5207061767578125,0.7126314977433762
1785514962.268662,-0.0429687462747097,-0.17529296875,0.9658202528953552,0.9825389045490549,0.1354217529296875,-0.4673004150390625,0.2117156982421875,0.5305961420368663
1785514962.279326,-0.0449218712747097,-0.177734375,0.9711913466453552,0.9883421039165946,0.3795623779296875,-0.7762908935546875,0.3948211669921875,0.950041527545321
1785514962.28999,-0.0351562462747097,-0.1796875,0.9624022841453552,0.9796640831614555,0.6847381591796875,-0.4100799560546875,-0.1506805419921875,0.8122416775379486
1785514962.300654,-0.0439453087747097,-0.17626953125,0.9609374403953552,0.9779585380597565,0.8678436279296875,-0.2880096435546875,-0.2765655517578125,0.9552960911349754
1785514962.3113,-0.0410156212747097,-0.1748046875,0.9731444716453552,0.9895701706571599,1.1119842529296875,-0.1049041748046875,-0.2765655517578125,1.1506530185395383
1785514962.321944,-0.04736328125,-0.173828125,0.9643554091453552,0.9810406987478592,0.6847381591796875,0.0782012939453125,-0.0286102294921875,0.6897828167206718
1785514962.332588,-0.0336914025247097,-0.15185546875,0.9687499403953552,0.981158315976259,-0.1697540283203125,0.0782012939453125,-0.0934600830078125,0.20896569005825294
1785514962.343294,-0.0439453050494194,-0.16357421875,0.9682616591453552,0.982964066203071,-0.4749298095703125,-0.0438690185546875,-0.4558563232421875,0.659763444158079
1785514962.353998,-0.0483398400247097,-0.17724609375,0.9609374403953552,0.9783423134245115,-0.598907470703125,-0.225067138671875,-0.3948211669921875,0.7518172179985189
1785514962.364702,-0.0561523400247097,-0.15869140625,0.9750975966453552,0.9895207783020026,-0.598907470703125,0.141143798828125,-0.6999969482421875,0.9319911254727828
1785514962.375353,-0.0512695275247097,-0.17626953125,0.9575194716453552,0.9749579738017952,-0.720977783203125,0.141143798828125,-0.1506805419921875,0.7499567731244154
1785514962.386007,-0.0439453087747097,-0.1708984375,0.9838866591453552,0.9995851260135149,-0.598907470703125,-0.286102294921875,-0.3337860107421875,0.7429386129356595
1785514962.396659,-0.0375976525247097,-0.17626953125,0.9580077528953552,0.974814539145817,-0.110626220703125,-0.408172607421875,-0.1506805419921875,0.4489406017411301
1785514962.404645,-0.0556640587747097,-0.17138671875,0.9609374403953552,0.9776874035993012,-0.415802001953125,-0.347137451171875,0.2117156982421875,0.5815662057895984
1785514962.412632,-0.0458984337747097,-0.17578125,0.9775390028953552,0.9942777359753054,-0.415802001953125,-0.408172607421875,-0.0286102294921875,0.5833650036721386
1785514962.420619,-0.03271484375,-0.1787109375,0.9570311903953552,0.9741234827131858,-0.232696533203125,-0.164031982421875,0.1544952392578125,0.3239181173928561
1785514962.428607,-0.0595703087747097,-0.16552734375,0.9809569716453552,0.9966064937757887,0.072479248046875,0.141143798828125,0.0934600830078125,0.18414559582271267
1785514962.439283,-0.0483398362994194,-0.18505859375,0.9731444716453552,0.9917628676191198,0.3795623779296875,0.0782012939453125,0.3376007080078125,0.5139623324347188
1785514962.44996,-0.0629882737994194,-0.1826171875,0.9726561903953552,0.9916534800629937,0.255584716796875,0.324249267578125,0.6427764892578125,0.7639520600978101
1785514962.460637,-0.0415039025247097,-0.1767578125,0.9770507216453552,0.9937776465951904,0.3185272216796875,0.5092620849609375,0.5817413330078125,0.8362000003943126
1785514962.468632,-0.0473632775247097,-0.177734375,0.9624022841453552,0.9798218943474984,0.438690185546875,0.019073486328125,1.3141632080078125,1.3855821210080785
1785514962.476629,-0.0502929650247097,-0.16796875,0.9658202528953552,0.9816066647137167,0.5626678466796875,0.2002716064453125,0.9479522705078125,1.12040944712023
1785514962.484627,-0.0429687462747097,-0.16650390625,0.9819335341453552,0.9968767874878603,0.4405975341796875,-0.1049041748046875,1.0700225830078125,1.1619291721802083
1785514962.492623,-0.0317382775247097,-0.17626953125,0.9731444716453552,0.9894889734611739,0.316619873046875,-0.347137451171875,0.8831024169921875,1.0003111680431087
1785514962.503333,-0.02880859375,-0.15966796875,0.9775390028953552,0.9909118515288072,0.1983642578125,-0.530242919921875,-0.2765655517578125,0.6300749457992145
1785514962.514043,-0.0312499962747097,-0.16357421875,0.9643554091453552,0.9786288583803094,0.0133514404296875,0.2613067626953125,-0.5817413330078125,0.6378733916080513
1785514962.524753,-0.0439453050494194,-0.18310546875,0.9721679091453552,0.9902369646171039,0.072479248046875,0.141143798828125,-1.2531280517578125,1.2631329017357618
1785514962.532729,-0.0576171837747097,-0.18212890625,0.9804686903953552,0.9989041651747844,0.255584716796875,0.263214111328125,-0.8220672607421875,0.9002220820700618
1785514962.540705,-0.0634765625,-0.171875,0.9760741591453552,0.9931218725630448,0.4405975341796875,0.2002716064453125,-0.4558563232421875,0.6648608056678426
1785514962.548681,-0.0546874962747097,-0.17138671875,0.9702147841453552,0.9867526827867793,0.438690185546875,-0.164031982421875,0.1544952392578125,0.49317780678547435
1785514962.556657,-0.06884765625,-0.17626953125,0.9790038466453552,0.9971256085191148,0.3185272216796875,-0.4673004150390625,0.3948211669921875,0.6897195246995214
1785514962.564744,-0.0395507737994194,-0.17431640625,0.9658202528953552,0.9822215809576247,0.1964569091796875,0.0782012939453125,0.6999969482421875,0.7312362730934051
1785514962.572829,-0.04296875,-0.1640625,0.9760741591453552,0.9906985321146513,0.0133514404296875,0.4444122314453125,1.1310577392578125,1.2153074104747092
1785514962.580915,-0.06591796875,-0.17041015625,0.9755858778953552,0.992548540428188,0.1354217529296875,0.6885528564453125,1.2531280517578125,1.4362360535050913
1785514962.589001,-0.0341796837747097,-0.1669921875,0.9711913466453552,0.9860361419683321,-0.1697540283203125,0.3261566162109375,1.2531280517578125,1.3059573050186108
1785514962.600924,-0.0439453087747097,-0.16748046875,0.9819335341453552,0.9970829268697824,0.255584716796875,0.019073486328125,0.5817413330078125,0.6356967231868941
1785514962.612846,-0.0502929650247097,-0.1806640625,0.9741210341453552,0.9920084046893942,0.438690185546875,-0.041961669921875,-0.0286102294921875,0.4416202054586946
1785514962.624768,-0.0493164025247097,-0.16552734375,0.9672850966453552,0.9825842799877902,0.0133514404296875,-0.0438690185546875,0.0324249267578125,0.056161620576230836
1785514962.63669,-0.0551757775247097,-0.18115234375,0.9760741591453552,0.9942742590567688,0.1983642578125,-0.530242919921875,0.2117156982421875,0.6044249083111622
1785514962.647313,-0.0458984337747097,-0.17236328125,0.9790038466453552,0.9951202433337593,-0.110626220703125,-0.957489013671875,-0.5817413330078125,1.1258091981055685
1785514962.65794,-0.0263671837747097,-0.171875,0.9443358778953552,0.9602116924332886,-0.1697540283203125,-0.7762908935546875,-0.8831024169921875,1.1879873149341083
1785514962.668567,-0.0449218712747097,-0.1826171875,0.9755858778953552,0.9935465851373466,-0.354766845703125,-0.347137451171875,-1.5583038330078125,1.6354432918273538
1785514962.676636,-0.0488281212747097,-0.16552734375,0.9663085341453552,0.9815985279727621,-0.110626220703125,-0.102996826171875,-1.0051727294921875,1.0164736706001343
1785514962.684705,-0.0576171875,-0.1689453125,0.9648436903953552,0.9812163909183647,-0.049591064453125,0.141143798828125,-0.7648468017578125,0.7793404107194639
1785514962.692773,-0.0561523400247097,-0.181640625,0.9750975966453552,0.9934594732167936,0.2574920654296875,0.2002716064453125,0.0324249267578125,0.3278143620750654
1785514962.700842,-0.0541992150247097,-0.16796875,0.9741210341453552,0.9899812346960287,0.1964569091796875,0.2613067626953125,0.3948211669921875,0.5126014975590816
1785514962.711421,-0.0478515587747097,-0.15283203125,0.9799804091453552,0.9929798607030599,-0.1697540283203125,-0.4673004150390625,0.5817413330078125,0.7652509957891986
1785514962.722,-0.0458984337747097,-0.173828125,0.9726561903953552,0.9891324218619024,0.072479248046875,0.019073486328125,1.0089874267578125,1.0117671009839673
1785514962.732579,-0.0458984337747097,-0.16943359375,0.9863280653953552,1.001827061673099,0.0133514404296875,-0.1049041748046875,0.5817413330078125,0.5912749997951093
1785514962.743256,-0.0498046837747097,-0.1611328125,0.9799804091453552,0.994387194255214,0.072479248046875,0.385284423828125,0.0324249267578125,0.39338111865881437
1785514962.753933,-0.0297851525247097,-0.15673828125,0.9746093153953552,0.9875815722134184,0.072479248046875,0.385284423828125,-0.2765655517578125,0.47977685757142763
1785514962.76461,-0.0498046800494194,-0.173828125,0.9833983778953552,0.9998845397559942,0.0133514404296875,0.2613067626953125,-0.1506805419921875,0.3019339512656886
1785514962.775286,-0.0522460900247097,-0.16259765625,0.9619140028953552,0.9769576248267008,-0.0476837158203125,0.5664825439453125,0.0934600830078125,0.5761171725135542
1785514962.785961,-0.0517578125,-0.17333984375,0.9775390028953552,0.9941368491147006,0.072479248046875,0.385284423828125,0.0324249267578125,0.39338111865881437
1785514962.796636,-0.0488281175494194,-0.18408203125,0.9672850966453552,0.9858553836566294,0.1964569091796875,0.2613067626953125,0.3948211669921875,0.5126014975590816
1785514962.80728,-0.0385742112994194,-0.173828125,0.9624022841453552,0.9787350731155928,-0.1697540283203125,-0.1621246337890625,0.6427764892578125,0.6842970423396625
1785514962.817926,-0.0434570275247097,-0.19091796875,0.9941405653953552,1.0132391858774048,-0.3528594970703125,-0.2880096435546875,0.2765655517578125,0.5328676044500316
1785514962.828573,-0.0302734337747097,-0.17919921875,0.9677733778953552,0.9846898759285119,-0.0476837158203125,-0.2880096435546875,0.0934600830078125,0.3065258205286427
1785514962.83659,-0.0585937462747097,-0.18115234375,0.9682616591453552,0.9868029384428987,-0.2918243408203125,-0.4673004150390625,-0.1506805419921875,0.5711705082774752
1785514962.844609,-0.0405273400247097,-0.166015625,0.9726561903953552,0.9875544125505311,0.072479248046875,-0.835418701171875,-0.9479522705078125,1.2656188821387186
1785514962.852626,-0.0502929612994194,-0.19775390625,0.9672850966453552,0.9885729348842264,0.072479248046875,-0.164031982421875,-0.8831024169921875,0.9011268565258358
1785514962.860644,-0.0463867150247097,-0.16650390625,0.9594725966453552,0.9749168897094116,0.3814697265625,-0.347137451171875,-0.8220672607421875,0.970473154432382
1785514962.871334,-0.0444335862994194,-0.16943359375,0.9682616591453552,0.983978011366811,0.255584716796875,-0.530242919921875,-0.7648468017578125,0.965127831816371
1785514962.882025,-0.0361328087747097,-0.173828125,0.9619140028953552,0.9781617176505789,0.6866455078125,-0.530242919921875,-0.6999969482421875,1.1147355449050405
1785514962.892715,-0.0405273400247097,-0.181640625,0.9804686903953552,0.997975267622125,0.3185272216796875,-0.1621246337890625,-0.6999969482421875,0.7859641947191959
1785514962.900699,-0.0502929650247097,-0.16064453125,0.9902343153953552,1.0044401660318134,0.3814697265625,-0.469207763671875,0.1544952392578125,0.6241344860901049
1785514962.908683,-0.0444335862994194,-0.17333984375,0.9804686903953552,0.996664385773007,0.621795654296875,0.141143798828125,0.3948211669921875,0.7499567731244154
1785514962.916665,-0.0488281175494194,-0.17822265625,0.9721679091453552,0.9895746277245983,0.3814697265625,-0.347137451171875,0.5207061767578125,0.7329109664915054
1785514962.924649,-0.0478515625,-0.16357421875,0.9658202528953552,0.9807420955461289,0.3185272216796875,-0.0438690185546875,0.3948211669921875,0.5091834989912822
1785514962.935394,-0.0434570237994194,-0.173828125,0.9770507216453552,0.993344271955211,0.438690185546875,0.019073486328125,0.1544952392578125,0.4654907686831067
1785514962.946138,-0.02880859375,-0.1650390625,0.9594725966453552,0.9739894716772415,0.1354217529296875,-0.1049041748046875,0.0934600830078125,0.19513770566917343
1785514962.956883,-0.0429687462747097,-0.18212890625,0.9882811903953552,1.0058414203727652,0.133514404296875,0.324249267578125,0.0324249267578125,0.3521577197151149
1785514962.964902,-0.0366210900247097,-0.1728515625,0.9624022841453552,0.9784870583822182,0.072479248046875,0.629425048828125,-0.0934600830078125,0.6404404114400927
1785514962.972922,-0.0395507775247097,-0.16796875,0.9833983778953552,0.9984238251497144,0.316619873046875,0.324249267578125,-0.0286102294921875,0.45409721069916886
1785514962.980942,-0.0581054612994194,-0.16845703125,0.9643554091453552,0.9806810751504728,0.3795623779296875,0.3833770751953125,0.0324249267578125,0.5404599489325742
1785514962.988962,-0.0478515587747097,-0.17236328125,0.9614257216453552,0.9779255036257762,0.438690185546875,0.507354736328125,0.5207061767578125,0.8491129665029684
1785514962.999529,-0.0502929650247097,-0.17529296875,0.9951171278953552,1.011689233635935,0.560760498046875,0.629425048828125,0.6427764892578125,1.060089544993566
1785514963.010096,-0.0576171837747097,-0.177734375,0.9658202528953552,0.9837265925172589,-0.0476837158203125,0.3833770751953125,1.0089874267578125,1.0804199858828494
1785514963.020663,-0.0395507775247097,-0.15673828125,0.9780272841453552,0.9912963842084529,0.0133514404296875,0.0782012939453125,0.8831024169921875,0.8866586616244788
1785514963.028662,-0.0356445275247097,-0.17578125,0.9736327528953552,0.9900153118536148,0.0133514404296875,-0.1621246337890625,0.7648468017578125,0.7819547864179486
1785514963.036661,-0.0454101525247097,-0.1767578125,0.9697265028953552,0.9867496626043294,0.072479248046875,-0.041961669921875,0.5207061767578125,0.5273982799116916
1785514963.044661,-0.0400390550494194,-0.1640625,0.9721679091453552,0.9867269497726066,0.0133514404296875,0.0209808349609375,0.0324249267578125,0.040863581248528576
1785514963.05266,-0.0532226487994194,-0.18896484375,0.9687499403953552,0.9884416065376308,-0.049591064453125,-0.347137451171875,-0.2765655517578125,0.4466007032000769
1785514963.063303,-0.0454101525247097,-0.16552734375,0.9853515028953552,1.000189465921024,-0.049591064453125,-0.347137451171875,-0.5168914794921875,0.6246122679321328
1785514963.073947,-0.0424804650247097,-0.17724609375,0.9799804091453552,0.9967860201502864,-0.049591064453125,-0.225067138671875,-0.5168914794921875,0.5659428347060872
1785514963.084591,-0.0585937462747097,-0.17138671875,0.9770507216453552,0.9936975128951999,-0.110626220703125,0.080108642578125,-1.1882781982421875,1.1961022664222594
1785514963.092731,-0.0625,-0.17919921875,0.9697265028953552,0.9881235248784768,-0.232696533203125,0.141143798828125,-0.2117156982421875,0.3448083313879818
1785514963.100871,-0.0571289025247097,-0.189453125,0.9570311903953552,0.977274218152456,-0.232696533203125,0.324249267578125,-0.0286102294921875,0.4001297406108414
1785514963.109011,-0.0541992150247097,-0.18505859375,0.9838866591453552,1.002605204491893,0.072479248046875,-0.347137451171875,0.8258819580078125,0.8987984534735051
1785514963.117151,-0.052734375,-0.189453125,0.9760741591453552,0.9956877849156424,0.072479248046875,-0.591278076171875,0.7648468017578125,0.9694604865171703
1785514963.127671,-0.0361328087747097,-0.18896484375,0.9731444716453552,0.9919795636691964,0.438690185546875,-0.347137451171875,0.7648468017578125,0.947599134159805
1785514963.138189,-0.0356445275247097,-0.173828125,0.9829100966453552,0.9987987822734151,0.6847381591796875,-0.2269744873046875,1.0700225830078125,1.290477466936453
1785514963.148708,-0.0395507775247097,-0.16552734375,0.9780272841453552,0.9927239969218429,0.6237030029296875,0.3833770751953125,0.8258819580078125,1.1036595608300779
1785514963.159364,-0.0366210900247097,-0.17919921875,0.9697265028953552,0.9868246828352357,0.9899139404296875,0.3833770751953125,0.6427764892578125,1.2409952483329427
1785514963.170021,-0.0478515587747097,-0.17578125,0.9633788466453552,0.9804527636212093,0.743865966796875,0.446319580078125,0.2117156982421875,0.8929508838687268
1785514963.180678,-0.04296875,-0.17822265625,0.9750975966453552,0.9921819146008034,0.3185272216796875,0.8716583251953125,-0.2117156982421875,0.9518778092357522
1785514963.191345,-0.0400390587747097,-0.16259765625,0.9658202528953552,0.9802295062628985,0.0133514404296875,0.8716583251953125,-0.4558563232421875,0.9837537721827198
1785514963.202014,-0.0463867150247097,-0.16748046875,0.9707030653953552,0.986136844414325,-0.537872314453125,0.263214111328125,-0.2117156982421875,0.6351470947265625
1785514963.212683,-0.0595703087747097,-0.1669921875,0.9731444716453552,0.989163876750191,-0.537872314453125,-0.225067138671875,-0.6389617919921875,0.8650052110773517
1785514963.220664,-0.0610351525247097,-0.1640625,0.9707030653953552,0.9863600939402931,-0.720977783203125,-0.347137451171875,-0.4558563232421875,0.920933418504554
1785514963.228647,-0.0410156212747097,-0.17578125,0.9721679091453552,0.9887829754866153,-0.6580352783203125,-0.4673004150390625,-0.6999969482421875,1.06835192373962
1785514963.236629,-0.0380859337747097,-0.1767578125,0.9653319716453552,0.9821199917077269,-0.720977783203125,-0.469207763671875,-0.8220672607421875,1.1898569117951192
1785514963.24461,-0.0498046837747097,-0.1748046875,0.9799804091453552,0.9966939287497287,-0.5359649658203125,-0.2880096435546875,-0.5817413330078125,0.8418022201782159
1785514963.255285,-0.0537109337747097,-0.177734375,0.9853515028953552,1.0026923539758978,-0.4749298095703125,-0.4100799560546875,-0.6999969482421875,0.9400636265299724
1785514963.265958,-0.0522460900247097,-0.18017578125,0.9746093153953552,0.9925000169910935,-0.0476837158203125,-0.4100799560546875,-0.6999969482421875,0.8126715416825069
1785514963.276632,-0.0561523400247097,-0.18017578125,0.9687499403953552,0.986961419942696,0.0133514404296875,0.0209808349609375,-0.2117156982421875,0.21317127686295492
1785514963.284636,-0.02783203125,-0.1689453125,0.9780272841453552,0.9929020642097401,-0.2899169921875,-0.164031982421875,0.3948211669921875,0.5165676214411528
1785514963.292642,-0.0444335862994194,-0.173828125,0.9775390028953552,0.9938677290334408,0.072479248046875,0.019073486328125,0.3948211669921875,0.4018716128108857
1785514963.300646,-0.0400390587747097,-0.1728515625,0.9785155653953552,0.9944714679704229,0.0133514404296875,-0.2880096435546875,0.5207061767578125,0.5951997465185817
1785514963.308651,-0.0556640587747097,-0.173828125,0.9672850966453552,0.984355201475821,0.3795623779296875,-0.2880096435546875,0.3948211669921875,0.6187898734022801
1785514963.319315,-0.0351562425494194,-0.1787109375,0.9824218153953552,0.9991627414675889,0.4405975341796875,0.0782012939453125,0.2765655517578125,0.5260514555811487
1785514963.329979,-0.033203125,-0.1591796875,0.9746093153953552,0.9880809370075745,0.5016326904296875,0.3261566162109375,0.6427764892578125,0.8781657642771632
1785514963.340643,-0.0390624925494194,-0.173828125,0.9731444716453552,0.9893190880899381,0.8068084716796875,-0.1049041748046875,0.5817413330078125,1.0001838702934938
1785514963.351383,-0.0317382775247097,-0.1767578125,0.9790038466453552,0.9953387233934099,0.438690185546875,-0.041961669921875,0.3376007080078125,0.5551433136453687
1785514963.362126,-0.0454101525247097,-0.16552734375,0.9667968153953552,0.9819152029273448,0.621795654296875,0.019073486328125,0.5207061767578125,0.8112512287182845
1785514963.372869,-0.0400390587747097,-0.16259765625,0.9672850966453552,0.9816728488848879,-0.110626220703125,0.019073486328125,0.3376007080078125,0.35577548627630595
1785514963.383487,-0.0522460900247097,-0.17138671875,0.9799804091453552,0.9962252072676436,0.1354217529296875,0.0782012939453125,0.2765655517578125,0.31771527813495803
1785514963.394107,-0.0493164025247097,-0.1533203125,0.9721679091453552,0.9854185249705469,-0.232696533203125,-0.164031982421875,-0.2117156982421875,0.3547924811832691
1785514963.404727,-0.0473632775247097,-0.17236328125,0.9692382216453552,0.9855836398192698,0.1983642578125,-0.347137451171875,-0.2765655517578125,0.48614945562317885
1785514963.412706,-0.0415039025247097,-0.17138671875,0.9780272841453552,0.9937974390294089,0.255584716796875,-0.041961669921875,0.0324249267578125,0.26102816912743476
1785514963.420687,-0.0468749962747097,-0.1728515625,0.9853515028953552,1.0014951383769073,-0.1697540283203125,-0.4100799560546875,-0.3948211669921875,0.5940250452580772
1785514963.428668,-0.0483398400247097,-0.17236328125,0.9809569716453552,0.9971571696961855,-0.0476837158203125,-0.1049041748046875,-0.1506805419921875,0.1896925100813001
1785514963.43665,-0.0429687462747097,-0.1826171875,0.9829100966453552,1.0006535906167588,0.0743865966796875,0.6885528564453125,-0.3948211669921875,0.7971964348826821
1785514963.447292,-0.0502929612994194,-0.16357421875,0.9755858778953552,0.9904815556812699,0.1354217529296875,0.6885528564453125,-0.4558563232421875,0.8368088639142359
1785514963.457935,-0.0468749962747097,-0.16455078125,0.9785155653953552,0.9933614330175755,0.133514404296875,0.629425048828125,-0.5168914794921875,0.8253355619495985
1785514963.468578,-0.0498046837747097,-0.16748046875,0.9697265028953552,0.9853424299989694,0.0133514404296875,0.3261566162109375,-0.2765655517578125,0.4278374734391782
1785514963.479277,-0.0532226487994194,-0.16259765625,0.9716796278953552,0.9866265491208289,-0.232696533203125,0.019073486328125,0.3376007080078125,0.41047011157067026
1785514963.489975,-0.0620117150247097,-0.17431640625,0.9809569716453552,0.9982525945410045,0.0133514404296875,-0.1049041748046875,0.4596710205078125,0.47167848577997884
1785514963.500674,-0.0444335900247097,-0.162109375,0.9648436903953552,0.9793758932509533,-0.232696533203125,0.080108642578125,0.4596710205078125,0.5214043711699746
1785514963.508667,-0.04296875,-0.1689453125,0.9643554091453552,0.9799847892902168,-0.232696533203125,-0.347137451171875,0.5207061767578125,0.6676728308719753
1785514963.51666,-0.0493164025247097,-0.1767578125,0.9858397841453552,1.0027739086362015,-0.1697540283203125,-0.4100799560546875,0.3948211669921875,0.5940250452580772
1785514963.524653,-0.0405273400247097,-0.16162109375,0.9755858778953552,0.9897129121029369,-0.049591064453125,-0.347137451171875,0.2765655517578125,0.4466007032000769
1785514963.532646,-0.0434570237994194,-0.185546875,0.9692382216453552,0.987794961537069,-0.049591064453125,0.141143798828125,-0.1506805419921875,0.21233339670501106
1785514963.543289,-0.0615234337747097,-0.158203125,0.9648436903953552,0.9796615275486349,0.1983642578125,0.141143798828125,0.0324249267578125,0.24560400363265192
1785514963.553932,-0.0434570237994194,-0.18017578125,0.9892577528953552,1.0064704301320129,-0.2307891845703125,0.2002716064453125,0.6427764892578125,0.7117120058039028
1785514963.564575,-0.0473632775247097,-0.18212890625,0.9770507216453552,0.9950087091163642,0.1964569091796875,-0.2880096435546875,0.6999969482421875,0.7820106134147476
1785514963.572598,-0.0302734337747097,-0.17431640625,0.9814452528953552,0.9972649972355665,-0.2918243408203125,-0.7152557373046875,-0.2117156982421875,0.8009842398728324
1785514963.580623,-0.015136715024709702,-0.18505859375,0.9575194716453552,0.9753560077440786,0.2574920654296875,-0.1049041748046875,-0.8220672607421875,0.8678142836084588
1785514963.588649,-0.0498046800494194,-0.16357421875,0.9985350966453552,1.0130692821456224,0.255584716796875,-0.164031982421875,-1.4362335205078125,1.4679907234542233
1785514963.596673,-0.0551757737994194,-0.1884765625,0.9711913466453552,0.9908483296776553,-0.0476837158203125,0.6885528564453125,-0.8831024169921875,1.1208249871281755
1785514963.607317,-0.0498046800494194,-0.1689453125,0.9633788466453552,0.9793476537646284,0.072479248046875,0.385284423828125,-0.7648468017578125,0.8594695799161045
1785514963.617961,-0.0502929650247097,-0.17724609375,0.9711913466453552,0.9885131217537929,-0.1697540283203125,0.4444122314453125,-0.6389617919921875,0.796612097080532
1785514963.628605,-0.0502929650247097,-0.17138671875,0.9843749403953552,1.00044830599748,0.0133514404296875,0.3833770751953125,0.2117156982421875,0.43815497216057786
1785514963.639313,-0.0571289025247097,-0.16552734375,0.9594725966453552,0.9753208070916918,-0.415802001953125,0.141143798828125,0.5817413330078125,0.7288592836107443
1785514963.650023,-0.0405273400247097,-0.17626953125,0.9829100966453552,0.999412663029619,-0.537872314453125,-0.225067138671875,0.4596710205078125,0.7424683768752715
1785514963.660733,-0.0263671837747097,-0.1689453125,0.9619140028953552,0.9769934984236576,-0.2899169921875,-0.09918212890625,0.3185272216796875,0.4419825200213281
1785514963.671367,-0.0332031212747097,-0.166015625,0.9687499403953552,0.9834328050367895,-0.1659393310546875,0.1468658447265625,-0.2918243408203125,0.36642445856319944
1785514963.682001,-0.0517578087747097,-0.17919921875,0.9687499403953552,0.9865432974714157,-0.0476837158203125,-0.1583099365234375,-0.5970001220703125,0.6194714832084324
1785514963.692635,-0.0429687462747097,-0.16552734375,0.9755858778953552,0.9904612157142763,0.2593994140625,0.38909912109375,-0.7190704345703125,0.8577578165922098
1785514963.700625,-0.0581054612994194,-0.177734375,0.9746093153953552,0.9923855452115684,0.1964569091796875,0.1468658447265625,-0.5359649658203125,0.5894262787647421
1785514963.708613,-0.0473632775247097,-0.16015625,0.9672850966453552,0.9815975563662327,0.1964569091796875,-0.2193450927734375,-0.2307891845703125,0.37412729732385697
1785514963.716601,-0.0620117150247097,-0.189453125,0.9746093153953552,0.9947870410434458,0.0133514404296875,-0.2193450927734375,-0.1697540283203125,0.2776814016391967
1785514963.724589,-0.0439453087747097,-0.1728515625,0.9628905653953552,0.9792686524898991,-0.0457763671875,-0.70953369140625,-0.5359649658203125,0.8903886677290054
1785514963.735407,-0.0405273362994194,-0.17822265625,0.9716796278953552,0.9887199196209147,0.0133514404296875,-0.0362396240234375,-0.4138946533203125,0.41569262124561374
1785514963.746225,-0.0541992150247097,-0.16259765625,0.9887694716453552,1.0035141358172903,0.0133514404296875,0.2079010009765625,-0.3528594970703125,0.4097693398014522
1785514963.757043,-0.0488281212747097,-0.17626953125,0.9677733778953552,0.9849063123146782,0.0743865966796875,0.0247955322265625,0.0133514404296875,0.0795389536361429
1785514963.767621,-0.0502929650247097,-0.1806640625,0.9692382216453552,0.9872140680258924,-0.2288818359375,0.26702880859375,0.8068084716796875,0.8801313478198759
1785514963.778199,-0.0444335900247097,-0.162109375,0.9707030653953552,0.9851488387818939,0.1964569091796875,-0.4024505615234375,0.8068084716796875,0.9227684875466214
1785514963.788778,-0.0361328087747097,-0.177734375,0.9760741591453552,0.9927818753774177,-0.3509521484375,-0.34332275390625,0.4405975341796875,0.6596696983854037
1785514963.79675,-0.0200195275247097,-0.15478515625,0.9697265028953552,0.9822060458454249,-0.1068115234375,-0.40435791015625,-0.0476837158203125,0.4209367622332384
1785514963.804725,-0.0244140587747097,-0.1767578125,0.9877929091453552,1.003779956914604,-0.1087188720703125,0.0247955322265625,-0.1087188720703125,0.15573825704328545
1785514963.812701,-0.0380859337747097,-0.17578125,0.9790038466453552,0.9953884256658082,0.0762939453125,0.08392333984375,-0.7801055908203125,0.7883074437622577
1785514963.820675,-0.0385742150247097,-0.16162109375,0.9863280653953552,1.0002261747206294,0.0133514404296875,-0.0972747802734375,-1.3904571533203125,1.3939195597517169
1785514963.828681,-0.0336913987994194,-0.16552734375,0.9687499403953552,0.9833671028146083,0.1964569091796875,0.4520416259765625,-1.0852813720703125,1.1919616626984235
1785514963.836687,-0.04296875,-0.173828125,0.9863280653953552,1.0024497908145436,0.4425048828125,-0.03814697265625,-1.0852813720703125,1.172647184535298
1785514963.844693,-0.0493164025247097,-0.158203125,0.9824218153953552,0.9962996334850527,0.3223419189453125,0.6351470947265625,-0.4138946533203125,0.8237869437518909
1785514963.852699,-0.0585937425494194,-0.1787109375,0.9677733778953552,0.9858783580194174,-0.0457763671875,0.32806396484375,-0.2918243408203125,0.44145541871982497
1785514963.863348,-0.0483398400247097,-0.16650390625,0.9794921278953552,0.9947186132465272,0.0133514404296875,0.0858306884765625,0.1964569091796875,0.21480336405732614
1785514963.873996,-0.0561523400247097,-0.1767578125,0.9726561903953552,0.9901800211499125,-0.2288818359375,0.14495849609375,0.6237030029296875,0.6800038943089901
1785514963.884643,-0.0458984337747097,-0.18115234375,0.9814452528953552,0.999078386464204,-0.1659393310546875,0.3299713134765625,0.6237030029296875,0.7248602383713945
1785514963.892652,-0.0375976525247097,-0.17724609375,0.9633788466453552,0.9802696381040971,0.0743865966796875,0.2079010009765625,0.5016326904296875,0.5480798738143646
1785514963.90066,-0.0434570275247097,-0.16748046875,0.9892577528953552,1.0042754215440954,0.1964569091796875,0.3299713134765625,0.3795623779296875,0.5399481304917378
1785514963.908667,-0.0498046800494194,-0.17919921875,0.9707030653953552,0.9883609195650012,-0.0457763671875,0.209808349609375,0.6847381591796875,0.7176220216767889
1785514963.916675,-0.0556640587747097,-0.1708984375,0.9833983778953552,0.9996885180026985,0.1373291015625,0.08392333984375,0.4405975341796875,0.46907205867725044
1785514963.927337,-0.0444335862994194,-0.1923828125,0.9643554091453552,0.9843611356025509,0.1373291015625,-0.09918212890625,0.0133514404296875,0.16992538889726552
1785514963.937999,-0.0488281175494194,-0.1630859375,0.9785155653953552,0.9932139345552223,0.3814697265625,-0.09918212890625,0.3185272216796875,0.5067700049618419
1785514963.948662,-0.0317382775247097,-0.17578125,0.9697265028953552,0.9860404943659532,0.3795623779296875,-0.2803802490234375,0.3185272216796875,0.5693331834111416
1785514963.959323,-0.0454101525247097,-0.17041015625,0.9672850966453552,0.9832304722178219,-0.2288818359375,-0.22125244140625,-0.5970001220703125,0.6765712700095348
1785514963.969985,-0.0400390550494194,-0.18359375,0.9755858778953552,0.9935177885257837,-0.1678466796875,-0.278472900390625,-0.3528594970703125,0.47982235129972745
1785514963.980647,-0.0400390587747097,-0.16796875,0.9497069716453552,0.965277141134047,-0.5340576171875,-0.278472900390625,-0.4138946533203125,0.7308033105939648
1785514963.988652,-0.0488281175494194,-0.17822265625,0.9902343153953552,1.0073288934855058,-0.2307891845703125,-0.1583099365234375,-0.2918243408203125,0.40433541721186694
1785514963.99666,-0.0395507775247097,-0.1826171875,0.9750975966453552,0.9928386697529298,-0.1659393310546875,-0.1583099365234375,0.0743865966796875,0.2411042582753745
1785514964.004666,-0.0478515587747097,-0.1728515625,0.9809569716453552,0.9972181378993701,0.1373291015625,-0.34332275390625,0.0743865966796875,0.3771778907244186
1785514964.012674,-0.0371093712747097,-0.17724609375,0.9780272841453552,0.9946510200662227,0.3814697265625,-0.40435791015625,0.6237030029296875,0.8354818416058534
1785514964.023324,-0.0468749962747097,-0.1796875,0.9726561903953552,0.9902246854357901,0.4425048828125,0.209808349609375,0.8068084716796875,0.9438061373252599
1785514964.033975,-0.0356445275247097,-0.16064453125,0.9765624403953552,0.9903289341193278,0.6256103515625,0.14495849609375,0.5626678466796875,0.853812850254125
1785514964.044626,-0.0395507737994194,-0.16455078125,0.9667968153953552,0.9814974811871494,0.6847381591796875,0.8182525634765625,0.1964569091796875,1.084895811328069
1785514964.055302,-0.0512695275247097,-0.169921875,0.9570311903953552,0.9733502491116306,0.2593994140625,1.73187255859375,0.1964569091796875,1.7621764759496894
1785514964.065981,-0.0424804650247097,-0.166015625,0.9594725966453552,0.9746555501130831,-0.1068115234375,0.87738037109375,0.6237030029296875,1.0817626601908368
1785514964.07666,-0.0483398400247097,-0.1767578125,0.9653319716453552,0.9825710559008486,0.0762939453125,0.45013427734375,0.1964569091796875,0.4970281188178017
1785514964.084652,-0.0341796837747097,-0.17529296875,0.9619140028953552,0.9783529141584304,-0.3509521484375,-0.03814697265625,-0.2307891845703125,0.4217656336525814
1785514964.092646,-0.0327148400247097,-0.16650390625,0.9716796278953552,0.9863848695216321,-0.5340576171875,-0.03814697265625,-0.4138946533203125,0.6767433147405068
1785514964.100641,-0.0581054612994194,-0.16943359375,0.9750975966453552,0.991412785023174,-0.8392333984375,-0.09918212890625,-0.5359649658203125,1.000703870450245
1785514964.108634,-0.0444335862994194,-0.16357421875,0.9663085341453552,0.9810622058734328,-0.6561279296875,-0.52642822265625,-0.6580352783203125,1.0680079406254968
1785514964.119296,-0.0356445275247097,-0.1630859375,0.9667968153953552,0.9811032757112343,-0.4749298095703125,-0.4024505615234375,-0.7801055908203125,0.9980428404222598
1785514964.129955,-0.0561523400247097,-0.17431640625,0.9755858778953552,0.9926263647148491,-0.5359649658203125,-0.6465911865234375,-0.6580352783203125,1.0669344096947322
1785514964.140615,-0.0419921837747097,-0.1669921875,0.9716796278953552,0.986818642634532,-0.1678466796875,-0.40435791015625,-0.7801055908203125,0.894562776006892
1785514964.151306,-0.0590820237994194,-0.16455078125,0.9902343153953552,1.005550418692533,-0.7190704345703125,-0.4634857177734375,-0.8411407470703125,1.1997495808855696
1785514964.161997,-0.0512695275247097,-0.1767578125,0.9750975966453552,0.9923140690910011,0.0133514404296875,-0.1583099365234375,-0.3528594970703125,0.38697560858058766
1785514964.172688,-0.0502929650247097,-0.18115234375,0.9731444716453552,0.9911385960959307,0.0762939453125,0.08392333984375,0.4405975341796875,0.454961624960938
1785514964.180675,-0.0654296875,-0.1796875,0.9863280653953552,1.004694826426981,0.2593994140625,-0.22125244140625,0.9288787841796875,0.9894728366879653
1785514964.188664,-0.0400390587747097,-0.1806640625,0.9692382216453552,0.9867448302397228,0.5645751953125,-0.40435791015625,1.2340545654296875,1.4160300636377507
1785514964.196653,-0.0249023400247097,-0.1748046875,0.9804686903953552,0.9962407631472735,0.1373291015625,-0.40435791015625,1.2340545654296875,1.30585423080057
1785514964.204642,-0.0258789025247097,-0.173828125,0.9609374403953552,0.9768759895659612,0.0762939453125,-0.40435791015625,0.9288787841796875,1.0159438376684073
1785514964.215384,-0.0366210900247097,-0.18017578125,0.9770507216453552,0.9941994412849744,0.3223419189453125,-0.1583099365234375,0.5016326904296875,0.6169292543064625
1785514964.226126,-0.0380859337747097,-0.16796875,0.9721679091453552,0.987306681279989,0.1964569091796875,0.2079010009765625,0.0743865966796875,0.29555288720815964
1785514964.236868,-0.0292968712747097,-0.1708984375,0.9721679091453552,0.9875095068800502,0.3814697265625,0.38909912109375,-0.2918243408203125,0.6181251687278291
1785514964.247467,-0.0366210900247097,-0.16943359375,0.9829100966453552,0.9980787068227733,0.2593994140625,0.57220458984375,-1.0242462158203125,1.201576655597325
1785514964.258064,-0.0488281212747097,-0.14794921875,0.9721679091453552,0.984572800928405,0.1964569091796875,0.6351470947265625,-0.7190704345703125,0.9793209070458809
1785514964.268662,-0.06640625,-0.16650390625,0.9833983778953552,0.9996027763480788,0.1964569091796875,0.6961822509765625,-0.5970001220703125,0.9379094783033155
1785514964.276654,-0.0634765550494194,-0.16357421875,0.9697265028953552,0.985472114520888,-0.1087188720703125,-0.2193450927734375,0.0133514404296875,0.245174068428079
