timestamp,accel_x,accel_y,accel_z,accel_rms,gyro_x,gyro_y,gyro_z,gyro_rms
1782130660.096087,-0.0791015625,-0.201171875,0.9858397841453552,1.0092607495016923,2.3136138916015625,0.1468658447265625,1.4514923095703125,2.735179836957843
1782130660.105627,-0.0991210862994194,-0.1982421875,0.9790038466453552,1.0037796005101738,3.2291412353515625,0.2689361572265625,1.8787384033203125,3.7455757584945686
1782130660.115167,-0.08251953125,-0.19140625,0.9770507216453552,0.9990365049609007,3.2901763916015625,0.0247955322265625,2.6721954345703125,4.238691301192987
1782130660.124707,-0.1015624850988388,-0.19091796875,0.9326171278953552,0.9573605989463214,2.7408599853515625,-0.2803802490234375,3.4046173095703125,4.379765469516559
1782130660.134247,-0.1030273362994194,-0.16357421875,0.9409179091453552,0.9605715323780387,1.09100341796875,-1.07574462890625,3.7708282470703125,4.070216288300108
1782130660.142337,-0.0795898362994194,-0.15869140625,0.9497069716453552,0.966157769958697,0.6046295166015625,-1.3179779052734375,3.9539337158203125,4.21144089834292
1782130660.150427,-0.0610351525247097,-0.1787109375,0.9790038466453552,0.9970513631565054,0.7877349853515625,-1.1959075927734375,3.9539337158203125,4.205272072851008
1782130660.158517,-0.0463867150247097,-0.2021484225988388,0.9584960341453552,0.9806785199862167,0.6046295166015625,-1.3790130615234375,3.2825469970703125,3.611421972599354
1782130660.166607,-0.0371093712747097,-0.1826171875,0.9526366591453552,0.9706918908461315,0.23651123046875,-1.74713134765625,2.3059844970703125,2.902752143885111
1782130660.174548,-0.019531242549419403,-0.18408203125,0.9443358778953552,0.9623086375716688,-0.6771087646484375,-2.2945404052734375,0.3528594970703125,2.4182435310094057
1782130660.182489,-0.0180664025247097,-0.1865234375,0.9658202528953552,0.9838323782737836,-0.8602142333984375,-2.5997161865234375,-1.2340545654296875,3.003561793649513
1782130660.19043,-0.011230465024709702,-0.1972656100988388,0.9770507216453552,0.9968289506931707,-0.7381439208984375,-1.9283294677734375,-3.0651092529296875,3.6957009777088157
1782130660.19837,-0.0219726525247097,-0.20654296875,0.9819335341453552,1.003661427413758,-0.55694580078125,-0.89263916015625,-5.2013397216796875,5.306687120565452
1782130660.208991,-0.0410156212747097,-0.18115234375,0.9707030653953552,0.9883131558380713,-0.25177001953125,-0.89263916015625,-5.9947967529296875,6.066117450389132
1782130660.219611,-0.0712890625,-0.1826171875,0.9824218153953552,1.0017902929092717,-0.0667572021484375,-0.4634857177734375,-5.6285858154296875,5.648030968069751
1782130660.230231,-0.0849609375,-0.1796875,0.9648436903953552,0.9851037028926736,0.2384185791015625,0.6351470947265625,-5.2013397216796875,5.24539704418296
1782130660.238267,-0.09130859375,-0.17431640625,0.9794921278953552,0.9990637103756139,0.4215240478515625,1.4896392822265625,-3.4313201904296875,3.7643945015526814
1782130660.246303,-0.1088867112994194,-0.17431640625,0.9682616591453552,0.9898349185376489,0.4825592041015625,1.4896392822265625,-1.7833709716796875,2.3732468475161523
1782130660.254339,-0.1240234375,-0.1748046875,0.9785155653953552,1.0017141326457768,0.3604888916015625,1.4896392822265625,0.6580352783203125,1.6679292130167522
1782130660.262375,-0.1171874925494194,-0.18115234375,0.9643554091453552,0.9881955450233744,-0.12969970703125,1.12152099609375,2.2449493408203125,2.5128527417126265
1782130660.270357,-0.0966796800494194,-0.1748046875,0.9594725966453552,0.9800465820662869,-0.55694580078125,0.87738037109375,3.8318634033203125,3.9702848867926344
1782130660.278339,-0.0795898362994194,-0.1923828125,0.9531249403953552,0.9755987087892377,-1.22833251953125,0.26702880859375,4.8084259033203125,4.970016582555711
1782130660.286321,-0.07421875,-0.201171875,0.9633788466453552,0.9869535694784801,-1.4095306396484375,0.1468658447265625,4.8084259033203125,5.012913909910756
1782130660.294303,-0.0512695275247097,-0.189453125,0.9682616591453552,0.9879532841161006,-1.4705657958984375,-0.1583099365234375,4.1980743408203125,4.451005950021002
1782130660.304977,-0.0341796800494194,-0.18798828125,0.9726561903953552,0.9912456351127178,-1.8978118896484375,-0.2803802490234375,3.4046173095703125,3.9079050752492965
1782130660.31565,-0.0385742112994194,-0.18505859375,0.9716796278953552,0.9898969401735495,-1.8367767333984375,-0.5855560302734375,1.7566680908203125,2.6081616925048383
1782130660.326325,-0.0307617150247097,-0.18505859375,0.9721679091453552,0.9901027268945585,-1.8367767333984375,-0.4024505615234375,0.1087188720703125,1.8834901157077002
1782130660.337111,-0.0380859337747097,-0.185546875,0.9711913466453552,0.9894901783103134,-1.7147064208984375,-0.2193450927734375,-1.1119842529296875,2.0554414023167173
1782130660.347899,-0.0434570237994194,-0.18505859375,0.9804686903953552,0.9987262131754697,-1.2264251708984375,-0.1583099365234375,-2.6378631591796875,2.9133319039156453
1782130660.358686,-0.0629882737994194,-0.18212890625,0.9726561903953552,0.9915636771496107,-1.04522705078125,0.08392333984375,-3.5533905029296875,3.704878780873444
1782130660.366565,-0.0893554612994194,-0.18798828125,0.9741210341453552,0.9961103259758818,0.1163482666015625,0.8182525634765625,-3.1871795654296875,3.292595899752918
1782130660.374444,-0.08544921875,-0.18603515625,0.9785155653953552,0.9997016355227889,0.2384185791015625,0.9403228759765625,-2.4547576904296875,2.6394859061319753
1782130660.382325,-0.10888671875,-0.181640625,0.9667968153953552,0.9897200192120662,0.6046295166015625,0.9403228759765625,-1.2950897216796875,1.7108598278734126
1782130660.390205,-0.099609375,-0.201171875,0.9614257216453552,0.9872849482901065,0.54168701171875,0.87738037109375,0.1697540283203125,1.0450060116460427
1782130660.400895,-0.1079101487994194,-0.1875,0.9594725966453552,0.9835591054569589,0.6046295166015625,0.7572174072265625,1.3294219970703125,1.6450890250825865
1782130660.411585,-0.0922851487994194,-0.19287109375,0.9746093153953552,0.9977871141424183,0.4825592041015625,0.3299713134765625,2.0008087158203125,2.084461554090914
1782130660.422275,-0.0849609375,-0.18017578125,0.9633788466453552,0.9837583418775475,0.2384185791015625,-0.3414154052734375,2.6721954345703125,2.704447510741751
1782130660.432969,-0.0610351525247097,-0.171875,0.9663085341453552,0.9833709821989155,0.1163482666015625,-0.5245208740234375,2.6721954345703125,2.7256719367829136
1782130660.443664,-0.0517578087747097,-0.18505859375,0.9765624403953552,0.9952887791394107,-0.12969970703125,-0.52642822265625,2.0618438720703125,2.131935468161949
1782130660.454359,-0.0498046837747097,-0.1904296875,0.9692382216453552,0.989023105243501,-0.61798095703125,-0.766754150390625,1.6345977783203125,1.908329711366516
1782130660.462699,-0.0566406212747097,-0.177734375,0.9702147841453552,0.9879850178060616,-0.5550384521484375,-0.4634857177734375,0.1087188720703125,0.7312362730934051
1782130660.471039,-0.0595703087747097,-0.177734375,0.9736327528953552,0.9915134226296398,-0.1888275146484375,-0.5855560302734375,-0.5016326904296875,0.7938306185740251
1782130660.479379,-0.0639648362994194,-0.169921875,0.9702147841453552,0.9870570759892993,0.05340576171875,-0.58746337890625,-0.8678436279296875,1.0493416790916437
1782130660.487719,-0.0581054612994194,-0.18017578125,0.9775390028953552,0.995701792186552,0.2994537353515625,-0.7076263427734375,-1.4171600341796875,1.6120639388929607
1782130660.497914,-0.0605468712747097,-0.17919921875,0.9692382216453552,0.9875226650158554,0.4215240478515625,-0.5245208740234375,-1.2950897216796875,1.4594732122940275
1782130660.508109,-0.07470703125,-0.19091796875,0.9667968153953552,0.988294942599837,0.72479248046875,-0.40435791015625,-1.0509490966796875,1.339150276504405
1782130660.518304,-0.0693359300494194,-0.1884765625,0.9609374403953552,0.9816983498820864,0.4215240478515625,-0.0362396240234375,-0.3185272216796875,0.5295804228042302
1782130660.528988,-0.0751953125,-0.19140625,0.9721679091453552,0.9936805981466513,0.41961669921875,-0.09918212890625,-0.0743865966796875,0.43754843700235224
1782130660.539673,-0.0698242112994194,-0.1884765625,0.9663085341453552,0.986990890665941,0.0553131103515625,0.0247955322265625,0.5359649658203125,0.5393818713879169
1782130660.550358,-0.0678710862994194,-0.19921875,0.9687499403953552,0.9913480931151428,0.179290771484375,0.38909912109375,0.7801055908203125,0.8900045166202809
1782130660.561016,-0.0688476487994194,-0.18310546875,0.9687499403953552,0.9883036266489007,0.1163482666015625,0.5130767822265625,1.2683868408203125,1.3731678271672711
1782130660.571676,-0.07080078125,-0.1953125,0.9624022841453552,0.9845698958479573,-0.12969970703125,0.57220458984375,0.9632110595703125,1.127836713323702
1782130660.582336,-0.0615234337747097,-0.1787109375,0.9672850966453552,0.9855775922157394,-0.12969970703125,0.63323974609375,0.4749298095703125,0.8021053011016461
1782130660.590335,-0.064453125,-0.1865234375,0.9638671278953552,0.9838623065735993,-0.3719329833984375,0.6961822509765625,0.3528594970703125,0.8645887435001509
1782130660.598336,-0.0629882737994194,-0.1796875,0.9658202528953552,0.9844104231443959,-0.12969970703125,0.63323974609375,-0.0133514404296875,0.6465236662322706
1782130660.606337,-0.06689453125,-0.19091796875,0.9580077528953552,0.9791340070237532,-0.308990478515625,0.38909912109375,0.3528594970703125,0.6094120662753221
1782130660.614337,-0.0722656175494194,-0.1884765625,0.9624022841453552,0.9833432211694004,-0.3108978271484375,0.1468658447265625,-0.1354217529296875,0.36954848997041756
1782130660.624983,-0.07177734375,-0.1845703125,0.9716796278953552,0.9916549231456522,-0.492095947265625,-0.09918212890625,-0.0133514404296875,0.5021690720974125
1782130660.635628,-0.07421875,-0.18994140625,0.9667968153953552,0.9880699585142697,-0.3108978271484375,-0.0362396240234375,-0.1964569091796875,0.36954848997041756
1782130660.646273,-0.0605468712747097,-0.19189453125,0.9741210341453552,0.9946864952884551,-0.1277923583984375,-0.6465911865234375,-0.3185272216796875,0.7320318574391433
1782130660.654283,-0.0551757737994194,-0.203125,0.9653319716453552,0.9880131310463811,-0.0057220458984375,-0.8296966552734375,-0.8678436279296875,1.2006589208094676
1782130660.662294,-0.0624999962747097,-0.19677734375,0.9877929091453552,1.0091394372957032,0.0553131103515625,-0.4634857177734375,-0.9899139404296875,1.094444224350311
1782130660.670305,-0.06982421875,-0.19970703125,0.9843749403953552,1.0068526918735905,0.0553131103515625,-0.4634857177734375,-0.8068084716796875,0.9321043185882338
1782130660.678316,-0.0634765550494194,-0.20703125,0.9682616591453552,0.9921803526014917,0.2994537353515625,-0.5855560302734375,-1.1119842529296875,1.2919200373742896
1782130660.688961,-0.0751953125,-0.19482421875,0.9819335341453552,1.0038945545786708,0.35858154296875,0.08392333984375,-0.5016326904296875,0.6223015394775315
1782130660.699606,-0.0703125,-0.20068359375,0.9682616591453552,0.9913366698693139,0.6656646728515625,-0.0362396240234375,-0.5016326904296875,0.8343009787478765
1782130660.710251,-0.0737304612994194,-0.189453125,0.9604491591453552,0.9817287073314657,0.7877349853515625,-0.2193450927734375,-0.1354217529296875,0.8288411959097857
1782130660.72094,-0.0688476487994194,-0.197265625,0.9658202528953552,0.988161164210928,0.6656646728515625,-0.3414154052734375,-0.0743865966796875,0.7518027011165828
1782130660.731631,-0.07568359375,-0.18994140625,0.9716796278953552,0.9929587319914149,0.7877349853515625,-0.1583099365234375,0.2918243408203125,0.8548391012606356
1782130660.742322,-0.064453125,-0.18212890625,0.9702147841453552,0.9892632972006518,0.9098052978515625,-0.3414154052734375,0.2918243408203125,1.014628801509205
1782130660.752969,-0.05224609375,-0.1884765625,0.9663085341453552,0.9859032671038753,0.6656646728515625,-0.3414154052734375,0.4749298095703125,0.8861333193482213
1782130660.763618,-0.064453125,-0.1875,0.9536132216453552,0.9740064844851388,0.4825592041015625,-0.1583099365234375,0.2307891845703125,0.5578432299309709
1782130660.774269,-0.06640625,-0.17822265625,0.9726561903953552,0.9910767729869738,0.54168701171875,-0.22125244140625,0.1087188720703125,0.5951447341926637
1782130660.782261,-0.0776367112994194,-0.19482421875,0.9736327528953552,0.9959641924605146,0.6046295166015625,-0.5245208740234375,-0.0743865966796875,0.8038857912649884
1782130660.790256,-0.0498046800494194,-0.18359375,0.9619140028953552,0.980543584018606,0.4825592041015625,-0.6465911865234375,-0.4405975341796875,0.9192767456419971
1782130660.798251,-0.06494140625,-0.20166015625,0.9794921278953552,1.0021422221788048,0.5435943603515625,-0.1583099365234375,-0.5626678466796875,0.7982179967247265
1782130660.806246,-0.07666015625,-0.18017578125,0.9770507216453552,0.9964778995908699,0.35858154296875,0.08392333984375,-0.6237030029296875,0.7243129750266033
1782130660.816919,-0.0732421800494194,-0.1875,0.9741210341453552,0.9947021946808039,0.4215240478515625,0.1468658447265625,-0.7457733154296875,0.869154725737254
1782130660.827592,-0.08154296875,-0.177734375,0.9716796278953552,0.9911609672883916,0.6656646728515625,0.0247955322265625,-0.5626678466796875,0.8719629469123861
1782130660.838264,-0.07666015625,-0.18359375,0.9780272841453552,0.9980585218954229,0.5435943603515625,0.1468658447265625,-0.2574920654296875,0.6191660267751434
1782130660.848932,-0.07666015625,-0.18701171875,0.9633788466453552,0.984352053215636,0.6656646728515625,0.0247955322265625,0.1697540283203125,0.687415962305175
1782130660.859599,-0.0810546875,-0.181640625,0.9672850966453552,0.9875239932317227,0.5435943603515625,0.1468658447265625,0.7801055908203125,0.9620962206465525
1782130660.870265,-0.0683593675494194,-0.18359375,0.9565429091453552,0.976398486893071,0.7266998291015625,0.0247955322265625,0.7190704345703125,1.0226288426930743
1782130660.878262,-0.07861328125,-0.17138671875,0.9658202528953552,0.9840539701945372,0.2994537353515625,0.1468658447265625,1.0852813720703125,1.1353756085657603
1782130660.886259,-0.0634765625,-0.181640625,0.9794921278953552,0.9982121113501768,0.4825592041015625,0.0858306884765625,0.9632110595703125,1.080743187730581
1782130660.894256,-0.0493164025247097,-0.181640625,0.9687499403953552,0.9868646671273494,0.4825592041015625,0.0247955322265625,0.9021759033203125,1.0234254073518763
1782130660.902252,-0.0551757775247097,-0.18212890625,0.9658202528953552,0.984390199981758,0.1163482666015625,0.2689361572265625,0.6580352783203125,0.7203290937613652
1782130660.91292,-0.06591796875,-0.18017578125,0.9580077528953552,0.9770298589914137,0.23651123046875,0.38909912109375,0.2918243408203125,0.5408300417589438
1782130660.923587,-0.0673828050494194,-0.19140625,0.9589843153953552,0.9802181961837316,0.1163482666015625,0.0858306884765625,-0.0133514404296875,0.14519671892675975
1782130660.934253,-0.0605468712747097,-0.1767578125,0.9716796278953552,0.9894799377288038,0.05340576171875,0.38909912109375,0.1087188720703125,0.40751698684218013
1782130660.942284,-0.0654296875,-0.18505859375,0.9663085341453552,0.9860425499385005,-0.2498626708984375,0.2079010009765625,-0.3185272216796875,0.45509754060699814
1782130660.950314,-0.0849609375,-0.1826171875,0.9707030653953552,0.9913787567016091,-0.12969970703125,0.08392333984375,-0.5626678466796875,0.5834897142723923
1782130660.958344,-0.0776367112994194,-0.1796875,0.9726561903953552,0.9921568027847437,-0.0057220458984375,-0.2193450927734375,-0.3185272216796875,0.3867875417901054
1782130660.966374,-0.0634765550494194,-0.18310546875,0.9760741591453552,0.9951269516390415,0.3604888916015625,-0.1583099365234375,-0.1354217529296875,0.416357212182913
1782130660.977121,-0.0624999962747097,-0.1796875,0.9697265028953552,0.9882121926025018,0.2384185791015625,-0.1583099365234375,0.1697540283203125,0.33274898195762564
1782130660.987868,-0.0849609375,-0.1865234375,0.9638671278953552,0.9854182837125239,-0.0057220458984375,-0.3414154052734375,0.2918243408203125,0.4491755410332349
1782130660.998615,-0.0678710862994194,-0.18408203125,0.9692382216453552,0.9888960556513712,0.05340576171875,-0.278472900390625,0.4138946533203125,0.5017052079497167
1782130661.009178,-0.07666015625,-0.19384765625,0.9760741591453552,0.9980853959162036,-0.0057220458984375,-0.4024505615234375,0.7190704345703125,0.8240518710329661
1782130661.019742,-0.0747070237994194,-0.18310546875,0.9687499403953552,0.9887290827659154,0.1163482666015625,-0.3414154052734375,0.8411407470703125,0.9152153596182798
1782130661.030306,-0.0825195237994194,-0.1845703125,0.9663085341453552,0.9872324220904496,0.1773834228515625,-0.2193450927734375,0.9021759033203125,0.945250500638929
1782130661.040962,-0.0595703087747097,-0.1845703125,0.9702147841453552,0.989409697404508,0.35858154296875,-0.22125244140625,0.6580352783203125,0.7813730180267083
1782130661.051623,-0.0712890625,-0.19580078125,0.9741210341453552,0.9961585544152375,0.1773834228515625,-0.0362396240234375,0.4749298095703125,0.508268150753507
1782130661.062283,-0.0566406212747097,-0.17919921875,0.9741210341453552,0.9920848296105589,0.54168701171875,-0.278472900390625,0.4138946533203125,0.7363971475799576
1782130661.070301,-0.0517578087747097,-0.18408203125,0.9785155653953552,0.9970244614447917,0.6656646728515625,-0.2803802490234375,0.4138946533203125,0.8324850297585923
1782130661.07832,-0.0502929650247097,-0.18994140625,0.9687499403953552,0.9884753750879222,1.02996826171875,-0.58746337890625,0.2307891845703125,1.20797826529227
1782130661.086339,-0.0639648362994194,-0.18310546875,0.9741210341453552,0.9932426199742865,0.7877349853515625,-0.7076263427734375,0.0476837158203125,1.0599694263931243
1782130661.094358,-0.0629882737994194,-0.18408203125,0.9604491591453552,0.9799572971147142,1.0929107666015625,-0.4634857177734375,0.1087188720703125,1.1920959472617187
1782130661.104975,-0.0615234337747097,-0.16796875,0.9560546278953552,0.9726454057878029,0.7266998291015625,-0.4634857177734375,0.2918243408203125,0.9099852186114941
1782130661.115592,-0.064453125,-0.177734375,0.9741210341453552,0.9922980915749675,0.2994537353515625,-0.4024505615234375,-0.0743865966796875,0.5071216420663984
1782130661.126209,-0.0620117150247097,-0.17431640625,0.9580077528953552,0.9757102627808262,0.6046295166015625,0.0247955322265625,-0.2574920654296875,0.6576426343565965
1782130661.136954,-0.0791015625,-0.1875,0.9726561903953552,0.9937169475783065,-0.4329681396484375,0.2079010009765625,0.1697540283203125,0.5094120790564933
1782130661.147701,-0.076171875,-0.18408203125,0.9799804091453552,1.0000249752275387,-0.3719329833984375,0.4520416259765625,0.4138946533203125,0.7169271649214712
1782130661.158448,-0.06884765625,-0.1865234375,0.9638671278953552,0.9841599629862899,-0.6771087646484375,0.5130767822265625,0.3528594970703125,0.919909717470367
1782130661.166397,-0.0825195237994194,-0.185546875,0.9785155653953552,0.9993647113798547,-0.61798095703125,0.209808349609375,0.4749298095703125,0.8071420759925496
1782130661.174349,-0.07080078125,-0.18603515625,0.9765624403953552,0.9966423781765975,-0.980377197265625,0.38909912109375,0.2918243408203125,1.0943943625812136
1782130661.182301,-0.0629882737994194,-0.19287109375,0.9643554091453552,0.985468485842372,-1.04522705078125,-0.09918212890625,0.4138946533203125,1.1285590221279467
1782130661.190253,-0.0576171837747097,-0.1796875,0.9619140028953552,0.9802478699229823,-1.0433197021484375,0.1468658447265625,0.2918243408203125,1.0932735353668637
1782130661.201087,-0.07470703125,-0.18603515625,0.9667968153953552,0.9873633080775034,-0.797271728515625,0.08392333984375,0.2918243408203125,0.8531393684246624
1782130661.211921,-0.0742187425494194,-0.189453125,0.9726561903953552,0.9937107089250312,-0.6160736083984375,0.0247955322265625,0.0476837158203125,0.6184134912321223
1782130661.222754,-0.0756835862994194,-0.18798828125,0.9819335341453552,1.002627081522167,-0.3108978271484375,-0.2193450927734375,-0.3795623779296875,0.5374358821190176
1782130661.231784,-0.0737304612994194,-0.189453125,0.9833983778953552,1.0041917332576018,-0.0057220458984375,-0.2803802490234375,-0.0743865966796875,0.2901365051442082
1782130661.240816,-0.06396484375,-0.18212890625,0.9711913466453552,0.9901894119443015,0.1773834228515625,-0.4634857177734375,-0.4405975341796875,0.6636339928060615
1782130661.249848,-0.07080078125,-0.17919921875,0.9614257216453552,0.9805429765530488,0.2994537353515625,-0.5245208740234375,-0.3185272216796875,0.6828281466469401
1782130661.25888,-0.0732421875,-0.17626953125,0.9726561903953552,0.9912090750145932,0.2384185791015625,-0.7686614990234375,-0.2574920654296875,0.8449769716986448
1782130661.269716,-0.07373046875,-0.177734375,0.9755858778953552,0.9943809608131012,0.35858154296875,-0.52642822265625,0.1087188720703125,0.6461634388535991
1782130661.280552,-0.0703124925494194,-0.17333984375,0.9682616591453552,0.986164889159365,0.5435943603515625,-0.4634857177734375,0.4749298095703125,0.8578299150790186
1782130661.291388,-0.06396484375,-0.1767578125,0.9721679091453552,0.9901743629724002,0.7877349853515625,-0.4024505615234375,0.5359649658203125,1.0342878256095474
1782130661.302224,-0.07177734375,-0.1826171875,0.9614257216453552,0.9812443337352363,0.54168701171875,-0.22125244140625,0.5970001220703125,0.835934571150747
1782130661.312923,-0.0600585900247097,-0.17236328125,0.9716796278953552,0.9886745845959016,0.6656646728515625,-0.6465911865234375,0.7801055908203125,1.2123342575385194
1782130661.323621,-0.0576171837747097,-0.17529296875,0.9604491591453552,0.9780132678355324,0.2994537353515625,-0.5245208740234375,0.6580352783203125,0.8931993699149174
1782130661.334319,-0.0571289025247097,-0.18115234375,0.9760741591453552,0.9943845570507962,0.35858154296875,-0.461578369140625,0.4138946533203125,0.716201157401683
1782130661.342305,-0.05712890625,-0.1923828125,0.9736327528953552,0.994100395324999,0.4825592041015625,-0.2193450927734375,0.2918243408203125,0.6050926384299607
1782130661.350296,-0.0600585900247097,-0.171875,0.9614257216453552,0.9785128860173729,0.5435943603515625,-0.3414154052734375,-0.1354217529296875,0.6560475277985577
1782130661.358286,-0.0625,-0.18359375,0.9736327528953552,0.9927606219777506,0.667572021484375,-0.40435791015625,0.1087188720703125,0.7880212665397462
1782130661.366276,-0.0727538987994194,-0.18603515625,0.9677733778953552,0.9881738309196738,0.7877349853515625,-0.3414154052734375,-0.0743865966796875,0.8617564922125266
1782130661.37694,-0.07373046875,-0.18212890625,0.9687499403953552,0.9884753752774625,0.4825592041015625,-0.3414154052734375,0.0476837158203125,0.5930443500916195
1782130661.387606,-0.068359375,-0.1767578125,0.9721679091453552,0.9904679560703755,0.05340576171875,0.26702880859375,0.1697540283203125,0.320894048144759
1782130661.398271,-0.06982421875,-0.16796875,0.9526366591453552,0.9698481978372874,0.2384185791015625,0.0247955322265625,0.1697540283203125,0.29372549669747766
1782130661.406347,-0.0732421800494194,-0.1806640625,0.9687499403953552,0.9881702117719395,0.4215240478515625,0.2079010009765625,1.0852813720703125,1.1826838147565235
1782130661.414423,-0.0751953125,-0.1806640625,0.9653319716453552,0.9849668288737877,0.54168701171875,0.38909912109375,1.1463165283203125,1.326221899910061
1782130661.422498,-0.06494140625,-0.1826171875,0.9663085341453552,0.9855549738996211,0.1163482666015625,0.3299713134765625,0.9632110595703125,1.024789506258334
1782130661.430575,-0.07470703125,-0.18603515625,0.9682616591453552,0.9887976842863592,-0.0667572021484375,0.6351470947265625,1.1463165283203125,1.3122156602779187
1782130661.441144,-0.076171875,-0.1806640625,0.9653319716453552,0.9850418638315472,-0.2498626708984375,0.6351470947265625,0.7190704345703125,0.991415894628098
1782130661.451713,-0.06640625,-0.1728515625,0.9707030653953552,0.9882064024613954,-0.2498626708984375,0.6961822509765625,0.5970001220703125,0.9505315495212467
1782130661.462282,-0.0605468712747097,-0.18603515625,0.9746093153953552,0.9940514678010999,-0.308990478515625,0.38909912109375,0.6580352783203125,0.8245505862973689
1782130661.470304,-0.06494140625,-0.18408203125,0.9702147841453552,0.9896566615999064,-0.4940032958984375,0.3299713134765625,0.1087188720703125,0.603937179862449
1782130661.478325,-0.0703125,-0.173828125,0.9790038466453552,0.9967991755833608,-0.4940032958984375,0.2689361572265625,-0.0133514404296875,0.5626225857391943
1782130661.486346,-0.07177734375,-0.1845703125,0.9672850966453552,0.9873493026909815,-0.06866455078125,-0.09918212890625,-0.3185272216796875,0.3406046185525787
1782130661.494367,-0.0795898362994194,-0.17333984375,0.9775390028953552,0.9959737675536882,-0.61798095703125,-0.09918212890625,-0.6847381591796875,0.9276873959391831
1782130661.504985,-0.07470703125,-0.1806640625,0.9736327528953552,0.9930666551182655,-0.2498626708984375,-0.2803802490234375,-0.6237030029296875,0.7280452418733712
1782130661.515603,-0.0722656175494194,-0.201171875,0.9594725966453552,0.9829954763294667,-0.6160736083984375,-0.1583099365234375,-0.7457733154296875,0.9801972071854287
1782130661.526221,-0.0703125,-0.18017578125,0.9677733778953552,0.9869105687793013,-0.61798095703125,-0.40435791015625,-0.5016326904296875,0.8927716050966878
1782130661.534321,-0.0693359375,-0.1875,0.9765624403953552,0.9968138854469953,-0.43487548828125,-0.03814697265625,-0.6237030029296875,0.7612997554801932
1782130661.542421,-0.0649413987994194,-0.19775390625,0.9707030653953552,0.9927680665105513,-0.0667572021484375,-0.2803802490234375,-0.3185272216796875,0.42956861970133825
1782130661.550521,-0.0732421800494194,-0.17529296875,0.9726561903953552,0.9910358755090481,-0.0057220458984375,-0.2193450927734375,0.0476837158203125,0.22454119507895215
1782130661.558621,-0.076171875,-0.1865234375,0.9814452528953552,1.0019121377190017,-0.0057220458984375,-0.5245208740234375,-0.0133514404296875,0.5247219740559015
1782130661.569217,-0.0693359375,-0.18701171875,0.9746093153953552,0.994808611158064,0.1163482666015625,-0.2803802490234375,0.2307891845703125,0.38133141871377824
1782130661.579815,-0.07080078125,-0.1796875,0.9741210341453552,0.9930821403319449,-0.06866455078125,-0.40435791015625,0.1087188720703125,0.4243111278109046
1782130661.590412,-0.07080078125,-0.18017578125,0.9711913466453552,0.9902972758588588,0.05340576171875,-0.278472900390625,0.0476837158203125,0.28752924788820905
1782130661.60115,-0.0615234375,-0.18798828125,0.9726561903953552,0.9925647545442822,0.1163482666015625,-0.2803802490234375,-0.3185272216796875,0.44001090229062945
1782130661.611889,-0.06396484375,-0.1806640625,0.9672850966453552,0.9860889731191501,0.1773834228515625,-0.3414154052734375,-0.8068084716796875,0.8938508083761377
1782130661.622627,-0.0576171875,-0.1982421875,0.9663085341453552,0.9881153213883187,-0.12969970703125,-0.09918212890625,-0.5016326904296875,0.5275362213214319
1782130661.630603,-0.0673828050494194,-0.1875,0.9819335341453552,1.0019431909522194,0.1163482666015625,-0.0362396240234375,-0.6847381591796875,0.6954973588212506
1782130661.638578,-0.06982421875,-0.17578125,0.9843749403953552,1.0023814107683608,-0.0057220458984375,-0.1583099365234375,-0.5626678466796875,0.5845424565405621
1782130661.646553,-0.0712890625,-0.1796875,0.9716796278953552,0.9907224774654277,0.05340576171875,-0.09918212890625,-0.4405975341796875,0.4547696748952779
1782130661.654528,-0.0576171837747097,-0.17578125,0.9721679091453552,0.9896106463098215,-0.25177001953125,0.08392333984375,-0.2574920654296875,0.3697748415786856
1782130661.665152,-0.0595703087747097,-0.18505859375,0.9614257216453552,0.9808846634796233,-0.3108978271484375,-0.0362396240234375,-0.1354217529296875,0.3410422560937708
1782130661.675776,-0.0483398362994194,-0.1845703125,0.9658202528953552,0.984485500620832,-0.43487548828125,-0.03814697265625,0.0476837158203125,0.43914191166993455
1782130661.6864,-0.0585937425494194,-0.1953125,0.9824218153953552,1.0033607639761997,-0.3719329833984375,0.0247955322265625,-0.0743865966796875,0.380108311305669
1782130661.694371,-0.0629882737994194,-0.1943359375,0.9760741591453552,0.9972235172675917,-0.12969970703125,0.209808349609375,0.1697540283203125,0.2994294369309325
1782130661.702342,-0.0771484300494194,-0.1845703125,0.9594725966453552,0.9801049659239659,-0.4329681396484375,-0.1583099365234375,0.1087188720703125,0.4736488563238854
1782130661.710313,-0.0551757775247097,-0.18505859375,0.9687499403953552,0.9878094434465526,-0.1888275146484375,0.1468658447265625,0.1697540283203125,0.2933288883941132
1782130661.718284,-0.0722656175494194,-0.18701171875,0.9760741591453552,0.9964519389217626,-0.1888275146484375,-0.0972747802734375,0.4138946533203125,0.4652171506003332
1782130661.728938,-0.0610351525247097,-0.19482421875,0.9794921278953552,1.0005431498262498,-0.06866455078125,0.08392333984375,0.1697540283203125,0.2014308259316182
1782130661.739592,-0.0532226487994194,-0.1875,0.9716796278953552,0.9910349134173237,0.1163482666015625,-0.0362396240234375,0.2918243408203125,0.3162462258838171
1782130661.750246,-0.0683593675494194,-0.19384765625,0.9721679091453552,0.9936600829948974,-0.12969970703125,0.026702880859375,0.2918243408203125,0.3204629522197409
1782130661.758754,-0.0654296875,-0.185546875,0.9731444716453552,0.9928337471714642,-0.0667572021484375,0.2079010009765625,0.2307891845703125,0.31771527813495803
1782130661.767266,-0.0673828050494194,-0.1796875,0.9653319716453552,0.9842224624307692,-0.0667572021484375,0.0247955322265625,0.1697540283203125,0.18408631830763336
1782130661.775777,-0.07080078125,-0.18017578125,0.9687499403953552,0.9879030872462453,-0.2498626708984375,-0.0362396240234375,0.0476837158203125,0.25694046277745614
1782130661.784288,-0.052734375,-0.189453125,0.9619140028953552,0.9818105468190244,-0.0667572021484375,0.1468658447265625,0.1697540283203125,0.23418482127778387
1782130661.794523,-0.0751953125,-0.177734375,0.9614257216453552,0.9806035189208253,-0.2498626708984375,0.0247955322265625,-0.4405975341796875,0.5071216420663984
1782130661.804758,-0.0624999962747097,-0.1796875,0.9741210341453552,0.9925248794639886,-0.3108978271484375,-0.2193450927734375,-0.3795623779296875,0.5374358821190176
1782130661.814993,-0.0698242112994194,-0.17822265625,0.9716796278953552,0.9903534898970405,-0.2498626708984375,0.0247955322265625,-0.8068084716796875,0.8449769716986448
1782130661.822808,-0.0712890625,-0.173828125,0.9589843153953552,0.9772150554752227,-0.2498626708984375,-0.3414154052734375,-0.3185272216796875,0.5295804228042302
1782130661.830623,-0.078125,-0.17138671875,0.9638671278953552,0.9820981433778055,-0.2498626708984375,0.0247955322265625,-0.5016326904296875,0.560964819605139
1782130661.838438,-0.0683593675494194,-0.18017578125,0.9653319716453552,0.9843790584736721,-0.1277923583984375,-0.1583099365234375,-0.0743865966796875,0.216624764587699
1782130661.846252,-0.07373046875,-0.17529296875,0.9702147841453552,0.9886761523823164,-0.3719329833984375,-0.0362396240234375,0.1087188720703125,0.389187933565859
1782130661.856961,-0.07080078125,-0.17919921875,0.9765624403953552,0.9953890247622547,-0.1888275146484375,-0.2803802490234375,0.2307891845703125,0.4093074175303698
1782130661.867669,-0.068359375,-0.18701171875,0.9687499403953552,0.9890009272575148,0.179290771484375,-0.40435791015625,0.4138946533203125,0.6057716436847584
1782130661.878377,-0.06982421875,-0.1806640625,0.9697265028953552,0.9888803847891348,0.1163482666015625,-0.2193450927734375,0.4749298095703125,0.535917449691153
1782130661.886362,-0.0712890625,-0.169921875,0.9785155653953552,0.9957149621034306,0.35858154296875,-0.461578369140625,1.0242462158203125,1.179286065566196
1782130661.89435,-0.06689453125,-0.17578125,0.9570311903953552,0.9753371855682886,0.1163482666015625,-0.4634857177734375,0.5359649658203125,0.7180629319968519
1782130661.902338,-0.06640625,-0.17919921875,0.9584960341453552,0.9773621629222439,0.2384185791015625,-0.5245208740234375,0.7801055908203125,0.9698094137387138
1782130661.910326,-0.0600585900247097,-0.17919921875,0.9760741591453552,0.9942032782020379,0.1163482666015625,-0.2803802490234375,0.7801055908203125,0.8370870540229026
1782130661.92095,-0.07666015625,-0.181640625,0.9643554091453552,0.9843025202419073,-0.0057220458984375,-0.2803802490234375,0.6580352783203125,0.715301512207125
1782130661.931576,-0.06494140625,-0.19482421875,0.9780272841453552,0.9993554077454201,0.1773834228515625,-0.0362396240234375,0.4749298095703125,0.508268150753507
1782130661.942201,-0.06640625,-0.18212890625,0.9667968153953552,0.9860409782506426,0.2994537353515625,-0.2193450927734375,0.6580352783203125,0.7555099184351471
1782130661.952894,-0.07177734375,-0.18701171875,0.9707030653953552,0.9911557956212403,0.54168701171875,-0.40435791015625,-0.0133514404296875,0.6760979212601282
1782130661.963587,-0.0581054650247097,-0.18701171875,0.9697265028953552,0.9893023392437835,0.2994537353515625,-0.2193450927734375,-0.0133514404296875,0.37143380339077786
1782130661.97428,-0.0781249925494194,-0.17431640625,0.9697265028953552,0.9883618843148583,0.7266998291015625,0.2079010009765625,0.1087188720703125,0.7636329360154247
1782130661.984939,-0.080078125,-0.18701171875,0.9687499403953552,0.9898799604342685,-0.0057220458984375,0.8182525634765625,0.6580352783203125,1.050038297853617
1782130661.995597,-0.0673828050494194,-0.1826171875,0.9692382216453552,0.9885910225593741,-0.5550384521484375,0.6351470947265625,0.5970001220703125,1.0333869851391078
1782130662.006255,-0.06787109375,-0.181640625,0.9575194716453552,0.9769561610416366,-0.37384033203125,0.87738037109375,0.5970001220703125,1.1251497923324743
1782130662.0143,-0.0615234337747097,-0.18896484375,0.9785155653953552,0.9984916408252423,-0.74005126953125,0.75531005859375,0.2918243408203125,1.096964271087677
1782130662.022344,-0.0673828050494194,-0.20068359375,0.9638671278953552,0.986840507606971,-0.6160736083984375,0.8182525634765625,0.1087188720703125,1.0300018163796014
1782130662.030388,-0.064453125,-0.1826171875,0.9658202528953552,0.9850441631701209,-0.9212493896484375,0.3299713134765625,0.0476837158203125,0.9797220230246428
1782130662.038432,-0.0776367112994194,-0.1923828125,0.9770507216453552,0.9988326777566445,-0.6771087646484375,0.6351470947265625,0.1087188720703125,0.9347234373051566
1782130662.049039,-0.0703125,-0.17529296875,0.9584960341453552,0.9769268754731915,-0.86212158203125,0.38909912109375,-0.0133514404296875,0.9459545492260933
1782130662.059646,-0.0581054612994194,-0.1845703125,0.9599608778953552,0.9792687741262799,-1.10626220703125,0.209808349609375,-0.3185272216796875,1.1701688789326277
1782130662.070253,-0.0703124925494194,-0.18798828125,0.9653319716453552,0.9859762958492208,-1.1653900146484375,0.2689361572265625,-0.2574920654296875,1.2234225380731394
1782130662.080912,-0.0595703050494194,-0.19287109375,0.9687499403953552,0.9895576421128819,-1.7147064208984375,-0.1583099365234375,-0.2574920654296875,1.7411439657970937
1782130662.091569,-0.06591796875,-0.19140625,0.9843749403953552,1.0049753999086484,-1.3484954833984375,0.0247955322265625,-0.8068084716796875,1.5716217092985505
1782130662.102226,-0.0600585900247097,-0.185546875,0.9780272841453552,0.9972823299300762,-0.92315673828125,-0.22125244140625,-0.8068084716796875,1.2458374357180055
1782130662.110251,-0.06982421875,-0.19189453125,0.9936522841453552,1.0144179584544957,-0.55694580078125,-0.58746337890625,-0.8678436279296875,1.186783219085094
1782130662.118277,-0.0566406212747097,-0.1826171875,0.9687499403953552,0.9874379191446921,-0.1277923583984375,-0.1583099365234375,-0.8678436279296875,0.8913728094379205
1782130662.126303,-0.0654296800494194,-0.18310546875,0.9682616591453552,0.9875926773161304,-0.0057220458984375,-0.5245208740234375,-1.0509490966796875,1.1745845618376847
1782130662.134329,-0.07568359375,-0.17724609375,0.9794921278953552,0.9982730151223761,0.4825592041015625,-0.2803802490234375,-1.3561248779296875,1.4664757597878624
1782130662.14497,-0.0561523400247097,-0.18994140625,0.9707030653953552,0.9907044283066556,0.7877349853515625,0.0247955322265625,-1.2950897216796875,1.5160470351429058
1782130662.155611,-0.0771484300494194,-0.189453125,0.9599608778953552,0.981513756358502,1.0929107666015625,0.0247955322265625,-0.9899139404296875,1.4747875683057017
1782130662.166252,-0.0820312425494194,-0.1826171875,0.9682616591453552,0.9887410189202872,0.7266998291015625,-0.0362396240234375,-0.3795623779296875,0.8206543430124763
1782130662.174247,-0.06884765625,-0.1904296875,0.9687499403953552,0.9896867750295899,0.7877349853515625,-0.0362396240234375,0.8411407470703125,1.1529776554114959
1782130662.182244,-0.076171875,-0.185546875,0.9809569716453552,1.0012524045328968,0.54168701171875,-0.58746337890625,1.0852813720703125,1.3477290887947613
1782130662.190241,-0.0732421875,-0.18701171875,0.9721679091453552,0.9926974587212691,-0.0667572021484375,-0.4634857177734375,0.9632110595703125,1.0710047058240266
1782130662.198238,-0.06396484375,-0.1806640625,0.9570311903953552,0.9760326347538367,0.35858154296875,-0.40435791015625,0.8411407470703125,0.999801879797084
1782130662.208914,-0.0532226487994194,-0.17578125,0.9614257216453552,0.9788110729032855,-0.12969970703125,-0.461578369140625,0.5359649658203125,0.7191210255925493
1782130662.21959,-0.0615234375,-0.18798828125,0.9716796278953552,0.9916077987369812,-0.06866455078125,-0.40435791015625,0.2307891845703125,0.4706206410205045
1782130662.230266,-0.0517578087747097,-0.18505859375,0.9868163466453552,1.0053517075612757,0.0553131103515625,-0.4634857177734375,-0.2574920654296875,0.5330860291885064
1782130662.240915,-0.0615234337747097,-0.17919921875,0.9755858778953552,0.9938135127139761,0.5435943603515625,-0.1583099365234375,-0.3795623779296875,0.6816336723986852
1782130662.251565,-0.0595703050494194,-0.1787109375,0.9760741591453552,0.9940860046178711,0.35858154296875,0.08392333984375,-0.8678436279296875,0.9427493900642635
1782130662.262217,-0.0654296875,-0.18408203125,0.9697265028953552,0.9892101539375387,0.4825592041015625,0.4520416259765625,-0.5016326904296875,0.8299640794554873
1782130662.272897,-0.07421875,-0.1962890625,0.9550780653953552,0.9778608949682086,0.4215240478515625,0.6351470947265625,0.1087188720703125,0.7700091869588312
1782130662.283576,-0.0654296875,-0.1865234375,0.9794921278953552,0.9992381424626139,0.667572021484375,0.57220458984375,0.4749298095703125,0.999314175084834
1782130662.294255,-0.0771484300494194,-0.19384765625,0.9726561903953552,0.9947808094284458,0.35858154296875,0.87738037109375,0.6580352783203125,1.1538576454886222
1782130662.302267,-0.08056640625,-0.1875,0.9599608778953552,0.9814133089099929,0.60272216796875,0.87738037109375,0.9021759033203125,1.3953464400905526
1782130662.310281,-0.06640625,-0.18017578125,0.9843749403953552,1.0029292724147947,0.0553131103515625,0.6961822509765625,1.1463165283203125,1.3423005810368598
1782130662.318295,-0.0722656175494194,-0.17578125,0.9716796278953552,0.9900922515595288,-0.3719329833984375,0.6351470947265625,1.3294219970703125,1.5195752111605643
1782130662.326308,-0.0742187425494194,-0.17333984375,0.9726561903953552,0.9907649508795195,-0.9212493896484375,0.8182525634765625,1.1463165283203125,1.6829376930427098
1782130662.336967,-0.06494140625,-0.17919921875,0.9687499403953552,0.9873227401728081,-0.8602142333984375,0.0247955322265625,0.7190704345703125,1.1214480084394454
1782130662.347625,-0.0629882737994194,-0.19873046875,0.9692382216453552,0.9914050898316369,-0.6160736083984375,-0.1583099365234375,0.4138946533203125,0.758892292103608
1782130662.358283,-0.0541992150247097,-0.18212890625,0.9702147841453552,0.9886481784615466,-0.8602142333984375,-0.1583099365234375,-0.1354217529296875,0.8850816993418549
1782130662.368956,-0.0576171875,-0.1884765625,0.9624022841453552,0.9823753414227291,-0.61798095703125,-0.278472900390625,-0.3795623779296875,0.7768624191225018
1782130662.379629,-0.0566406212747097,-0.18603515625,0.9643554091453552,0.9837675510440729,-0.5550384521484375,-0.4634857177734375,-0.3795623779296875,0.8166726961781756
1782130662.390302,-0.076171875,-0.19775390625,0.9599608778953552,0.9830735725609607,-0.4940032958984375,-0.3414154052734375,-0.6237030029296875,0.8657997292561684
1782130662.398324,-0.080078125,-0.185546875,0.9838866591453552,1.0044267554032946,-0.3108978271484375,-0.3414154052734375,-0.5626678466796875,0.7278853230906649
1782130662.406345,-0.07177734375,-0.18896484375,0.9726561903953552,0.9934383543852497,-0.2498626708984375,-0.3414154052734375,-0.1964569091796875,0.4664666659376235
1782130662.414366,-0.07568359375,-0.2001953125,0.9628905653953552,0.9863895834999853,0.1163482666015625,-0.1583099365234375,-0.3795623779296875,0.42739507938543464
1782130662.422387,-0.0639648362994194,-0.1845703125,0.9794921278953552,0.9987805210095609,-0.0057220458984375,-0.3414154052734375,0.1697540283203125,0.38133141871377824
1782130662.430362,-0.0712890625,-0.18115234375,0.9736327528953552,0.9929043456390122,0.23651123046875,-0.22125244140625,-0.0133514404296875,0.3241426629242374
1782130662.438337,-0.06689453125,-0.1865234375,0.9638671278953552,0.9840252594751898,0.0553131103515625,-0.1583099365234375,0.4749298095703125,0.5036664572882655
1782130662.446312,-0.0634765550494194,-0.18505859375,0.9663085341453552,0.9859148742786137,0.05340576171875,-0.278472900390625,0.1697540283203125,0.33047808061609824
1782130662.454287,-0.0556640587747097,-0.18115234375,0.9638671278953552,0.9823209757114186,-0.0667572021484375,-0.2193450927734375,0.4138946533203125,0.4731570329284105
1782130662.464947,-0.06982421875,-0.18115234375,0.9677733778953552,0.9870546611678362,-0.003814697265625,-0.09918212890625,-0.1964569091796875,0.22010670997050577
1782130662.475606,-0.0678710862994194,-0.18359375,0.9716796278953552,0.9911984910507994,0.179290771484375,0.08392333984375,0.0476837158203125,0.20362230836630904
1782130662.486267,-0.0566406212747097,-0.1767578125,0.9682616591453552,0.985891538065464,0.179290771484375,-0.09918212890625,-0.5016326904296875,0.5418649569233694
1782130662.496939,-0.06396484375,-0.1865234375,0.9882811903953552,1.0077609861777934,0.05340576171875,-0.03814697265625,-0.6847381591796875,0.6878762341761661
1782130662.507612,-0.06689453125,-0.1796875,0.9755858778953552,0.9942486012644213,0.2994537353515625,-0.0362396240234375,-0.5626678466796875,0.6384206729520279
1782130662.518285,-0.0678710862994194,-0.1708984375,0.9692382216453552,0.9865269842197198,-0.003814697265625,0.38909912109375,-0.6847381591796875,0.7875779482615953
1782130662.528979,-0.0620117150247097,-0.18701171875,0.9648436903953552,0.9847548845503956,-0.1888275146484375,0.1468658447265625,-0.5016326904296875,0.5557524293633626
1782130662.539675,-0.0727538987994194,-0.1943359375,0.9775390028953552,0.9993208136410275,-0.1888275146484375,0.3299713134765625,0.0476837158203125,0.38315875921109527
1782130662.55037,-0.0771484300494194,-0.17626953125,0.9697265028953552,0.9886315382000719,0.05340576171875,0.209808349609375,0.1087188720703125,0.24226331149146502
1782130662.558415,-0.07470703125,-0.18994140625,0.9711913466453552,0.9924069276890577,-0.3719329833984375,0.1468658447265625,0.3528594970703125,0.5333043644670677
1782130662.566461,-0.06640625,-0.18505859375,0.9814452528953552,1.0009451821106976,-0.308990478515625,-0.09918212890625,0.5359649658203125,0.6265545906738372
1782130662.574507,-0.0712890625,-0.17919921875,0.9858397841453552,1.0045270381809042,-0.1888275146484375,-0.1583099365234375,0.0476837158203125,0.25098128026765865
1782130662.582553,-0.0561523400247097,-0.1884765625,0.9677733778953552,0.9875534470928918,-0.003814697265625,-0.09918212890625,-0.1354217529296875,0.16790085698457194
1782130662.593131,-0.0541992112994194,-0.18798828125,0.9755858778953552,0.9950100268548349,0.23651123046875,0.08392333984375,-0.1354217529296875,0.2851661625700375
1782130662.603709,-0.0654296875,-0.173828125,0.9780272841453552,0.9955072222641596,0.3604888916015625,0.3299713134765625,-0.0743865966796875,0.49433457743835546
1782130662.614287,-0.0634765550494194,-0.193359375,0.9604491591453552,0.9817737561395459,0.0553131103515625,0.3299713134765625,-0.0133514404296875,0.3348415578385686
1782130662.624962,-0.0791015625,-0.18212890625,0.9790038466453552,0.9989376994728775,0.05340576171875,0.38909912109375,-0.0133514404296875,0.39297399708153224
1782130662.635637,-0.0712890625,-0.18603515625,0.9687499403953552,0.9890235875898487,0.2994537353515625,0.3299713134765625,0.1697540283203125,0.47683334349060047
1782130662.646312,-0.0722656175494194,-0.18212890625,0.9658202528953552,0.9854958238746971,0.1163482666015625,0.1468658447265625,0.2307891845703125,0.2972711610685853
1782130662.654291,-0.0600585900247097,-0.17919921875,0.9692382216453552,0.9874928478397286,0.0553131103515625,0.1468658447265625,0.2918243408203125,0.3313465895693221
1782130662.662271,-0.07080078125,-0.16796875,0.9731444716453552,0.9900688937119934,-0.12969970703125,-0.278472900390625,0.1087188720703125,0.3258664809399703
1782130662.670251,-0.0595703087747097,-0.177734375,0.9726561903953552,0.9905544883844404,-0.55694580078125,-0.09918212890625,-0.0133514404296875,0.5658656913648249
1782130662.678231,-0.07373046875,-0.1806640625,0.9677733778953552,0.9872492068693115,-0.0057220458984375,0.0858306884765625,-0.2574920654296875,0.271480777685771
1782130662.688941,-0.068359375,-0.17578125,0.9741210341453552,0.9922115909252267,-0.3719329833984375,0.0247955322265625,0.1087188720703125,0.3882895256149744
1782130662.699651,-0.06396484375,-0.17626953125,0.9775390028953552,0.9953617187056683,-0.1888275146484375,-0.2193450927734375,-0.1964569091796875,0.34980482726304646
1782130662.710361,-0.06640625,-0.181640625,0.9711913466453552,0.99026043972698,-0.06866455078125,-0.09918212890625,-0.2574920654296875,0.28434851676703593
1782130662.721003,-0.07568359375,-0.18408203125,0.9633788466453552,0.9837240480723117,-0.1888275146484375,-0.5245208740234375,-0.0743865966796875,0.5624156321975796
1782130662.731646,-0.0756835862994194,-0.17822265625,0.9648436903953552,0.9840806203414817,-0.25177001953125,-0.09918212890625,-0.0743865966796875,0.2806396322594663
1782130662.742289,-0.0830078125,-0.1865234375,0.9658202528953552,0.9871626262048718,0.35858154296875,-0.34332275390625,-0.0743865966796875,0.5019806789839699
1782130662.750282,-0.09033203125,-0.17529296875,0.9755858778953552,0.9953166862420173,-0.0667572021484375,-0.2803802490234375,0.7801055908203125,0.8316455620697083
1782130662.758275,-0.0698242112994194,-0.18408203125,0.9829100966453552,1.0024339742846375,-0.3108978271484375,-0.2193450927734375,0.6580352783203125,0.7601185145511842
1782130662.766268,-0.08154296875,-0.17529296875,0.9614257216453552,0.9806713511095569,-0.4329681396484375,-0.3414154052734375,0.9021759033203125,1.0573302461579714
1782130662.774261,-0.06494140625,-0.1875,0.9648436903953552,0.9850365389879989,-0.0057220458984375,0.0247955322265625,1.0242462158203125,1.0245622825626037
1782130662.784935,-0.0732421875,-0.17138671875,0.9711913466453552,0.9889137764196104,0.2994537353515625,-0.0972747802734375,0.7801055908203125,0.8412488664612618
1782130662.795609,-0.06494140625,-0.18408203125,0.9755858778953552,0.994922803851487,0.2994537353515625,-0.0362396240234375,0.6580352783203125,0.7238758715964049
1782130662.806283,-0.0498046837747097,-0.1865234375,0.9711913466453552,0.9901939865811819,0.2384185791015625,0.1468658447265625,0.4138946533203125,0.4997217018053113
1782130662.816937,-0.07177734375,-0.18994140625,0.9853515028953552,1.0060553211141863,0.4215240478515625,0.1468658447265625,0.4749298095703125,0.6517748255976955
1782130662.827593,-0.0693359375,-0.18701171875,0.9829100966453552,1.002942228279483,0.9098052978515625,0.3299713134765625,-0.1964569091796875,0.9875333234279511
1782130662.838249,-0.0673828050494194,-0.18408203125,0.9702147841453552,0.9898198644297215,0.9708404541015625,0.3299713134765625,-0.2574920654296875,1.0572201373398173
1782130662.848916,-0.0751953050494194,-0.16845703125,0.9633788466453552,0.9808827184953222,0.84686279296875,0.14495849609375,0.2307891845703125,0.8896365569260424
1782130662.859585,-0.06396484375,-0.18603515625,0.9604491591453552,0.980389294056164,0.35858154296875,0.26702880859375,0.3528594970703125,0.5695567857988885
1782130662.870254,-0.0791015550494194,-0.18408203125,0.9589843153953552,0.9796908529810108,0.2384185791015625,0.0247955322265625,-0.0133514404296875,0.24007602596001545
1782130662.878246,-0.064453125,-0.17626953125,0.9687499403953552,0.9867631934691142,-0.3719329833984375,-0.4024505615234375,0.0476837158203125,0.5500675734531394
1782130662.886239,-0.07666015625,-0.1845703125,0.9653319716453552,0.9858036291743559,-0.61798095703125,-0.278472900390625,-0.0133514404296875,0.6779571376324421
1782130662.894232,-0.0561523400247097,-0.19384765625,0.9746093153953552,0.9952855453483044,-1.10626220703125,-0.22125244140625,-0.1964569091796875,1.1451480387697979
1782130662.902225,-0.0590820275247097,-0.18994140625,0.9624022841453552,0.9827444125065556,-1.2264251708984375,-0.0362396240234375,-0.1354217529296875,1.2344112205133146
1782130662.912899,-0.0590820275247097,-0.19189453125,0.9565429091453552,0.977388630042496,-0.980377197265625,-0.09918212890625,-0.3185272216796875,1.0355849238781718
1782130662.923573,-0.07666015625,-0.17578125,0.9658202528953552,0.9846748642626585,-1.28936767578125,0.026702880859375,-0.3795623779296875,1.344339855072136
1782130662.934247,-0.0844726487994194,-0.1982421875,0.9633788466453552,0.9871850867308065,-0.9822845458984375,-0.2193450927734375,-0.0133514404296875,1.0065651791097459
1782130662.944914,-0.0751953125,-0.17919921875,0.9599608778953552,0.9794343174058198,-0.7991790771484375,-0.0362396240234375,-0.0743865966796875,0.8034512265637379
1782130662.955582,-0.0825195237994194,-0.1875,0.9721679091453552,0.9935170684895829,-0.92315673828125,-0.22125244140625,-0.1964569091796875,0.9694154545017004
1782130662.96625,-0.06884765625,-0.20166015625,0.9780272841453552,1.0009716214372073,-0.3719329833984375,-0.2193450927734375,0.1087188720703125,0.4452709366303748
1782130662.976963,-0.0551757737994194,-0.19873046875,0.9780272841453552,0.9995376599992112,-0.003814697265625,-0.58746337890625,0.1087188720703125,0.597450890547012
1782130662.987679,-0.0629882737994194,-0.20068359375,0.9707030653953552,0.9932300179739761,0.35858154296875,-0.09918212890625,-0.0133514404296875,0.3722849427706861
1782130662.998395,-0.06640625,-0.19580078125,0.9755858778953552,0.9972540003058518,0.2994537353515625,-0.5855560302734375,0.1087188720703125,0.6666094788928758
1782130663.006363,-0.06591796875,-0.19580078125,0.9653319716453552,0.9871924533863421,0.54168701171875,-0.22125244140625,-0.1354217529296875,0.6005967970773443
1782130663.014332,-0.0634765550494194,-0.2021484375,0.9731444716453552,0.995943485604756,0.7266998291015625,0.2079010009765625,-0.1964569091796875,0.7809678514431517
1782130663.022301,-0.0756835862994194,-0.19287109375,0.9692382216453552,0.9911357093444437,0.9098052978515625,-0.0362396240234375,-0.5626678466796875,1.070352323319423
1782130663.03027,-0.06689453125,-0.18359375,0.9697265028953552,0.9892173844852683,0.7877349853515625,0.2079010009765625,-0.1964569091796875,0.8380599921952598
1782130663.04103,-0.0693359300494194,-0.173828125,0.9780272841453552,0.995771588653529,0.7266998291015625,0.3299713134765625,-0.1964569091796875,0.8219300618046064
1782130663.05179,-0.0722656175494194,-0.17236328125,0.9633788466453552,0.9813410326521562,0.6046295166015625,0.1468658447265625,-0.3185272216796875,0.6990035905802392
1782130663.06255,-0.080078125,-0.17529296875,0.9824218153953552,1.0011457208425802,0.484466552734375,-0.09918212890625,-0.0133514404296875,0.4946950539213551
1782130663.070631,-0.07177734375,-0.1845703125,0.9838866591453552,1.0036190240207494,0.1773834228515625,-0.4634857177734375,-0.0743865966796875,0.5018139645805817
1782130663.078711,-0.0742187425494194,-0.19775390625,0.9658202528953552,0.9886474549027063,-0.12969970703125,-0.278472900390625,0.1697540283203125,0.3509780625437044
1782130663.086791,-0.0751953125,-0.18701171875,0.9780272841453552,0.9985815372339613,-0.37384033203125,-0.09918212890625,-0.1964569091796875,0.4338075676057844
1782130663.094871,-0.06494140625,-0.1826171875,0.9750975966453552,0.9941739014879065,-0.12969970703125,-0.461578369140625,0.2918243408203125,0.5612825053016717
1782130663.105356,-0.06591796875,-0.1865234375,0.9790038466453552,0.9987916214543174,0.1163482666015625,-0.4024505615234375,0.1697540283203125,0.45201748167818895
1782130663.115843,-0.0595703087747097,-0.19091796875,0.9692382216453552,0.9896570228000158,0.9098052978515625,-0.7076263427734375,-0.0133514404296875,1.1526747077763215
1782130663.126328,-0.0742187425494194,-0.19287109375,0.9736327528953552,0.9953232731432166,0.2994537353515625,-0.6465911865234375,0.2918243408203125,0.7700091869588312
1782130663.137013,-0.0581054650247097,-0.18115234375,0.9697265028953552,0.9882114688311967,0.4825592041015625,-0.5245208740234375,0.1697540283203125,0.7326677029052241
1782130663.147696,-0.0512695275247097,-0.1806640625,0.9804686903953552,0.9982920017596023,0.2994537353515625,-0.1583099365234375,0.4749298095703125,0.5833462947825688
1782130663.158379,-0.068359375,-0.19580078125,0.9750975966453552,0.9969083574090694,0.54168701171875,-0.03814697265625,0.5359649658203125,0.7629799832068955
1782130663.166494,-0.0605468712747097,-0.18359375,0.9741210341453552,0.9931185114701241,0.41961669921875,0.08392333984375,0.2918243408203125,0.5179601790958243
1782130663.174607,-0.0624999962747097,-0.18603515625,0.9677733778953552,0.9874718425647825,0.9098052978515625,0.2079010009765625,0.2307891845703125,0.9613699360394296
1782130663.18272,-0.0605468712747097,-0.18603515625,0.9604491591453552,0.9801722248080376,0.7877349853515625,0.5741119384765625,0.2307891845703125,1.0016958484304368
1782130663.190833,-0.06689453125,-0.17431640625,0.9741210341453552,0.9918532537444683,0.6046295166015625,0.5741119384765625,0.1087188720703125,0.8408336121917322
1782130663.201419,-0.0605468712747097,-0.1787109375,0.9750975966453552,0.9931862090196546,0.1773834228515625,0.4520416259765625,0.5359649658203125,0.7232322966411548
1782130663.212005,-0.0776367112994194,-0.16943359375,0.9809569716453552,0.9985047730742481,-0.1888275146484375,0.1468658447265625,-0.0133514404296875,0.23959062501921927
1782130663.222591,-0.07421875,-0.18505859375,0.9882811903953552,1.0081938391309235,-0.0667572021484375,-0.0362396240234375,-0.1354217529296875,0.15527036276957937
1782130663.230842,-0.07177734375,-0.18310546875,0.9697265028953552,0.9894690951109177,0.05340576171875,0.08392333984375,0.2918243408203125,0.30831274422329574
1782130663.239093,-0.0551757775247097,-0.1875,0.9638671278953552,0.9834838365030192,-0.1888275146484375,-0.2193450927734375,0.2918243408203125,0.4110103963494156
1782130663.247344,-0.068359375,-0.18603515625,0.9638671278953552,0.9840334972695765,-0.0057220458984375,-0.0362396240234375,0.2918243408203125,0.2941215701947646
1782130663.255595,-0.0678710862994194,-0.18994140625,0.9716796278953552,0.9923938338333964,-0.2498626708984375,-0.3414154052734375,0.0476837158203125,0.42575764235179475
1782130663.265845,-0.0771484300494194,-0.18505859375,0.9755858778953552,0.9959750842911025,-0.12969970703125,-0.278472900390625,0.2307891845703125,0.3842301627548113
1782130663.276095,-0.0683593675494194,-0.19384765625,0.9658202528953552,0.9874505951531057,-0.25177001953125,-0.22125244140625,0.1697540283203125,0.3757089507770151
1782130663.286345,-0.0693359300494194,-0.1884765625,0.9677733778953552,0.988390710584949,-0.12969970703125,-0.278472900390625,0.1087188720703125,0.3258664809399703
1782130663.294471,-0.06884765625,-0.181640625,0.9667968153953552,0.9861183492259483,-0.1888275146484375,-0.2193450927734375,0.0476837158203125,0.2933288883941132
1782130663.302599,-0.0683593675494194,-0.19287109375,0.9672850966453552,0.9886924294887122,0.23651123046875,0.08392333984375,-0.1964569091796875,0.3187099092792813
1782130663.310727,-0.06201171875,-0.19384765625,0.9643554091453552,0.9855981545456813,0.179290771484375,0.08392333984375,-0.1964569091796875,0.278897158240144
1782130663.318855,-0.0712890625,-0.1845703125,0.9677733778953552,0.9877923069408177,0.54168701171875,0.38909912109375,-0.1964569091796875,0.6952828646422647
1782130663.329513,-0.07421875,-0.18115234375,0.9672850966453552,0.986896677818856,0.2994537353515625,0.4520416259765625,0.2918243408203125,0.6157723744426572
1782130663.340171,-0.0722656100988388,-0.1865234375,0.9692382216453552,0.9896646105817993,0.6046295166015625,0.2689361572265625,0.0476837158203125,0.663458548640427
1782130663.350829,-0.0634765550494194,-0.193359375,0.9619140028953552,0.9832068296688637,0.6046295166015625,0.5741119384765625,0.3528594970703125,0.9053679886763555
1782130663.36132,-0.07421875,-0.185546875,0.9702147841453552,0.9905820476104169,0.4825592041015625,0.0247955322265625,0.2307891845703125,0.5354828210093782
1782130663.371811,-0.0512695275247097,-0.18896484375,0.9614257216453552,0.9811603818272326,0.2384185791015625,-0.2803802490234375,0.4749298095703125,0.6008450939483039
1782130663.382302,-0.0605468712747097,-0.18505859375,0.9653319716453552,0.9847732846816026,0.6046295166015625,0.0858306884765625,0.2307891845703125,0.6528456227507615
1782130663.390283,-0.0624999962747097,-0.2001953125,0.9702147841453552,0.9926233626383824,0.0553131103515625,0.1468658447265625,0.3528594970703125,0.38618511260369004
1782130663.398263,-0.0629882737994194,-0.17919921875,0.9672850966453552,0.9857587640133133,0.1163482666015625,0.2689361572265625,0.1087188720703125,0.3125433873068179
1782130663.406245,-0.064453125,-0.1796875,0.9755858778953552,0.9940873241961022,-0.0057220458984375,0.2689361572265625,0.0476837158203125,0.27319065728440733
1782130663.414226,-0.0712890625,-0.1748046875,0.9619140028953552,0.98026392271177,0.05340576171875,-0.03814697265625,-0.2574920654296875,0.26572453907541743
1782130663.423851,-0.0600585900247097,-0.17529296875,0.9687499403953552,0.9863118706296446,0.23651123046875,0.08392333984375,-0.3185272216796875,0.4055123673321845
1782130663.43348,-0.0747070237994194,-0.18359375,0.9726561903953552,0.9926469005434082,0.1773834228515625,0.0247955322265625,-0.1964569091796875,0.26584772762875125
1782130663.443109,-0.0722656175494194,-0.18408203125,0.9755858778953552,0.9954277064949397,-0.0057220458984375,0.1468658447265625,-0.4405975341796875,0.4644658278945088
1782130663.452738,-0.07568359375,-0.1953125,0.9682616591453552,0.9906591843767871,0.35858154296875,0.08392333984375,-0.1354217529296875,0.3923810661779291
1782130663.462367,-0.0737304612994194,-0.203125,0.9716796278953552,0.9954181261235306,0.2384185791015625,-0.3414154052734375,-0.1354217529296875,0.4378891971553796
1782130663.471952,-0.0673828050494194,-0.19384765625,0.9707030653953552,0.992160167219933,0.5435943603515625,0.1468658447265625,-0.0743865966796875,0.5679769103747595
1782130663.481537,-0.06396484375,-0.18505859375,0.9682616591453552,0.9878607315444853,0.4215240478515625,0.0247955322265625,0.1697540283203125,0.45509754060699814
1782130663.491122,-0.07373046875,-0.19189453125,0.9736327528953552,0.9950982015139711,0.4825592041015625,0.2079010009765625,0.4749298095703125,0.7082686889088655
1782130663.500707,-0.06494140625,-0.19580078125,0.9687499403953552,0.9904704837600372,0.4215240478515625,-0.0362396240234375,0.1087188720703125,0.43682448009557273
1782130663.510292,-0.0600585862994194,-0.1923828125,0.9594725966453552,0.9804110587131682,0.60272216796875,-0.09918212890625,0.5359649658203125,0.8126312515785341
1782130663.519885,-0.0527343712747097,-0.19677734375,0.9711913466453552,0.9923280046062709,0.35858154296875,-0.03814697265625,0.5970001220703125,0.6974561349881827
1782130663.529476,-0.0556640587747097,-0.1875,0.9726561903953552,0.9921264043223927,-0.0667572021484375,0.0247955322265625,0.4138946533203125,0.4199763404100611
1782130663.539067,-0.06591796875,-0.18212890625,0.9746093153953552,0.9936696809057577,-0.0667572021484375,-0.0362396240234375,0.1087188720703125,0.13262589314416862
1782130663.548658,-0.0566406212747097,-0.19140625,0.9692382216453552,0.9895793261864854,0.1163482666015625,0.2689361572265625,-0.3185272216796875,0.4328084642840981
1782130663.558249,-0.06689453125,-0.18212890625,0.9760741591453552,0.9951716339176327,0.41961669921875,-0.09918212890625,-0.2574920654296875,0.5022125373951365
1782130663.567853,-0.07666015625,-0.1865234375,0.9736327528953552,0.9942979984912363,0.0553131103515625,0.3299713134765625,-0.6237030029296875,0.7077754190120774
1782130663.577458,-0.0644531175494194,-0.18896484375,0.9741210341453552,0.9943710100861335,0.1163482666015625,0.2079010009765625,-0.5626678466796875,0.6110277007103698
1782130663.587062,-0.0795898362994194,-0.173828125,0.9677733778953552,0.9864765937649864,0.179290771484375,0.08392333984375,-0.3185272216796875,0.37503053030516426
1782130663.596666,-0.0649413987994194,-0.18310546875,0.9667968153953552,0.9861242722004073,-0.0057220458984375,0.0858306884765625,-0.3795623779296875,0.389187933565859
1782130663.60627,-0.07080078125,-0.189453125,0.9653319716453552,0.9862915657545617,0.1163482666015625,-0.1583099365234375,-0.1964569091796875,0.2778385723899384
1782130663.616915,-0.076171875,-0.18212890625,0.9702147841453552,0.9900958642510609,0.1163482666015625,0.0247955322265625,0.2918243408203125,0.3151399426521441
1782130663.627563,-0.06640625,-0.1962890625,0.9677733778953552,0.9897092992688193,-0.1888275146484375,-0.2803802490234375,0.9632110595703125,1.0208057893690232
1782130663.638211,-0.0732421800494194,-0.1796875,0.9755858778953552,0.9946958428301047,0.11444091796875,-0.09918212890625,0.3528594970703125,0.38398390991370984
1782130663.646224,-0.07763671875,-0.181640625,0.9628905653953552,0.9829440562290633,-0.0057220458984375,-0.3414154052734375,0.7801055908203125,0.8515644154122448
1782130663.654238,-0.0634765550494194,-0.1826171875,0.9843749403953552,1.003181107023907,0.05340576171875,-0.22125244140625,0.9021759033203125,0.9304440760974342
1782130663.662252,-0.06689453125,-0.17578125,0.9716796278953552,0.9897147192143683,0.1773834228515625,-0.2193450927734375,0.5970001220703125,0.6602925822529677
1782130663.670266,-0.06640625,-0.18505859375,0.9663085341453552,0.9861078319950284,0.6656646728515625,0.1468658447265625,0.2307891845703125,0.7196823471118728
1782130663.680939,-0.0615234337747097,-0.1865234375,0.9716796278953552,0.9913311378682218,0.6046295166015625,0.0247955322265625,-0.0743865966796875,0.609692575426193
1782130663.691612,-0.0620117150247097,-0.18408203125,0.9624022841453552,0.9818094537931629,0.6656646728515625,0.1468658447265625,-0.0133514404296875,0.6818044396976101
1782130663.702285,-0.0756835862994194,-0.18798828125,0.9838866591453552,1.0045399729063444,1.0318756103515625,0.0247955322265625,-0.0133514404296875,1.0322598290248224
1782130663.712943,-0.0722656175494194,-0.173828125,0.9868163466453552,1.0046118845242178,1.51824951171875,-0.22125244140625,0.1697540283203125,1.5436484874457082
1782130663.723598,-0.0742187425494194,-0.16943359375,0.9702147841453552,0.9876906863035995,0.9098052978515625,-0.2193450927734375,0.2307891845703125,0.9639095379947166
1782130663.734255,-0.0742187425494194,-0.18408203125,0.9667968153953552,0.9869603326544302,0.4215240478515625,0.0247955322265625,0.1697540283203125,0.45509754060699814
1782130663.742253,-0.06689453125,-0.177734375,0.9584960341453552,0.9771279516215734,0.2994537353515625,-0.0362396240234375,0.7190704345703125,0.7797744159938192
1782130663.750252,-0.0624999962747097,-0.181640625,0.9653319716453552,0.9842587981143162,0.05340576171875,0.08392333984375,0.7801055908203125,0.7864223007928999
1782130663.758253,-0.0649413987994194,-0.1884765625,0.9721679091453552,0.9923967167730319,0.1773834228515625,0.0247955322265625,0.4138946533203125,0.45098612081534883
1782130663.766253,-0.0463867150247097,-0.18603515625,0.9677733778953552,0.9865830515748442,-0.3108978271484375,0.4520416259765625,0.3528594970703125,0.6523104438945218
1782130663.776926,-0.0624999962747097,-0.171875,0.9624022841453552,0.9796251434541356,-0.6771087646484375,0.0247955322265625,0.3528594970703125,0.7639377738106982
1782130663.787599,-0.0483398362994194,-0.1875,0.9667968153953552,0.9859964868254122,-0.6160736083984375,0.0247955322265625,-0.0743865966796875,0.6210433762218677
1782130663.798272,-0.0649413987994194,-0.1787109375,0.9711913466453552,0.9896300400952734,-0.9822845458984375,0.0858306884765625,-0.5626678466796875,1.1352730693020145
1782130663.808933,-0.0556640587747097,-0.18212890625,0.9682616591453552,0.9868130858992556,-1.0433197021484375,0.3299713134765625,-0.9899139404296875,1.4755767272716058
1782130663.819595,-0.06494140625,-0.18017578125,0.9731444716453552,0.9918119081200291,-0.9822845458984375,0.5130767822265625,-0.8678436279296875,1.4075806463961575
1782130663.830257,-0.0620117150247097,-0.1962890625,0.9633788466453552,0.9851262107066128,-0.4940032958984375,0.2079010009765625,-0.8068084716796875,0.9686082761053041
1782130663.838267,-0.0781249925494194,-0.17919921875,0.9726561903953552,0.992106818430285,-0.61798095703125,0.14495849609375,-0.5626678466796875,0.8482384891822451
1782130663.846278,-0.0737304612994194,-0.2041015625,0.9702147841453552,0.994188290070138,-0.3719329833984375,-0.5245208740234375,-0.5626678466796875,0.8544304518877646
1782130663.854289,-0.0776367112994194,-0.1826171875,0.9736327528953552,0.993648445690118,-0.55694580078125,-0.40435791015625,-0.2574920654296875,0.7348442748453881
1782130663.8623,-0.06689453125,-0.17626953125,0.9785155653953552,0.9965131899173456,-0.25177001953125,-0.70953369140625,-0.1964569091796875,0.7780883748905272
1782130663.872996,-0.0610351525247097,-0.19140625,0.9638671278953552,0.9845818821306932,0.23651123046875,-0.40435791015625,-0.2574920654296875,0.5345512561046121
1782130663.883692,-0.06494140625,-0.17724609375,0.9692382216453552,0.9874493882187644,0.1773834228515625,-0.5245208740234375,-0.1354217529296875,0.5700228742387417
1782130663.894388,-0.052734375,-0.1884765625,0.9785155653953552,0.9978963075587808,0.1773834228515625,-0.4634857177734375,-0.3795623779296875,0.6247811521021851
1782130663.902355,-0.0595703050494194,-0.18310546875,0.9702147841453552,0.9891374835198878,0.9098052978515625,-0.5245208740234375,-0.2574920654296875,1.0812816427944791
1782130663.910325,-0.0600585900247097,-0.1826171875,0.9658202528953552,0.9847663846359777,0.84686279296875,-0.278472900390625,-0.3795623779296875,0.9689124548205776
1782130663.918294,-0.0649413987994194,-0.18359375,0.9794921278953552,0.9986635464089287,0.4825592041015625,-0.2803802490234375,-0.5016326904296875,0.7504077728897169
1782130663.926265,-0.0693359300494194,-0.18359375,0.9677733778953552,0.9874712386686847,0.72479248046875,-0.22125244140625,0.2307891845703125,0.7921744948475047
1782130663.937081,-0.0678710862994194,-0.17529296875,0.9726561903953552,0.990653407586658,0.6046295166015625,-0.2193450927734375,0.0476837158203125,0.6449518267468194
1782130663.947896,-0.0722656100988388,-0.181640625,0.9711913466453552,0.9906706147111494,0.4825592041015625,-0.2803802490234375,0.3528594970703125,0.6602925822529677
1782130663.958713,-0.0673828050494194,-0.1845703125,0.9589843153953552,0.978906308002443,-0.0057220458984375,-0.2803802490234375,0.5970001220703125,0.6595869704623316
1782130663.96927,-0.0639648362994194,-0.1943359375,0.9707030653953552,0.992029434066729,0.05340576171875,-0.09918212890625,0.6580352783203125,0.6676074427335476
1782130663.979828,-0.0566406212747097,-0.1787109375,0.9873046278953552,1.004945862931979,-0.0057220458984375,-0.4024505615234375,0.5970001220703125,0.7200057930543073
1782130663.990386,-0.06640625,-0.1884765625,0.9775390028953552,0.9977553341538817,0.2994537353515625,-0.2803802490234375,0.4749298095703125,0.6275698747366238
1782130663.998507,-0.0595703087747097,-0.18505859375,0.9775390028953552,0.996683403589067,0.2384185791015625,-0.5245208740234375,0.4749298095703125,0.7466752240201975
1782130664.006629,-0.06494140625,-0.20166015625,0.9663085341453552,0.9892605258609317,0.60272216796875,-0.09918212890625,0.2918243408203125,0.676958309167216
1782130664.014751,-0.07568359375,-0.17724609375,0.9672850966453552,0.9862984549844753,0.4825592041015625,-0.2803802490234375,0.4138946533203125,0.694827499133936
1782130664.022873,-0.0727538987994194,-0.17822265625,0.9794921278953552,0.998229068701314,0.3604888916015625,0.3299713134765625,0.5359649658203125,0.7253218273789502
1782130664.033342,-0.07177734375,-0.1845703125,0.9736327528953552,0.9935687821397878,0.4215240478515625,0.6961822509765625,0.4138946533203125,0.9130504003279892
1782130664.043811,-0.06494140625,-0.19189453125,0.9770507216453552,0.9978321552431021,0.2384185791015625,1.0013580322265625,0.6580352783203125,1.2217085393331555
1782130664.05428,-0.0693359300494194,-0.17919921875,0.9741210341453552,0.9928905379551386,0.35858154296875,0.514984130859375,1.1463165283203125,1.306840067144855
1782130664.062334,-0.07568359375,-0.1943359375,0.9663085341453552,0.9885578618012524,0.35858154296875,0.38909912109375,1.2073516845703125,1.3182097478127484
1782130664.070386,-0.0722656175494194,-0.1826171875,0.9589843153953552,0.9788882846497383,-0.0667572021484375,0.3299713134765625,1.5125274658203125,1.5495408760716678
1782130664.078438,-0.0654296875,-0.181640625,0.9726561903953552,0.9916322026694897,-0.308990478515625,0.08392333984375,1.0242462158203125,1.0731256000143108
1782130664.08649,-0.06591796875,-0.1826171875,0.9760741591453552,0.9951959505172077,-0.1888275146484375,-0.1583099365234375,1.3294219970703125,1.3520653507078637
1782130664.09711,-0.0634765625,-0.1865234375,0.9721679091453552,0.9919328154142721,-0.7991790771484375,-0.1583099365234375,0.4749298095703125,0.9430310479365864
1782130664.10773,-0.06201171875,-0.18798828125,0.9741210341453552,0.9940306012965971,-0.61798095703125,-0.22125244140625,0.1697540283203125,0.6779893334061083
1782130664.11835,-0.0693359375,-0.1875,0.9731444716453552,0.9934655932255135,-0.4940032958984375,-0.2803802490234375,-0.0743865966796875,0.572874948105213
1782130664.126438,-0.06689453125,-0.1826171875,0.9799804091453552,0.9990923469781285,-0.7381439208984375,-0.2803802490234375,-0.3185272216796875,0.8514276968438038
1782130664.134526,-0.0732421800494194,-0.18505859375,0.9614257216453552,0.9818098177857111,-0.6771087646484375,-0.2803802490234375,-0.1964569091796875,0.7587388749567363
1782130664.142614,-0.0791015625,-0.18505859375,0.9794921278953552,0.9999542834148168,-0.12969970703125,-0.22125244140625,-0.0743865966796875,0.2670356204662679
1782130664.150702,-0.0781249925494194,-0.1796875,0.9682616591453552,0.9878875202612961,-0.308990478515625,-0.40435791015625,-0.5016326904296875,0.7145738530249841
1782130664.16122,-0.080078125,-0.185546875,0.9697265028953552,0.9905602653768405,-0.12969970703125,-0.40435791015625,-0.0743865966796875,0.4311156448976406
1782130664.171738,-0.07470703125,-0.177734375,0.9648436903953552,0.983917677181662,0.2994537353515625,-0.0972747802734375,0.1087188720703125,0.3330986575137915
1782130664.182256,-0.07080078125,-0.1865234375,0.9731444716453552,0.9933850744078775,0.0553131103515625,-0.6465911865234375,0.1087188720703125,0.657996577354922
1782130664.192904,-0.06494140625,-0.1845703125,0.9716796278953552,0.991183578238124,0.484466552734375,-0.58746337890625,0.6580352783203125,1.0063952949951467
1782130664.203552,-0.0615234337747097,-0.19140625,0.9746093153953552,0.9951305457566342,0.4215240478515625,-0.3414154052734375,0.9021759033203125,1.052695759660413
1782130664.2142,-0.0590820275247097,-0.1806640625,0.9731444716453552,0.9915343423953363,0.2384185791015625,-0.1583099365234375,0.5970001220703125,0.6620533215797885
1782130664.222237,-0.0517578087747097,-0.1865234375,0.9736327528953552,0.9926885720187191,0.05340576171875,-0.22125244140625,0.7801055908203125,0.8126312515785341
1782130664.230273,-0.0639648362994194,-0.1796875,0.9716796278953552,0.9902223978510674,0.35858154296875,-0.22125244140625,0.5970001220703125,0.7307137001165666
1782130664.238311,-0.0566406212747097,-0.18505859375,0.9794921278953552,0.9984286012069584,0.11444091796875,-0.09918212890625,0.6580352783203125,0.6752364370455709
1782130664.246348,-0.0605468712747097,-0.18505859375,0.9780272841453552,0.9972211265685376,0.2384185791015625,-0.3414154052734375,0.5359649658203125,0.6787240546831992
1782130664.257057,-0.0590820275247097,-0.1826171875,0.9726561903953552,0.9914130258682534,0.35858154296875,0.08392333984375,0.1697540283203125,0.4055123673321845
1782130664.267768,-0.06396484375,-0.1708984375,0.9653319716453552,0.9824273981606031,0.1773834228515625,-0.2803802490234375,0.1087188720703125,0.3491385912345154
1782130664.278478,-0.0595703087747097,-0.17626953125,0.9638671278953552,0.9816615555128203,-0.06866455078125,-0.09918212890625,-0.4405975341796875,0.45681298400284964
1782130664.289049,-0.0576171875,-0.18408203125,0.9697265028953552,0.9887241399612895,0.05340576171875,0.08392333984375,-0.9288787841796875,0.9341900759772734
1782130664.299622,-0.0561523400247097,-0.173828125,0.9775390028953552,0.9944605595562408,-0.1888275146484375,0.2079010009765625,-1.1119842529296875,1.1469034986688975
1782130664.310195,-0.0615234337747097,-0.18359375,0.9750975966453552,0.9941363693810027,-0.1888275146484375,0.0858306884765625,-1.0509490966796875,1.0712220783686817
1782130664.318253,-0.0747070237994194,-0.193359375,0.9589843153953552,0.9811319505956657,0.2384185791015625,0.5130767822265625,-0.9899139404296875,1.1401845520694456
1782130664.326312,-0.0712890625,-0.1884765625,0.9545897841453552,0.9756265684362133,-0.12969970703125,0.209808349609375,-0.5626678466796875,0.6143587414995885
1782130664.334371,-0.07373046875,-0.1806640625,0.9594725966453552,0.9791135527682574,-0.1888275146484375,0.0858306884765625,0.1087188720703125,0.23418482127778387
1782130664.34243,-0.0712890625,-0.1982421875,0.9692382216453552,0.9918693591573261,-0.2498626708984375,0.1468658447265625,-0.1354217529296875,0.3199062078520781
1782130664.353029,-0.0581054612994194,-0.1728515625,0.9770507216453552,0.9939225422331557,-0.1888275146484375,0.0247955322265625,0.4749298095703125,0.5116922636948869
1782130664.363628,-0.0571289025247097,-0.19970703125,0.9809569716453552,1.0027079285883764,-0.1888275146484375,0.0858306884765625,0.6580352783203125,0.6899515670587014
1782130664.374227,-0.07958984375,-0.166015625,0.9853515028953552,1.002403768563559,-0.308990478515625,-0.09918212890625,0.9632110595703125,1.0164092462124963
1782130664.384908,-0.0673828050494194,-0.1943359375,0.9707030653953552,0.9922556828702324,0.0553131103515625,0.0247955322265625,0.5970001220703125,0.6000695829211231
1782130664.395589,-0.0541992112994194,-0.193359375,0.9667968153953552,0.9874317620293922,0.23651123046875,-0.09918212890625,0.5970001220703125,0.6497567256936908
1782130664.40627,-0.06494140625,-0.17041015625,0.9677733778953552,0.9848057263043625,0.179290771484375,0.08392333984375,0.1087188720703125,0.22584973069329284
1782130664.41427,-0.0600585900247097,-0.1826171875,0.9565429091453552,0.9756692105639214,-0.0057220458984375,0.0247955322265625,0.2307891845703125,0.23218787208269964
1782130664.422273,-0.0493163987994194,-0.17822265625,0.9746093153953552,0.9919973488103443,-0.4329681396484375,0.2079010009765625,-0.1964569091796875,0.5189215290601475
1782130664.430276,-0.0722656175494194,-0.1875,0.9848632216453552,1.0051537866562843,-0.8602142333984375,0.1468658447265625,-0.6237030029296875,1.0726339261612128
1782130664.438279,-0.07177734375,-0.18212890625,0.9746093153953552,0.9940755721890715,-0.9822845458984375,0.2079010009765625,-0.4405975341796875,1.0964633794355274
1782130664.448915,-0.0546874962747097,-0.18603515625,0.9667968153953552,0.9860506497479523,-0.5550384521484375,0.3299713134765625,-0.6237030029296875,0.8977495123609319
1782130664.459551,-0.0615234337747097,-0.1669921875,0.9487304091453552,0.9652776351012072,-0.6771087646484375,0.2079010009765625,-0.5016326904296875,0.8679484209781803
1782130664.470187,-0.0532226525247097,-0.181640625,0.9570311903953552,0.9755688939186752,-1.28936767578125,-0.16021728515625,-0.8678436279296875,1.5624631657580104
1782130664.480876,-0.0478515587747097,-0.16552734375,0.9687499403953552,0.9839540234289936,-2.0198822021484375,-0.8296966552734375,-1.6002655029296875,2.7072440470328414
1782130664.491565,-0.0502929650247097,-0.181640625,0.9775390028953552,0.9955426666713048,-2.0198822021484375,-0.6465911865234375,-2.2716522216796875,3.107797948597699
1782130664.502256,-0.0507812462747097,-0.1884765625,0.9716796278953552,0.9910920486271116,-2.2029876708984375,-0.7686614990234375,-2.3937225341796875,3.342738809546912
1782130664.512917,-0.0405273400247097,-0.19580078125,0.9716796278953552,0.9920391678227451,-2.1419525146484375,-0.7686614990234375,-3.0040740966796875,3.7687215675121988
1782130664.523579,-0.0410156212747097,-0.189453125,0.9584960341453552,0.9779005139753174,-2.2640228271484375,-1.1348724365234375,-3.4923553466796875,4.313963453312052
1782130664.534241,-0.0390624925494194,-0.18994140625,1.0166015625,1.0349310861162893,-2.87628173828125,-1.07574462890625,-3.9806365966796875,5.0274934967055405
1782130664.542245,-0.0512695275247097,-0.26416015625,1.04443359375,1.078540997995056,0.2384185791015625,0.3299713134765625,-4.2858123779296875,4.305103044689358
1782130664.55025,-0.08154296875,-0.177734375,0.9145507216453552,0.9352228538007634,0.2384185791015625,2.1610260009765625,-3.0651092529296875,3.7578945605422125
1782130664.558254,-0.07568359375,-0.17236328125,0.9580077528953552,0.9763277941827682,-0.86212158203125,1.36566162109375,-2.3937225341796875,2.887592917322679
1782130664.56626,-0.1132812425494194,-0.18359375,0.9609374403953552,0.9848553545095745,-0.1888275146484375,1.3675689697265625,-1.3561248779296875,1.9351938925562697
1782130664.576923,-0.0966796800494194,-0.166015625,0.9741210341453552,0.9928846546517954,0.35858154296875,2.834320068359375,1.0242462158203125,3.0349680860735213
1782130664.587585,-0.1093749925494194,-0.16357421875,0.9760741591453552,0.9957108908644972,0.72479248046875,3.37982177734375,2.8553009033203125,4.483443167349498
1782130664.598249,-0.11962890625,-0.162109375,0.9848632216453552,1.0052592153385762,1.21307373046875,2.70843505859375,4.3201446533203125,5.241261123793126
1782130664.608912,-0.0966796800494194,-0.1748046875,0.9721679091453552,0.9924787568902834,1.0929107666015625,1.7948150634765625,6.3343048095703125,6.673771982648312
1782130664.619575,-0.08642578125,-0.1884765625,0.9726561903953552,0.994511385048404,1.51824951171875,1.42669677734375,7.0667266845703125,7.3674399426622665
1782130664.630238,-0.0683593675494194,-0.185546875,0.9638671278953552,0.9839413022082483,1.21307373046875,0.93841552734375,7.3108673095703125,7.4700035070712705
1782130664.63824,-0.0468749962747097,-0.1962890625,0.9599608778953552,0.9809442126963714,0.8487701416015625,-0.1583099365234375,4.4422149658203125,4.525344914129127
1782130664.646243,-0.029296867549419403,-0.1982421875,0.9658202528953552,0.9863909124965828,-0.12969970703125,-0.09918212890625,2.3670196533203125,2.372644336579543
1782130664.654246,-0.02294921875,-0.19287109375,0.9560546278953552,0.975585145933292,-0.6771087646484375,-0.2803802490234375,0.2307891845703125,0.7683443309615864
1782130664.662249,-0.0190429650247097,-0.18701171875,0.9653319716453552,0.98346420013515,-0.492095947265625,-0.58746337890625,-2.0885467529296875,2.224702043430612
1782130664.672899,-0.0312499962747097,-0.189453125,0.9804686903953552,0.99909354000765,-0.7991790771484375,-0.5245208740234375,-3.7975311279296875,3.9159994908366706
1782130664.683549,-0.0502929612994194,-0.1884765625,0.9794921278953552,0.9987280036011067,-1.0433197021484375,-0.5245208740234375,-4.6520233154296875,4.7963485148056995
1782130664.694199,-0.068359375,-0.1708984375,0.9721679091453552,0.9894390954790414,-1.10626220703125,-0.278472900390625,-5.5065155029296875,5.623439891290971
1782130664.702224,-0.0966796725988388,-0.18115234375,0.9716796278953552,0.9931386761207082,-1.0433197021484375,-0.0362396240234375,-5.2623748779296875,5.364924851953283
1782130664.71025,-0.0986328125,-0.18017578125,0.9765624403953552,0.9979308311910399,-1.0433197021484375,-0.1583099365234375,-4.0416717529296875,4.177162744653707
1782130664.718276,-0.1123046800494194,-0.19189453125,0.9697265028953552,0.9948896133251743,-0.7991790771484375,0.0247955322265625,-2.5768280029296875,2.6980260511071474
1782130664.726302,-0.1079101487994194,-0.185546875,0.9653319716453552,0.9889075075642247,-1.0433197021484375,0.2079010009765625,-0.8068084716796875,1.3351699281635556
1782130664.736959,-0.0991210862994194,-0.20703125,0.9667968153953552,0.9936714801604905,-0.4940032958984375,-0.4634857177734375,0.6580352783203125,0.9443879999515924
1782130664.747616,-0.0966796800494194,-0.18798828125,0.9672850966453552,0.9901146461970964,-0.43487548828125,-0.58746337890625,2.2449493408203125,2.360937833724844
1782130664.758273,-0.07568359375,-0.18896484375,0.9775390028953552,0.9985079973230171,-0.3719329833984375,-1.2569427490234375,3.2825469970703125,3.5345938955469247
1782130664.768969,-0.0571289025247097,-0.1865234375,0.9604491591453552,0.9800598407972414,0.2994537353515625,-1.6231536865234375,3.4046173095703125,3.7836119587394825
1782130664.779663,-0.0498046837747097,-0.18994140625,0.9697265028953552,0.9894077697045752,0.6046295166015625,-1.5010833740234375,2.4280548095703125,2.9179236292941173
1782130664.790357,-0.02392578125,-0.18408203125,0.9750975966453552,0.9926096716338687,0.7877349853515625,-1.9283294677734375,1.2683868408203125,2.4388083404393113
1782130664.798334,-0.01806640625,-0.19384765625,0.9736327528953552,0.9929068669210602,0.7266998291015625,-1.9283294677734375,-0.1354217529296875,2.0651600976839974
1782130664.806311,-0.0366210900247097,-0.1865234375,0.9775390028953552,0.9958486828595294,0.23651123046875,-1.38092041015625,-1.4171600341796875,1.9927923383534274
1782130664.814288,-0.0493164025247097,-0.18603515625,0.9609374403953552,0.9800214034767394,0.4825592041015625,-0.9517669677734375,-2.2716522216796875,2.509806279908877
1782130664.822265,-0.0625,-0.19287109375,0.9702147841453552,0.9911721526448065,-0.0057220458984375,-0.4634857177734375,-2.6378631591796875,2.6782781406991067
1782130664.832915,-0.06640625,-0.17333984375,0.9536132216453552,0.9715115377426922,-0.1888275146484375,-0.1583099365234375,-2.6378631591796875,2.6493470729309516
1782130664.843565,-0.08154296875,-0.1806640625,0.9677733778953552,0.9878633864024688,-0.61798095703125,0.26702880859375,-2.0275115966796875,2.136353931946407
1782130664.854215,-0.0732421800494194,-0.177734375,0.9750975966453552,0.9938658098448603,-0.4940032958984375,0.7572174072265625,-1.4781951904296875,1.732766135165071
1782130664.862255,-0.0849609375,-0.18896484375,0.9677733778953552,0.9897026745630866,-0.12969970703125,0.75531005859375,0.5970001220703125,0.9714548081968889
1782130664.870296,-0.0776367112994194,-0.185546875,0.9794921278953552,0.9999299627337036,0.2994537353515625,0.6961822509765625,1.5125274658203125,1.6917687788381761
1782130664.878339,-0.0712890625,-0.1884765625,0.9741210341453552,0.9947448588499272,0.0553131103515625,0.3299713134765625,2.3059844970703125,2.3301298480176666
1782130664.88638,-0.0810546875,-0.1884765625,0.9707030653953552,0.9921480323749468,0.0553131103515625,0.3299713134765625,2.4890899658203125,2.511475555493538
1782130664.897035,-0.0541992112994194,-0.19287109375,0.9741210341453552,0.994509226942725,0.1163482666015625,0.3299713134765625,2.4890899658203125,2.5135605910353545
1782130664.907689,-0.0537109300494194,-0.19482421875,0.9702147841453552,0.9910388829872114,0.4825592041015625,0.5130767822265625,2.4280548095703125,2.5281537390357856
1782130664.918343,-0.06591796875,-0.19921875,0.9804686903953552,1.0026724997731171,0.2994537353515625,0.3910064697265625,1.5735626220703125,1.6488353236635944
1782130664.926432,-0.0532226487994194,-0.1943359375,0.9750975966453552,0.9956979611974598,0.2994537353515625,0.6351470947265625,1.2073516845703125,1.3967041425407056
1782130664.93452,-0.0566406212747097,-0.19140625,0.9853515028953552,1.0053666479327743,0.2384185791015625,0.8182525634765625,0.5970001220703125,1.0405718726972886
1782130664.94261,-0.0634765550494194,-0.17333984375,0.9614257216453552,0.9789869216253649,0.2994537353515625,0.4520416259765625,-0.0133514404296875,0.5423950886513313
1782130664.950699,-0.0751953125,-0.189453125,0.9692382216453552,0.9904390702574738,-0.12969970703125,0.63323974609375,-0.1354217529296875,0.6604192919679273
1782130664.961218,-0.06982421875,-0.1953125,0.9663085341453552,0.9883190665683036,-0.4940032958984375,0.2079010009765625,-0.3795623779296875,0.6567569423349972
1782130664.971737,-0.0830078050494194,-0.1884765625,0.9589843153953552,0.9808489320406262,-0.43487548828125,0.26702880859375,-0.5626678466796875,0.7596158111927434
1782130664.982256,-0.07861328125,-0.17578125,0.9624022841453552,0.981477076843189,-0.5550384521484375,0.2079010009765625,-0.2574920654296875,0.646214107962397
1782130664.992925,-0.06591796875,-0.193359375,0.9736327528953552,0.9948335358315503,-0.6771087646484375,-0.0362396240234375,-0.0743865966796875,0.6821458460466352
1782130665.003594,-0.0776367112994194,-0.18359375,0.9741210341453552,0.994306750024794,-0.4329681396484375,-0.1583099365234375,-0.0743865966796875,0.46696553589988865
1782130665.014262,-0.06494140625,-0.1845703125,0.9721679091453552,0.9916622560499754,-0.6771087646484375,-0.1583099365234375,0.1087188720703125,0.7038168144553162
1782130665.022261,-0.0722656175494194,-0.18212890625,0.9672850966453552,0.9869314647754597,-0.3108978271484375,-0.6465911865234375,-0.0133514404296875,0.717576394801943
1782130665.030258,-0.08056640625,-0.1962890625,0.9667968153953552,0.9898062558560485,-0.06866455078125,-0.58746337890625,0.2918243408203125,0.6595373287276082
1782130665.038254,-0.0771484300494194,-0.19091796875,0.9633788466453552,0.9851397632896821,-0.12969970703125,-0.22125244140625,0.4138946533203125,0.4869121490365175
1782130665.046252,-0.0727538987994194,-0.1884765625,0.9692382216453552,0.9900703382591478,0.1773834228515625,-0.8296966552734375,0.5359649658203125,1.00355361743219
1782130665.056923,-0.056640625,-0.1923828125,0.9770507216453552,0.9974203825937739,0.1163482666015625,-0.4634857177734375,0.4138946533203125,0.6321904094244775
1782130665.067594,-0.06884765625,-0.20068359375,0.9711913466453552,0.9940958386244013,0.2384185791015625,-0.7686614990234375,0.3528594970703125,0.8787455511207325
1782130665.078264,-0.0605468712747097,-0.177734375,0.9687499403953552,0.9867785357889587,0.3604888916015625,-0.6465911865234375,0.2307891845703125,0.7754328153828284
1782130665.08626,-0.0585937462747097,-0.19580078125,0.9677733778953552,0.9891190444044647,0.2994537353515625,-0.7076263427734375,0.1697540283203125,0.7869078794458012
1782130665.094257,-0.0595703087747097,-0.17529296875,0.9746093153953552,0.9920380860814295,0.2994537353515625,-0.3414154052734375,-0.0133514404296875,0.45432948345399804
1782130665.102254,-0.064453125,-0.1875,0.9663085341453552,0.9864393739528096,0.1773834228515625,-0.3414154052734375,0.0476837158203125,0.3876894303627507
1782130665.110251,-0.0610351525247097,-0.18505859375,0.9638671278953552,0.9833675880369879,0.0553131103515625,-0.3414154052734375,-0.6237030029296875,0.71318262387575
1782130665.120928,-0.0585937425494194,-0.17333984375,0.9785155653953552,0.9954760870147579,-0.0057220458984375,-0.3414154052734375,-0.4405975341796875,0.557425697194263
1782130665.131605,-0.0624999962747097,-0.1962890625,0.9638671278953552,0.9856345599808829,-0.3108978271484375,-0.2193450927734375,-0.8068084716796875,0.8920255818212395
1782130665.142282,-0.080078125,-0.18017578125,0.9521483778953552,0.9723488837764559,-0.0667572021484375,-0.0362396240234375,-0.6237030029296875,0.6283114436738816
1782130665.152949,-0.0693359375,-0.18994140625,0.9677733778953552,0.9886710883808717,-0.3108978271484375,0.2079010009765625,-0.4405975341796875,0.5779329305878816
1782130665.163617,-0.07666015625,-0.1904296875,0.9790038466453552,1.0002943452724424,-0.25177001953125,0.26702880859375,0.2307891845703125,0.4335391274941552
1782130665.174284,-0.0712890625,-0.17822265625,0.9711913466453552,0.9899788267593167,-0.1888275146484375,0.1468658447265625,0.2307891845703125,0.3323989385515279
1782130665.184948,-0.0615234375,-0.18798828125,0.9790038466453552,0.9987858924692257,-0.1888275146484375,0.0247955322265625,0.2918243408203125,0.34847108144279965
1782130665.19561,-0.07080078125,-0.1865234375,0.9697265028953552,0.9900369860667237,-0.308990478515625,0.08392333984375,0.5970001220703125,0.6774417971573738
1782130665.206272,-0.06640625,-0.2041015625,0.9633788466453552,0.9869985005144328,-0.25177001953125,0.26702880859375,0.5359649658203125,0.6495775334327168
1782130665.214266,-0.0576171837747097,-0.1865234375,0.9716796278953552,0.9910963786987625,-0.0057220458984375,0.0858306884765625,0.2918243408203125,0.3042385491498973
1782130665.222259,-0.0639648362994194,-0.18798828125,0.9760741591453552,0.996068199633666,0.05340576171875,-0.03814697265625,0.4138946533203125,0.4190658074273517
1782130665.230252,-0.06640625,-0.17822265625,0.9648436903953552,0.9834106223422626,0.05340576171875,0.209808349609375,0.0476837158203125,0.22168774369595165
1782130665.238245,-0.064453125,-0.1875,0.9794921278953552,0.9993574355210635,0.1773834228515625,0.2689361572265625,0.1087188720703125,0.3400166591662349
1782130665.248923,-0.06640625,-0.18896484375,0.9648436903953552,0.9854140495792886,-0.0057220458984375,0.0247955322265625,-0.1964569091796875,0.19809815090529823
1782130665.259601,-0.06591796875,-0.19189453125,0.9614257216453552,0.9826027213320118,0.4215240478515625,0.0247955322265625,-0.3795623779296875,0.5677719084942506
1782130665.270279,-0.0610351525247097,-0.2001953125,0.9682616591453552,0.9906230834992709,-0.0667572021484375,0.2079010009765625,-0.1964569091796875,0.29372549669747766
1782130665.280971,-0.0776367112994194,-0.1923828125,0.9638671278953552,0.9859403864960805,-0.0667572021484375,-0.0362396240234375,-0.2574920654296875,0.268462284403776
1782130665.291662,-0.08154296875,-0.19140625,0.9658202528953552,0.9879748828763179,0.1163482666015625,-0.0362396240234375,0.1697540283203125,0.20896569005825294
1782130665.302353,-0.06689453125,-0.18212890625,0.9614257216453552,0.9808084599167518,-0.1888275146484375,-0.0362396240234375,-0.0743865966796875,0.20616136011205516
1782130665.312989,-0.07470703125,-0.1845703125,0.9838866591453552,1.003832804215296,-0.0057220458984375,0.1468658447265625,-0.1964569091796875,0.2453520640242233
1782130665.323623,-0.068359375,-0.19677734375,0.9609374403953552,0.9832573882342676,-0.25177001953125,-0.22125244140625,-0.0133514404296875,0.33543858830572787
1782130665.334257,-0.0595703087747097,-0.19482421875,0.9711913466453552,0.9923294461507632,-0.1888275146484375,0.0247955322265625,-0.1354217529296875,0.2336871838018801
1782130665.342248,-0.08740234375,-0.1865234375,0.9746093153953552,0.9961392874920718,-0.0057220458984375,-0.1583099365234375,0.3528594970703125,0.3867875417901054
1782130665.350239,-0.0703125,-0.19140625,0.9599608778953552,0.9813791761011305,0.1163482666015625,-0.2803802490234375,0.0476837158203125,0.30728446094468465
1782130665.35823,-0.06787109375,-0.19189453125,0.9785155653953552,0.9994612089578415,0.2384185791015625,-0.4634857177734375,0.1087188720703125,0.5324304861528945
1782130665.36622,-0.0605468712747097,-0.17724609375,0.9667968153953552,0.9847731635404118,0.179290771484375,-0.40435791015625,0.2307891845703125,0.49891296631779586
1782130665.374332,-0.06689453125,-0.19580078125,0.9829100966453552,1.004452628219295,0.1163482666015625,-0.4634857177734375,0.1697540283203125,0.5071216420663984
1782130665.382443,-0.07177734375,-0.18896484375,0.9677733778953552,0.9886581867421387,0.05340576171875,-0.40435791015625,0.0476837158203125,0.4106473324461297
1782130665.390554,-0.0590820237994194,-0.18310546875,0.9638671278953552,0.982882565955686,0.1163482666015625,-0.6465911865234375,0.1087188720703125,0.6659105606425055
1782130665.398665,-0.06494140625,-0.17529296875,0.9843749403953552,1.0019675815201183,-0.0057220458984375,-0.2803802490234375,0.2918243408203125,0.4047311104263157
1782130665.40927,-0.0673828050494194,-0.18994140625,0.9697265028953552,0.9904482170422697,-0.0667572021484375,-0.2803802490234375,-0.0743865966796875,0.29766251669754906
1782130665.419875,-0.0634765625,-0.19677734375,0.9838866591453552,1.0053773197383808,0.05340576171875,0.08392333984375,0.2918243408203125,0.30831274422329574
1782130665.43048,-0.0595703050494194,-0.19384765625,0.9790038466453552,0.9997870107296359,0.2994537353515625,-0.0362396240234375,0.3528594970703125,0.46421511677031546
1782130665.441075,-0.0610351525247097,-0.18701171875,0.9721679091453552,0.991871522106364,0.5435943603515625,0.3299713134765625,0.0476837158203125,0.637690860117898
1782130665.451673,-0.064453125,-0.18017578125,0.9707030653953552,0.9893846363468825,0.484466552734375,0.38909912109375,-0.0133514404296875,0.6215176809357922
1782130665.462271,-0.0561523400247097,-0.19140625,0.9707030653953552,0.9909863162512651,0.6046295166015625,0.4520416259765625,-0.1354217529296875,0.7669794880750872
1782130665.473045,-0.0654296875,-0.1845703125,0.9790038466453552,0.9983966025628781,1.3980865478515625,0.2079010009765625,-0.1964569091796875,1.4270473498293572
1782130665.483818,-0.06591796875,-0.18896484375,0.9711913466453552,0.9915974599485451,1.155853271484375,0.08392333984375,-0.0743865966796875,1.1612808781415667
1782130665.494591,-0.07421875,-0.181640625,0.9555663466453552,0.9755043733080361,1.0929107666015625,0.4520416259765625,-0.0743865966796875,1.1850438562073287
1782130665.502492,-0.09130859375,-0.1962890625,0.9731444716453552,0.9969337079483516,0.0553131103515625,0.3299713134765625,0.1697540283203125,0.3751760093945047
1782130665.510393,-0.0673828050494194,-0.18505859375,0.9780272841453552,0.9976595080836923,0.0553131103515625,-0.1583099365234375,-0.1964569091796875,0.2582961349754481
1782130665.518294,-0.08447265625,-0.19091796875,0.9682616591453552,0.9905129686260916,-0.12969970703125,-0.278472900390625,-0.0133514404296875,0.3074856601819124
1782130665.526195,-0.0678710862994194,-0.18896484375,0.9697265028953552,0.9902947475103463,-0.61798095703125,0.08392333984375,-0.0133514404296875,0.6237963218754473
1782130665.534414,-0.07177734375,-0.1923828125,0.9692382216453552,0.9907501521168022,-0.61798095703125,0.08392333984375,-0.1964569091796875,0.6538645940775698
1782130665.542633,-0.07666015625,-0.177734375,0.9682616591453552,0.9874193274307684,-0.9822845458984375,0.3299713134765625,-0.1354217529296875,1.045037342871008
1782130665.550852,-0.0693359375,-0.19970703125,0.9838866591453552,1.006341556631694,-0.9212493896484375,-0.1583099365234375,0.1697540283203125,0.950041527545321
1782130665.569466,-0.0678710862994194,-0.1796875,0.9628905653953552,0.9818616618134655,-0.9822845458984375,0.0858306884765625,-0.1964569091796875,1.005407953698247
1782130665.579861,-0.0654296875,-0.18701171875,0.9643554091453552,0.9844977308780769,-0.92315673828125,-0.09918212890625,-0.2574920654296875,0.9635131664319376
1782130665.590255,-0.0629882737994194,-0.1923828125,0.9780272841453552,0.9987572466392323,-0.74005126953125,-0.40435791015625,-0.3185272216796875,0.9014659128285026
1782130665.598357,-0.0654296875,-0.19873046875,0.9721679091453552,0.9944271148696591,-0.43487548828125,-0.278472900390625,-0.5626678466796875,0.7637139204224177
1782130665.606458,-0.078125,-0.19189453125,0.9555663466453552,0.9777699471705031,-0.2498626708984375,-0.3414154052734375,-0.5626678466796875,0.7039822007364126
1782130665.614559,-0.06591796875,-0.19482421875,0.9638671278953552,0.9855665858037775,-0.3108978271484375,-0.3414154052734375,-0.7457733154296875,0.8771543626355817
1782130665.62266,-0.064453125,-0.19091796875,0.9770507216453552,0.9976131458544444,0.35858154296875,-0.22125244140625,-0.2574920654296875,0.4937970529937598
1782130665.6332,-0.0649413987994194,-0.19384765625,0.9726561903953552,0.9939086295158368,0.6046295166015625,-0.2193450927734375,0.1087188720703125,0.6523104438945218
1782130665.64374,-0.07666015625,-0.19384765625,0.9677733778953552,0.9899691936383064,0.6656646728515625,-0.3414154052734375,-0.0743865966796875,0.7518027011165828
1782130665.65428,-0.0620117150247097,-0.19140625,0.9658202528953552,0.9865548977336316,0.6046295166015625,-0.2803802490234375,-0.3185272216796875,0.7386809374413724
1782130665.664955,-0.0683593675494194,-0.1884765625,0.9702147841453552,0.9907134525773793,0.9708404541015625,-0.4024505615234375,0.3528594970703125,1.108606091658968
1782130665.67563,-0.0527343712747097,-0.17578125,0.9648436903953552,0.9821422038895536,1.0318756103515625,0.1468658447265625,0.0476837158203125,1.0433650312043665
1782130665.686305,-0.06982421875,-0.17919921875,0.9731444716453552,0.9919667051965886,0.7877349853515625,-0.0972747802734375,-0.3185272216796875,0.8552475553750812
1782130665.694423,-0.0654296875,-0.18505859375,0.9677733778953552,0.9874781203095394,0.6656646728515625,0.0247955322265625,-0.0743865966796875,0.6702668430308654
1782130665.702543,-0.06640625,-0.1826171875,0.9697265028953552,0.9890036995012345,0.4825592041015625,0.0858306884765625,-0.1354217529296875,0.508497142286998
1782130665.710664,-0.07568359375,-0.1787109375,0.9697265028953552,0.9889565693005428,0.2994537353515625,-0.3414154052734375,-0.1354217529296875,0.4738945766102188
1782130665.718784,-0.0727538987994194,-0.1884765625,0.9760741591453552,0.9967634165405774,0.1773834228515625,-0.2803802490234375,-0.2574920654296875,0.4199763404100611
1782130665.729647,-0.0756835862994194,-0.18798828125,0.9858397841453552,1.00645301883706,0.5435943603515625,0.1468658447265625,-0.0743865966796875,0.5679769103747595
1782130665.740509,-0.0712890625,-0.19140625,0.9736327528953552,0.9948262262736036,0.2994537353515625,0.2689361572265625,-0.0133514404296875,0.40271262364289184
1782130665.751371,-0.06640625,-0.189453125,0.9760741591453552,0.9965054143167714,0.4825592041015625,-0.1583099365234375,-0.1354217529296875,0.5256086687182181
1782130665.7591,-0.0654296875,-0.17724609375,0.9663085341453552,0.9846062182000105,0.4825592041015625,-0.3414154052734375,-0.0133514404296875,0.5912749997951093
1782130665.766829,-0.0688476487994194,-0.17822265625,0.9614257216453552,0.9802258577426459,0.6656646728515625,-0.1583099365234375,-0.2574920654296875,0.7310770523302444
1782130665.774558,-0.0605468675494194,-0.18798828125,0.9672850966453552,0.9872415992296871,0.6046295166015625,0.0247955322265625,-0.0743865966796875,0.609692575426193
1782130665.782287,-0.07373046875,-0.18115234375,0.9643554091453552,0.9839886731137297,0.6046295166015625,-0.0362396240234375,0.1697540283203125,0.629052138400445
1782130665.792935,-0.0732421875,-0.18115234375,0.9716796278953552,0.9911316203929523,0.54168701171875,-0.03814697265625,0.2307891845703125,0.5900369970622653
1782130665.803583,-0.0791015550494194,-0.1923828125,0.9663085341453552,0.9884434155371725,0.4825592041015625,0.0247955322265625,-0.1354217529296875,0.5018139645805817
1782130665.81423,-0.0502929650247097,-0.1796875,0.9658202528953552,0.983679694255236,0.6046295166015625,0.4520416259765625,0.4749298095703125,0.8918950655653762
1782130665.824888,-0.07177734375,-0.17431640625,0.9726561903953552,0.9907564086485265,0.2994537353515625,0.2689361572265625,0.0476837158203125,0.4053059745849132
1782130665.835548,-0.0693359375,-0.18212890625,0.9638671278953552,0.9833708613529619,0.2994537353515625,0.5130767822265625,0.2307891845703125,0.6373256403053285
1782130665.846207,-0.0732421800494194,-0.18017578125,0.9589843153953552,0.9785083782276662,0.1163482666015625,0.5741119384765625,-0.1354217529296875,0.6012324743466988
1782130665.856926,-0.0620117150247097,-0.18408203125,0.9780272841453552,0.9971303904516055,0.35858154296875,0.026702880859375,-0.3795623779296875,0.5228397130514078
1782130665.867645,-0.0610351525247097,-0.189453125,0.9809569716453552,1.0009467301687969,-0.4329681396484375,0.3299713134765625,-0.6237030029296875,0.8278574234320706
1782130665.878364,-0.06396484375,-0.1767578125,0.9750975966453552,0.9930509294589552,-0.1888275146484375,0.0858306884765625,-0.6847381591796875,0.7154642436973728
1782130665.886364,-0.0722656175494194,-0.17626953125,0.9643554091453552,0.9829926867860204,-0.12969970703125,-0.03814697265625,-0.3795623779296875,0.4029203448157808
1782130665.894365,-0.0751953125,-0.1875,0.9658202528953552,0.9867215138653969,-0.3719329833984375,-0.3414154052734375,-0.5626678466796875,0.7559720423301673
1782130665.902366,-0.064453125,-0.19091796875,0.9697265028953552,0.9904409959869124,-0.2498626708984375,-0.1583099365234375,-0.5016326904296875,0.5823476164785792
1782130665.910367,-0.07177734375,-0.18798828125,0.9687499403953552,0.9894281317908538,-0.0057220458984375,-0.4634857177734375,-0.3185272216796875,0.5624156321975796
1782130665.920995,-0.0722656175494194,-0.1875,0.9809569716453552,1.0013266947901793,-0.12969970703125,-0.34332275390625,-0.3185272216796875,0.48595485212594014
1782130665.931623,-0.0571289025247097,-0.18603515625,0.9785155653953552,0.9976800602325534,0.35858154296875,-0.40435791015625,-0.1964569091796875,0.5750490062839996
1782130665.942251,-0.06640625,-0.19970703125,0.9584960341453552,0.9813293717412748,0.1773834228515625,-0.4634857177734375,-0.1964569091796875,0.5337407670835448
1782130665.950259,-0.0703125,-0.18603515625,0.9726561903953552,0.9927804348050063,0.05340576171875,-0.278472900390625,-0.0133514404296875,0.2838619252352706
1782130665.958266,-0.0527343712747097,-0.185546875,0.9624022841453552,0.9815430267004099,0.484466552734375,-0.58746337890625,-0.0743865966796875,0.7650845888134616
1782130665.966273,-0.0732421800494194,-0.18408203125,0.9682616591453552,0.9883224432028413,0.1773834228515625,-0.4634857177734375,-0.4405975341796875,0.6636339928060615
1782130665.984928,-0.0571289025247097,-0.1904296875,0.9658202528953552,0.9860709600672121,0.2384185791015625,-0.4634857177734375,-0.5626678466796875,0.7669794880750872
1782130665.995577,-0.0678710862994194,-0.197265625,0.9682616591453552,0.9904801117301749,0.35858154296875,-0.22125244140625,-0.6237030029296875,0.7526877185457361
1782130666.006226,-0.06396484375,-0.18115234375,0.9750975966453552,0.9938425407807959,0.35858154296875,-0.278472900390625,-0.5626678466796875,0.7229958401657459
1782130666.014231,-0.0737304612994194,-0.18408203125,0.9702147841453552,0.9902722365727362,-0.0057220458984375,-0.3414154052734375,-0.3185272216796875,0.46696553589988865
1782130666.022239,-0.0727538987994194,-0.18701171875,0.9653319716453552,0.9859677115509686,0.35858154296875,0.08392333984375,-0.6237030029296875,0.7243129750266033
1782130666.030246,-0.06689453125,-0.1806640625,0.9624022841453552,0.9814950526204186,0.0553131103515625,0.0247955322265625,-0.6237030029296875,0.6266416794777319
1782130666.038253,-0.0595703087747097,-0.17041015625,0.9726561903953552,0.9892665504074567,0.1773834228515625,0.3299713134765625,-0.6237030029296875,0.7275653800748726
1782130666.048921,-0.0722656175494194,-0.17919921875,0.9648436903953552,0.9840010296621327,0.0553131103515625,0.0247955322265625,-0.6237030029296875,0.6266416794777319
1782130666.059589,-0.0634765550494194,-0.1904296875,0.9731444716453552,0.9936311698091034,-0.3108978271484375,0.3299713134765625,-0.6847381591796875,0.8212215738032305
1782130666.070257,-0.0581054650247097,-0.1865234375,0.9829100966453552,1.002137463569712,0.1163482666015625,0.6351470947265625,-0.3795623779296875,0.7490102468060235
1782130666.080934,-0.0683593675494194,-0.1943359375,0.9653319716453552,0.9870690326499304,0.35858154296875,0.45013427734375,-0.0743865966796875,0.5802886836422162
1782130666.09161,-0.06640625,-0.185546875,0.9736327528953552,0.9933771541423307,0.35858154296875,0.026702880859375,-0.3185272216796875,0.48036793997416216
1782130666.102286,-0.0532226487994194,-0.18896484375,0.9711913466453552,0.9908344939077902,0.4215240478515625,0.2079010009765625,-0.3795623779296875,0.6041299097577125
1782130666.110275,-0.0673828050494194,-0.18701171875,0.9599608778953552,0.9803258195394928,-0.0057220458984375,0.5130767822265625,-0.1964569091796875,0.5494322919465721
1782130666.118265,-0.0532226487994194,-0.19482421875,0.9750975966453552,0.9957933769313401,0.05340576171875,0.209808349609375,-0.5016326904296875,0.5463580099699247
1782130666.126255,-0.0673828050494194,-0.1806640625,0.9692382216453552,0.9882320963182599,0.35858154296875,0.209808349609375,-0.4405975341796875,0.6055794362830363
1782130666.134245,-0.07666015625,-0.17919921875,0.9663085341453552,0.9857694064633118,0.41961669921875,0.38909912109375,-0.4405975341796875,0.7222205254798485
1782130666.144912,-0.0654296875,-0.1845703125,0.9819335341453552,1.0012695489936179,-0.0667572021484375,0.1468658447265625,-0.1964569091796875,0.25420743016357744
1782130666.155579,-0.076171875,-0.1884765625,0.9667968153953552,0.9879380807578138,0.1773834228515625,0.2079010009765625,-0.3795623779296875,0.4677128431518978
1782130666.166246,-0.0605468712747097,-0.1826171875,0.9638671278953552,0.9828808681772209,0.35858154296875,0.026702880859375,-0.6847381591796875,0.7734081157065954
1782130666.174256,-0.064453125,-0.18115234375,0.9755858778953552,0.9943531475875332,-0.0057220458984375,0.0858306884765625,-0.6237030029296875,0.6296070876007784
1782130666.182266,-0.06591796875,-0.1977538913488388,0.9746093153953552,0.9966519441626236,0.0553131103515625,0.1468658447265625,-0.5016326904296875,0.5256086687182181
1782130666.190276,-0.07568359375,-0.185546875,0.9731444716453552,0.9935621831969543,0.05340576171875,0.26702880859375,-0.4405975341796875,0.5179601790958243
1782130666.198286,-0.06298828125,-0.181640625,0.9653319716453552,0.9842899246187216,-0.0057220458984375,0.1468658447265625,-0.0743865966796875,0.16472912287175298
1782130666.208943,-0.0747070237994194,-0.18310546875,0.9707030653953552,0.9906428182039496,0.2384185791015625,0.0247955322265625,-0.1964569091796875,0.3099250787587905
1782130666.2196,-0.07421875,-0.171875,0.9731444716453552,0.9909892033571708,0.35858154296875,0.26702880859375,-0.1354217529296875,0.4671446871616934
1782130666.230257,-0.0649413987994194,-0.173828125,0.9707030653953552,0.9882803466056481,0.2384185791015625,-0.1583099365234375,0.0476837158203125,0.2901365051442082
1782130666.240928,-0.0590820237994194,-0.18359375,0.9648436903953552,0.9839312463129859,0.2994537353515625,-0.2803802490234375,0.1087188720703125,0.42438828542113344
1782130666.251598,-0.07177734375,-0.18359375,0.9833983778953552,1.0029611267452414,-0.0057220458984375,-0.2193450927734375,-0.1354217529296875,0.25784503621284055
1782130666.262268,-0.0683593675494194,-0.18359375,0.9702147841453552,0.9897961383765029,0.0553131103515625,-0.3414154052734375,-0.1964569091796875,0.3977679427747109
1782130666.272944,-0.0693359375,-0.17724609375,0.9741210341453552,0.9925398929731006,0.4215240478515625,-0.2803802490234375,0.2918243408203125,0.5843432662868813
1782130666.283618,-0.0576171875,-0.19384765625,0.9755858778953552,0.9963254785851254,0.2994537353515625,-0.5855560302734375,0.4138946533203125,0.777082484844905
1782130666.294294,-0.0678710862994194,-0.1728515625,0.9711913466453552,0.9887855069796346,0.2384185791015625,-0.5245208740234375,0.4749298095703125,0.7466752240201975
1782130666.302405,-0.06689453125,-0.189453125,0.9721679091453552,0.9927123493013847,0.1773834228515625,-0.1583099365234375,0.5359649658203125,0.5863321237075109
1782130666.310518,-0.0673828050494194,-0.17919921875,0.9829100966453552,1.001381575876209,0.23651123046875,-0.09918212890625,0.2307891845703125,0.34501928141315225
1782130666.318631,-0.064453125,-0.18212890625,0.9755858778953552,0.9945315223576062,0.35858154296875,-0.09918212890625,0.2307891845703125,0.4378144188658652
1782130666.326744,-0.0654296875,-0.19921875,0.9843749403953552,1.0064607183771601,0.4825592041015625,-0.0362396240234375,0.0476837158203125,0.4862616914449727
1782130666.334622,-0.06640625,-0.18408203125,0.9702147841453552,0.9897538641714952,0.7877349853515625,-0.2803802490234375,0.3528594970703125,0.9075512745084903
1782130666.342499,-0.06689453125,-0.18896484375,0.9716796278953552,0.9921410634337615,1.02996826171875,-0.278472900390625,0.3528594970703125,1.123784499391509
1782130666.350378,-0.076171875,-0.1748046875,0.9716796278953552,0.9902121654372078,0.41961669921875,0.08392333984375,0.1087188720703125,0.4415213407956737
1782130666.358256,-0.0605468675494194,-0.193359375,0.9682616591453552,0.98923425519002,0.54168701171875,0.209808349609375,0.2307891845703125,0.6250664044285444
1782130666.369096,-0.0722656175494194,-0.1826171875,0.9726561903953552,0.9922859574561229,0.1773834228515625,0.2689361572265625,-0.0133514404296875,0.3224434777257466
1782130666.379936,-0.0576171837747097,-0.18603515625,0.9692382216453552,0.988610919181728,-0.12969970703125,0.38909912109375,-0.1964569091796875,0.4547696748952779
1782130666.390775,-0.0693359300494194,-0.18359375,0.9716796278953552,0.9912998716340764,-0.1888275146484375,0.8792877197265625,-0.0133514404296875,0.8994337025661153
1782130666.401363,-0.076171875,-0.20166015625,0.9672850966453552,0.991014344675194,-0.4940032958984375,0.8182525634765625,-0.5016326904296875,1.0794497997138226
1782130666.411952,-0.0703125,-0.18603515625,0.9741210341453552,0.9942156286146523,-0.4940032958984375,0.6961822509765625,-0.0133514404296875,0.8537489349304397
1782130666.42254,-0.06982421875,-0.1826171875,0.9697265028953552,0.9892390758113598,-0.9822845458984375,0.4520416259765625,-0.1964569091796875,1.099008588633806
1782130666.43311,-0.07470703125,-0.1962890625,0.9707030653953552,0.9931641242731519,-0.980377197265625,0.38909912109375,-0.1354217529296875,1.0634268315784026
1782130666.44368,-0.07958984375,-0.18603515625,0.9809569716453552,1.0016088072739464,-1.04522705078125,0.08392333984375,-0.1964569091796875,1.0668355223837624
1782130666.45425,-0.080078125,-0.18701171875,0.9780272841453552,0.9989610891251391,-0.7381439208984375,0.2079010009765625,-0.1354217529296875,0.7787286596324324
1782130666.46225,-0.0551757737994194,-0.1923828125,0.9682616591453552,0.9887295652152265,-0.7381439208984375,-0.1583099365234375,-0.5016326904296875,0.9063960724038362
1782130666.470251,-0.07373046875,-0.18212890625,0.9707030653953552,0.9903896009560356,-0.74005126953125,-0.40435791015625,-0.7457733154296875,1.1257704202224061
1782130666.478252,-0.0654296875,-0.201171875,0.9829100966453552,1.0054170405283296,-0.5550384521484375,-0.1583099365234375,-0.5016326904296875,0.7646993366501078
1782130666.486253,-0.0712890625,-0.19140625,0.9799804091453552,1.001039502357369,-0.25177001953125,-0.22125244140625,-0.5626678466796875,0.6549319745211318
1782130666.496952,-0.0615234375,-0.1884765625,0.9716796278953552,0.9917004826259231,-0.12969970703125,-0.22125244140625,-0.5016326904296875,0.5633915272170366
1782130666.507651,-0.07421875,-0.18505859375,0.9731444716453552,0.9933605934735924,0.11444091796875,-0.09918212890625,-0.7457733154296875,0.7609938609521724
1782130666.51835,-0.07177734375,-0.181640625,0.9877929091453552,1.006916150969901,0.4825592041015625,-0.7076263427734375,-0.5626678466796875,1.024789506258334
1782130666.529036,-0.0620117150247097,-0.17724609375,0.9770507216453552,0.9949320294460566,0.35858154296875,-0.278472900390625,-0.6847381591796875,0.8215803222123833
1782130666.539722,-0.06884765625,-0.1875,0.9658202528953552,0.9862580852261572,0.5435943603515625,-0.3414154052734375,-0.3795623779296875,0.7457391677414356
1782130666.550408,-0.0712890625,-0.181640625,0.9707030653953552,0.9901211482694725,0.35858154296875,-0.58746337890625,-0.5626678466796875,0.8889820303026119
1782130666.558395,-0.0654296875,-0.1865234375,0.9672850966453552,0.9872752883240714,0.4825592041015625,-0.1583099365234375,-0.6237030029296875,0.8043201211760763
1782130666.56638,-0.07080078125,-0.1845703125,0.9785155653953552,0.9982843595904675,0.1163482666015625,-0.0362396240234375,-0.1964569091796875,0.23118292898694826
1782130666.574365,-0.056640625,-0.18359375,0.9692382216453552,0.9880979484533423,0.1163482666015625,-0.2803802490234375,0.0476837158203125,0.30728446094468465
1782130666.58235,-0.0683593675494194,-0.1943359375,0.9716796278953552,0.9932777854168573,0.2994537353515625,-0.1583099365234375,-0.2574920654296875,0.42548412353142495
1782130666.592987,-0.0629882737994194,-0.1826171875,0.9687499403953552,0.9878223559034515,0.35858154296875,0.26702880859375,-0.1964569091796875,0.4883445758286694
1782130666.603624,-0.0698242112994194,-0.18896484375,0.9697265028953552,0.9904305241028788,0.2384185791015625,0.0247955322265625,-0.1354217529296875,0.2753130735104235
1782130666.614261,-0.0581054612994194,-0.1875,0.9838866591453552,1.0032773558079673,0.7877349853515625,-0.0972747802734375,0.2307891845703125,0.8265908526826932
1782130666.624913,-0.0712890625,-0.1845703125,0.9633788466453552,0.9834872306503076,0.35858154296875,-0.278472900390625,0.2307891845703125,0.5093049449244001
1782130666.635566,-0.0732421800494194,-0.177734375,0.9809569716453552,0.9996151785635602,0.6656646728515625,-0.0362396240234375,0.2918243408203125,0.7277253691655581
1782130666.646219,-0.0678710862994194,-0.18994140625,0.9648436903953552,0.9857015618631325,0.35858154296875,0.026702880859375,0.4749298095703125,0.5956946288347182
1782130666.654235,-0.0737304612994194,-0.189453125,0.9760741591453552,0.9970202764472762,0.7266998291015625,0.4520416259765625,0.4749298095703125,0.9787709626109
1782130666.662252,-0.06494140625,-0.1845703125,0.9804686903953552,0.9998011999130918,0.5435943603515625,0.6351470947265625,0.5970001220703125,1.0272856498061216
1782130666.670271,-0.0590820275247097,-0.18212890625,0.9570311903953552,0.9759970921359359,0.2994537353515625,0.3910064697265625,0.6580352783203125,0.8219300618046064
1782130666.678289,-0.0673828050494194,-0.18310546875,0.9702147841453552,0.9896387131052945,0.05340576171875,0.45013427734375,0.4138946533203125,0.6138255673004194
1782130666.686289,-0.06591796875,-0.1767578125,0.9804686903953552,0.9984524804563781,0.179290771484375,0.38909912109375,0.4749298095703125,0.6396105305526828
1782130666.694289,-0.0751953125,-0.1748046875,0.9628905653953552,0.9815137567662168,0.11444091796875,0.38909912109375,0.4749298095703125,0.6245423714688637
1782130666.702289,-0.0629882737994194,-0.177734375,0.9716796278953552,0.9898072185833598,-0.1888275146484375,0.4520416259765625,0.2918243408203125,0.5702270668769155
1782130666.710289,-0.0576171837747097,-0.166015625,0.9873046278953552,1.0028216969500885,-0.3719329833984375,0.5741119384765625,0.1697540283203125,0.7048085500133722
1782130666.720934,-0.0712890625,-0.1787109375,0.9633788466453552,0.9824044644534107,-0.3719329833984375,0.2079010009765625,0.0476837158203125,0.42875483332686914
1782130666.731579,-0.0683593675494194,-0.18310546875,0.9799804091453552,0.9992808504752864,-0.61798095703125,0.08392333984375,-0.1354217529296875,0.6381869956292893
1782130666.742224,-0.0629882737994194,-0.17333984375,0.9809569716453552,0.9981436791800724,-0.1888275146484375,0.0858306884765625,-0.1964569091796875,0.2856887371547968
1782130666.752911,-0.07861328125,-0.18701171875,0.9770507216453552,0.9978885426772021,-0.3108978271484375,-0.0362396240234375,-0.3185272216796875,0.44657626473645085
1782130666.763599,-0.0722656175494194,-0.17919921875,0.9794921278953552,0.9983684230229741,-0.3719329833984375,-0.2193450927734375,-0.4405975341796875,0.6169056661991938
1782130666.774287,-0.0727538987994194,-0.19091796875,0.9692382216453552,0.9905380007250569,-0.3719329833984375,-0.2803802490234375,-0.1354217529296875,0.4850631704723175
1782130666.784954,-0.08447265625,-0.1904296875,0.9643554091453552,0.9866004513901176,0.1163482666015625,-0.4634857177734375,-0.2574920654296875,0.5428241828441261
1782130666.795624,-0.0698242112994194,-0.18359375,0.9819335341453552,1.0013868138745565,0.1773834228515625,-0.1583099365234375,-0.1964569091796875,0.3084189226831373
1782130666.806294,-0.07470703125,-0.1904296875,0.9584960341453552,0.9800812486074356,0.35858154296875,-0.40435791015625,-0.0133514404296875,0.5406147458452525
1782130666.816945,-0.0624999962747097,-0.18017578125,0.9707030653953552,0.9892593203257303,0.179290771484375,-0.09918212890625,-0.3185272216796875,0.3787371996316432
1782130666.827599,-0.07470703125,-0.1943359375,0.9731444716453552,0.9951672019395083,0.35858154296875,-0.34332275390625,-0.5626678466796875,0.7503641395980869
1782130666.838253,-0.0634765625,-0.19189453125,0.9770507216453552,0.9977378903189871,0.4215240478515625,-0.2193450927734375,-0.4405975341796875,0.6480131015389852
1782130666.848913,-0.0693359300494194,-0.18408203125,0.9736327528953552,0.9933047885395155,0.35858154296875,-0.34332275390625,-0.2574920654296875,0.5592435963574974
1782130666.859576,-0.0605468675494194,-0.193359375,0.9638671278953552,0.9849333029742058,0.2994537353515625,-0.0362396240234375,-0.3795623779296875,0.4848231107373107
1782130666.870239,-0.0600585900247097,-0.1748046875,0.9619140028953552,0.9795112362673,0.4825592041015625,-0.0362396240234375,-0.4405975341796875,0.654448533452184
1782130666.878234,-0.0791015625,-0.1767578125,0.9760741591453552,0.9950985607571939,0.1163482666015625,-0.0362396240234375,-0.1354217529296875,0.1821792541896516
1782130666.88623,-0.07421875,-0.177734375,0.9819335341453552,1.0006454898651123,0.2994537353515625,0.2079010009765625,-0.3185272216796875,0.4841022172785837
1782130666.894228,-0.0634765550494194,-0.18994140625,0.9780272841453552,0.9983207798007155,0.2994537353515625,0.2689361572265625,-0.3185272216796875,0.5132823659846252
1782130666.902225,-0.07666015625,-0.17822265625,0.9658202528953552,0.9851136257609718,0.1773834228515625,0.1468658447265625,-0.5016326904296875,0.5519690309768381
1782130666.912897,-0.0678710862994194,-0.173828125,0.9731444716453552,0.9908747973838049,-0.0057220458984375,0.5130767822265625,-0.7457733154296875,0.9052393961136553
1782130666.923569,-0.0615234375,-0.17822265625,0.9790038466453552,0.9969939720525016,-0.0057220458984375,0.6351470947265625,-0.6847381591796875,0.93397586713236
1782130666.934241,-0.0703125,-0.2001953125,0.9697265028953552,0.9926688779350736,0.05340576171875,0.38909912109375,-0.4405975341796875,0.5902342658181661
1782130666.942275,-0.0605468675494194,-0.18798828125,0.9785155653953552,0.9982475788993268,0.35858154296875,0.57220458984375,-0.1964569091796875,0.7032738675370639
1782130666.950311,-0.0688476487994194,-0.1748046875,0.9794921278953552,0.9973472344806255,0.35858154296875,0.26702880859375,-0.0743865966796875,0.45323114780698115
1782130666.958347,-0.0732421800494194,-0.18408203125,0.9716796278953552,0.9916712713567806,0.1163482666015625,0.0858306884765625,-0.0743865966796875,0.1625951782530327
1782130666.966383,-0.07470703125,-0.1826171875,0.9824218153953552,1.0020393211113545,-0.0057220458984375,0.4520416259765625,0.2307891845703125,0.5075805563055268
1782130666.977025,-0.0644531175494194,-0.17822265625,0.9663085341453552,0.9847180828667614,0.179290771484375,0.08392333984375,0.1087188720703125,0.22584973069329284
1782130666.987667,-0.0610351525247097,-0.17919921875,0.9658202528953552,0.9841983594515756,0.2994537353515625,0.5130767822265625,-0.0133514404296875,0.5942209900681014
1782130666.998309,-0.0712890625,-0.19384765625,0.9682616591453552,0.9900452943359022,0.2994537353515625,0.1468658447265625,-0.0743865966796875,0.3417242773477426
1782130667.00904,-0.0620117150247097,-0.1767578125,0.9770507216453552,0.9948451586793798,-0.0057220458984375,0.5130767822265625,-0.3795623779296875,0.6382382979803595
1782130667.019771,-0.0581054612994194,-0.185546875,0.9580077528953552,0.9775391255917545,0.2994537353515625,0.3299713134765625,-0.2574920654296875,0.514641400484549
1782130667.030502,-0.0615234337747097,-0.19140625,0.9702147841453552,0.9908270347627338,-0.0057220458984375,0.2689361572265625,-0.5016326904296875,0.569205371180544
1782130667.038646,-0.0673828050494194,-0.1796875,0.9707030653953552,0.9894910213036383,0.1163482666015625,0.2689361572265625,-0.6237030029296875,0.6891074021286437
