timestamp,accel_x,accel_y,accel_z,accel_rms,gyro_x,gyro_y,gyro_z,gyro_rms
1781006369.041938,-0.068359375,-0.10302734375,0.9765624403953552,0.9843585920290954,-5.3653717041015625,3.6106109619140625,-2.5615692138671875,6.955958731828407
1781006369.051309,-0.0600585862994194,-0.115234375,0.9726561903953552,0.9812981502501321,-5.4874420166015625,3.6106109619140625,-2.4356842041015625,7.005789673260829
1781006369.06068,-0.06396484375,-0.1064453125,0.9755858778953552,0.9834581388844345,-5.6095123291015625,3.4885406494140625,-1.9474029541015625,6.886865956195185
1781006369.070051,-0.0688476487994194,-0.109375,0.9887694716453552,0.9971800025211311,-5.7277679443359375,3.4885406494140625,-1.5850067138671875,6.8912616965096225
1781006369.079422,-0.0712890625,-0.1064453125,0.9809569716453552,0.9892872763787968,-5.91278076171875,3.368377685546875,-1.0318756103515625,6.882711082406401
1781006369.08901,-0.06640625,-0.1015625,0.9770507216453552,0.9845571817385834,-5.8536529541015625,3.2444000244140625,-0.7266998291015625,6.731974232503877
1781006369.098598,-0.0654296875,-0.11083984375,0.9946288466453552,1.0029222589752118,-5.9108734130859375,3.0002593994140625,-0.3604888916015625,6.6385189018535415
1781006369.108186,-0.0615234337747097,-0.11181640625,0.9833983778953552,0.9916453051657694,-5.91278076171875,2.75421142578125,-0.3604888916015625,6.532733666316381
1781006369.117774,-0.06689453125,-0.11865234375,0.9829100966453552,0.9923031366855125,-6.09588623046875,2.696990966796875,0.1277923583984375,6.667077327935194
1781006369.127362,-0.0693359300494194,-0.11474609375,0.9975585341453552,1.0065272804414849,-6.09588623046875,1.96075439453125,0.5512237548828125,6.427148229070124
1781006369.139258,-0.06494140625,-0.11083984375,0.9833983778953552,0.9917536119699629,-5.7926177978515625,1.5354156494140625,0.3681182861328125,6.003951468910925
1781006369.151154,-0.06640625,-0.1123046875,0.9814452528953552,0.9900792479919791,-5.7277679443359375,1.3523101806640625,0.4329681396484375,5.901146486814289
1781006369.16305,-0.0673828050494194,-0.11865234375,0.9736327528953552,0.983147780653694,-5.8536529541015625,1.0471343994140625,0.3681182861328125,5.957957236342298
1781006369.174946,-0.0615234337747097,-0.111328125,0.9794921278953552,0.9877165144556497,-5.8536529541015625,1.1081695556640625,0.3108978271484375,5.965731315613221
1781006369.182965,-0.0561523400247097,-0.1064453125,0.9692382216453552,0.9766813298828456,-6.1588287353515625,0.6809234619140625,0.4329681396484375,6.211464365375349
1781006369.190983,-0.06640625,-0.11474609375,0.9755858778953552,0.9845528229703052,-6.2160491943359375,1.0471343994140625,0.0057220458984375,6.303633141185325
1781006369.199001,-0.0703124925494194,-0.10009765625,0.9741210341453552,0.9817714482300204,-6.40106201171875,0.49591064453125,-0.0553131103515625,6.420481429410497
1781006369.207019,-0.0737304612994194,-0.12451171875,0.9868163466453552,0.9973694656625448,-6.4640045166015625,0.2536773681640625,0.0629425048828125,6.469286541550387
1781006369.217676,-0.0625,-0.12939453125,0.9907225966453552,1.0010896354578458,-6.21795654296875,0.31280517578125,0.1888275146484375,6.228682563635084
1781006369.228331,-0.0673828050494194,-0.1240234375,0.9824218153953552,0.9925093847568142,-5.8536529541015625,-0.1125335693359375,-0.2384185791015625,5.859587027269946
1781006369.238986,-0.06640625,-0.1259765625,0.9858397841453552,0.9960722686342289,-5.3653717041015625,-0.7228851318359375,-0.1201629638671875,5.4151837988094655
1781006369.249695,-0.0742187425494194,-0.134765625,0.9956054091453552,1.0074226154632164,-4.9991607666015625,-0.9059906005859375,0.0629425048828125,5.080983083774174
1781006369.260403,-0.0673828050494194,-0.1318359375,1.0078125,1.0186300564920916,-4.2057037353515625,-0.9670257568359375,0.3108978271484375,4.326631505323722
1781006369.271111,-0.0581054612994194,-0.1376953125,0.9897460341453552,1.0009662610816359,-4.0225982666015625,-1.4553070068359375,0.6160736083984375,4.321893333896238
1781006369.279081,-0.0629882737994194,-0.13427734375,1.0009765625,1.0119051370336563,-3.5343170166015625,-1.8215179443359375,0.6160736083984375,4.023539621569826
1781006369.287051,-0.0678710862994194,-0.14453125,0.9985350966453552,1.011221096405022,-2.4967193603515625,-1.5773773193359375,0.6160736083984375,3.0168316928318712
1781006369.295021,-0.0576171837747097,-0.12841796875,0.9902343153953552,1.0001874394084904,-2.4318695068359375,-1.4553070068359375,0.7991790771484375,2.9445874039967075
1781006369.302991,-0.0512695275247097,-0.134765625,0.9829100966453552,0.9934297137803102,-2.18963623046875,-2.00653076171875,0.8563995361328125,3.0909695380241975
1781006369.313668,-0.0541992150247097,-0.1357421875,0.9707030653953552,0.981645525403401,-2.55584716796875,-1.21307373046875,0.9212493896484375,2.9753324284010465
1781006369.324345,-0.0595703087747097,-0.1357421875,0.9638671278953552,0.9751996736012787,-2.2525787353515625,-1.3942718505859375,0.9212493896484375,2.804782592327255
1781006369.335022,-0.0561523400247097,-0.12939453125,0.9697265028953552,0.9799313855700884,-2.7408599853515625,-1.1501312255859375,0.7991790771484375,3.077954270732593
1781006369.343029,-0.0532226487994194,-0.12451171875,0.9677733778953552,0.9772006597492101,-2.7408599853515625,-1.0890960693359375,0.5512237548828125,3.0003818649451044
1781006369.351036,-0.0478515587747097,-0.123046875,0.9643554091453552,0.9733507385687549,-3.3512115478515625,-1.4553070068359375,0.6771087646484375,3.7157790033535596
1781006369.359043,-0.0454101525247097,-0.123046875,0.9804686903953552,0.989202440476754,-3.95965576171875,-1.087188720703125,0.6160736083984375,4.152156037133198
1781006369.36705,-0.0600585900247097,-0.13134765625,0.9702147841453552,0.9809056878275009,-4.2057037353515625,-0.4787445068359375,0.3681182861328125,4.248841169655678
1781006369.375032,-0.0410156212747097,-0.126953125,0.9594725966453552,0.9687037941750805,-3.9005279541015625,-0.4177093505859375,0.1277923583984375,3.9249115033538886
1781006369.383014,-0.0522460900247097,-0.13525390625,0.9838866591453552,0.9945130623189231,-3.9615631103515625,-0.1125335693359375,0.1888275146484375,3.9676569801098154
1781006369.390996,-0.0522460900247097,-0.150390625,0.9731444716453552,0.9860817190804615,-3.77655029296875,0.43487548828125,-0.3604888916015625,3.8185600750280635
1781006369.398978,-0.0502929650247097,-0.14111328125,0.9780272841453552,0.9894340346929944,-3.95965576171875,0.49591064453125,-0.1773834228515625,3.9945295088876773
1781006369.409659,-0.0405273400247097,-0.13818359375,0.9750975966453552,0.985673624408552,-3.59344482421875,0.61798095703125,-0.2384185791015625,3.653982702041512
1781006369.42034,-0.0478515587747097,-0.13330078125,0.9697265028953552,0.9800144694731222,-3.7174224853515625,0.9860992431640625,-0.8487701416015625,3.938531757551342
1781006369.431021,-0.0405273400247097,-0.146484375,0.9750975966453552,0.9868715521242706,-4.0798187255859375,1.1692047119140625,-0.7266998291015625,4.305816198308975
1781006369.441957,-0.0585937462747097,-0.13720703125,0.9648436903953552,0.9763105773383138,-4.0225982666015625,0.8640289306640625,-0.7266998291015625,4.178030091934071
1781006369.452892,-0.0522460900247097,-0.150390625,0.9663085341453552,0.9793360899981711,-4.08172607421875,1.59454345703125,-0.5435943603515625,4.415716409590226
1781006369.463827,-0.0463867150247097,-0.1455078125,0.9868163466453552,0.9985643458665068,-4.0225982666015625,1.6574859619140625,-1.0318756103515625,4.4713894712546
1781006369.474209,-0.0498046837747097,-0.1416015625,0.9711913466453552,0.9827228199381343,-4.44793701171875,1.89971923828125,-0.5435943603515625,4.867090678538817
1781006369.484589,-0.0415039025247097,-0.14892578125,0.9707030653953552,0.9829373852965624,-4.2629241943359375,2.0236968994140625,-0.7266998291015625,4.774511961338984
1781006369.494969,-0.0541992150247097,-0.15087890625,0.9736327528953552,0.9867435010027068,-4.75311279296875,2.44903564453125,-0.6656646728515625,5.388224778862734
1781006369.505653,-0.0454101525247097,-0.13623046875,0.9663085341453552,0.9769201634372725,-5.1822662353515625,2.8781890869140625,-0.8487701416015625,5.988344220848564
1781006369.516339,-0.0551757775247097,-0.13916015625,0.9633788466453552,0.974940366215655,-4.99725341796875,3.24249267578125,-1.0318756103515625,6.045747906680679
1781006369.527025,-0.06689453125,-0.14404296875,0.9697265028953552,0.9826457884584486,-5.7926177978515625,2.8171539306640625,-0.9708404541015625,6.5140853854062115
1781006369.535031,-0.0493164025247097,-0.15087890625,0.9584960341453552,0.9715509247494696,-6.6471099853515625,2.8171539306640625,-0.9708404541015625,7.2844326212640995
1781006369.543037,-0.0581054612994194,-0.14990234375,0.9589843153953552,0.9723671500358594,-7.37762451171875,3.185272216796875,-1.7681121826171875,8.228093535037793
1781006369.551043,-0.064453125,-0.138671875,0.9648436903953552,0.976886606077701,-8.17108154296875,3.24249267578125,-2.2563934326171875,9.075882527726854
1781006369.559049,-0.0410156212747097,-0.14990234375,0.9663085341453552,0.9787263034231984,-8.23211669921875,3.12042236328125,-2.2563934326171875,9.08823923527434
1781006369.569761,-0.0546874962747097,-0.12744140625,0.9707030653953552,0.9805592666655664,-8.59832763671875,3.24249267578125,-2.3746490478515625,9.49125676616742
1781006369.580473,-0.0585937425494194,-0.13818359375,0.9716796278953552,0.9832035554830284,-8.657455444335938,3.3664703369140625,-2.7446746826171875,9.685963886644632
1781006369.591185,-0.0673828050494194,-0.150390625,0.9755858778953552,0.9894066846616054,-8.905410766601562,3.3054351806640625,-3.1070709228515625,9.994304997102317
1781006369.601804,-0.0624999962747097,-0.1572265625,0.9804686903953552,0.9949599460960667,-8.783340454101562,2.6950836181640625,-3.4160614013671875,9.802041661789858
1781006369.612423,-0.0654296875,-0.15625,0.9858397841453552,1.0002875519120031,-8.417129516601562,3.0002593994140625,-3.7784576416015625,9.701874453547362
1781006369.623042,-0.068359375,-0.1669921875,0.9780272841453552,0.9945334400457158,-8.111953735351562,2.8781890869140625,-3.8394927978515625,9.42493876740159
1781006369.633686,-0.07421875,-0.171875,0.9746093153953552,0.9924277082649222,-7.6808929443359375,2.1457672119140625,-3.8394927978515625,8.851109438642652
1781006369.644331,-0.0698242112994194,-0.1640625,0.9785155653953552,0.9946278882631573,-7.3757171630859375,1.8405914306640625,-3.7784576416015625,8.489153234207267
1781006369.654976,-0.07421875,-0.1611328125,0.9707030653953552,0.9867809520271771,-7.3757171630859375,1.5354156494140625,-3.9615631103515625,8.51191442412366
1781006369.662991,-0.0683593675494194,-0.17041015625,0.9731444716453552,0.9903144890280176,-7.13348388671875,1.10626220703125,-3.7212371826171875,8.121453970938603
1781006369.671004,-0.0673828050494194,-0.16455078125,0.9716796278953552,0.9878151149345556,-7.0743560791015625,1.3523101806640625,-3.4160614013671875,7.971494982533681
1781006369.679017,-0.07421875,-0.16259765625,0.9741210341453552,0.9903828602282917,-6.88934326171875,0.92315673828125,-3.4732818603515625,7.77038968280683
1781006369.68703,-0.0751953125,-0.171875,0.9775390028953552,0.9953782461097982,-6.7691802978515625,0.5588531494140625,-2.9850006103515625,7.419187785144071
1781006369.697724,-0.0727538987994194,-0.16943359375,0.9765624403953552,0.9938184303344791,-6.21795654296875,0.43487548828125,-2.8629302978515625,6.859188738539871
1781006369.708418,-0.0654296875,-0.1611328125,0.9765624403953552,0.9919269263718168,-6.1588287353515625,0.3147125244140625,-2.3746490478515625,6.608265541341202
1781006369.719112,-0.0634765550494194,-0.17333984375,0.9760741591453552,0.9933764334951422,-5.97381591796875,0.31280517578125,-2.3136138916015625,6.413823581856932
1781006369.729747,-0.0581054612994194,-0.16552734375,0.9750975966453552,0.9907526780914079,-5.6705474853515625,-0.2956390380859375,-2.3746490478515625,6.154792386825866
1781006369.740382,-0.0595703087747097,-0.1796875,0.9663085341453552,0.9846768010397673,-5.1822662353515625,-0.2346038818359375,-2.2563934326171875,5.6570516736366585
1781006369.751017,-0.0483398362994194,-0.1845703125,0.9663085341453552,0.98496452890038,-5.1822662353515625,-0.2956390380859375,-2.0732879638671875,5.589437248598626
1781006369.759078,-0.0434570237994194,-0.17919921875,0.9604491591453552,0.9779894990341836,-4.93621826171875,-0.29754638671875,-2.2563934326171875,5.435632060978101
1781006369.76714,-0.0561523400247097,-0.1796875,0.9565429091453552,0.9748923119928476,-4.9991607666015625,-0.1735687255859375,-2.1915435791015625,5.461190138782126
1781006369.775202,-0.0600585900247097,-0.166015625,0.9633788466453552,0.9794217805131922,-5.11932373046875,-0.35858154296875,-2.4967193603515625,5.706983769440092
1781006369.783264,-0.0634765625,-0.171875,0.9667968153953552,0.9840052702452446,-5.42449951171875,-0.05340576171875,-2.9850006103515625,6.191790998719266
1781006369.793866,-0.0605468712747097,-0.1796875,0.9663085341453552,0.9847363629111862,-5.72967529296875,-0.17547607421875,-2.6187896728515625,6.3022242237256005
1781006369.804468,-0.0600585900247097,-0.17919921875,0.9667968153953552,0.985096683831068,-5.6705474853515625,0.0095367431640625,-2.8018951416015625,6.325015108094806
1781006369.81507,-0.0493163987994194,-0.17333984375,0.9560546278953552,0.9728922140411773,-5.9757232666015625,-0.1125335693359375,-2.8629302978515625,6.627088520126102
1781006369.823065,-0.05615234375,-0.19287109375,0.9633788466453552,0.9840991549009045,-6.6471099853515625,-0.1125335693359375,-2.9850006103515625,7.287452477058573
1781006369.831061,-0.0629882737994194,-0.1884765625,0.9550780653953552,0.975533212272848,-6.5860748291015625,-0.1125335693359375,-2.9850006103515625,7.23182370516261
1781006369.839057,-0.06396484375,-0.17578125,0.9736327528953552,0.9914389979207557,-6.58416748046875,0.255584716796875,-3.2901763916015625,7.364906356918235
1781006369.847053,-0.0693359375,-0.19091796875,0.9707030653953552,0.9917265672495464,-6.3419342041015625,0.6198883056640625,-3.2901763916015625,7.171446970347383
1781006369.857721,-0.0600585900247097,-0.1943359375,0.9804686903953552,1.0013452669710599,-5.91278076171875,0.67901611328125,-3.4160614013671875,6.862325751241899
1781006369.868389,-0.05712890625,-0.1884765625,0.9682616591453552,0.9880879349086567,-5.54656982421875,0.98419189453125,-3.7212371826171875,6.7513462857038915
1781006369.879057,-0.06689453125,-0.19482421875,0.9682616591453552,0.9899302980986192,-5.72967529296875,1.28936767578125,-3.5953521728515625,6.886087801722726
1781006369.887066,-0.0678710862994194,-0.18798828125,0.9545897841453552,0.9752885389655044,-5.42449951171875,1.10626220703125,-3.9043426513671875,6.77443005444942
1781006369.895078,-0.0722656175494194,-0.19482421875,0.9780272841453552,0.9998580720402702,-5.6705474853515625,0.7419586181640625,-3.8394927978515625,6.888201239761282
1781006369.90309,-0.08056640625,-0.20556640625,0.9594725966453552,0.9845487072298458,-5.79071044921875,0.31280517578125,-3.7784576416015625,6.921482264230979
1781006369.911102,-0.0791015550494194,-0.20263671875,0.9619140028953552,0.986203449985432,-6.2160491943359375,-0.4177093505859375,-4.0836334228515625,7.449148315089568
1781006369.92178,-0.0654296875,-0.20556640625,0.9736327528953552,0.997245871836768,-6.09588623046875,-0.66375732421875,-3.7784576416015625,7.202579042929677
1781006369.932458,-0.0771484225988388,-0.19140625,0.9516600966453552,0.9737788102005498,-5.9757232666015625,-1.4553070068359375,-4.2095184326171875,7.453001575049671
1781006369.943136,-0.0810546875,-0.177734375,0.9692382216453552,0.9887275159115447,-6.09588623046875,-2.00653076171875,-3.6563873291015625,7.3861466904575215
1781006369.9511,-0.0786132737994194,-0.19970703125,0.9697265028953552,0.9931930505021701,-5.6705474853515625,-2.7370452880859375,-4.1446685791015625,7.538222822605612
1781006369.959064,-0.0683593675494194,-0.19921875,0.9492186903953552,0.9723051144981149,-5.72967529296875,-3.77655029296875,-3.6563873291015625,7.775646556949033
1781006369.967028,-0.06591796875,-0.19873046875,0.9589843153953552,0.9815752110704604,-5.97381591796875,-4.14276123046875,-3.4160614013671875,8.032336069435997
1781006369.974992,-0.06201171875,-0.2021484375,0.9614257216453552,0.9844027947376585,-6.0977935791015625,-4.6901702880859375,-3.8394927978515625,8.597818840225141
1781006369.985682,-0.0683593675494194,-0.19482421875,0.9594725966453552,0.9814362654073289,-5.97381591796875,-5.42449951171875,-3.5953521728515625,8.833924882023972
1781006369.996372,-0.0615234337747097,-0.18896484375,0.9614257216453552,0.9817495929809114,-6.1588287353515625,-6.1550140380859375,-3.6563873291015625,9.44375653544931
1781006370.007062,-0.0537109300494194,-0.193359375,0.9580077528953552,0.9788010862860606,-6.21795654296875,-6.458282470703125,-3.3512115478515625,9.570946394170893
1781006370.017725,-0.04248046875,-0.203125,0.9750975966453552,0.9969351427418774,-6.0329437255859375,-7.1315765380859375,-3.5381317138671875,9.988702114856428
1781006370.02839,-0.0644531175494194,-0.2177734375,0.9760741591453552,1.0021478127470607,-5.8536529541015625,-7.3146820068359375,-3.8394927978515625,10.124797810966172
1781006370.039055,-0.0561523400247097,-0.2099609375,0.9785155653953552,1.0023619068415963,-4.81414794921875,-7.56072998046875,-3.5381317138671875,9.636339260279229
1781006370.047047,-0.0541992150247097,-0.20556640625,0.9633788466453552,0.986556589583978,-4.50897216796875,-7.56072998046875,-3.6563873291015625,9.532294380131694
1781006370.05504,-0.0585937425494194,-0.21240234375,0.9614257216453552,0.9863505464781438,-4.57000732421875,-7.74383544921875,-3.1070709228515625,9.513455950789893
1781006370.063033,-0.0390624925494194,-0.22265625,0.9750975966453552,1.0009580445612012,-4.5680999755859375,-7.6808929443359375,-3.0498504638671875,9.442734861323213
1781006370.071026,-0.0439453050494194,-0.21728515625,0.9643554091453552,0.9895076473228385,-4.5108795166015625,-7.8639984130859375,-3.1070709228515625,9.583548130726081
1781006370.081687,-0.0468749962747097,-0.19873046875,0.9653319716453552,0.9866898600705581,-4.2057037353515625,-7.6808929443359375,-3.1070709228515625,9.291821675620414
1781006370.092348,-0.0434570237994194,-0.21484375,0.9687499403953552,0.9932385397514386,-4.1446685791015625,-7.4977874755859375,-3.0498504638671875,9.093771632914256
1781006370.103009,-0.03173828125,-0.2080078125,0.9663085341453552,0.9889523505811008,-4.44793701171875,-7.19451904296875,-2.9239654541015625,8.949571045398592
1781006370.113671,-0.03173828125,-0.2177734375,0.9765624403953552,1.0010528400480179,-3.9005279541015625,-7.0095062255859375,-2.7446746826171875,8.47823890679282
1781006370.124335,-0.0410156212747097,-0.20458984375,0.9653319716453552,0.9876259923852292,-3.5343170166015625,-6.5212249755859375,-2.8018951416015625,7.928958843415422
1781006370.134999,-0.0322265587747097,-0.208984375,0.9682616591453552,0.991082065550334,-3.1681060791015625,-6.5212249755859375,-2.7446746826171875,7.752193910374395
1781006370.14568,-0.0322265625,-0.21728515625,0.9687499403953552,0.9933417526074083,-2.6798248291015625,-6.5212249755859375,-2.3746490478515625,7.43954262017077
1781006370.156363,-0.0249023400247097,-0.21533203125,0.9667968153953552,0.9907997236977601,-2.67791748046875,-6.58416748046875,-2.7446746826171875,7.61943190510041
1781006370.167046,-0.0366210900247097,-0.21533203125,0.9638671278953552,0.9883060397235717,-2.31170654296875,-6.40106201171875,-2.1915435791015625,7.149856311687299
1781006370.17504,-0.0214843712747097,-0.21923828125,0.9765624403953552,1.001099996087032,-1.82342529296875,-5.664825439453125,-2.3746490478515625,6.407346186915126
1781006370.183033,-0.021484375,-0.212890625,0.9697265028953552,0.9930526103886372,-1.82342529296875,-5.54656982421875,-2.4967193603515625,6.35003339978039
1781006370.191026,-0.0244140587747097,-0.2158203125,0.9672850966453552,0.9913702193155022,-1.4553070068359375,-5.0563812255859375,-2.5615692138671875,5.852054888672515
1781006370.199019,-0.01318359375,-0.21435546875,0.9570311903953552,0.9808316744053222,-1.5811920166015625,-4.5070648193359375,-2.3136138916015625,5.307222505084173
1781006370.2097,-0.0166015587747097,-0.22802734375,0.9536132216453552,0.9806376791395812,-1.15203857421875,-4.016876220703125,-2.0084381103515625,4.636411445509419
1781006370.220381,-0.01416015625,-0.22314453125,0.9648436903953552,0.9904127113216665,-1.21307373046875,-3.65447998046875,-1.7032623291015625,4.210448238007056
1781006370.231062,-0.0249023400247097,-0.22509765625,0.9682616591453552,0.9943941481921872,-1.2149810791015625,-3.3473968505859375,-1.4591217041015625,3.8484127696061528
1781006370.239057,-0.010253898799419403,-0.21240234375,0.9614257216453552,0.9846620315176035,-0.9670257568359375,-2.7370452880859375,-1.0967254638671875,3.103121406988816
1781006370.247052,-0.011230465024709702,-0.21826171875,0.9599608778953552,0.9845248540824129,-1.0929107666015625,-2.2487640380859375,-0.9708404541015625,2.6821492930227273
1781006370.255047,-0.0058593712747097015,-0.2216796725988388,0.9599608778953552,0.9852416437427339,-0.7266998291015625,-1.5773773193359375,-0.8487701416015625,1.933034558006143
1781006370.263042,-0.0214843712747097,-0.2099609375,0.9760741591453552,0.9986320331514811,-0.60272216796875,-0.54168701171875,-0.4825592041015625,0.9431660595509535
1781006370.273713,-0.0029296837747097015,-0.21533203125,0.9677733778953552,0.9914442887486199,-0.66375732421875,-0.35858154296875,-0.1201629638671875,0.7639330116556237
1781006370.284384,-0.01416015625,-0.2177734375,0.9736327528953552,0.9977908185667869,-0.35858154296875,0.43487548828125,-0.2384185791015625,0.6119974118625937
1781006370.295055,-0.00927734375,-0.21923828125,0.9672850966453552,0.9918628691833987,0.00762939453125,0.743865966796875,-0.3032684326171875,0.8033470771974269
1781006370.30573,-0.0244140587747097,-0.21044921875,0.9672850966453552,0.9902148141340618,0.00762939453125,1.77764892578125,-0.4825592041015625,1.8419981803615548
1781006370.316406,-0.013671875,-0.22265625,0.9594725966453552,0.9850636474581014,0.00762939453125,2.08282470703125,-0.5435943603515625,2.1526058153983394
1781006370.327082,-0.0063476525247097015,-0.2099609375,0.9614257216453552,0.9841053328835005,0.2498626708984375,2.0236968994140625,-0.1201629638671875,2.0426011928156553
1781006370.335076,-0.0356445275247097,-0.2236328125,0.9697265028953552,0.9958170803851355,0.3719329833984375,2.2068023681640625,-0.3032684326171875,2.2583805211912944
1781006370.343069,-0.0209960900247097,-0.21923828125,0.9658202528953552,0.9906134567350817,0.3719329833984375,2.2678375244140625,-0.4825592041015625,2.3482513849124627
1781006370.351062,-0.0366210900247097,-0.21875,0.9638671278953552,0.9890563719888967,0.4978179931640625,2.5119781494140625,-0.4825592041015625,2.605901065450246
1781006370.359055,-0.02783203125,-0.21435546875,0.9604491591453552,0.984472181551898,0.31280517578125,2.75421142578125,-0.4825592041015625,2.813608189027509
1781006370.369736,-0.0322265587747097,-0.2138671875,0.9697265028953552,0.9935528246637294,0.31280517578125,2.75421142578125,-0.0553131103515625,2.7724695121996
1781006370.380417,-0.0336913987994194,-0.2197265625,0.9677733778953552,0.9929754194259361,0.55694580078125,2.75421142578125,-0.1201629638671875,2.8125270382339793
1781006370.391098,-0.0341796800494194,-0.2177734375,0.9648436903953552,0.9897054448191013,0.49591064453125,2.75421142578125,-0.1201629638671875,2.8010796281342545
1781006370.401745,-0.0312499962747097,-0.21875,0.9677733778953552,0.9926799261243049,0.43487548828125,2.75421142578125,0.3108978271484375,2.8056112929515846
1781006370.412392,-0.0341796837747097,-0.20556640625,0.9628905653953552,0.9851822364866645,0.3719329833984375,2.6340484619140625,0.9822845458984375,2.8357412387173833
1781006370.423039,-0.0380859375,-0.2177734375,0.9658202528953552,0.9907999644825731,0.25177001953125,2.26593017578125,0.7991790771484375,2.4158880151204527
1781006370.431092,-0.03759765625,-0.2080078125,0.9760741591453552,0.9986999539240204,0.3719329833984375,2.2678375244140625,1.1653900146484375,2.5767334102546293
1781006370.439146,-0.0410156212747097,-0.21044921875,0.9687499403953552,0.9921933288815442,0.25177001953125,2.57110595703125,1.4095306396484375,2.942915324830818
1781006370.4472,-0.0317382775247097,-0.2109375,0.9731444716453552,0.9962490200047391,0.31280517578125,2.14385986328125,1.4705657958984375,2.6185007067881885
1781006370.455254,-0.0458984337747097,-0.2216796725988388,0.9760741591453552,1.0019826882824932,0.37384033203125,1.89971923828125,1.4095306396484375,2.394883379677779
1781006370.465888,-0.0361328087747097,-0.21826171875,0.9682616591453552,0.9932141754488656,0.19073486328125,1.77764892578125,1.5277862548828125,2.3517113623935653
1781006370.476522,-0.0268554650247097,-0.21923828125,0.9697265028953552,0.9945632862642794,0.1926422119140625,1.6574859619140625,1.4095306396484375,2.1842956209865596
1781006370.487156,-0.0371093712747097,-0.2158203125,0.9687499403953552,0.993192810958681,0.31280517578125,1.83868408203125,1.4095306396484375,2.337815830132556
1781006370.495135,-0.02685546875,-0.212890625,0.9604491591453552,0.984127136968437,0.12969970703125,1.59454345703125,1.6536712646484375,2.3008736388357196
1781006370.503115,-0.0283203087747097,-0.22021484375,0.9643554091453552,0.9895847474798898,0.25177001953125,1.59454345703125,1.7757415771484375,2.399836479410536
1781006370.511095,-0.02392578125,-0.208984375,0.9648436903953552,0.9875070930875847,0.25177001953125,1.89971923828125,1.7757415771484375,2.6125809989059245
1781006370.519075,-0.02734375,-0.2080078125,0.9663085341453552,0.9888210727362372,0.49591064453125,1.77764892578125,1.5277862548828125,2.395849308971556
1781006370.529747,-0.033203125,-0.2197265625,0.9794921278953552,1.0043839098605687,0.2498626708984375,1.5354156494140625,1.4705657958984375,2.1406766058516435
1781006370.540419,-0.0253906212747097,-0.208984375,0.9643554091453552,0.9870666177066074,0.3719329833984375,1.5964508056640625,1.5926361083984375,2.285493183717601
1781006370.551091,-0.0312499962747097,-0.21337890625,0.9765624403953552,1.0000906558360334,0.1277923583984375,1.8405914306640625,1.0395050048828125,2.1177059183643587
1781006370.562381,-0.0400390550494194,-0.20703125,0.9619140028953552,0.9847556109878117,0.1926422119140625,1.7185211181640625,1.1043548583984375,2.051834668937835
1781006370.57367,-0.0380859375,-0.22119140625,0.9580077528953552,0.9839486935006898,0.0667572021484375,1.7185211181640625,1.3446807861328125,2.18310278599275
1781006370.584959,-0.0375976525247097,-0.21630859375,0.9565429091453552,0.9814159812443094,0.37384033203125,1.41143798828125,1.2264251708984375,1.9068383487936043
1781006370.595002,-0.0312499962747097,-0.19873046875,0.9643554091453552,0.9851150778587594,0.1277923583984375,0.8640289306640625,1.7147064208984375,1.9243427422784767
1781006370.605045,-0.0439453050494194,-0.23388671875,0.9663085341453552,0.9951815765003255,0.2498626708984375,1.3523101806640625,1.6536712646484375,2.1507679629751166
1781006370.615088,-0.0336913987994194,-0.20947265625,0.9516600966453552,0.9750235092635147,-0.0553131103515625,1.0471343994140625,1.6536712646484375,1.958105881237523
1781006370.623074,-0.04736328125,-0.2080078125,0.9721679091453552,0.9952994393868879,-0.05340576171875,0.98419189453125,2.0160675048828125,2.244106513713237
1781006370.631061,-0.0322265587747097,-0.22412109375,0.9736327528953552,0.9996147024052537,0.00762939453125,0.98419189453125,1.8329620361328125,2.0804907399039463
1781006370.639048,-0.0390624962747097,-0.20654296875,0.9604491591453552,0.983182823211581,0.0667572021484375,0.6809234619140625,1.9588470458984375,2.074896391208186
1781006370.647035,-0.0532226487994194,-0.21435546875,0.9741210341453552,0.9988456870271177,0.00762939453125,0.61798095703125,2.0160675048828125,2.1086694513741557
1781006370.657751,-0.0366210900247097,-0.20947265625,0.9658202528953552,0.9889533147999842,0.0667572021484375,0.7419586181640625,2.0809173583984375,2.2102434634199337
1781006370.668467,-0.030273430049419403,-0.21240234375,0.9604491591453552,0.9841208378550218,0.31280517578125,0.67901611328125,1.7757415771484375,1.9266987592523992
1781006370.679183,-0.0434570237994194,-0.21337890625,0.9672850966453552,0.9914935848214873,0.2498626708984375,0.5588531494140625,1.5277862548828125,1.6458672599961903
1781006370.68979,-0.0366210900247097,-0.21630859375,0.9672850966453552,0.9918522925097842,0.19073486328125,0.61798095703125,1.7147064208984375,1.8326206266422154
1781006370.7004,-0.0375976525247097,-0.2109375,0.9648436903953552,0.9883478938498057,0.3147125244140625,0.3757476806640625,1.3446807861328125,1.4312221033586132
1781006370.71101,-0.0244140587747097,-0.2197265625,0.9570311903953552,0.9822344465164475,0.43487548828125,0.12969970703125,1.4705657958984375,1.5389939780188395
1781006370.719027,-0.0502929650247097,-0.2099609375,0.9692382216453552,0.9929933070797136,0.2498626708984375,0.1926422119140625,1.3446807861328125,1.381198317662747
1781006370.727047,-0.0454101487994194,-0.2080078125,0.9711913466453552,0.9942544762151383,-0.1163482666015625,-0.1125335693359375,1.4095306396484375,1.4187943288145777
1781006370.735067,-0.0351562462747097,-0.21044921875,0.9687499403953552,0.991968387772825,-0.05340576171875,0.31280517578125,1.3446807861328125,1.381617048959319
1781006370.743087,-0.0434570237994194,-0.2197265625,0.9736327528953552,0.9990640683640651,-0.0553131103515625,-0.1125335693359375,1.2874603271484375,1.293552255761402
1781006370.753738,-0.0405273400247097,-0.2041015625,0.9721679091453552,0.9941882903537295,0.12969970703125,0.19073486328125,1.3446807861328125,1.364319690787195
1781006370.764389,-0.0395507737994194,-0.2138671875,0.9589843153953552,0.9833383724698183,0.0667572021484375,-0.4177093505859375,1.4095306396484375,1.4716365888742187
1781006370.77504,-0.019531242549419403,-0.216796875,0.9667968153953552,0.9909987067115125,0.2498626708984375,-0.2956390380859375,1.2264251708984375,1.2860608441913395
1781006370.783031,-0.0512695275247097,-0.2041015625,0.9624022841453552,0.9851416998562924,0.12969970703125,-0.17547607421875,1.0395050048828125,1.0621603089005127
1781006370.791024,-0.029296867549419403,-0.21826171875,0.9736327528953552,0.9982270392202869,0.2498626708984375,0.1926422119140625,1.2874603271484375,1.3255551554351879
1781006370.799017,-0.0434570237994194,-0.22021484375,0.9707030653953552,0.9963169834411534,0.3719329833984375,0.1926422119140625,0.9212493896484375,1.012000792429741
1781006370.80701,-0.0351562462747097,-0.2138671875,0.9624022841453552,0.9865055965728148,0.19073486328125,0.12969970703125,0.6160736083984375,0.6578362205290771
1781006370.818121,-0.0312499962747097,-0.2158203125,0.9467772841453552,0.971566876405542,0.6809234619140625,0.2536773681640625,0.6160736083984375,0.952657157149805
1781006370.829232,-0.0444335900247097,-0.2001953125,0.9667968153953552,0.988305918897614,0.12969970703125,0.43487548828125,0.4329681396484375,0.627216162309675
1781006370.840343,-0.0429687462747097,-0.220703125,0.9677733778953552,0.993549945148291,0.3719329833984375,0.2536773681640625,0.8563995361328125,0.967525977298183
1781006370.850577,-0.0390624925494194,-0.21240234375,0.9716796278953552,0.9953903421379587,0.55694580078125,-0.05340576171875,0.8563995361328125,1.022966747202041
1781006370.86081,-0.033203125,-0.2177734375,0.9667968153953552,0.9915764215878333,0.61798095703125,-0.232696533203125,0.6771087646484375,0.945793010643315
1781006370.871043,-0.037109375,-0.20849609375,0.9658202528953552,0.9887651327412124,0.43487548828125,0.12969970703125,0.6160736083984375,0.7651701740638608
1781006370.881715,-0.0322265587747097,-0.21533203125,0.9536132216453552,0.9781536746695502,0.61798095703125,0.49591064453125,0.3681182861328125,0.8736926823534799
1781006370.892387,-0.0332031212747097,-0.205078125,0.9609374403953552,0.983137960293201,0.49591064453125,0.49591064453125,0.3681182861328125,0.7920642696802822
1781006370.903059,-0.0366210900247097,-0.20556640625,0.9711913466453552,0.9933837543527458,0.0667572021484375,0.5588531494140625,0.6160736083984375,0.8344579423876167
1781006370.911051,-0.04638671875,-0.2177734375,0.9697265028953552,0.9949605460391951,0.1926422119140625,0.4978179931640625,0.4329681396484375,0.6873101091062651
1781006370.919043,-0.0429687462747097,-0.21142578125,0.9589843153953552,0.9829537584789487,0.43487548828125,0.255584716796875,0.1888275146484375,0.5386056702786374
1781006370.927035,-0.0351562462747097,-0.21630859375,0.9746093153953552,0.9989437857245189,0.12969970703125,0.19073486328125,0.3681182861328125,0.43441095135858215
1781006370.935027,-0.0400390587747097,-0.2158203125,0.9638671278953552,0.9885450792717565,0.0095367431640625,0.1926422119140625,0.0629425048828125,0.2028884673958644
1781006370.945682,-0.0424804650247097,-0.2060546875,0.9672850966453552,0.9899007941918485,0.31280517578125,0.255584716796875,0.3681182861328125,0.5465177929775359
1781006370.956337,-0.03271484375,-0.2138671875,0.9721679091453552,0.9959517450473184,0.1277923583984375,0.3757476806640625,0.2498626708984375,0.468986738296466
1781006370.966992,-0.03271484375,-0.21875,0.9687499403953552,0.9936791587416892,0.43487548828125,0.49591064453125,0.3108978271484375,0.729178658898404
1781006370.977673,-0.0405273400247097,-0.2119140475988388,0.9550780653953552,0.9791445959910803,0.61798095703125,0.255584716796875,0.4940032958984375,0.8314224359926292
1781006370.988355,-0.0351562462747097,-0.20947265625,0.9682616591453552,0.9912847199162684,0.2498626708984375,0.2536773681640625,0.6771087646484375,0.7650227712891161
1781006370.999037,-0.0444335862994194,-0.216796875,0.9707030653953552,0.995610199711279,0.37384033203125,0.43487548828125,0.4329681396484375,0.718564328443682
1781006371.009759,-0.0439453050494194,-0.20751953125,0.9633788466453552,0.9864554464596164,0.43487548828125,-0.05340576171875,0.5512237548828125,0.7041423816528319
1781006371.020482,-0.0527343712747097,-0.21533203125,0.9672850966453552,0.9923654849843399,0.4329681396484375,-0.2956390380859375,0.3108978271484375,0.6095254791365387
1781006371.031205,-0.0483398362994194,-0.21826171875,0.9565429091453552,0.9823183061927625,0.3719329833984375,-0.1125335693359375,0.6771087646484375,0.7806883036980135
1781006371.039163,-0.0444335900247097,-0.2158203125,0.9653319716453552,0.9901608791963004,0.43487548828125,-0.35858154296875,0.6771087646484375,0.8810072033924797
1781006371.047121,-0.0356445237994194,-0.2177734375,0.9663085341453552,0.9911851417972319,0.31280517578125,-0.29754638671875,0.5512237548828125,0.7001632368184076
1781006371.055079,-0.0380859375,-0.21435546875,0.9619140028953552,0.9862440644102511,0.43487548828125,-0.05340576171875,0.4329681396484375,0.615979119486403
1781006371.063037,-0.0395507737994194,-0.21337890625,0.9653319716453552,0.9894243967182575,0.6809234619140625,-0.2956390380859375,0.5512237548828125,0.9246117183837317
1781006371.073717,-0.0488281212747097,-0.21142578125,0.9633788466453552,0.9875139738596743,0.4329681396484375,-0.2956390380859375,0.1888275146484375,0.5572429282452251
1781006371.084397,-0.0405273362994194,-0.20751953125,0.9672850966453552,0.9901248805226339,0.74005126953125,-0.35858154296875,0.4940032958984375,0.9593205203951303
1781006371.095077,-0.0434570237994194,-0.21044921875,0.9584960341453552,0.9822891804669145,0.67901611328125,-0.35858154296875,0.8563995361328125,1.150245091509597
1781006371.105732,-0.0415039025247097,-0.20361328125,0.9697265028953552,0.9917411117039706,0.98419189453125,0.12969970703125,0.4940032958984375,1.1088259356740906
1781006371.116387,-0.0493163987994194,-0.21337890625,0.9702147841453552,0.9946252521413318,0.98419189453125,-0.17547607421875,0.6160736083984375,1.1742964825159388
1781006371.127042,-0.0327148400247097,-0.20068359375,0.9667968153953552,0.9879474924391771,0.8602142333984375,-0.2956390380859375,0.7381439208984375,1.171421109653125
1781006371.13506,-0.04296875,-0.2041015625,0.9589843153953552,0.981404441841284,0.8602142333984375,-0.1735687255859375,0.6771087646484375,1.108409179412784
1781006371.143079,-0.0380859375,-0.216796875,0.9604491591453552,0.9853496896777506,0.67901611328125,0.12969970703125,0.3108978271484375,0.7579857221776589
1781006371.151098,-0.0390624962747097,-0.20654296875,0.9643554091453552,0.9869991042058653,0.5550384521484375,-0.2956390380859375,0.3681182861328125,0.7286845660428598
1781006371.159117,-0.0322265625,-0.2021484375,0.9702147841453552,0.9915741371619553,0.6809234619140625,-0.4177093505859375,0.4329681396484375,0.9086249349993573
1781006371.169755,-0.025390617549419403,-0.20361328125,0.9599608778953552,0.9816455260686281,0.67901611328125,-0.05340576171875,0.1277923583984375,0.6929977953394729
1781006371.180393,-0.0341796837747097,-0.2109375,0.9550780653953552,0.978691468588811,0.2498626708984375,-0.2956390380859375,0.3681182861328125,0.5341768131754115
1781006371.191031,-0.0517578087747097,-0.2119140475988388,0.9697265028953552,0.9939597198863431,0.55694580078125,-0.05340576171875,0.3108978271484375,0.6400767604891209
1781006371.201704,-0.0366210900247097,-0.208984375,0.9672850966453552,0.9902807841319313,0.61798095703125,-0.17547607421875,0.3108978271484375,0.7136874489593492
1781006371.212378,-0.0400390587747097,-0.2060546875,0.9599608778953552,0.9826426347141205,0.43487548828125,-0.05340576171875,0.4940032958984375,0.6603091109860099
1781006371.223052,-0.0302734337747097,-0.2138671875,0.9541015028953552,0.9782460490637555,0.49591064453125,0.12969970703125,0.5512237548828125,0.7527263840935157
1781006371.231049,-0.0327148400247097,-0.21142578125,0.9536132216453552,0.9773173989200482,0.31280517578125,0.255584716796875,0.6771087646484375,0.7884458793217266
1781006371.239047,-0.0366210900247097,-0.19384765625,0.9687499403953552,0.9886326239226684,0.61798095703125,0.12969970703125,0.7381439208984375,0.9713799077686188
1781006371.247045,-0.0449218712747097,-0.205078125,0.9633788466453552,0.9859887494470067,0.4978179931640625,0.0705718994140625,0.6160736083984375,0.7952042745545791
1781006371.255043,-0.0512695275247097,-0.21337890625,0.9584960341453552,0.9832973962934242,0.80108642578125,0.072479248046875,0.8563995361328125,1.1749097277905716
1781006371.265713,-0.04248046875,-0.21337890625,0.9663085341453552,0.9904985265106714,0.61798095703125,0.00762939453125,0.9212493896484375,1.1093507600582386
1781006371.276383,-0.0454101525247097,-0.2021484225988388,0.9545897841453552,0.9768150913587443,0.5550384521484375,0.1926422119140625,0.9822845458984375,1.1445792389718483
1781006371.287053,-0.0405273400247097,-0.205078125,0.9609374403953552,0.9834125619477163,0.3719329833984375,0.5588531494140625,0.7991790771484375,1.0437136504336364
1781006371.29778,-0.0483398362994194,-0.21826171875,0.9721679091453552,0.9975396539572802,0.2498626708984375,0.3757476806640625,0.5512237548828125,0.7123659886463068
1781006371.308508,-0.0405273362994194,-0.20751953125,0.9667968153953552,0.9896478682321033,0.1926422119140625,0.0095367431640625,0.6160736083984375,0.6455607347464615
1781006371.319236,-0.0327148400247097,-0.2109375,0.9609374403953552,0.9843605305058046,0.2498626708984375,0.0705718994140625,0.9212493896484375,0.9571374954639631
1781006371.327191,-0.0449218712747097,-0.2109375,0.9658202528953552,0.989606671525571,0.67901611328125,0.31280517578125,0.7381439208984375,1.0506028783752845
1781006371.335149,-0.0390624925494194,-0.21875,0.9619140028953552,0.9872466711973957,0.8602142333984375,0.2536773681640625,0.6771087646484375,1.1237424142674513
1781006371.343107,-0.0493164025247097,-0.21044921875,0.9692382216453552,0.9930476884463884,0.80108642578125,0.43487548828125,0.6771087646484375,1.13548775028292
1781006371.351065,-0.0361328087747097,-0.2060546875,0.9643554091453552,0.986785422094681,0.61798095703125,0.31280517578125,0.5512237548828125,0.8852091104343116
1781006371.361758,-0.0307617150247097,-0.21923828125,0.9516600966453552,0.9770714644404279,0.8602142333984375,0.3757476806640625,0.4329681396484375,1.0337389693807197
1781006371.37245,-0.0419921837747097,-0.20654296875,0.9545897841453552,0.9775811973605611,0.7381439208984375,0.2536773681640625,0.6160736083984375,0.9943617782492624
1781006371.383142,-0.0449218675494194,-0.2080078125,0.9653319716453552,0.9885095041150953,0.7381439208984375,0.0705718994140625,0.4329681396484375,0.8586607309623844
1781006371.393963,-0.0444335862994194,-0.212890625,0.9589843153953552,0.9833349780103506,0.49591064453125,0.00762939453125,0.5512237548828125,0.7415073856459019
1781006371.404785,-0.0449218712747097,-0.21484375,0.9511718153953552,0.9761678307726493,0.12969970703125,-0.05340576171875,0.8563995361328125,0.8678100914815685
1781006371.415607,-0.0590820237994194,-0.2080078125,0.9624022841453552,0.9863955049195364,0.3719329833984375,0.0095367431640625,0.5512237548828125,0.6650358799019394
1781006371.423458,-0.025390617549419403,-0.2021484375,0.9658202528953552,0.9870751922452919,0.31280517578125,-0.232696533203125,0.4940032958984375,0.6293123317708076
1781006371.431309,-0.0390624925494194,-0.2197265625,0.9638671278953552,0.9893662015803253,0.2498626708984375,-0.1125335693359375,0.2498626708984375,0.37084567254383327
1781006371.43916,-0.0434570237994194,-0.20458984375,0.9746093153953552,0.9967992951133923,-0.0553131103515625,-0.1125335693359375,0.3108978271484375,0.33523246162904646
1781006371.447011,-0.0322265587747097,-0.21630859375,0.9755858778953552,0.9997978615547312,0.0095367431640625,-0.2956390380859375,-0.2384185791015625,0.37991684507450274
1781006371.457689,-0.0366210900247097,-0.22021484375,0.9570311903953552,0.982722942152052,0.2498626708984375,-0.2956390380859375,-0.1201629638671875,0.4053059745849132
1781006371.468367,-0.03271484375,-0.2119140625,0.9658202528953552,0.9893364401404048,0.0095367431640625,-0.1125335693359375,-0.4825592041015625,0.49559876832050037
1781006371.479045,-0.0463867150247097,-0.2075195163488388,0.9682616591453552,0.9913358248178846,0.31280517578125,0.12969970703125,-0.7266998291015625,0.8017242254140577
1781006371.487051,-0.0307617150247097,-0.2070312350988388,0.9716796278953552,0.9939665561198063,0.3719329833984375,-0.4177093505859375,-0.6084442138671875,0.8264500027799915
1781006371.495058,-0.0346679650247097,-0.22021484375,0.9536132216453552,0.9793235531241066,0.31280517578125,-0.35858154296875,-0.7266998291015625,0.8686313617235037
1781006371.503065,-0.0390624925494194,-0.21875,0.9599608778953552,0.98534376129034,0.31280517578125,-0.17547607421875,-0.4253387451171875,0.5563739558216458
1781006371.511072,-0.0478515587747097,-0.2197265625,0.9628905653953552,0.9888011806589951,0.25177001953125,-0.66375732421875,-0.1201629638671875,0.7200007403288887
1781006371.521781,-0.0537109337747097,-0.201171875,0.9755858778953552,0.9975584157566001,0.1926422119140625,-0.7228851318359375,0.1888275146484375,0.7715761569209544
1781006371.53249,-0.0488281212747097,-0.20166015625,0.9643554091453552,0.9864240260627767,0.12969970703125,-0.720977783203125,0.3681182861328125,0.8198426986086073
1781006371.543199,-0.0439453050494194,-0.20361328125,0.9614257216453552,0.9837321669939284,0.43487548828125,-0.35858154296875,0.6771087646484375,0.8810072033924797
1781006371.551157,-0.02880859375,-0.2177734375,0.9721679091453552,0.9966773042095775,0.61798095703125,-0.29754638671875,0.9212493896484375,1.148535917344452
1781006371.559113,-0.0434570237994194,-0.21044921875,0.9770507216453552,1.0004026685578653,0.49591064453125,-0.232696533203125,0.7991790771484375,0.9688974358909105
1781006371.567069,-0.0395507737994194,-0.20703125,0.9770507216453552,0.9995270455832622,0.6160736083984375,-0.1125335693359375,0.7381439208984375,0.9680221811259679
1781006371.575025,-0.0439453050494194,-0.2080078125,0.9682616591453552,0.9913269291549774,0.61798095703125,-0.232696533203125,0.7991790771484375,1.0366944280596095
1781006371.585679,-0.029296867549419403,-0.21826171875,0.9663085341453552,0.9910845914865478,0.74005126953125,-0.17547607421875,0.4329681396484375,0.8751737793767979
1781006371.596333,-0.0390624925494194,-0.20947265625,0.9692382216453552,0.9923847048090044,0.31280517578125,0.31280517578125,0.3681182861328125,0.5755043254193982
1781006371.606987,-0.0297851525247097,-0.20068359375,0.9667968153953552,0.9878548184677421,0.4329681396484375,0.0705718994140625,0.4940032958984375,0.6606671319931517
1781006371.615076,-0.0400390587747097,-0.19140625,0.9692382216453552,0.9887680259114763,0.0095367431640625,-0.1125335693359375,0.1277923583984375,0.17054512764279794
1781006371.623165,-0.0439453087747097,-0.20654296875,0.9638671278953552,0.9867274336617023,0.19073486328125,0.31280517578125,0.3108978271484375,0.4805042403476535
1781006371.631254,-0.02880859375,-0.2001953125,0.9604491591453552,0.981514485641371,-0.17547607421875,0.19073486328125,0.3108978271484375,0.4047580754225431
1781006371.639343,-0.0498046837747097,-0.18994140625,0.9545897841453552,0.9745767801096034,0.00762939453125,0.31280517578125,0.2498626708984375,0.4004205788479821
1781006371.649921,-0.0395507775247097,-0.2060546875,0.9687499403953552,0.9912109993636754,-0.54168701171875,0.00762939453125,0.4940032958984375,0.733159111437771
1781006371.660499,-0.0449218675494194,-0.1884765625,0.9638671278953552,0.983148630184259,-0.2994537353515625,0.2536773681640625,0.4940032958984375,0.6309231356458314
1781006371.671077,-0.0366210900247097,-0.2138671875,0.9643554091453552,0.9884642802204152,0.00762939453125,0.49591064453125,0.4329681396484375,0.6583669075606262
1781006371.681794,-0.0419921837747097,-0.20947265625,0.9619140028953552,0.9853530769124157,-0.0553131103515625,0.1926422119140625,0.4329681396484375,0.477107924833088
1781006371.69251,-0.0322265625,-0.2021484375,0.9770507216453552,0.9982638202308883,0.0667572021484375,0.2536773681640625,0.3108978271484375,0.40677535579598767
1781006371.703226,-0.0361328087747097,-0.21484375,0.9667968153953552,0.9910396051836742,-0.0553131103515625,0.8640289306640625,0.4329681396484375,0.9680221811259679
1781006371.711186,-0.0434570237994194,-0.203125,0.9658202528953552,0.9879053798038308,0.49591064453125,0.255584716796875,0.3108978271484375,0.6386770496465004
1781006371.719147,-0.0488281212747097,-0.20068359375,0.9604491591453552,0.9824055565450822,0.31280517578125,0.19073486328125,0.4329681396484375,0.5671757011871055
1781006371.727108,-0.0410156212747097,-0.2099609375,0.9580077528953552,0.9816031433690692,0.12969970703125,0.19073486328125,0.5512237548828125,0.597536132817101
1781006371.735069,-0.0483398400247097,-0.201171875,0.9648436903953552,0.9867776904249296,0.4329681396484375,-0.1125335693359375,0.6160736083984375,0.7613618752887397
1781006371.745714,-0.0375976525247097,-0.20166015625,0.9638671278953552,0.9854543329507381,0.2498626708984375,0.0095367431640625,0.5512237548828125,0.6052850004136772
1781006371.756359,-0.0312499962747097,-0.2026367038488388,0.9663085341453552,0.9878210258827439,0.1926422119140625,0.1926422119140625,0.4940032958984375,0.5641465235032511
1781006371.767004,-0.0439453050494194,-0.20751953125,0.9580077528953552,0.9812106808905589,0.49591064453125,0.43487548828125,0.1277923583984375,0.6718444347706469
1781006371.777688,-0.0336913987994194,-0.2216796875,0.9707030653953552,0.9962637378581529,0.1926422119140625,0.0705718994140625,0.4329681396484375,0.47911671307592685
1781006371.788374,-0.0400390587747097,-0.2109375,0.9638671278953552,0.9874905545730833,0.3147125244140625,-0.1125335693359375,0.1277923583984375,0.357824907064325
1781006371.79906,-0.0415039025247097,-0.1972656100988388,0.9628905653953552,0.9837654882032784,0.3719329833984375,-0.1735687255859375,0.2498626708984375,0.48051181145700234
1781006371.807051,-0.0405273400247097,-0.2119140475988388,0.9570311903953552,0.9810498092598317,0.9212493896484375,-0.1125335693359375,0.2498626708984375,0.9611428595498204
1781006371.815042,-0.0405273400247097,-0.21044921875,0.9702147841453552,0.9936035760484068,0.5550384521484375,-0.1125335693359375,0.3108978271484375,0.6460564576849607
1781006371.823033,-0.0263671837747097,-0.1982421875,0.9643554091453552,0.9848738743782881,0.49591064453125,-0.05340576171875,0.3108978271484375,0.5877388890228206
1781006371.831024,-0.0507812462747097,-0.20361328125,0.9648436903953552,0.9874008558687462,0.61798095703125,0.31280517578125,0.4329681396484375,0.8168285935246312
1781006371.841705,-0.0415039025247097,-0.2021484225988388,0.9619140028953552,0.9838013557879176,0.2498626708984375,0.0095367431640625,0.6771087646484375,0.7218023156948247
1781006371.852386,-0.0522460900247097,-0.2099609375,0.9770507216453552,1.000720421429711,0.37384033203125,-0.05340576171875,0.4940032958984375,0.6218102810315332
1781006371.863067,-0.037109375,-0.20703125,0.9677733778953552,0.9903657683666369,0.25177001953125,-0.35858154296875,0.4329681396484375,0.615979119486403
1781006371.873768,-0.0434570237994194,-0.20361328125,0.9663085341453552,0.988483214010759,0.2498626708984375,-0.2956390380859375,0.2498626708984375,0.4607224212661895
1781006371.884468,-0.0366210900247097,-0.21484375,0.9648436903953552,0.9891523078092618,0.2498626708984375,-0.2346038818359375,0.2498626708984375,0.42414819342948085
1781006371.895168,-0.04248046875,-0.19775390625,0.9711913466453552,0.9920301555200689,0.19073486328125,-0.17547607421875,0.1888275146484375,0.3206672277961177
1781006371.903129,-0.0454101525247097,-0.19873046875,0.9721679091453552,0.993310789599088,-0.17547607421875,-0.232696533203125,0.1277923583984375,0.318230130649208
1781006371.911091,-0.0498046837747097,-0.2109375,0.9672850966453552,0.9912696876351879,-0.05340576171875,0.00762939453125,0.1277923583984375,0.1387129046293389
1781006371.919053,-0.0361328087747097,-0.2041015625,0.9697265028953552,0.9916312409875692,-0.17547607421875,-0.17547607421875,0.1277923583984375,0.2791318543475166
1781006371.927015,-0.0410156212747097,-0.20361328125,0.9672850966453552,0.9893336685275379,0.0095367431640625,-0.2956390380859375,-0.1773834228515625,0.3449032748657106
1781006371.937689,-0.0410156212747097,-0.22021484375,0.9711913466453552,0.9966892647135344,-0.0553131103515625,-0.1125335693359375,0.1277923583984375,0.17903695503801745
1781006371.948363,-0.02783203125,-0.2138671875,0.9687499403953552,0.9924667464800346,-0.0553131103515625,-0.1125335693359375,0.0629425048828125,0.1403036112335433
1781006371.959037,-0.0458984337747097,-0.21533203125,0.9560546278953552,0.9810784889219356,0.06866455078125,-0.05340576171875,-0.1773834228515625,0.19756486180818436
1781006371.969771,-0.0380859337747097,-0.1904296875,0.9731444716453552,0.9923326896392947,0.31280517578125,-0.05340576171875,-0.1201629638671875,0.3393204845947937
1781006371.980506,-0.0561523400247097,-0.2119140475988388,0.9624022841453552,0.9870556242624681,-0.1163482666015625,0.0095367431640625,-0.1201629638671875,0.16753210586843514
1781006371.991241,-0.0439453050494194,-0.2021484375,0.9677733778953552,0.989636545193519,0.19073486328125,0.12969970703125,-0.0553131103515625,0.23719473487342282
1781006371.999186,-0.0434570237994194,-0.203125,0.9624022841453552,0.9845640837805837,0.3719329833984375,-0.1125335693359375,-0.1201629638671875,0.4067395803858971
1781006372.007131,-0.033203125,-0.2021484375,0.9682616591453552,0.9896954475313975,0.4329681396484375,0.0705718994140625,-0.3032684326171875,0.5333043644670677
1781006372.015076,-0.0390624925494194,-0.2080078125,0.9638671278953552,0.9868297566563594,0.19073486328125,0.12969970703125,-0.3604888916015625,0.4279650021240432
1781006372.023021,-0.0419921837747097,-0.2099609375,0.9716796278953552,0.994991576869324,0.19073486328125,0.12969970703125,-0.1201629638671875,0.26007871877617406
1781006372.033709,-0.0415039025247097,-0.20068359375,0.9672850966453552,0.9887552462148607,0.3719329833984375,0.3147125244140625,-0.3604888916015625,0.6060778482429937
1781006372.044397,-0.0551757775247097,-0.220703125,0.9638671278953552,0.9903504814193119,0.12969970703125,-0.05340576171875,-0.6084442138671875,0.6244025550694133
1781006372.055085,-0.0502929612994194,-0.20849609375,0.9648436903953552,0.9883943291829439,0.00762939453125,0.12969970703125,-0.3604888916015625,0.3831872422628768
1781006372.063135,-0.0351562425494194,-0.19775390625,0.9619140028953552,0.9826602249981897,0.1926422119140625,0.2536773681640625,-0.6084442138671875,0.6867805983851376
1781006372.071185,-0.0537109337747097,-0.21630859375,0.9658202528953552,0.9912028213437962,0.12969970703125,0.00762939453125,-0.3032684326171875,0.3299272099827341
1781006372.079235,-0.0410156212747097,-0.20458984375,0.9711913466453552,0.9933538730749573,0.49591064453125,0.12969970703125,-0.6084442138671875,0.7955839005107203
1781006372.087285,-0.0434570237994194,-0.21337890625,0.9702147841453552,0.9943519487204557,0.2498626708984375,-0.2346038818359375,-0.6084442138671875,0.698337094152567
1781006372.097867,-0.0502929650247097,-0.2060546875,0.9638671278953552,0.9869284456377475,0.31280517578125,-0.29754638671875,-0.4253387451171875,0.606047835028545
1781006372.108449,-0.0405273362994194,-0.21337890625,0.9707030653953552,0.9947047118556902,0.2498626708984375,-0.4177093505859375,0.0629425048828125,0.4907893792619696
1781006372.119031,-0.0395507737994194,-0.2041015625,0.9755858778953552,0.9974916123316151,0.12969970703125,-0.48065185546875,-0.3032684326171875,0.5829407880665324
1781006372.129689,-0.0361328087747097,-0.2158203125,0.9711913466453552,0.995538356346136,0.31280517578125,-0.415802001953125,0.2498626708984375,0.5772085733357277
1781006372.140349,-0.0361328087747097,-0.20361328125,0.9672850966453552,0.989143268876433,0.0095367431640625,-0.6008148193359375,-0.2384185791015625,0.6464617664368563
1781006372.151009,-0.0385742112994194,-0.19921875,0.9677733778953552,0.9888181789853586,0.00762939453125,-0.66375732421875,0.0057220458984375,0.6638258317693069
1781006372.161666,-0.03759765625,-0.19921875,0.9648436903953552,0.9859133029849956,-0.1163482666015625,-0.2956390380859375,0.0057220458984375,0.31776107658243874
1781006372.172321,-0.0346679612994194,-0.19287109375,0.9633788466453552,0.9831072822986889,-0.17547607421875,-0.35858154296875,-0.4825592041015625,0.6262874428281372
1781006372.182976,-0.0380859375,-0.20849609375,0.9648436903953552,0.9878484229070728,0.00762939453125,-0.54168701171875,-0.3032684326171875,0.6208500370844704
1781006372.190991,-0.04248046875,-0.1982421875,0.9589843153953552,0.980181346641683,-0.17547607421875,-0.17547607421875,-0.2384185791015625,0.3441324223424124
1781006372.199005,-0.0419921875,-0.21337890625,0.9667968153953552,0.9909540774940492,0.12969970703125,-0.232696533203125,-0.1201629638671875,0.29224788870767254
1781006372.207019,-0.0322265625,-0.203125,0.9741210341453552,0.995595352600635,-0.05340576171875,0.12969970703125,-0.0553131103515625,0.15077708567788448
1781006372.215033,-0.0380859375,-0.20703125,0.9741210341453552,0.9966063747920905,0.19073486328125,-0.17547607421875,-0.1201629638671875,0.28567600280648076
1781006372.225712,-0.0405273400247097,-0.201171875,0.9648436903953552,0.986425838812134,0.00762939453125,0.00762939453125,0.0629425048828125,0.06386058442223819
1781006372.236391,-0.0434570237994194,-0.20751953125,0.9589843153953552,0.9821424468690991,0.12969970703125,-0.05340576171875,0.0057220458984375,0.14038137767530212
1781006372.24707,-0.0395507775247097,-0.21533203125,0.9624022841453552,0.9869905289379717,0.3719329833984375,0.0705718994140625,0.0629425048828125,0.38376593914454393
1781006372.255058,-0.0454101525247097,-0.21142578125,0.9599608778953552,0.9840161736572786,0.6160736083984375,-0.1125335693359375,-0.0553131103515625,0.6287050464003942
1781006372.263044,-0.0419921875,-0.21240234375,0.9785155653953552,1.0021830227870157,0.37384033203125,-0.05340576171875,0.0629425048828125,0.38284530578148407
1781006372.27103,-0.0395507737994194,-0.212890625,0.9824218153953552,1.0060016427848062,0.55694580078125,0.12969970703125,0.1888275146484375,0.6022179583009508
1781006372.279016,-0.0419921875,-0.20361328125,0.9687499403953552,0.9908068223061602,0.49591064453125,0.255584716796875,-0.0553131103515625,0.5606339759560623
1781006372.289688,-0.0585937462747097,-0.201171875,0.9667968153953552,0.9892418474024041,0.8602142333984375,0.3757476806640625,0.0057220458984375,0.9387159254401448
1781006372.30036,-0.0439453087747097,-0.21044921875,0.9672850966453552,0.9908887536085996,0.43487548828125,0.255584716796875,-0.0553131103515625,0.507444359457033
1781006372.311032,-0.0400390550494194,-0.2119140625,0.9599608778953552,0.9838879930683804,0.1926422119140625,0.3757476806640625,0.2498626708984375,0.4906411067614145
1781006372.321865,-0.0375976525247097,-0.2109375,0.9638671278953552,0.9873945779772441,-0.1163482666015625,0.5588531494140625,0.0629425048828125,0.5742956735620839
1781006372.3327,-0.0498046837747097,-0.20166015625,0.9628905653953552,0.9850408956343184,-0.17547607421875,0.43487548828125,-0.0553131103515625,0.4721949630267608
1781006372.343535,-0.037109375,-0.212890625,0.9624022841453552,0.9863658958287124,-0.7877349853515625,0.0705718994140625,-0.1201629638671875,0.7999662105483468
1781006372.351412,-0.0297851525247097,-0.20068359375,0.9692382216453552,0.990244308445944,-0.6046295166015625,0.1926422119140625,0.0629425048828125,0.637690860117898
1781006372.359292,-0.0375976525247097,-0.1962890625,0.9775390028953552,0.9977602325780193,-0.2994537353515625,0.1316070556640625,-0.1201629638671875,0.34847108144279965
1781006372.367172,-0.0341796837747097,-0.21484375,0.9697265028953552,0.9938287468747606,-0.2384185791015625,0.3757476806640625,-0.0553131103515625,0.4484297922328471
1781006372.375052,-0.0351562462747097,-0.20556640625,0.9750975966453552,0.997150355770992,-0.17547607421875,0.12969970703125,0.0057220458984375,0.21828103086727477
1781006372.383064,-0.0439453050494194,-0.19775390625,0.9707030653953552,0.9916159732683614,-0.2994537353515625,0.1316070556640625,-0.0553131103515625,0.331741611639739
1781006372.391076,-0.0244140587747097,-0.21044921875,0.9628905653953552,0.9859224923216465,-0.4215240478515625,0.0705718994140625,0.0057220458984375,0.42742912595345994
1781006372.399088,-0.0336914025247097,-0.20654296875,0.9726561903953552,0.9949146562688435,-0.1163482666015625,0.0095367431640625,0.2498626708984375,0.27578836617933405
1781006372.4071,-0.0419921837747097,-0.20654296875,0.9736327528953552,0.9961847614518204,-0.2994537353515625,0.1926422119140625,0.0629425048828125,0.3615872237069074
1781006372.417777,-0.0483398400247097,-0.2060546875,0.9672850966453552,0.9901695473839576,-0.0553131103515625,0.0705718994140625,0.0629425048828125,0.10955223450297835
1781006372.428454,-0.0419921837747097,-0.20654296875,0.9711913466453552,0.9937987589230785,0.0667572021484375,-0.1125335693359375,0.0629425048828125,0.14519671892675975
1781006372.439131,-0.0385742112994194,-0.21923828125,0.9638671278953552,0.9892387143556743,0.1926422119140625,0.0705718994140625,0.1888275146484375,0.27883192981858623
1781006372.449771,-0.0385742112994194,-0.2099609375,0.9541015028953552,0.9776917933993445,0.5550384521484375,0.1926422119140625,0.4329681396484375,0.7298219749535532
1781006372.460411,-0.0473632775247097,-0.21044921875,0.9614257216453552,0.9853281544600561,0.2498626708984375,-0.1125335693359375,-0.0553131103515625,0.2795616188119379
1781006372.471051,-0.0415039025247097,-0.20654296875,0.9516600966453552,0.9746997031967799,0.19073486328125,-0.17547607421875,0.3108978271484375,0.4047580754225431
1781006372.479036,-0.04296875,-0.20263671875,0.9663085341453552,0.9882611681253465,0.37384033203125,-0.05340576171875,-0.1201629638671875,0.39629270384823156
1781006372.487023,-0.0507812462747097,-0.2001953125,0.9741210341453552,0.9957754201046548,0.3719329833984375,0.3757476806640625,0.1277923583984375,0.5439221916130278
1781006372.49501,-0.0351562462747097,-0.18994140625,0.9633788466453552,0.982554070585477,0.1277923583984375,0.3757476806640625,-0.1201629638671875,0.4146761920761837
1781006372.502997,-0.0488281175494194,-0.19482421875,0.9697265028953552,0.9903081094753405,0.2498626708984375,-0.2956390380859375,0.0057220458984375,0.38712599623138605
1781006372.513671,-0.0468749962747097,-0.2109375,0.9741210341453552,0.9977994203979176,0.00762939453125,-0.232696533203125,-0.2384185791015625,0.3332406083995084
1781006372.524345,-0.0454101525247097,-0.20068359375,0.9672850966453552,0.98892691587647,0.19073486328125,-0.05340576171875,-0.4825592041015625,0.5216275960096537
1781006372.535019,-0.046875,-0.2021484375,0.9736327528953552,0.9955008759008097,-0.20599365234375,-0.3662109375,-0.3719329833984375,0.561139893155182
1781006372.545692,-0.0361328087747097,-0.20458984375,0.9672850966453552,0.9893447539800336,-0.331878662109375,-0.18310546875,-0.2498626708984375,0.45398503649147604
1781006372.556365,-0.0312499962747097,-0.2026367038488388,0.9619140028953552,0.9835226204719731,-0.331878662109375,0.0,-0.3719329833984375,0.49847526568845024
1781006372.567038,-0.0483398362994194,-0.20556640625,0.9653319716453552,0.9881599580192993,-0.4520416259765625,-0.5474090576171875,-0.2498626708984375,0.7526152152895745
1781006372.575042,-0.0502929650247097,-0.19873046875,0.9721679091453552,0.9935459854041095,-0.2689361572265625,-0.1201629638671875,-0.4329681396484375,0.5236670741031617
1781006372.583045,-0.0532226487994194,-0.20703125,0.9697265028953552,0.9930075927400778,-0.2079010009765625,-0.5474090576171875,-0.3719329833984375,0.6936956441466648
1781006372.591048,-0.0444335900247097,-0.1962890625,0.9614257216453552,0.9822643016117938,-0.0247955322265625,-0.2422332763671875,-0.4940032958984375,0.5507549681632476
1781006372.599051,-0.0478515625,-0.208984375,0.9565429091453552,0.9802747462135762,-0.270843505859375,-0.3662109375,-0.3719329833984375,0.5880482969539905
1781006372.609713,-0.0419921837747097,-0.2099609375,0.9692382216453552,0.9926075100825595,-0.270843505859375,-0.3662109375,-0.4329681396484375,0.628433023767414
1781006372.620375,-0.0419921875,-0.212890625,0.9570311903953552,0.9813228120315335,-0.5741119384765625,-0.4863739013671875,-0.4329681396484375,0.8681160635439732
1781006372.631037,-0.04248046875,-0.19287109375,0.9609374403953552,0.9810222287915386,-0.0858306884765625,-0.7915496826171875,-0.3719329833984375,0.8787786702437613
1781006372.641685,-0.0419921875,-0.2080078125,0.9667968153953552,0.9898114346332189,-0.4520416259765625,-0.5474090576171875,-0.3108978271484375,0.775019849360319
1781006372.652336,-0.0434570237994194,-0.1982421875,0.9667968153953552,0.9878686957692753,-0.3910064697265625,-0.3032684326171875,-0.6771087646484375,0.8386501539699661
1781006372.662987,-0.03173828125,-0.20263671875,0.9833983778953552,1.0045602659520665,-0.3910064697265625,-0.3643035888671875,-0.7991790771484375,0.9614002088523645
1781006372.671119,-0.0400390587747097,-0.208984375,0.9599608778953552,0.9832611465482232,-0.2079010009765625,-0.2422332763671875,-0.6771087646484375,0.7485827045493183
1781006372.679253,-0.0419921837747097,-0.1953125,0.9531249403953552,0.9738364688992031,-0.02288818359375,-0.18310546875,-0.6160736083984375,0.6431159868946268
1781006372.687387,-0.03759765625,-0.20751953125,0.9746093153953552,0.9971666145941288,0.2193450927734375,-0.0591278076171875,-0.7991790771484375,0.8308402762921591
1781006372.695521,-0.046875,-0.20361328125,0.9687499403953552,0.9910257720878887,-0.1468658447265625,-0.2422332763671875,-0.6771087646484375,0.7339773945364817
1781006372.706028,-0.0385742150247097,-0.19677734375,0.9682616591453552,0.9888073288811093,-0.02288818359375,-0.3662109375,-0.6160736083984375,0.7170641607680037
1781006372.716535,-0.0356445275247097,-0.21875,0.9697265028953552,0.9947319162770013,-0.02288818359375,0.1220703125,-0.7991790771484375,0.8087720491547028
1781006372.727042,-0.0468749962747097,-0.21044921875,0.9648436903953552,0.9886402206282968,0.0972747802734375,-0.0591278076171875,-0.6160736083984375,0.6265023315806031
1781006372.737718,-0.0351562425494194,-0.20849609375,0.9624022841453552,0.9853551334556487,0.2193450927734375,-0.2422332763671875,-0.6771087646484375,0.7518414121788606
1781006372.748393,-0.0551757775247097,-0.2060546875,0.9682616591453552,0.9914804795038049,-0.20599365234375,-0.3662109375,-0.6771087646484375,0.7968814935197578
1781006372.759068,-0.0424804650247097,-0.21044921875,0.9702147841453552,0.9936851568557413,-0.148773193359375,-0.18310546875,-0.6160736083984375,0.6597027866498477
1781006372.767096,-0.0390624925494194,-0.20947265625,0.9736327528953552,0.9966771842232528,-0.2689361572265625,-0.4253387451171875,-0.7991790771484375,0.9444188171110751
1781006372.775126,-0.046875,-0.2080078125,0.9589843153953552,0.9824028872414481,-0.0247955322265625,-0.2422332763671875,-0.7381439208984375,0.777269725743451
1781006372.783156,-0.0449218712747097,-0.20166015625,0.9750975966453552,0.9967447597660817,-0.3910064697265625,-0.3643035888671875,-0.6771087646484375,0.8626003961239962
1781006372.791186,-0.0361328087747097,-0.1943359375,0.9799804091453552,0.9997167792843389,-0.0858306884765625,-0.3032684326171875,-0.7381439208984375,0.8026176532233545
1781006372.801798,-0.02734375,-0.2138671875,0.9619140028953552,0.9857816206033607,-0.2079010009765625,-0.5474090576171875,-0.6771087646484375,0.8951847751900872
1781006372.81241,-0.0405273400247097,-0.20947265625,0.9687499403953552,0.99196658513375,-0.331878662109375,-0.545501708984375,-0.8602142333984375,1.0713001858534534
1781006372.823022,-0.0336913987994194,-0.1923828125,0.9638671278953552,0.9834561999070994,-0.0858306884765625,-0.6694793701171875,-0.7991790771484375,1.0460672690839223
1781006372.831024,-0.0351562462747097,-0.2099609375,0.9726561903953552,0.995680481702043,-0.2079010009765625,-0.7305145263671875,-0.6771087646484375,1.0175217828647531
1781006372.839028,-0.0400390587747097,-0.21142578125,0.9555663466453552,0.9794952935292178,0.156402587890625,-0.728607177734375,-0.7381439208984375,1.0488978200493386
1781006372.847032,-0.04638671875,-0.20263671875,0.9663085341453552,0.9884156770429652,-0.0247955322265625,-0.4253387451171875,-0.7381439208984375,0.852281828080114
1781006372.855036,-0.0302734337747097,-0.2309570163488388,0.9755858778953552,1.0030081900673198,-0.331878662109375,-0.67138671875,-0.4940032958984375,0.897186061436489
1781006372.865715,-0.0546874962747097,-0.20654296875,0.9614257216453552,0.984880773713322,-0.2079010009765625,-0.7915496826171875,-0.8602142333984375,1.1873256729304258
1781006372.876394,-0.0356445275247097,-0.201171875,0.9672850966453552,0.9886258715134303,-0.4520416259765625,-0.7915496826171875,-0.7381439208984375,1.172923262462734
1781006372.887073,-0.0361328087747097,-0.19677734375,0.9516600966453552,0.9724627717451718,-0.0858306884765625,-0.6694793701171875,-0.5550384521484375,0.8738633860393741
1781006372.897719,-0.0444335862994194,-0.2138671875,0.9687499403953552,0.9930709765654177,-0.3299713134765625,-0.9136199951171875,-0.4940032958984375,1.0897806290964696
1781006372.908364,-0.0336913987994194,-0.20849609375,0.9672850966453552,0.9900738304057352,-0.2689361572265625,-0.7915496826171875,-0.7381439208984375,1.1152282298590184
1781006372.919009,-0.0444335900247097,-0.2001953125,0.9633788466453552,0.984962592809083,-0.3910064697265625,-0.6694793701171875,-0.7991790771484375,1.113452236843756
1781006372.929687,-0.0380859375,-0.212890625,0.9702147841453552,0.9940270037691947,0.0972747802734375,-0.7305145263671875,-0.6160736083984375,0.9605522094481868
1781006372.940365,-0.0395507775247097,-0.2060546875,0.9794921278953552,1.0017123473595115,-0.0858306884765625,-0.4863739013671875,-0.6771087646484375,0.8380947190975686
1781006372.951043,-0.033203125,-0.203125,0.9653319716453552,0.9870299025943816,-0.0858306884765625,-0.6694793701171875,-0.7381439208984375,1.0002129683503336
1781006372.95906,-0.0371093712747097,-0.2001953125,0.9692382216453552,0.9903928507827727,-0.453948974609375,-0.3662109375,-0.5550384521484375,0.8051383767135095
1781006372.967079,-0.0498046837747097,-0.1943359375,0.9599608778953552,0.9806996738143252,-0.087738037109375,-0.3662109375,-0.4940032958984375,0.6211663788864897
1781006372.975098,-0.0546874925494194,-0.20263671875,0.9760741591453552,0.9983852591952775,-0.2079010009765625,-0.5474090576171875,-0.3108978271484375,0.6629758377904987
1781006372.983117,-0.0356445275247097,-0.19970703125,0.9707030653953552,0.991674277089553,-0.331878662109375,-0.3662109375,-0.5550384521484375,0.743183409712213
1781006372.993793,-0.0444335862994194,-0.203125,0.9746093153953552,0.9965427371025444,-0.0247955322265625,-0.2422332763671875,-0.4329681396484375,0.4967425777488876
1781006373.004469,-0.0454101525247097,-0.21044921875,0.9550780653953552,0.9790429340044987,-0.331878662109375,-0.1220703125,-0.0667572021484375,0.35986265657337063
1781006373.015145,-0.0385742112994194,-0.22412109375,0.9785155653953552,1.0045949164524277,0.034332275390625,-0.18310546875,-0.2498626708984375,0.3116691709620248
1781006373.023221,-0.0439453050494194,-0.2099609375,0.9667968153953552,0.990308470816223,0.156402587890625,-0.240325927734375,-0.4940032958984375,0.5711896159759838
1781006373.031299,-0.0380859337747097,-0.2158203125,0.9653319716453552,0.9898963385727811,0.0362396240234375,-0.2422332763671875,-0.3719329833984375,0.4453362939045107
1781006373.039377,-0.03759765625,-0.2119140625,0.9697265028953552,0.9933230310721696,0.2193450927734375,-0.0591278076171875,-0.4329681396484375,0.48894762225419597
1781006373.047455,-0.0390624962747097,-0.2099609375,0.9799804091453552,1.002981094637276,-0.0247955322265625,0.4291534423828125,-0.4940032958984375,0.6548486480752141
1781006373.057969,-0.0419921875,-0.20849609375,0.9609374403953552,0.9841924249218853,-0.0247955322265625,0.3681182861328125,-0.9212493896484375,0.9923841639865967
1781006373.068483,-0.0419921837747097,-0.1904296875,0.9609374403953552,0.9805241321523369,-0.0858306884765625,-0.0591278076171875,-0.6160736083984375,0.6248277328056487
1781006373.078997,-0.04150390625,-0.1982421875,0.9658202528953552,0.9868289112311424,-0.331878662109375,-0.18310546875,-0.8602142333984375,0.9400210563550837
1781006373.089682,-0.0522460900247097,-0.21630859375,0.9672850966453552,0.9925520237474642,-0.6961822509765625,-0.4863739013671875,-0.3719329833984375,0.9271264437203776
1781006373.100367,-0.0478515625,-0.20751953125,0.9658202528953552,0.9890211771174362,-0.8792877197265625,-0.5474090576171875,-0.6771087646484375,1.2374489280721885
1781006373.111052,-0.0410156212747097,-0.1972656100988388,0.9736327528953552,0.9942619069575206,-0.6961822509765625,-0.6084442138671875,-0.2498626708984375,0.9577606393414558
1781006373.119047,-0.0449218675494194,-0.197265625,0.9692382216453552,0.9901284923124972,-0.820159912109375,-0.240325927734375,-0.2498626708984375,0.8904213537877147
1781006373.127041,-0.0444335900247097,-0.1962890625,0.9648436903953552,0.9856100074955312,-1.0013580322265625,-0.3032684326171875,-0.6160736083984375,1.2141813463778013
1781006373.135035,-0.0424804650247097,-0.21044921875,0.9604491591453552,0.9841524530702653,-0.6351470947265625,-0.1201629638671875,-0.4329681396484375,0.7780182387165283
1781006373.143029,-0.0463867150247097,-0.19189453125,0.9824218153953552,1.0020618053888424,-0.6961822509765625,-0.0591278076171875,-0.4329681396484375,0.8219654701744091
1781006373.153705,-0.03759765625,-0.2041015625,0.9711913466453552,0.9931181517670761,-0.637054443359375,-0.3662109375,-0.5550384521484375,0.920878112407872
1781006373.164381,-0.0458984337747097,-0.2026367038488388,0.9580077528953552,0.9802791207494431,-0.3910064697265625,-0.4863739013671875,-0.4940032958984375,0.7959176387401444
1781006373.175057,-0.0434570237994194,-0.20263671875,0.9672850966453552,0.9892373885450773,-0.331878662109375,-0.728607177734375,-0.7991790771484375,1.131237845530898
1781006373.185713,-0.0439453087747097,-0.1953125,0.9687499403953552,0.9892191920072916,-0.3910064697265625,-0.1811981201171875,-0.3719329833984375,0.5692564995164257
1781006373.19637,-0.0541992112994194,-0.1943359375,0.9707030653953552,0.9914476548347988,-0.51116943359375,-0.67138671875,-0.1277923583984375,0.8534548627897561
1781006373.207027,-0.0385742112994194,-0.19482421875,0.9707030653953552,0.9908122360754632,-0.2079010009765625,-0.7915496826171875,-0.1888275146484375,0.839898539436004
1781006373.217684,-0.0390624925494194,-0.19970703125,0.9707030653953552,0.9918030136185316,-0.087738037109375,-0.3662109375,-0.3719329833984375,0.5292849497577816
1781006373.228343,-0.0341796800494194,-0.21240234375,0.9780272841453552,1.001409194431284,-0.2689361572265625,-0.4253387451171875,-0.3719329833984375,0.6257586187191644
1781006373.239002,-0.0336914025247097,-0.20556640625,0.9687499403953552,0.9908930845447587,0.034332275390625,-0.30517578125,-0.1888275146484375,0.36050907461997606
1781006373.247024,-0.0546874962747097,-0.19970703125,0.9516600966453552,0.9739253360122282,-0.148773193359375,-0.18310546875,-0.4940032958984375,0.547448931049301
1781006373.255045,-0.0444335900247097,-0.20654296875,0.9750975966453552,0.9977222383239212,-0.4520416259765625,-0.1201629638671875,-0.3108978271484375,0.5616388772391928
1781006373.263066,-0.0483398362994194,-0.20263671875,0.9638671278953552,0.98612282186169,-0.453948974609375,-0.48828125,-0.4329681396484375,0.7949526153181046
1781006373.279071,-0.0405273362994194,-0.19775390625,0.9526366591453552,0.9737893390114125,-0.270843505859375,0.0,-0.3108978271484375,0.41232713176774705
1781006373.287056,-0.0449218712747097,-0.21630859375,0.9658202528953552,0.9907654329616935,-0.20599365234375,-0.3662109375,-0.4329681396484375,0.6033284723110418
1781006373.295041,-0.0390624962747097,-0.205078125,0.9667968153953552,0.989079874543673,-0.2079010009765625,-0.4253387451171875,-0.6771087646484375,0.8262034576716885
1781006373.303026,-0.0410156212747097,-0.20849609375,0.9628905653953552,0.9860583873305607,-0.2079010009765625,-0.0591278076171875,-0.1888275146484375,0.287010024439875
1781006373.313689,-0.0371093712747097,-0.2109375,0.9653319716453552,0.9888061234758627,-0.331878662109375,-0.30517578125,-0.3108978271484375,0.547661540324566
1781006373.324352,-0.04248046875,-0.20751953125,0.9584960341453552,0.9816229385807024,-0.148773193359375,-0.18310546875,-0.5550384521484375,0.6030992945708331
1781006373.335015,-0.0307617150247097,-0.1943359375,0.9633788466453552,0.9832657534354586,-0.331878662109375,-0.18310546875,-0.7991790771484375,0.8845101788003878
1781006373.34569,-0.03759765625,-0.208984375,0.9707030653953552,0.9936561245811214,-0.3910064697265625,-0.1811981201171875,-0.3108978271484375,0.5313908891086219
1781006373.356366,-0.0410156212747097,-0.2109375,0.9643554091453552,0.9880072192260064,-0.576019287109375,-0.3662109375,-0.4329681396484375,0.8083131075376981
1781006373.367042,-0.0454101525247097,-0.2099609375,0.9565429091453552,0.9803672853907639,-0.3299713134765625,-0.4253387451171875,-0.2498626708984375,0.5934858634574312
1781006373.375038,-0.0507812462747097,-0.2041015625,0.9741210341453552,0.9965680969971749,-0.453948974609375,-0.3662109375,-0.4940032958984375,0.7643424485478031
1781006373.383033,-0.0356445275247097,-0.20361328125,0.9589843153953552,0.9810095910938637,-0.453948974609375,-0.48828125,-0.3719329833984375,0.7634280547570464
1781006373.391028,-0.0371093712747097,-0.20458984375,0.9609374403953552,0.9831759120094585,-0.5130767822265625,-0.4863739013671875,-0.1277923583984375,0.7184276186618501
1781006373.399023,-0.0317382775247097,-0.1972656100988388,0.9580077528953552,0.9786214251668061,-0.3910064697265625,-0.3643035888671875,-0.3719329833984375,0.6511046831110988
1781006373.407073,-0.0415039025247097,-0.19873046875,0.9667968153953552,0.9878828146055462,-0.453948974609375,-0.3662109375,-0.4329681396484375,0.7263893805970464
1781006373.415123,-0.0419921837747097,-0.20068359375,0.9707030653953552,0.9921197959251309,-0.2689361572265625,-0.2422332763671875,-0.2498626708984375,0.43981242723674085
1781006373.423173,-0.0454101525247097,-0.20458984375,0.9663085341453552,0.9887726074685281,-0.2079010009765625,-0.1811981201171875,-0.5550384521484375,0.6197767890978112
1781006373.431223,-0.0498046837747097,-0.19580078125,0.9628905653953552,0.9838580656738024,-0.331878662109375,-0.1220703125,-0.6771087646484375,0.7638853884720466
1781006373.441819,-0.0463867150247097,-0.20947265625,0.9663085341453552,0.9898397366287935,-0.148773193359375,-0.18310546875,-0.6160736083984375,0.6597027866498477
1781006373.452415,-0.0439453050494194,-0.20361328125,0.9624022841453552,0.9846866073352857,-0.0858306884765625,-0.3032684326171875,-0.6771087646484375,0.7468700880810393
1781006373.463011,-0.0502929650247097,-0.19091796875,0.9536132216453552,0.9738363464255357,0.0972747802734375,-0.2422332763671875,-0.5550384521484375,0.6133571768718136
1781006373.471022,-0.0371093712747097,-0.208984375,0.9648436903953552,0.9879144301640062,-0.0858306884765625,-0.4253387451171875,-0.5550384521484375,0.704519438018255
1781006373.479033,-0.0424804650247097,-0.205078125,0.9731444716453552,0.9954254316402353,0.156402587890625,-0.30517578125,-0.7381439208984375,0.8139106062214396
1781006373.487044,-0.0371093712747097,-0.2001953125,0.9711913466453552,0.99230433858882,-0.0858306884765625,-0.4253387451171875,-0.4940032958984375,0.6575098566110957
1781006373.495055,-0.0429687462747097,-0.20654296875,0.9580077528953552,0.980961347711566,-0.087738037109375,-0.3662109375,-0.3719329833984375,0.5292849497577816
1781006373.503051,-0.0493164025247097,-0.2060546875,0.9741210341453552,0.9968963993129467,-0.087738037109375,-0.18310546875,-0.3108978271484375,0.3713260491368509
1781006373.511047,-0.0385742150247097,-0.19091796875,0.9633788466453552,0.9828715292550362,-0.0247955322265625,-0.2422332763671875,-0.3719329833984375,0.44455137243927517
1781006373.519043,-0.0356445275247097,-0.20458984375,0.9750975966453552,0.9969668296847478,0.0972747802734375,-0.6084442138671875,-0.6771087646484375,0.9155015147062502
1781006373.527039,-0.0541992150247097,-0.205078125,0.9804686903953552,1.0031517557719736,0.2193450927734375,-0.3032684326171875,-0.4329681396484375,0.5723158410322943
1781006373.537689,-0.0434570275247097,-0.19580078125,0.9760741591453552,0.9964673719348296,-0.0247955322265625,-0.6694793701171875,-0.5550384521484375,0.8699914532880412
1781006373.548339,-0.0356445275247097,-0.2060546875,0.9628905653953552,0.9853361393507138,-0.0247955322265625,-0.4253387451171875,-0.7381439208984375,0.852281828080114
1781006373.558989,-0.0498046837747097,-0.201171875,0.9707030653953552,0.9925800073469412,0.339508056640625,-0.48828125,-0.3719329833984375,0.7014402638608072
1781006373.567022,-0.0385742150247097,-0.201171875,0.9628905653953552,0.9844370646634426,0.0362396240234375,-0.2422332763671875,-0.4940032958984375,0.5513887257529496
1781006373.575055,-0.0395507775247097,-0.20947265625,0.9692382216453552,0.9924040447405937,0.0972747802734375,-0.5474090576171875,-0.4940032958984375,0.7437461365258323
1781006373.583088,-0.0361328087747097,-0.19580078125,0.9707030653953552,0.9909126939221232,-0.0247955322265625,-0.6084442138671875,-0.4940032958984375,0.7841290940689406
1781006373.591121,-0.0581054612994194,-0.22021484375,0.9560546278953552,0.9828078518005344,-0.2079010009765625,-0.7915496826171875,-0.5550384521484375,0.988858639857973
1781006373.599099,-0.0434570237994194,-0.2001953125,0.9614257216453552,0.983008694928874,0.0362396240234375,-0.7305145263671875,-0.6160736083984375,0.9563009330477032
1781006373.607077,-0.0307617150247097,-0.21337890625,0.9736327528953552,0.9972149107661274,-0.2689361572265625,-0.7305145263671875,-0.7381439208984375,1.0727695828352821
1781006373.615055,-0.0385742112994194,-0.2080078125,0.9697265028953552,0.9925344881947744,-0.2079010009765625,-0.7305145263671875,-0.4940032958984375,0.9060428002026462
1781006373.623033,-0.0322265587747097,-0.1953125,0.9697265028953552,0.989724716355192,-0.2079010009765625,-0.4253387451171875,-0.5550384521484375,0.7295228287505839
1781006373.633709,-0.04150390625,-0.2080078125,0.9716796278953552,0.9945607691649113,-0.0858306884765625,-0.7305145263671875,-0.6160736083984375,0.9594608232142198
1781006373.644385,-0.0493163987994194,-0.2041015625,0.9575194716453552,0.9802719487904797,0.0972747802734375,-0.5474090576171875,-0.5550384521484375,0.7856123360805355
1781006373.655061,-0.04248046875,-0.20361328125,0.9677733778953552,0.9898728552140408,-0.20599365234375,-0.3662109375,-0.7381439208984375,0.8493528616010341
1781006373.665723,-0.0371093712747097,-0.20947265625,0.9580077528953552,0.9813433414256414,0.3414154052734375,-0.7305145263671875,-0.6160736083984375,1.0147722124479823
1781006373.676385,-0.033203125,-0.21337890625,0.9663085341453552,0.9901440240209285,-0.0858306884765625,-0.2422332763671875,-0.2498626708984375,0.3584344034442618
1781006373.687047,-0.0341796837747097,-0.205078125,0.9648436903953552,0.9869896833463777,-0.0247955322265625,-0.3032684326171875,-0.3108978271484375,0.43502186102091905
1781006373.697715,-0.0454101525247097,-0.20068359375,0.9677733778953552,0.9894045167249432,-0.0858306884765625,-0.0591278076171875,-0.7381439208984375,0.745465929923893
1781006373.708385,-0.0385742150247097,-0.19677734375,0.9633788466453552,0.9840264708034093,-0.331878662109375,-0.3662109375,-0.4329681396484375,0.6570504600552126
1781006373.719055,-0.0424804650247097,-0.20068359375,0.9770507216453552,0.9983519456468445,-0.2689361572265625,-0.0591278076171875,-0.2498626708984375,0.37182537380591224
1781006373.727068,-0.0483398362994194,-0.2099609375,0.9633788466453552,0.9871773585395222,0.0362396240234375,-0.1201629638671875,-0.2498626708984375,0.279613666588756
1781006373.735081,-0.0424804650247097,-0.18701171875,0.9619140028953552,0.9808448000701794,-0.270843505859375,0.0,-0.5550384521484375,0.617595246119601
1781006373.743094,-0.0395507737994194,-0.21240234375,0.9614257216453552,0.9854026778834721,0.095367431640625,0.1220703125,-0.6160736083984375,0.6352501862861972
1781006373.751107,-0.0361328087747097,-0.20556640625,0.9682616591453552,0.9905017757780173,0.2193450927734375,0.0629425048828125,-0.3719329833984375,0.4363578494588738
1781006373.761922,-0.0512695275247097,-0.2167968600988388,0.9677733778953552,0.9930834577034845,-0.087738037109375,-0.18310546875,-0.7381439208984375,0.7655599413509578
1781006373.772737,-0.0483398362994194,-0.21240234375,0.9638671278953552,0.988175761512692,0.2193450927734375,-0.2422332763671875,-0.5550384521484375,0.6440938699185884
1781006373.783552,-0.0454101525247097,-0.20458984375,0.9726561903953552,0.9949769599505168,0.400543212890625,-0.18310546875,-0.4329681396484375,0.617595246119601
1781006373.791448,-0.0361328087747097,-0.201171875,0.9677733778953552,0.9891213343791303,0.156402587890625,0.0,-0.4940032958984375,0.5181708462055772
1781006373.799345,-0.0385742112994194,-0.1982421875,0.9545897841453552,0.9757200370376911,0.0362396240234375,0.0629425048828125,-0.7381439208984375,0.7417085123076327
1781006373.807242,-0.0415039025247097,-0.20458984375,0.9531249403953552,0.975718571153629,0.156402587890625,-0.1220703125,-0.6771087646484375,0.7055772175010085
1781006373.815139,-0.0488281212747097,-0.20556640625,0.9697265028953552,0.9924773162261258,-0.0858306884765625,-0.1201629638671875,-0.3108978271484375,0.3441852755353248
1781006373.825769,-0.0375976525247097,-0.2099609375,0.9541015028953552,0.9776537508639872,-0.270843505859375,-0.18310546875,-0.4940032958984375,0.5923876042852971
1781006373.836399,-0.0444335862994194,-0.2021484375,0.9570311903953552,0.9791562866900615,-0.3299713134765625,-0.4253387451171875,-0.6771087646484375,0.8650262394742976
1781006373.847029,-0.0478515587747097,-0.19677734375,0.9765624403953552,0.9973391071653648,-0.5130767822265625,-0.2422332763671875,-0.3719329833984375,0.6784238268068185
1781006373.855022,-0.0478515587747097,-0.21142578125,0.9741210341453552,0.9979491078300329,-0.51116943359375,-0.3662109375,-0.6160736083984375,0.8803132008269872
1781006373.863015,-0.0346679650247097,-0.20654296875,0.9746093153953552,0.9968576545296831,-0.453948974609375,-0.48828125,-0.4329681396484375,0.7949526153181046
1781006373.871008,-0.0400390587747097,-0.20947265625,0.9736327528953552,0.9967159361897366,-0.820159912109375,-0.545501708984375,-0.2498626708984375,1.0162016287354751
1781006373.879001,-0.0385742150247097,-0.2109375,0.9833983778953552,1.0065063182207246,-0.820159912109375,-0.6103515625,-0.1888275146484375,1.039637985822832
1781006373.889701,-0.04296875,-0.20947265625,0.9604491591453552,0.9839652913065648,-0.5741119384765625,-0.6694793701171875,-0.4329681396484375,0.9824808165376315
1781006373.900401,-0.0390624925494194,-0.2021484375,0.9687499403953552,0.9903869527229593,-0.2689361572265625,-0.2422332763671875,-0.2498626708984375,0.43981242723674085
1781006373.911101,-0.03759765625,-0.20263671875,0.9711913466453552,0.9928181380998629,-0.148773193359375,-0.48828125,-0.1888275146484375,0.5442498254039356
1781006373.919081,-0.0458984337747097,-0.2026367038488388,0.9687499403953552,0.9907798680765055,-0.453948974609375,-0.48828125,-0.3108978271484375,0.7356260664060819
1781006373.927064,-0.0405273362994194,-0.21337890625,0.9677733778953552,0.9918459222999096,-0.148773193359375,-0.3662109375,-0.4940032958984375,0.6326793580997361
1781006373.935047,-0.0419921837747097,-0.2060546875,0.9555663466453552,0.9784318681339252,-0.2079010009765625,-0.5474090576171875,-0.1888275146484375,0.6152522514031946
1781006373.94303,-0.0458984337747097,-0.20947265625,0.9658202528953552,0.9893402957740325,-0.20599365234375,-0.3662109375,-0.1888275146484375,0.4606513495463272
1781006373.953676,-0.03271484375,-0.2021484375,0.9682616591453552,0.9896791865833061,0.0972747802734375,-0.3032684326171875,-0.3719329833984375,0.48966138222142197
1781006373.964322,-0.0297851525247097,-0.20947265625,0.9638671278953552,0.9868159855133033,0.0972747802734375,-0.1201629638671875,-0.3719329833984375,0.4027848866358505
1781006373.974968,-0.04296875,-0.20849609375,0.9667968153953552,0.9899560681384664,-0.02288818359375,-0.18310546875,-0.3719329833984375,0.41519347992717903
1781006373.982986,-0.0317382775247097,-0.208984375,0.9663085341453552,0.989158213035974,-0.0247955322265625,-0.0591278076171875,-0.3719329833984375,0.3774189451944298
1781006373.991003,-0.0336914025247097,-0.2109375,0.9682616591453552,0.9915444418084588,0.0972747802734375,0.0629425048828125,-0.0667572021484375,0.13371860692086113
1781006373.99902,-0.0556640587747097,-0.19921875,0.9760741591453552,0.9977511523131152,0.0362396240234375,-0.0591278076171875,-0.3108978271484375,0.3185386427242305
1781006374.007037,-0.0400390587747097,-0.205078125,0.9560546278953552,0.9786217936982634,-0.087738037109375,-0.18310546875,-0.8602142333984375,0.8838518559030267
1781006374.017686,-0.0361328087747097,-0.2001953125,0.9721679091453552,0.9932241371357092,-0.087738037109375,-0.18310546875,-0.4329681396484375,0.4782122810976232
1781006374.028335,-0.0410156212747097,-0.205078125,0.9750975966453552,0.9972736041456296,-0.0247955322265625,-0.0591278076171875,-0.3719329833984375,0.3774189451944298
1781006374.038984,-0.0439453050494194,-0.212890625,0.9746093153953552,0.998557422336933,-0.0858306884765625,-0.2422332763671875,-0.3108978271484375,0.4033625245229937
1781006374.049876,-0.0410156212747097,-0.19970703125,0.9702147841453552,0.9914040079066945,-0.0247955322265625,0.0629425048828125,-0.4940032958984375,0.49861391245916975
1781006374.060768,-0.02734375,-0.20703125,0.9614257216453552,0.9838440106957591,-0.0858306884765625,-0.4253387451171875,-0.4329681396484375,0.6129774589108913
1781006374.07166,-0.0390624925494194,-0.197265625,0.9624022841453552,0.9831875516192274,-0.331878662109375,-0.18310546875,-0.6771087646484375,0.7759815321342377
1781006374.082108,-0.0405273400247097,-0.2070312350988388,0.9624022841453552,0.9852525331732094,-0.0247955322265625,-0.3032684326171875,-0.3719329833984375,0.48054209470154274
1781006374.092556,-0.0444335862994194,-0.20849609375,0.9599608778953552,0.9833462522377648,-0.3299713134765625,-0.4253387451171875,-0.3108978271484375,0.6216522940848296
1781006374.103004,-0.0576171837747097,-0.20458984375,0.9692382216453552,0.9922698596299441,-0.3910064697265625,-0.4863739013671875,-0.5550384521484375,0.8351726256663955
1781006374.11101,-0.0346679612994194,-0.2138671875,0.9667968153953552,0.9907760209494468,-0.2689361572265625,-0.5474090576171875,-0.3719329833984375,0.7143650867482187
1781006374.119016,-0.0390624925494194,-0.1884765625,0.9775390028953552,0.9963090861362427,-0.51116943359375,-0.3662109375,-0.1888275146484375,0.6565519559589248
1781006374.127022,-0.0410156212747097,-0.2075195163488388,0.9658202528953552,0.9887140090830383,0.156402587890625,-0.67138671875,-0.1277923583984375,0.7011082530378678
1781006374.135028,-0.0395507737994194,-0.19921875,0.9750975966453552,0.9960259519928399,-0.331878662109375,-0.728607177734375,-0.2498626708984375,0.8387152199155925
1781006374.145699,-0.0434570237994194,-0.1943359375,0.9658202528953552,0.9861357565895048,-0.0858306884765625,-0.5474090576171875,-0.3108978271484375,0.6353589870075954
1781006374.15637,-0.0341796837747097,-0.19580078125,0.9736327528953552,0.9937137083846823,-0.331878662109375,-0.6103515625,-0.3108978271484375,0.7611372643192027
1781006374.167041,-0.0361328087747097,-0.203125,0.9619140028953552,0.9837905744929228,-0.1468658447265625,-0.2422332763671875,-0.0667572021484375,0.2910379022833905
1781006374.177714,-0.0336914025247097,-0.20654296875,0.9736327528953552,0.9958693920664161,-0.2689361572265625,-0.3032684326171875,-0.6771087646484375,0.7891607428462272
1781006374.188388,-0.0380859337747097,-0.201171875,0.9653319716453552,0.9868062003875007,0.034332275390625,-0.3662109375,-0.3108978271484375,0.48160836247281497
1781006374.199062,-0.0449218712747097,-0.20166015625,0.9682616591453552,0.9900582981362825,-0.148773193359375,-0.057220458984375,-0.4329681396484375,0.4613773444149132
1781006374.209716,-0.0341796837747097,-0.20166015625,0.9604491591453552,0.9819865868252649,-0.148773193359375,-0.1220703125,-0.3719329833984375,0.41877054384932094
1781006374.220371,-0.0424804650247097,-0.2109375,0.9721679091453552,0.9956955671223093,-0.2079010009765625,-0.2422332763671875,-0.6160736083984375,0.6938634428702165
1781006374.231026,-0.0493164025247097,-0.20654296875,0.9721679091453552,0.9950892166384351,-0.1468658447265625,0.2460479736328125,-0.2498626708984375,0.3801848707991427
1781006374.239034,-0.0488281212747097,-0.1962890625,0.9619140028953552,0.9829507263594204,-0.5741119384765625,-0.4253387451171875,-0.4940032958984375,0.8686523023383402
1781006374.247042,-0.02783203125,-0.20751953125,0.9609374403953552,0.9834834732558029,-0.0858306884765625,-0.1201629638671875,-0.4940032958984375,0.515601882587939
1781006374.25505,-0.0434570237994194,-0.21533203125,0.9731444716453552,0.9976304723161136,-0.0247955322265625,0.0629425048828125,-0.6160736083984375,0.6197767890978112
1781006374.263058,-0.0346679612994194,-0.20703125,0.9682616591453552,0.990754483506452,-0.1468658447265625,0.0629425048828125,-0.7381439208984375,0.7552402155787842
1781006374.273698,-0.0366210900247097,-0.2138671875,0.9677733778953552,0.9917991677183159,-0.0858306884765625,-0.2422332763671875,-0.5550384521484375,0.6116465896473848
1781006374.284338,-0.033203125,-0.1982421875,0.9736327528953552,0.9941645487167297,-0.0247955322265625,-0.0591278076171875,-0.7991790771484375,0.8017469135605336
1781006374.294978,-0.0498046800494194,-0.2021484375,0.9775390028953552,0.9994633555664568,-0.0858306884765625,-0.1201629638671875,-0.8602142333984375,0.8727969822994173
1781006374.305671,-0.0419921837747097,-0.21142578125,0.9628905653953552,0.9867230844582124,-0.2079010009765625,-0.5474090576171875,-0.7381439208984375,0.9421974052860221
1781006374.316364,-0.0400390550494194,-0.20751953125,0.9697265028953552,0.9924902882130009,-0.1468658447265625,-0.4253387451171875,-0.5550384521484375,0.7145280315064231
1781006374.327057,-0.0419921875,-0.21240234375,0.9819335341453552,1.0055205442559172,-0.3910064697265625,-0.4863739013671875,-0.3719329833984375,0.7264845321401071
1781006374.335037,-0.0419921837747097,-0.19580078125,0.9653319716453552,0.9858839206098192,-0.270843505859375,-0.67138671875,-0.4940032958984375,0.8764448568727002
1781006374.34302,-0.0410156212747097,-0.2041015625,0.9697265028953552,0.9918211630234289,-0.4520416259765625,-0.6084442138671875,-0.3108978271484375,0.8192700726437003
1781006374.351003,-0.0312499962747097,-0.21142578125,0.9624022841453552,0.9858476453147004,-0.2689361572265625,-0.6084442138671875,-0.3719329833984375,0.7621451057324402
1781006374.358986,-0.0366210900247097,-0.205078125,0.9643554091453552,0.9865999679383833,-0.4520416259765625,-0.7305145263671875,-0.4329681396484375,0.9620054650570544
1781006374.369686,-0.0449218712747097,-0.19140625,0.9633788466453552,0.9832360495942055,-0.148773193359375,-0.67138671875,-0.2498626708984375,0.7316590349915311
1781006374.380386,-0.0444335900247097,-0.20458984375,0.9741210341453552,0.9963649618751904,-0.5130767822265625,-0.7305145263671875,-0.3719329833984375,0.9670746619745045
1781006374.391086,-0.0478515625,-0.19873046875,0.9545897841453552,0.9762301097784077,-0.331878662109375,-0.728607177734375,-0.3719329833984375,0.8828057600340078
1781006374.401747,-0.0283203125,-0.2138671875,0.9619140028953552,0.9858091919613162,-0.2079010009765625,-0.6084442138671875,-0.6160736083984375,0.8904908076788821
1781006374.412409,-0.0419921837747097,-0.2099609375,0.9697265028953552,0.9930843011505636,-0.0858306884765625,-0.6084442138671875,-0.3108978271484375,0.6886426703294244
1781006374.423071,-0.0449218712747097,-0.19580078125,0.9775390028953552,0.9979671450697049,-0.2689361572265625,-0.4253387451171875,-0.8602142333984375,0.9965983303733333
1781006374.431045,-0.0327148400247097,-0.205078125,0.9716796278953552,0.9936239718214401,-0.331878662109375,-0.48828125,-0.4329681396484375,0.7321362137032289
1781006374.43902,-0.0312499962747097,-0.2080078125,0.9648436903953552,0.987505523642239,-0.0247955322265625,-0.5474090576171875,-0.5550384521484375,0.7799610106557052
1781006374.446995,-0.04296875,-0.20849609375,0.9726561903953552,0.995679164841756,-0.087738037109375,-0.3662109375,-0.3719329833984375,0.5292849497577816
1781006374.45497,-0.0454101525247097,-0.19482421875,0.9672850966453552,0.9877545324401602,-0.087738037109375,-0.3662109375,-0.6160736083984375,0.7220492399175462
1781006374.46566,-0.0449218712747097,-0.19921875,0.9755858778953552,0.9967316038027665,-0.0858306884765625,-0.4253387451171875,-0.5550384521484375,0.704519438018255
1781006374.47635,-0.0361328087747097,-0.20166015625,0.9741210341453552,0.9954316589566259,-0.5741119384765625,-0.0591278076171875,-0.7991790771484375,0.9857929868317991
1781006374.48704,-0.0458984337747097,-0.19921875,0.9687499403953552,0.9900864727843413,-0.270843505859375,0.0,-0.5550384521484375,0.617595246119601
1781006374.497696,-0.0449218712747097,-0.1953125,0.9501952528953552,0.9711003891462199,-0.2689361572265625,-0.4253387451171875,-0.4329681396484375,0.6638532328099962
1781006374.508353,-0.02880859375,-0.2001953125,0.9794921278953552,1.0001564511764127,-0.2079010009765625,-0.2422332763671875,-0.4329681396484375,0.5379230394185285
1781006374.51901,-0.0410156212747097,-0.201171875,0.9589843153953552,0.9807157190816634,-0.0247955322265625,-0.1201629638671875,-0.5550384521484375,0.5684378942919612
1781006374.527023,-0.0419921837747097,-0.19140625,0.9736327528953552,0.993156802095127,0.0362396240234375,-0.1201629638671875,-0.6771087646484375,0.6886426703294244
1781006374.535038,-0.0502929650247097,-0.1904296875,0.9716796278953552,0.9914404407119877,0.4024505615234375,0.0629425048828125,-0.3108978271484375,0.5124311390978038
1781006374.543053,-0.0322265587747097,-0.1826171875,0.9702147841453552,0.9877774626073872,0.0972747802734375,-0.4253387451171875,-0.2498626708984375,0.5027989511560363
1781006374.551068,-0.0415039025247097,-0.18994140625,0.9653319716453552,0.984716267365233,0.339508056640625,0.0,-0.5550384521484375,0.6506407640835511
1781006374.561722,-0.0468749962747097,-0.21044921875,0.9643554091453552,0.9881636980258609,0.156402587890625,-0.1220703125,-0.2498626708984375,0.3190521665828853
1781006374.572376,-0.0410156212747097,-0.1972656100988388,0.9702147841453552,0.9909150970140861,-0.0247955322265625,0.0629425048828125,-0.4940032958984375,0.49861391245916975
1781006374.58303,-0.0395507775247097,-0.19970703125,0.9633788466453552,0.984655251596838,-0.0247955322265625,0.0019073486328125,-0.4940032958984375,0.4946288636500349
1781006374.591026,-0.0478515625,-0.2041015625,0.9614257216453552,0.9840155680119725,-0.2689361572265625,-0.4253387451171875,-0.6160736083984375,0.7954787211024098
1781006374.599022,-0.0468749962747097,-0.20166015625,0.9633788466453552,0.9853744902615773,-0.3910064697265625,-0.1201629638671875,-0.6160736083984375,0.739507868936124
1781006374.607018,-0.0493164025247097,-0.2060546875,0.9658202528953552,0.9887868338026906,-0.5130767822265625,-0.4253387451171875,-0.4940032958984375,0.8295782596695422
1781006374.615014,-0.0307617150247097,-0.2021484225988388,0.9716796278953552,0.9929610098776871,-0.637054443359375,-0.48828125,-0.4940032958984375,0.9424946680294827
1781006374.62569,-0.0327148400247097,-0.21533203125,0.9648436903953552,0.9891215756092986,-0.5130767822265625,-0.3032684326171875,-0.5550384521484375,0.8144244655248161
1781006374.636366,-0.0351562425494194,-0.21728515625,0.9594725966453552,0.9843964974694703,-0.820159912109375,-0.240325927734375,-0.3108978271484375,0.9094373490781349
1781006374.647042,-0.0400390587747097,-0.2041015625,0.9619140028953552,0.9841438528023592,-0.3910064697265625,-0.5474090576171875,-0.4329681396484375,0.8000025910458012
1781006374.657716,-0.0366210900247097,-0.2099609375,0.9687499403953552,0.9919179131997169,-0.637054443359375,-0.48828125,-0.4329681396484375,0.911985938957457
1781006374.66839,-0.05224609375,-0.1982421875,0.9667968153953552,0.9882943394938167,-0.5741119384765625,-0.3032684326171875,-0.5550384521484375,0.8541919828040622
1781006374.679064,-0.0434570275247097,-0.19677734375,0.9765624403953552,0.9971379223786049,-0.5130767822265625,-0.4253387451171875,-0.7381439208984375,0.99449347937387
1781006374.68973,-0.0454101487994194,-0.197265625,0.9589843153953552,0.9801156694976997,-0.2079010009765625,-0.3032684326171875,-0.4329681396484375,0.5680281492846733
1781006374.700398,-0.0468749962747097,-0.2138671875,0.9638671278953552,0.9884211042881244,-0.02288818359375,-0.3662109375,-0.3719329833984375,0.5224638397367922
1781006374.711066,-0.0449218712747097,-0.1962890625,0.9575194716453552,0.978463545133875,0.0362396240234375,-0.6084442138671875,-0.1888275146484375,0.6381014825449991
1781006374.719056,-0.0517578125,-0.1923828125,0.9726561903953552,0.9928494762120796,0.0362396240234375,-0.4253387451171875,-0.3719329833984375,0.5661806271737724
1781006374.727048,-0.0468749962747097,-0.20556640625,0.9711913466453552,0.9938145925941683,0.156402587890625,-0.240325927734375,-0.3108978271484375,0.4229370874797958
1781006374.73504,-0.0322265587747097,-0.2041015625,0.9599608778953552,0.9819474965572357,0.2803802490234375,-0.4863739013671875,-0.3719329833984375,0.6734291351829425
1781006374.743032,-0.05224609375,-0.20849609375,0.9682616591453552,0.9918321007065958,0.339508056640625,-0.057220458984375,-0.1888275146484375,0.3926776435431259
1781006374.753683,-0.030273430049419403,-0.19775390625,0.9697265028953552,0.9901477558535121,-0.0247955322265625,-0.1201629638671875,-0.7991790771484375,0.8085426109090192
1781006374.764334,-0.0483398362994194,-0.203125,0.9692382216453552,0.9914732652455664,-0.0247955322265625,0.0629425048828125,-0.7991790771484375,0.8020372651511584
1781006374.774985,-0.0390624925494194,-0.20703125,0.9570311903953552,0.9799472007155725,0.1735687255859375,0.4024505615234375,-0.4863739013671875,0.6547153037032167
1781006374.782996,-0.0468749962747097,-0.19677734375,0.9765624403953552,0.99729272948317,-0.194549560546875,0.156402587890625,-0.1201629638671875,0.2770386956603966
1781006374.791006,-0.0449218712747097,-0.20166015625,0.9555663466453552,0.9776460688709115,0.1125335693359375,0.1583099365234375,0.1850128173828125,0.26824537801324183
1781006374.799016,-0.0419921875,-0.197265625,0.9736327528953552,0.9943026743040891,-0.0705718994140625,0.2193450927734375,-0.1201629638671875,0.25986881420448177
1781006374.807026,-0.0356445275247097,-0.1962890625,0.9682616591453552,0.9886003079963634,-0.0095367431640625,0.2193450927734375,0.1239776611328125,0.2521382153778512
1781006374.817695,-0.0522460900247097,-0.20654296875,0.9614257216453552,0.9847482267586094,0.1125335693359375,0.0362396240234375,0.0629425048828125,0.13393607989548312
1781006374.828364,-0.0454101525247097,-0.205078125,0.9633788466453552,0.9860111163012149,-0.0705718994140625,0.3414154052734375,0.1239776611328125,0.37002071888597887
1781006374.839033,-0.0361328087747097,-0.20068359375,0.9741210341453552,0.9952342808780157,-0.194549560546875,0.034332275390625,0.0019073486328125,0.19756486180818436
1781006374.849711,-0.0380859337747097,-0.2060546875,0.9589843153953552,0.9816109156720458,-0.0705718994140625,-0.1468658447265625,0.0019073486328125,0.16295277632787486
1781006374.860389,-0.0439453087747097,-0.1953125,0.9687499403953552,0.9892191920072916,-0.0095367431640625,-0.0858306884765625,-0.2422332763671875,0.2571669044300223
1781006374.871067,-0.0541992150247097,-0.1953125,0.9716796278953552,0.9925955001068666,-0.377655029296875,-0.026702880859375,-0.1811981201171875,0.4197250573094442
1781006374.881718,-0.0317382775247097,-0.1943359375,0.9677733778953552,0.9876026963446513,0.0514984130859375,-0.0247955322265625,0.1239776611328125,0.1365187365482513
1781006374.892371,-0.0405273400247097,-0.18994140625,0.9667968153953552,0.9861117002430843,-0.194549560546875,-0.514984130859375,-0.1201629638671875,0.5634690092909415
1781006374.903024,-0.0380859337747097,-0.21533203125,0.9741210341453552,0.9983637669698149,-0.3147125244140625,-0.0858306884765625,-0.1201629638671875,0.3476348917942208
1781006374.91101,-0.0473632775247097,-0.20166015625,0.9750975966453552,0.9968577740381047,-0.499725341796875,-0.209808349609375,0.0629425048828125,0.5456250724817694
1781006374.918997,-0.0483398362994194,-0.193359375,0.9653319716453552,0.985692854369227,0.1735687255859375,0.0362396240234375,-0.0591278076171875,0.18691043439172067
1781006374.926984,-0.0380859337747097,-0.20166015625,0.9619140028953552,0.9835628632357117,-0.3147125244140625,-0.1468658447265625,0.1239776611328125,0.36876009793669534
1781006374.934971,-0.0307617150247097,-0.19384765625,0.9555663466453552,0.9755153713735273,-0.377655029296875,-0.331878662109375,0.0019073486328125,0.5027627725831929
1781006374.945663,-0.0498046800494194,-0.19775390625,0.9760741591453552,0.9971498772718528,-0.011444091796875,0.156402587890625,0.0629425048828125,0.16898075528551426
1781006374.956355,-0.0380859375,-0.19921875,0.9682616591453552,0.9892771550772476,0.0514984130859375,-0.0858306884765625,0.0629425048828125,0.1182402323900518
1781006374.967047,-0.0380859337747097,-0.1962890625,0.9687499403953552,0.9891695412944258,0.049591064453125,0.278472900390625,0.1850128173828125,0.3379884206914297
1781006374.97779,-0.0415039025247097,-0.19970703125,0.9658202528953552,0.9871242237724273,-0.194549560546875,0.09918212890625,-0.0591278076171875,0.22623599147123633
1781006374.988532,-0.04736328125,-0.2138671875,0.9609374403953552,0.9855877528934213,0.1125335693359375,0.0972747802734375,-0.1811981201171875,0.23443324388561984
1781006374.999274,-0.0400390587747097,-0.19921875,0.9648436903953552,0.9860094236237579,0.1125335693359375,0.2193450927734375,-0.4253387451171875,0.49161887885753325
1781006375.007203,-0.0478515625,-0.19775390625,0.9760741591453552,0.9970542330395762,-0.011444091796875,0.278472900390625,0.0629425048828125,0.28572693679445965
1781006375.015131,-0.0449218712747097,-0.20068359375,0.9682616591453552,0.98985984860997,-0.2536773681640625,0.3414154052734375,-0.1201629638671875,0.4419907509914861
1781006375.023059,-0.0380859337747097,-0.2099609375,0.9638671278953552,0.9872051326166267,-0.1316070556640625,0.0362396240234375,-0.2422332763671875,0.2780479951905893
1781006375.030987,-0.0312499962747097,-0.2070312350988388,0.9599608778953552,0.9825290742076497,-0.377655029296875,0.278472900390625,-0.4253387451171875,0.6333115548472602
1781006375.041662,-0.0395507737994194,-0.19873046875,0.9677733778953552,0.9887585012937757,-0.194549560546875,-0.026702880859375,-0.1811981201171875,0.26719905330890464
1781006375.052337,-0.0410156212747097,-0.19189453125,0.9790038466453552,0.9984760007424364,-0.194549560546875,0.156402587890625,-0.3032684326171875,0.3927888023225108
1781006375.063012,-0.0444335900247097,-0.21484375,0.9711913466453552,0.9956630015398609,-0.0705718994140625,-0.0858306884765625,-0.2422332763671875,0.2665037715508948
1781006375.071016,-0.0419921875,-0.19775390625,0.9565429091453552,0.9776728943181499,-0.0705718994140625,-0.0247955322265625,-0.0591278076171875,0.09534835624656668
1781006375.079022,-0.0532226487994194,-0.19873046875,0.9628905653953552,0.9846241366542909,-0.06866455078125,-0.209808349609375,-0.3032684326171875,0.3751081261741555
1781006375.087028,-0.0424804650247097,-0.21142578125,0.9731444716453552,0.9967525337714502,-0.3147125244140625,-0.2689361572265625,-0.3032684326171875,0.513168950647784
1781006375.103036,-0.0512695275247097,-0.2001953125,0.9726561903953552,0.9943675338193545,-0.194549560546875,-0.331878662109375,-0.3643035888671875,0.529820802473821
1781006375.111036,-0.0371093712747097,-0.20947265625,0.9804686903953552,1.0032819902691454,-0.2536773681640625,-0.4520416259765625,-0.0591278076171875,0.5217182538188547
1781006375.119036,-0.0576171837747097,-0.205078125,0.9741210341453552,0.9971401939466991,-0.377655029296875,-0.38909912109375,-0.1201629638671875,0.5553922803519142
1781006375.127036,-0.0439453050494194,-0.2021484375,0.9663085341453552,0.9882041103849564,-0.0705718994140625,-0.2689361572265625,-0.1811981201171875,0.3318731811772407
1781006375.137778,-0.0419921837747097,-0.2041015625,0.9624022841453552,0.9847024666574709,-0.2536773681640625,-0.2079010009765625,0.0629425048828125,0.3339712446403505
1781006375.14852,-0.0385742112994194,-0.2099609375,0.9648436903953552,0.9881775710614865,-0.2536773681640625,-0.4520416259765625,0.1239776611328125,0.5329768280086313
1781006375.159262,-0.0390624925494194,-0.1923828125,0.9716796278953552,0.9913114163250818,-0.194549560546875,-0.209808349609375,-0.0591278076171875,0.29217318957838523
1781006375.169918,-0.0366210900247097,-0.2060546875,0.9604491591453552,0.9829863812781642,-0.0705718994140625,-0.3299713134765625,-0.1201629638671875,0.35819072934639645
1781006375.180576,-0.0468749962747097,-0.205078125,0.9731444716453552,0.9956226520741617,-0.194549560546875,-0.38909912109375,0.1239776611328125,0.4523473422104671
1781006375.191234,-0.0473632775247097,-0.20654296875,0.9663085341453552,0.9892701659102489,0.1125335693359375,-0.0858306884765625,-0.1811981201171875,0.2299205733418601
1781006375.199225,-0.0463867150247097,-0.19873046875,0.9760741591453552,0.9971791667958625,0.0514984130859375,0.0362396240234375,0.1239776611328125,0.1390534334696287
1781006375.207216,-0.0380859375,-0.193359375,0.9697265028953552,0.989549330227301,-0.0095367431640625,0.0972747802734375,-0.4863739013671875,0.49609767614710865
1781006375.215207,-0.033203125,-0.19384765625,0.9667968153953552,0.9865979138443302,-0.4978179931640625,0.2193450927734375,-0.0591278076171875,0.5472029985985983
1781006375.223198,-0.0283203125,-0.208984375,0.9677733778953552,0.9904856485872091,-0.4978179931640625,0.0972747802734375,-0.1201629638671875,0.5212717861926609
1781006375.233838,-0.0415039025247097,-0.20068359375,0.9697265028953552,0.9911437681501363,-0.1316070556640625,0.3414154052734375,-0.2422332763671875,0.43881870543331614
1781006375.244478,-0.0307617150247097,-0.1943359375,0.9619140028953552,0.9818305804370888,0.0514984130859375,0.4024505615234375,-0.1811981201171875,0.4443549254311273
1781006375.255118,-0.0405273400247097,-0.2001953125,0.9702147841453552,0.9914824031775195,-0.011444091796875,0.278472900390625,0.1239776611328125,0.30503865976132394
1781006375.263097,-0.029785148799419403,-0.20263671875,0.9526366591453552,0.9744051514757062,-0.0095367431640625,0.0972747802734375,0.0019073486328125,0.09775975821487044
1781006375.271076,-0.033203125,-0.20458984375,0.9692382216453552,0.991151946965583,0.2346038818359375,0.5855560302734375,0.0629425048828125,0.63393738246218
1781006375.279055,-0.04296875,-0.21240234375,0.9692382216453552,0.9931685654536728,0.1735687255859375,0.5245208740234375,-0.0591278076171875,0.5556476828183956
1781006375.287034,-0.0346679612994194,-0.20361328125,0.9677733778953552,0.9895683638865157,0.1735687255859375,0.2193450927734375,0.0019073486328125,0.27971773308841447
1781006375.297722,-0.03759765625,-0.2021484375,0.9609374403953552,0.982689339971062,0.11444091796875,0.278472900390625,0.1850128173828125,0.3533746206979543
1781006375.30841,-0.0380859337747097,-0.201171875,0.9702147841453552,0.9915832738689804,0.0514984130859375,1.0128021240234375,-0.4863739013671875,1.1247132082926274
1781006375.319098,-0.0346679650247097,-0.20947265625,0.9765624403953552,0.9993772368361793,0.1125335693359375,0.4024505615234375,-0.2422332763671875,0.4830188597535283
1781006375.329738,-0.0390624962747097,-0.2109375,0.9550780653953552,0.9788741586745439,-0.1316070556640625,0.3414154052734375,-0.4253387451171875,0.5610685734885291
1781006375.340378,-0.0581054612994194,-0.197265625,0.9663085341453552,0.9879484574620297,-0.1926422119140625,0.2193450927734375,-0.4253387451171875,0.5158840370013345
1781006375.351018,-0.0439453050494194,-0.20458984375,0.9541015028953552,0.9767793363030933,-0.377655029296875,-0.026702880859375,-0.6084442138671875,0.7166175593633423
1781006375.36169,-0.0283203087747097,-0.21044921875,0.9653319716453552,0.9884112145470069,-0.3147125244140625,0.0972747802734375,-0.2422332763671875,0.40888056456610855
1781006375.372362,-0.0493164025247097,-0.2109375,0.9711913466453552,0.9950574698292796,-0.3757476806640625,-0.2689361572265625,0.0629425048828125,0.46634186506160424
1781006375.383034,-0.0385742150247097,-0.21142578125,0.9755858778953552,0.998977795644526,-0.377655029296875,-0.026702880859375,0.0629425048828125,0.3837943771348616
1781006375.39103,-0.0541992112994194,-0.1982421875,0.9550780653953552,0.9769399318328628,-0.5588531494140625,0.0362396240234375,-0.0591278076171875,0.5631396368512802
1781006375.399026,-0.0458984337747097,-0.1972656100988388,0.9702147841453552,0.9911292118209698,-0.4367828369140625,-0.3299713134765625,0.0629425048828125,0.5510191224096195
1781006375.407022,-0.0410156212747097,-0.19970703125,0.9633788466453552,0.9847151779489203,-0.194549560546875,0.034332275390625,-0.1201629638671875,0.23123013326084232
1781006375.415018,-0.0454101525247097,-0.19921875,0.9589843153953552,0.9805106371060837,-0.4367828369140625,0.1583099365234375,0.1850128173828125,0.5000710201768117
1781006375.423072,-0.0493164025247097,-0.201171875,0.9687499403953552,0.9906455864056525,-0.4367828369140625,0.0972747802734375,0.1239776611328125,0.46434048925320365
1781006375.431126,-0.0483398362994194,-0.1982421875,0.9775390028953552,0.998608635482332,-0.2536773681640625,-0.0247955322265625,0.2460479736328125,0.35426915031633366
1781006375.43918,-0.0356445275247097,-0.2021484225988388,0.9575194716453552,0.9792742494733836,-0.2536773681640625,0.1583099365234375,0.0019073486328125,0.2990282279309216
1781006375.447234,-0.0419921837747097,-0.19580078125,0.9760741591453552,0.9964045632109437,-0.194549560546875,-0.148773193359375,-0.0591278076171875,0.251950574924812
1781006375.45784,-0.0449218712747097,-0.20458984375,0.9750975966453552,0.9973416173348122,0.0514984130859375,-0.2689361572265625,0.0019073486328125,0.27382910946969696
1781006375.468446,-0.0454101525247097,-0.2099609375,0.9711913466453552,0.994664922990157,-0.0095367431640625,0.0362396240234375,0.1850128173828125,0.18876970735651238
1781006375.479052,-0.0444335900247097,-0.201171875,0.9687499403953552,0.990414516366508,0.1125335693359375,-0.1468658447265625,0.3681182861328125,0.4120005499512012
1781006375.489703,-0.0292968712747097,-0.20556640625,0.9682616591453552,0.990275968917727,-0.011444091796875,0.339508056640625,0.0629425048828125,0.34548291807536885
1781006375.500356,-0.0395507737994194,-0.20361328125,0.9726561903953552,0.9945263680385402,0.1735687255859375,0.5245208740234375,0.1239776611328125,0.5662320286311961
1781006375.511009,-0.0385742112994194,-0.20703125,0.9716796278953552,0.994239009253203,0.0514984130859375,0.3414154052734375,-0.2422332763671875,0.4217742591576419
1781006375.519017,-0.0356445275247097,-0.2021484225988388,0.9648436903953552,0.9864369538887858,0.0514984130859375,-0.0858306884765625,-0.0591278076171875,0.11625442472588178
1781006375.527025,-0.0390624962747097,-0.20166015625,0.9658202528953552,0.9874216212625861,0.293731689453125,-0.08392333984375,0.1239776611328125,0.3296845353053114
1781006375.535033,-0.04736328125,-0.19775390625,0.9653319716453552,0.9865169554187142,0.2346038818359375,0.2193450927734375,0.0019073486328125,0.3211773483218976
1781006375.543041,-0.0478515587747097,-0.201171875,0.9707030653953552,0.9924839223564905,0.1125335693359375,0.3414154052734375,0.1239776611328125,0.38026141487859944
1781006375.553701,-0.0434570237994194,-0.19921875,0.9599608778953552,0.9813773537017689,0.2346038818359375,0.0362396240234375,0.2460479736328125,0.34189457008069585
1781006375.564361,-0.0405273400247097,-0.20166015625,0.9643554091453552,0.9860479902399063,0.3566741943359375,0.0972747802734375,-0.0591278076171875,0.3743994677026809
1781006375.575021,-0.0507812462747097,-0.201171875,0.9589843153953552,0.9811726532259888,0.0514984130859375,0.0362396240234375,0.0629425048828125,0.08903457654559178
1781006375.583032,-0.0483398400247097,-0.201171875,0.9672850966453552,0.9891649617818276,-0.194549560546875,0.09918212890625,0.1239776611328125,0.25111170156589807
1781006375.591044,-0.0498046837747097,-0.1953125,0.9658202528953552,0.9866287245387683,-0.194549560546875,0.09918212890625,0.4901885986328125,0.5366297498582786
1781006375.599056,-0.0424804650247097,-0.19970703125,0.9609374403953552,0.982389053579579,-0.2536773681640625,-0.1468658447265625,0.2460479736328125,0.38270274207889504
1781006375.607068,-0.0361328087747097,-0.2026367038488388,0.9736327528953552,0.9951522251029034,-0.499725341796875,-0.026702880859375,0.3681182861328125,0.6212483671331078
1781006375.617722,-0.0410156212747097,-0.2099609375,0.9614257216453552,0.9849392340168612,-0.2536773681640625,-0.0858306884765625,-0.0591278076171875,0.27425391854378517
1781006375.628376,-0.0595703050494194,-0.19873046875,0.9638671278953552,0.9859423211783317,-0.0705718994140625,0.0972747802734375,0.0629425048828125,0.13566331407229065
1781006375.63903,-0.0366210900247097,-0.21142578125,0.9677733778953552,0.9912755803381604,-0.0705718994140625,-0.3299713134765625,0.0629425048828125,0.34325387051755046
1781006375.647056,-0.03271484375,-0.19775390625,0.9633788466453552,0.984009995174061,0.1735687255859375,0.0972747802734375,0.0629425048828125,0.2086869528736641
1781006375.655083,-0.0444335900247097,-0.19970703125,0.9624022841453552,0.9839082268084608,-0.1316070556640625,-0.0858306884765625,0.2460479736328125,0.2919365162389549
1781006375.66311,-0.0458984337747097,-0.21337890625,0.9746093153953552,0.9987494888663626,-0.194549560546875,0.09918212890625,0.0019073486328125,0.2183810069171888
1781006375.671137,-0.046875,-0.20263671875,0.9750975966453552,0.997032711797519,0.3566741943359375,0.0972747802734375,-0.0591278076171875,0.3743994677026809
1781006375.681816,-0.0356445275247097,-0.19677734375,0.9628905653953552,0.9834378965054948,0.476837158203125,0.461578369140625,0.1850128173828125,0.688954286507949
1781006375.692495,-0.0488281212747097,-0.1875,0.9780272841453552,0.9970345048993827,0.1735687255859375,0.3414154052734375,0.0629425048828125,0.3881395887827921
1781006375.703174,-0.04150390625,-0.2080078125,0.9682616591453552,0.9912217031854983,0.049591064453125,0.278472900390625,0.3070831298828125,0.4175002737534255
1781006375.713797,-0.0419921875,-0.20263671875,0.9692382216453552,0.9910841104038811,0.1735687255859375,0.0972747802734375,0.0019073486328125,0.1989776956283772
1781006375.72442,-0.0463867150247097,-0.20654296875,0.9785155653953552,1.0011515554559354,0.293731689453125,-0.026702880859375,-0.3032684326171875,0.4230402953115254
1781006375.735043,-0.0449218712747097,-0.19970703125,0.9760741591453552,0.9973071928953597,0.0514984130859375,0.4024505615234375,-0.0591278076171875,0.41001785162906645
1781006375.745723,-0.0380859337747097,-0.201171875,0.9624022841453552,0.9839404545858983,-0.1316070556640625,0.6465911865234375,0.1239776611328125,0.6713948466069075
1781006375.756404,-0.0380859337747097,-0.205078125,0.9707030653953552,0.9928605223660303,0.171661376953125,0.156402587890625,0.2460479736328125,0.33833268119580284
1781006375.767085,-0.0439453087747097,-0.20068359375,0.9721679091453552,0.9936375287476672,0.1735687255859375,0.0972747802734375,0.1239776611328125,0.23443324388561984
1781006375.775072,-0.0512695275247097,-0.20068359375,0.9702147841453552,0.9920782210225362,0.171661376953125,0.461578369140625,-0.2422332763671875,0.5488161617295396
1781006375.783061,-0.0488281175494194,-0.20361328125,0.9619140028953552,0.9844394863733255,0.41961669921875,0.278472900390625,-0.4253387451171875,0.6591952507513003
1781006375.79105,-0.0419921875,-0.19775390625,0.9770507216453552,0.9977464928106129,-0.011444091796875,0.156402587890625,-0.3032684326171875,0.3414154052734375
1781006375.799039,-0.0483398400247097,-0.19189453125,0.9575194716453552,0.9777544629595264,0.1125335693359375,0.2193450927734375,-0.3032684326171875,0.3908296510928511
1781006375.809689,-0.0502929650247097,-0.2041015625,0.9487304091453552,0.9717387608730194,0.2346038818359375,0.4634857177734375,-0.3643035888671875,0.6344880588426877
1781006375.820339,-0.0307617150247097,-0.20458984375,0.9638671278953552,0.9858210423368695,-0.011444091796875,-0.148773193359375,-0.3032684326171875,0.3379884206914297
1781006375.830989,-0.0449218675494194,-0.197265625,0.9609374403953552,0.9820043102473355,-0.0095367431640625,-0.0858306884765625,-0.1201629638671875,0.14797633067448665
1781006375.841764,-0.0395507737994194,-0.19287109375,0.9638671278953552,0.9837699745111634,-0.133514404296875,-0.209808349609375,-0.0591278076171875,0.25562029918254586
1781006375.852539,-0.0278320275247097,-0.20556640625,0.9624022841453552,0.9845051171339199,-0.1316070556640625,-0.2689361572265625,0.1239776611328125,0.32406408968646383
1781006375.863314,-0.0502929650247097,-0.201171875,0.9633788466453552,0.9854432037341001,-0.377655029296875,-0.331878662109375,-0.0591278076171875,0.5062241254131883
1781006375.873883,-0.0410156212747097,-0.2075195163488388,0.9643554091453552,0.9872831336562535,-0.0705718994140625,-0.3910064697265625,-0.1201629638671875,0.41509708531894657
1781006375.884453,-0.0356445275247097,-0.19140625,0.9653319716453552,0.984770379510996,-0.194549560546875,-0.514984130859375,-0.0591278076171875,0.5536734454347465
1781006375.895023,-0.0468749962747097,-0.201171875,0.9741210341453552,0.9957806875668889,-0.0705718994140625,-0.3299713134765625,-0.2422332763671875,0.4153774438795861
1781006375.903032,-0.0400390550494194,-0.20751953125,0.9667968153953552,0.9896279927518575,-0.194549560546875,-0.209808349609375,-0.0591278076171875,0.29217318957838523
1781006375.911042,-0.0507812462747097,-0.19970703125,0.9780272841453552,0.9994993756059283,0.0514984130859375,-0.6961822509765625,-0.1201629638671875,0.708350867162955
1781006375.919052,-0.0434570275247097,-0.20654296875,0.9746093153953552,0.9972020000164209,0.0514984130859375,-0.3910064697265625,-0.1811981201171875,0.4340171709188495
