timestamp,accel_x,accel_y,accel_z,accel_rms,gyro_x,gyro_y,gyro_z,gyro_rms
1786720237.052184,-0.0307617150247097,0.1982421725988388,0.9716796278953552,0.9921731408251411,0.4558563232421875,-0.2155303955078125,0.2346038818359375,0.5561450532011684
1786720237.062808,-0.0253906212747097,0.1933593600988388,0.9726561903953552,0.9920144104300873,0.579833984375,-0.156402587890625,0.1125335693359375,0.6110098388426807
1786720237.073432,-0.0278320275247097,0.1933593600988388,0.9838866591453552,1.0030929278676912,0.4558563232421875,-0.0324249267578125,-0.1926422119140625,0.49595099064955783
1786720237.084046,-0.0351562462747097,0.2026367038488388,0.9604491591453552,0.9822220638439507,0.274658203125,0.209808349609375,0.3566741943359375,0.49666201084324296
1786720237.094659,-0.0263671837747097,0.20166015625,0.9677733778953552,0.9889122094311353,0.4558563232421875,0.0286102294921875,-0.3147125244140625,0.5546778395560374
1786720237.105272,-0.0268554650247097,0.20068359375,0.9584960341453552,0.979647777660156,0.3337860107421875,0.3948211669921875,-0.1316070556640625,0.53349533453707
1786720237.113288,-0.02880859375,0.19775390625,0.9687499403953552,0.9891476075525789,0.030517578125,0.514984130859375,-0.0095367431640625,0.5159757039646137
1786720237.121304,-0.02294921875,0.2060546875,0.9692382216453552,0.9911649364158363,0.091552734375,0.091552734375,-0.1316070556640625,0.18461913076288236
1786720237.12932,-0.0346679650247097,0.2080077975988388,0.9511718153953552,0.9742673832492648,-0.0324249267578125,0.0286102294921875,0.0514984130859375,0.06724587464830091
1786720237.137336,-0.019531242549419403,0.1982421875,0.9804686903953552,1.0005000185836541,-0.091552734375,-0.034332275390625,0.0514984130859375,0.11051106214043407
1786720237.147993,-0.0209960900247097,0.1938476413488388,0.9682616591453552,0.9876985291189563,0.030517578125,-0.034332275390625,-0.0705718994140625,0.08420463582856795
1786720237.15865,-0.0263671837747097,0.1992187350988388,0.9624022841453552,0.9831589339078335,-0.274658203125,-0.213623046875,-0.1926422119140625,0.3977222102311546
1786720237.169307,-0.0234374962747097,0.2070312350988388,0.9653319716453552,0.9875611697605807,-0.274658203125,0.148773193359375,-0.2536773681640625,0.4023963204663346
1786720237.177308,-0.01220703125,0.1953125,0.9692382216453552,0.9887965991883463,-0.0324249267578125,0.0896453857421875,0.0514984130859375,0.10835016202334428
1786720237.185308,-0.0258789025247097,0.1992187350988388,0.9838866591453552,1.0041866261081518,-0.213623046875,0.148773193359375,-0.1926422119140625,0.3238507233736664
1786720237.193308,-0.0371093712747097,0.2075195163488388,0.9545897841453552,0.9775904618482814,0.0286102294921875,0.2727508544921875,-0.0705718994140625,0.28318186178624266
1786720237.201308,-0.019531242549419403,0.20361328125,0.9819335341453552,1.0030121151890954,-0.213623046875,0.514984130859375,-0.1926422119140625,0.589876667621535
1786720237.211964,-0.03173828125,0.18994140625,0.9731444716453552,0.9920157352576869,-0.3376007080078125,0.2117156982421875,-0.3147125244140625,0.5077812008657125
1786720237.22262,-0.0268554650247097,0.201171875,0.9663085341453552,0.9873922839757531,-0.518798828125,0.453948974609375,-0.1316070556640625,0.7018135882934584
1786720237.233276,-0.0312499962747097,0.1928710788488388,0.9697265028953552,0.9892144892494953,-0.3948211669921875,0.0896453857421875,-0.3147125244140625,0.5128001775672569
1786720237.24399,-0.0312499962747097,0.1948242038488388,0.9687499403953552,0.9886402175152028,-0.2765655517578125,-0.0934600830078125,-0.3757476806640625,0.47582518960155185
1786720237.254705,-0.0361328087747097,0.1977538913488388,0.9785155653953552,0.998951897307648,-0.396728515625,0.209808349609375,-0.4367828369140625,0.6262525890553444
1786720237.26542,-0.029296867549419403,0.19482421875,0.9785155653953552,0.9981520397117604,-0.3376007080078125,-0.1544952392578125,-0.4978179931640625,0.6210199443806934
1786720237.273388,-0.0341796800494194,0.1953125,0.9653319716453552,0.9854851793229767,-0.946044921875,-0.034332275390625,-0.2536773681640625,0.9800672969024208
1786720237.281356,-0.0351562462747097,0.1923827975988388,0.9746093153953552,0.9940374339628698,-0.3376007080078125,0.0896453857421875,-0.4367828369140625,0.5592761212987181
1786720237.289324,-0.029296867549419403,0.20068359375,0.9765624403953552,0.9973998251651917,-0.5207061767578125,0.0896453857421875,-0.3757476806640625,0.648349857116531
1786720237.297292,-0.029296867549419403,0.1982421875,0.9731444716453552,0.993563502775193,-0.2765655517578125,-0.2765655517578125,-0.2536773681640625,0.4661858169837987
1786720237.307954,-0.0405273362994194,0.1845703125,0.9638671278953552,0.9822161195384216,0.091552734375,-0.339508056640625,-0.0705718994140625,0.35864748247038025
1786720237.318616,-0.0307617150247097,0.19091796875,0.9741210341453552,0.9931302749726764,-0.0324249267578125,-0.2155303955078125,0.0514984130859375,0.22395716959582573
1786720237.329278,-0.020019523799419403,0.1904296875,0.9624022841453552,0.981265715157062,0.0286102294921875,-0.0934600830078125,-0.1926422119140625,0.21601933746441637
1786720237.337297,-0.0307617150247097,0.1879882663488388,0.9731444716453552,0.9916128448593337,0.1506805419921875,-0.4596710205078125,-0.0705718994140625,0.4888583289836246
1786720237.345314,-0.02880859375,0.19189453125,0.9633788466453552,0.98272694496551,0.3337860107421875,-0.2765655517578125,0.1735687255859375,0.4669343721421817
1786720237.353331,-0.020019523799419403,0.208984375,0.9741210341453552,0.9964873503922227,0.3337860107421875,-0.7038116455078125,-0.0705718994140625,0.7821408609109404
1786720237.361348,-0.0292968712747097,0.2119140475988388,0.9692382216453552,0.9925666730927755,0.396728515625,-0.701904296875,0.1125335693359375,0.8140804390900755
1786720237.372008,-0.02392578125,0.205078125,0.9697265028953552,0.9914630455945365,0.152587890625,-0.522613525390625,0.2346038818359375,0.592829606766645
1786720237.382668,-0.0200195275247097,0.20166015625,0.9687499403953552,0.9897191758863174,0.6389617919921875,-0.0934600830078125,0.0514984130859375,0.6478109641647511
1786720237.393328,-0.0234375,0.1982421875,0.9516600966453552,0.97237144181536,0.274658203125,-0.156402587890625,0.1735687255859375,0.3605897953967429
1786720237.401316,-0.0224609375,0.2001953125,0.9638671278953552,0.9846941134675238,-0.4596710205078125,-0.2155303955078125,-0.0705718994140625,0.5125731084141621
1786720237.409304,-0.0366210900247097,0.19580078125,0.9711913466453552,0.9914089378109957,-0.6999969482421875,-0.0934600830078125,0.1735687255859375,0.7272252863904894
1786720237.417292,-0.0361328087747097,0.1953125,0.9853515028953552,1.0051716951766674,-0.091552734375,-0.278472900390625,-0.2536773681640625,0.38766127810519274
1786720237.42528,-0.02783203125,0.19970703125,0.9697265028953552,0.9904680765738212,-0.3948211669921875,-0.5817413330078125,-0.0095367431640625,0.7031341848502011
1786720237.436046,-0.017578125,0.21435546875,0.9848632216453552,1.0080738181359616,0.213623046875,-0.461578369140625,-0.3147125244140625,0.5981081591466124
1786720237.446812,-0.029296867549419403,0.201171875,0.9736327528953552,0.9946301660666701,-0.1544952392578125,-0.2155303955078125,-0.1316070556640625,0.29604484025506417
1786720237.457578,-0.0341796800494194,0.2041015625,0.9707030653953552,0.9925170726547535,0.091552734375,0.209808349609375,-0.3147125244140625,0.38915988971169796
1786720237.466091,-0.0371093712747097,0.1987304538488388,0.9687499403953552,0.9896197985789159,-0.1544952392578125,0.3948211669921875,-0.1316070556640625,0.44392899202346
1786720237.474603,-0.024902336299419403,0.20458984375,0.9550780653953552,0.9770625576277873,-0.0324249267578125,0.5779266357421875,-0.1316070556640625,0.5936084477802656
1786720237.483115,-0.024414055049419403,0.19140625,0.9570311903953552,0.97628945401073,-0.152587890625,1.125335693359375,-0.0705718994140625,1.1378241868148702
1786720237.491627,-0.024902336299419403,0.2109375,0.9848632216453552,1.0075069829083505,-0.2117156982421875,0.3948211669921875,-0.1316070556640625,0.4669343721421817
1786720237.500766,-0.0351562462747097,0.201171875,0.9770507216453552,0.9981654159561195,0.091552734375,0.392913818359375,-0.3147125244140625,0.5116709341484575
1786720237.509904,-0.029785148799419403,0.19921875,0.9780272841453552,0.9985552733691337,-0.0324249267578125,-0.2765655517578125,-0.3147125244140625,0.42021881599641
1786720237.519042,-0.0366210900247097,0.1840820163488388,0.9663085341453552,0.9843675513444138,0.0286102294921875,0.2727508544921875,-0.3147125244140625,0.4174392732852121
1786720237.52818,-0.0371093712747097,0.1962890625,0.9790038466453552,0.9991771781020298,0.091552734375,0.209808349609375,-0.3757476806640625,0.439986097805114
1786720237.537318,-0.0302734337747097,0.1923827975988388,0.9707030653953552,0.9900464952578777,0.1506805419921875,-0.1544952392578125,0.0514984130859375,0.2218681843770259
1786720237.546922,-0.0322265587747097,0.2036132663488388,0.9648436903953552,0.9866206262892698,-0.1544952392578125,-0.0934600830078125,-0.3147125244140625,0.36283265990291974
1786720237.556526,-0.0327148400247097,0.19189453125,0.9838866591453552,1.0029589871603464,-0.274658203125,-0.034332275390625,-0.0705718994140625,0.28565053240675053
1786720237.56613,-0.0405273400247097,0.19189453125,0.9804686903953552,0.9998924088414306,0.2765655517578125,-0.0934600830078125,-0.3147125244140625,0.42926363060245665
1786720237.575734,-0.014648430049419403,0.19482421875,0.9619140028953552,0.9815546860367108,-0.152587890625,0.148773193359375,-0.0095367431640625,0.2133248154760956
1786720237.585338,-0.0297851525247097,0.1982421725988388,0.9682616591453552,0.988796113907485,-0.3376007080078125,0.2727508544921875,-0.0095367431640625,0.43411774456220054
1786720237.594927,-0.0209960900247097,0.1904296875,0.9667968153953552,0.9855964610002788,-0.091552734375,0.274658203125,0.0514984130859375,0.2940597188765624
1786720237.604519,-0.0351562425494194,0.2001953125,0.9750975966453552,0.9960569499384632,0.4558563232421875,0.0896453857421875,0.1125335693359375,0.47802205686792065
1786720237.614111,-0.0336914025247097,0.1923827975988388,0.9643554091453552,0.9839347572699845,-0.091552734375,-0.213623046875,-0.0095367431640625,0.232610530281574
1786720237.623703,-0.0371093712747097,0.1962890625,0.9492186903953552,0.9700116616254706,0.3337860107421875,-0.2155303955078125,-0.1926422119140625,0.44156253709534776
1786720237.633295,-0.029296867549419403,0.20458984375,0.9790038466453552,1.000581751962457,0.213623046875,0.026702880859375,0.2346038818359375,0.3184129887030976
1786720237.641278,-0.02392578125,0.21044921875,0.9809569716453552,1.0035626023823996,-0.0324249267578125,-0.2765655517578125,0.1125335693359375,0.3003392823488779
1786720237.649261,-0.02392578125,0.1923828125,0.9736327528953552,0.9927458522020733,-0.0934600830078125,-0.5817413330078125,0.3566741943359375,0.6887483187280561
1786720237.657244,-0.033203125,0.19482421875,0.9648436903953552,0.9848767794079833,0.0286102294921875,-0.3986358642578125,0.1125335693359375,0.41520224196366645
1786720237.665227,-0.02392578125,0.1904296875,0.9868163466453552,1.0053071226725971,-0.091552734375,-0.396728515625,-0.0095367431640625,0.40726694900486643
1786720237.673241,-0.019531242549419403,0.21044921875,0.9628905653953552,0.9858136659812524,0.274658203125,-0.522613525390625,0.3566741943359375,0.6897669942598452
1786720237.681255,-0.0356445275247097,0.1943359225988388,0.9760741591453552,0.9958703466345977,0.1506805419921875,-0.1544952392578125,0.1735687255859375,0.27694675876405306
1786720237.689269,-0.0205078087747097,0.1933593600988388,0.9824218153953552,1.0014794235146711,-0.091552734375,-0.278472900390625,-0.0095367431640625,0.29329167886880725
1786720237.697283,-0.0351562425494194,0.2138671875,0.9599608778953552,0.9841239872947792,0.396728515625,-0.339508056640625,0.2956390380859375,0.6000513948607137
1786720237.707982,-0.0317382775247097,0.1894531100988388,0.9721679091453552,0.9909642994368717,0.213623046875,-0.156402587890625,0.2346038818359375,0.35374504523389955
1786720237.718681,-0.02197265625,0.2001953125,0.9892577528953552,1.0095503268451855,-0.2117156982421875,-0.2765655517578125,0.3566741943359375,0.49852635056380956
1786720237.72938,-0.0258789025247097,0.2041015475988388,0.9536132216453552,0.9755538610578904,0.1506805419921875,0.1506805419921875,0.2956390380859375,0.36443338528529073
1786720237.740034,-0.0371093712747097,0.2031249850988388,0.9555663466453552,0.9776215565590598,-0.213623046875,-0.522613525390625,0.1735687255859375,0.5906655615311446
1786720237.750686,-0.0029296875,0.18994140625,0.9892577528953552,1.0073317341078076,0.0934600830078125,-0.0934600830078125,0.5397796630859375,0.55572624457805
1786720237.761338,-0.024902336299419403,0.20068359375,0.9638671278953552,0.9848522078925475,0.030517578125,-0.034332275390625,0.1125335693359375,0.12154765294154983
1786720237.769419,-0.02783203125,0.1884765625,0.9868163466453552,1.0050395706547097,-0.1544952392578125,-0.2765655517578125,0.2346038818359375,0.3942033291905619
1786720237.777502,-0.0253906212747097,0.1938476413488388,0.9658202528953552,0.9854087236309975,-0.0324249267578125,0.0286102294921875,-0.1926422119140625,0.19743592104272137
1786720237.785585,-0.0283203125,0.1953125,0.9721679091453552,0.9919977098402997,-0.3376007080078125,-0.0934600830078125,0.2956390380859375,0.4583791727419363
1786720237.793668,-0.012207027524709702,0.2021484225988388,0.9916991591453552,1.0121661022430026,-0.579833984375,0.148773193359375,-0.1926422119140625,0.6288496913489553
1786720237.803275,-0.0224609375,0.20068359375,0.9702147841453552,0.9910071270621681,-0.091552734375,0.026702880859375,-0.1316070556640625,0.16252804102152013
1786720237.812882,-0.024902336299419403,0.21533203125,0.9614257216453552,0.9855594493873581,-0.091552734375,0.209808349609375,0.3566741943359375,0.42381355292456035
1786720237.822489,-0.0307617150247097,0.2021484225988388,0.9799804091453552,1.001085346101499,-0.6999969482421875,0.2117156982421875,-0.3147125244140625,0.7961552847614746
1786720237.832096,-0.03173828125,0.20947265625,0.9785155653953552,1.0011887054567319,-0.457763671875,-0.034332275390625,-0.4367828369140625,0.6336446409815811
1786720237.841703,-0.0346679612994194,0.1953125,0.9536132216453552,0.9740261889157505,-0.1544952392578125,0.0286102294921875,0.0514984130859375,0.16534633571777219
1786720237.849711,-0.0390624925494194,0.2001953125,0.9780272841453552,0.9990702728056148,-0.6999969482421875,0.2727508544921875,0.0514984130859375,0.7530211436108312
1786720237.857719,-0.0214843712747097,0.2001953125,0.9785155653953552,0.999015742156766,-0.213623046875,0.148773193359375,-0.3147125244140625,0.40842654448698157
1786720237.865727,-0.0419921837747097,0.2021484225988388,0.9697265028953552,0.9914619602763503,-0.1544952392578125,-0.1544952392578125,0.1125335693359375,0.24576688575587988
1786720237.873735,-0.0346679650247097,0.18212890625,0.9775390028953552,0.994964978515536,-0.3376007080078125,0.0286102294921875,-0.1926422119140625,0.38974838689866886
1786720237.884295,-0.0268554650247097,0.1972656100988388,0.9833983778953552,1.0033480485736623,-0.396728515625,-0.156402587890625,0.2956390380859375,0.5189004966747276
1786720237.894855,-0.033203125,0.19384765625,0.9614257216453552,0.9813352024587092,-0.0324249267578125,-0.3986358642578125,-0.1316070556640625,0.42104910075712815
1786720237.905415,-0.0361328087747097,0.201171875,0.9736327528953552,0.9948549847447884,0.0286102294921875,-0.2765655517578125,0.1125335693359375,0.29995141919681784
1786720237.916269,-0.0302734337747097,0.1787109225988388,0.9790038466453552,0.9956418062712323,0.396728515625,-0.339508056640625,-0.0095367431640625,0.5222549043370364
1786720237.927121,-0.0415039025247097,0.1904296875,0.9794921278953552,0.9986945821496676,0.030517578125,-0.339508056640625,0.0514984130859375,0.34474502120970385
1786720237.937973,-0.029785148799419403,0.19970703125,0.9614257216453552,0.9823998532476397,0.0286102294921875,-0.4596710205078125,0.2956390380859375,0.5472827725834861
1786720237.948577,-0.019531242549419403,0.18896484375,0.9819335341453552,1.0001413135593258,-0.1544952392578125,-0.4596710205078125,-0.0095367431640625,0.4850331695030762
1786720237.959183,-0.0268554650247097,0.1928710788488388,0.9624022841453552,0.9819056093058056,0.274658203125,-0.156402587890625,0.2346038818359375,0.39362149257278745
1786720237.969789,-0.02685546875,0.19482421875,0.9526366591453552,0.9727251907712444,0.0286102294921875,-0.2155303955078125,0.0514984130859375,0.2234367542946316
1786720237.977662,-0.0283203125,0.2001953125,0.9760741591453552,0.996795348804549,-0.2765655517578125,0.0896453857421875,0.1125335693359375,0.31175086821283293
1786720237.985535,-0.0400390587747097,0.1982421725988388,0.9765624403953552,0.997284956878025,-0.091552734375,-0.278472900390625,0.1125335693359375,0.31399500577396533
1786720237.993408,-0.0336913987994194,0.19873046875,0.9589843153953552,0.9799386851925759,-0.4596710205078125,0.0896453857421875,-0.0705718994140625,0.4736181323244159
1786720238.001281,-0.0302734337747097,0.2133788913488388,0.9794921278953552,1.0029216622821258,-0.213623046875,-0.213623046875,-0.0095367431640625,0.30225909710461024
1786720238.010239,-0.0292968712747097,0.2075195163488388,0.9741210341453552,0.9964107815035721,-0.2117156982421875,-0.0934600830078125,-0.0095367431640625,0.23162312809428487
1786720238.019197,-0.0322265587747097,0.1962890625,0.9638671278953552,0.9841787375191713,-0.2117156982421875,-0.7648468017578125,0.2956390380859375,0.8468864197055648
1786720238.028155,-0.0317382775247097,0.1987304538488388,0.9560546278953552,0.9770064293889407,-0.7648468017578125,-0.7648468017578125,-0.0095367431640625,1.0816987611107292
1786720238.037113,-0.02734375,0.1953125,0.9692382216453552,0.989099278949572,-0.2765655517578125,-0.3986358642578125,-0.0095367431640625,0.485273125324135
1786720238.04654,-0.02880859375,0.201171875,0.9604491591453552,0.9817141364307066,-0.2117156982421875,-0.8869171142578125,0.4787445068359375,1.029874656097123
1786720238.055967,-0.020019523799419403,0.19873046875,0.9482421278953552,0.9690499025634652,-0.579833984375,-0.827789306640625,-0.0705718994140625,1.0131253518749113
1786720238.065394,-0.0253906212747097,0.19677734375,0.9721679091453552,0.9922078664443621,-0.6427764892578125,-1.0700225830078125,0.4787445068359375,1.3369017339037657
1786720238.073378,-0.033203125,0.205078125,0.9589843153953552,0.981229026291813,-0.8258819580078125,-0.9479522705078125,0.3566741943359375,1.306870688564452
1786720238.081362,-0.0351562462747097,0.2036132663488388,0.9658202528953552,0.9876755969387009,-0.762939453125,-1.316070556640625,0.1735687255859375,1.5310925581729424
1786720238.089346,-0.0209960900247097,0.1894531100988388,0.9785155653953552,0.9969082347154327,0.091552734375,-1.316070556640625,0.3566741943359375,1.3666162936732074
1786720238.09733,-0.0263671837747097,0.19677734375,0.9794921278953552,0.9994105162557005,0.396728515625,-0.949859619140625,0.2346038818359375,1.0557773404257544
1786720238.105327,-0.015136711299419403,0.2001953125,0.9746093153953552,0.9950731635570007,0.1506805419921875,-0.7648468017578125,0.1125335693359375,0.7876287578051605
1786720238.113324,-0.02880859375,0.2099609375,0.9711913466453552,0.9940453521588187,0.3337860107421875,-0.4596710205078125,0.5397796630859375,0.7836278662369311
1786720238.121321,0.0009765625,0.1943359375,0.9687499403953552,0.9880505337756388,0.2117156982421875,0.0896453857421875,0.2956390380859375,0.3745160516018252
1786720238.129318,-0.017578125,0.201171875,0.9550780653953552,0.9761932312656474,0.274658203125,0.331878662109375,0.2346038818359375,0.4905298729739637
1786720238.139978,-0.024414055049419403,0.21630859375,0.9687499403953552,0.9929057864823142,-0.091552734375,0.331878662109375,0.1125335693359375,0.3622004331341064
1786720238.150638,-0.03271484375,0.2109375,0.9658202528953552,0.989127722192986,0.1506805419921875,0.3948211669921875,-0.0095367431640625,0.42270477772354254
1786720238.161298,-0.01904296875,0.205078125,0.9746093153953552,0.9961340219406886,0.396728515625,0.453948974609375,-0.3757476806640625,0.7103868707847444
1786720238.169363,-0.0175781212747097,0.2075195163488388,0.9697265028953552,0.9918381069664846,0.5168914794921875,0.5779266357421875,-0.4978179931640625,0.9214112828643896
1786720238.177428,-0.02392578125,0.19189453125,0.9687499403953552,0.9878625416261537,0.3337860107421875,0.3948211669921875,-0.3147125244140625,0.6052609585090785
1786720238.185493,-0.0209960900247097,0.2089843600988388,0.9633788466453552,0.9860091788244071,0.6389617919921875,0.3337860107421875,-0.3757476806640625,0.8129400913458958
1786720238.193558,-0.0268554650247097,0.2026367038488388,0.9702147841453552,0.9915137806014769,0.579833984375,0.579833984375,-0.6198883056640625,1.027947669082156
1786720238.204152,-0.030761711299419403,0.205078125,0.9589843153953552,0.9811494470313289,0.2765655517578125,0.8831024169921875,-0.2536773681640625,0.959536654034223
1786720238.214746,-0.0234375,0.20458984375,0.9624022841453552,0.9841872164888632,0.6999969482421875,0.8831024169921875,-0.3757476806640625,1.1878770668592948
1786720238.22534,-0.0180664025247097,0.19189453125,0.9809569716453552,0.9997132019951863,0.396728515625,1.003265380859375,-0.9860992431640625,1.4616178217679408
1786720238.233374,-0.02783203125,0.18408203125,0.9663085341453552,0.9840797728613123,0.3337860107421875,1.2493133544921875,-0.4978179931640625,1.385647759352138
1786720238.24141,-0.0258789025247097,0.1972656100988388,0.9716796278953552,0.9918390684936778,-0.0324249267578125,1.3103485107421875,-0.7419586181640625,1.506176346430737
1786720238.249446,-0.0332031212747097,0.177734375,0.9702147841453552,0.9869187822172815,0.091552734375,1.186370849609375,-0.3757476806640625,1.2478156977289683
1786720238.257482,-0.01806640625,0.18896484375,0.9750975966453552,0.9934029545918412,0.1506805419921875,0.9441375732421875,-0.4367828369140625,1.051132546145063
1786720238.268232,-0.030273430049419403,0.1796875,0.9760741591453552,0.9929374816042142,0.0286102294921875,0.5779266357421875,-0.4978179931640625,0.7633089124658334
1786720238.278982,-0.0312499962747097,0.18017578125,0.9707030653953552,0.9877774625816063,-0.091552734375,0.698089599609375,-0.4978179931640625,0.8622840289441823
1786720238.289732,-0.0371093712747097,0.19189453125,0.9658202528953552,0.9853980807079489,0.1506805419921875,0.3948211669921875,-0.5588531494140625,0.7006462889719381
1786720238.297614,-0.0346679650247097,0.1972656100988388,0.9804686903953552,1.0007169637675803,0.2117156982421875,0.5779266357421875,-0.2536773681640625,0.665713857675432
1786720238.305496,-0.0395507737994194,0.19384765625,0.9755858778953552,0.9954441132934595,-0.274658203125,0.209808349609375,-0.0705718994140625,0.3527563820777337
1786720238.313378,-0.0395507737994194,0.2001953125,0.9736327528953552,0.9947879997093316,0.091552734375,0.392913818359375,-0.0095367431640625,0.40355188179397766
1786720238.32126,-0.04296875,0.18896484375,0.9716796278953552,0.9908154847986987,-0.1544952392578125,0.0286102294921875,0.2956390380859375,0.3347980959105096
1786720238.332122,-0.0434570237994194,0.1953125,0.9643554091453552,0.9848943297235794,-0.2117156982421875,-0.3986358642578125,0.4787445068359375,0.6579744614955318
1786720238.342984,-0.02880859375,0.19287109375,0.9648436903953552,0.984353869690114,-0.0324249267578125,-0.2765655517578125,0.2956390380859375,0.40613091625082076
1786720238.353846,-0.03759765625,0.20068359375,0.9702147841453552,0.9914656907478576,0.1506805419921875,-0.5817413330078125,0.3566741943359375,0.6988162027099516
1786720238.364339,-0.0361328087747097,0.2021484225988388,0.9750975966453552,0.9964862706594086,0.335693359375,-0.339508056640625,0.4177093505859375,0.6343791087506684
1786720238.374832,-0.0341796800494194,0.19189453125,0.9741210341453552,0.9934301942342775,0.213623046875,-0.522613525390625,0.3566741943359375,0.6678144832081482
1786720238.385325,-0.0263671837747097,0.1972656100988388,0.9687499403953552,0.9889819999999396,0.091552734375,-0.461578369140625,0.3566741943359375,0.5904684368662295
1786720238.394305,-0.0322265625,0.1943359375,0.9667968153953552,0.9866615884857234,0.0286102294921875,-0.5817413330078125,0.6008148193359375,0.8367914739616898
1786720238.403284,-0.01806640625,0.20361328125,0.9780272841453552,0.9991607137337422,-0.396728515625,-0.522613525390625,0.6618499755859375,0.9319677044910619
1786720238.412263,-0.0327148400247097,0.1972656100988388,0.9692382216453552,0.9896497925952191,-0.1544952392578125,-0.4596710205078125,0.4787445068359375,0.6814415080354348
1786720238.421242,-0.0234375,0.19482421875,0.9819335341453552,1.0013487195263124,-0.4596710205078125,-0.4596710205078125,0.1125335693359375,0.6597413875276235
1786720238.43006,-0.020019523799419403,0.20068359375,0.9672850966453552,0.988086607704904,-0.396728515625,-0.522613525390625,-0.0705718994140625,0.6599233326820183
1786720238.43888,-0.011230465024709702,0.2031249850988388,0.9667968153953552,0.9879686053588319,-0.1544952392578125,-0.4596710205078125,0.5397796630859375,0.7256227054945226
1786720238.4477,-0.0385742150247097,0.2070312350988388,0.9536132216453552,0.9765900259925638,-0.457763671875,-0.522613525390625,0.2956390380859375,0.7550330569253763
1786720238.45652,-0.0166015587747097,0.1943359225988388,0.9614257216453552,0.9810104386842089,-0.457763671875,-0.522613525390625,-0.1316070556640625,0.7071017559801869
1786720238.46534,-0.0351562462747097,0.1977538913488388,0.9687499403953552,0.9893528239267024,-0.3376007080078125,-0.3376007080078125,0.4787445068359375,0.6761248249549321
1786720238.473338,-0.0278320275247097,0.2070312350988388,0.9677733778953552,0.9900615460796732,-0.396728515625,-0.522613525390625,0.1125335693359375,0.6657193224315482
1786720238.481336,-0.0253906212747097,0.2124023288488388,0.9624022841453552,0.9858892379356431,-0.396728515625,-0.156402587890625,0.3566741943359375,0.5559422321735331
1786720238.489334,-0.015136711299419403,0.1953125,0.9741210341453552,0.993623611761329,-0.3376007080078125,-0.2765655517578125,0.2346038818359375,0.49548130523660533
1786720238.497332,-0.0283203125,0.193359375,0.9750975966453552,0.9944874111742371,-0.274658203125,-0.213623046875,0.2346038818359375,0.41965571135456115
1786720238.50533,-0.013671875,0.19775390625,0.9677733778953552,0.9878657998767522,-0.4596710205078125,-0.0934600830078125,0.2346038818359375,0.5244723210837837
1786720238.513328,-0.02294921875,0.20849609375,0.9721679091453552,0.9945389541502614,-0.640869140625,-0.339508056640625,0.1735687255859375,0.7457245325392254
1786720238.523051,-0.0166015587747097,0.1982421725988388,0.9667968153953552,0.9870520011676479,-0.335693359375,-0.034332275390625,0.2346038818359375,0.4109838415734384
1786720238.532774,-0.0263671837747097,0.2021484225988388,0.9643554091453552,0.9856675749396008,-0.396728515625,0.026702880859375,0.1125335693359375,0.4132437091882853
1786720238.542497,-0.0283203125,0.20849609375,0.9794921278953552,1.0018370575188749,-0.2117156982421875,-0.0934600830078125,0.3566741943359375,0.4251762045354776
1786720238.55222,-0.01806640625,0.20361328125,0.9692382216453552,0.9905591822977728,0.091552734375,-0.156402587890625,0.1125335693359375,0.2133248154760956
1786720238.561943,-0.0244140587747097,0.18701171875,0.9672850966453552,0.9854998160364609,0.1506805419921875,-0.2765655517578125,-0.0095367431640625,0.3150937632266623
1786720238.569876,-0.02685546875,0.205078125,0.9692382216453552,0.9910605349087152,0.030517578125,-0.156402587890625,-0.0095367431640625,0.15963721854153387
1786720238.577809,-0.015624996274709702,0.19189453125,0.9692382216453552,0.9881752789513066,-0.091552734375,-0.339508056640625,0.1735687255859375,0.39213993190818963
1786720238.585742,-0.0273437462747097,0.1982421725988388,0.9697265028953552,0.9901601536492463,-0.3376007080078125,-0.4596710205078125,0.0514984130859375,0.572646288464738
1786720238.593675,-0.02783203125,0.19091796875,0.9702147841453552,0.9892123230779857,-0.2765655517578125,-0.2765655517578125,0.1735687255859375,0.42790549346757983
1786720238.604243,-0.0341796800494194,0.1865234375,0.9799804091453552,0.9981587276449547,-0.274658203125,-0.156402587890625,-0.0705718994140625,0.3238507233736664
1786720238.614811,-0.0336913987994194,0.201171875,0.9682616591453552,0.9895129479774346,-0.2765655517578125,-0.0934600830078125,-0.1926422119140625,0.3497632246907514
1786720238.625379,-0.0180664025247097,0.2021484225988388,0.9819335341453552,1.002688309066467,-0.3376007080078125,-0.3986358642578125,0.0514984130859375,0.5249160665004637
1786720238.636248,-0.0336913987994194,0.19384765625,0.9628905653953552,0.9827869886776415,-0.4596710205078125,-0.0934600830078125,-0.0095367431640625,0.46917287185076917
1786720238.647115,-0.0126953125,0.2158203125,0.9692382216453552,0.9930570520092594,-0.2765655517578125,0.0896453857421875,-0.0095367431640625,0.2908878634012532
1786720238.657982,-0.0322265587747097,0.1889648288488388,0.9716796278953552,0.9904077730405728,-0.579833984375,0.148773193359375,0.0514984130859375,0.6008269293639422
1786720238.666065,-0.0278320275247097,0.2021484225988388,0.9765624403953552,0.997653650575322,-0.518798828125,-0.034332275390625,0.0514984130859375,0.522477765792709
1786720238.674151,-0.0258789025247097,0.1894531100988388,0.9731444716453552,0.9917521672353047,-0.396728515625,-0.156402587890625,0.1735687255859375,0.4604143645787206
1786720238.682237,-0.0273437462747097,0.19189453125,0.9667968153953552,0.9860361422598025,-0.4596710205078125,-0.2765655517578125,0.2346038818359375,0.585512538624313
1786720238.690323,-0.0307617150247097,0.19140625,0.9741210341453552,0.9932242570611837,-0.1544952392578125,0.0286102294921875,0.1125335693359375,0.19326440027177955
1786720238.702058,-0.0253906212747097,0.1884765475988388,0.9667968153953552,0.9853244008457791,-0.274658203125,0.026702880859375,-0.0095367431640625,0.27611794918154275
1786720238.713794,-0.01318359375,0.1884765625,0.9853515028953552,1.0033019515649895,-0.1544952392578125,0.0286102294921875,0.3566741943359375,0.38974838689866886
1786720238.72553,-0.0205078087747097,0.1879882663488388,0.9687499403953552,0.9870342473904268,0.0286102294921875,0.0896453857421875,0.2956390380859375,0.31025357573578366
1786720238.737266,-0.0170898400247097,0.1933593600988388,0.9580077528953552,0.9774757078196422,0.339508056640625,0.09918212890625,0.4291534423828125,0.5561254285925863
1786720238.745276,-0.0400390587747097,0.2060546875,0.9624022841453552,0.9850278254935159,-0.087738037109375,0.03814697265625,-0.1201629638671875,0.15359782734137145
1786720238.753284,-0.0263671837747097,0.2026367038488388,0.9555663466453552,0.9771713795277073,-1.0013580322265625,0.2803802490234375,-0.2422332763671875,1.0677115494957805
1786720238.761292,-0.0322265587747097,0.1865234375,0.9716796278953552,0.9899448687144816,-0.9403228759765625,-0.3910064697265625,-0.0591278076171875,1.0200927742546155
1786720238.7693,-0.0385742112994194,0.19287109375,0.9921874403953552,1.01149549947589,0.0972747802734375,-0.8182525634765625,-0.0591278076171875,0.8261330026980078
1786720238.780075,-0.02392578125,0.2041015625,0.9755858778953552,0.9969943309629274,0.156402587890625,-0.63323974609375,-0.1850128173828125,0.6780000649909169
1786720238.79085,-0.0273437462747097,0.1928710788488388,0.9687499403953552,0.9881413767941585,0.64849853515625,-0.51116943359375,-0.0591278076171875,0.8278530289694979
1786720238.801625,-0.0317382775247097,0.1972656100988388,0.9580077528953552,0.9786214251668061,0.034332275390625,-0.26702880859375,-0.2422332763671875,0.3621602544897459
1786720238.809775,-0.0190429650247097,0.2021484225988388,0.9721679091453552,0.9931450361594638,0.2803802490234375,0.0400543212890625,0.1850128173828125,0.33830042165551344
1786720238.817924,-0.0297851525247097,0.19677734375,0.9633788466453552,0.9837211395959532,0.5855560302734375,0.2231597900390625,0.1201629638671875,0.638055870880609
1786720238.826073,-0.0405273400247097,0.1992187350988388,0.9506835341453552,0.9721778395946713,0.827789306640625,0.22125244140625,0.0,0.8568475821386162
1786720238.834222,-0.024414055049419403,0.20458984375,0.9750975966453552,0.9966285031209741,0.4634857177734375,0.2231597900390625,0.0629425048828125,0.5182480693559407
1786720238.842534,-0.0297851525247097,0.2128906100988388,0.9775390028953552,1.0008956336006374,0.522613525390625,0.28228759765625,-0.0591278076171875,0.5969148032553468
1786720238.850846,-0.0327148400247097,0.21142578125,0.9697265028953552,0.9930461279077979,0.827789306640625,-0.02288818359375,-0.0591278076171875,0.8302138897720291
1786720238.859158,-0.02783203125,0.1962890625,0.9687499403953552,0.9888278237573184,0.827789306640625,-0.14495849609375,-0.3032684326171875,0.8934314993330009
1786720238.86747,-0.02197265625,0.21044921875,0.9858397841453552,1.0082915011537719,0.7076263427734375,0.4024505615234375,-0.0591278076171875,0.8162092826543054
1786720238.877685,-0.02392578125,0.20458984375,0.9853515028953552,1.006651395187136,1.0128021240234375,0.4024505615234375,0.0,1.089832371007999
1786720238.8879,-0.0336913987994194,0.2001953125,0.9716796278953552,0.9926603511609045,0.95367431640625,0.83160400390625,-0.2422332763671875,1.288307758753869
1786720238.898115,-0.0268554650247097,0.1928710788488388,0.9584960341453552,0.9780772548885811,0.4634857177734375,0.8907318115234375,-0.1201629638671875,1.0112671795945571
1786720238.908531,-0.0224609375,0.18505859375,0.9775390028953552,0.9951551029943784,0.5855560302734375,0.8907318115234375,-0.4253387451171875,1.1476898852683486
1786720238.918947,-0.0249023400247097,0.1933593600988388,0.9716796278953552,0.9910445337841255,0.5855560302734375,1.0166168212890625,-0.3681182861328125,1.2295920862232417
1786720238.929363,-0.0224609375,0.18115234375,0.9746093153953552,0.9915563438427996,0.522613525390625,1.25885009765625,-0.4253387451171875,1.4278450593072876
1786720238.937428,-0.01904296875,0.1826171875,0.9716796278953552,0.9888745982661703,0.4024505615234375,1.0738372802734375,-0.4253387451171875,1.2231132437650436
1786720238.945494,-0.0219726525247097,0.19091796875,0.9638671278953552,0.9828389026121416,0.2803802490234375,0.5855560302734375,-0.3681182861328125,0.7463243404964031
1786720238.95356,-0.0244140587747097,0.1879882663488388,0.9760741591453552,0.9943120228087404,0.339508056640625,0.52642822265625,-0.6732940673828125,0.9196288899908502
1786720238.961626,-0.0253906212747097,0.1982421725988388,0.9809569716453552,1.0011099953876446,0.217437744140625,0.46539306640625,-0.4863739013671875,0.7074103835590164
1786720238.969562,-0.024902336299419403,0.1943359375,0.9697265028953552,0.9893210163414242,0.2803802490234375,0.5855560302734375,-0.3681182861328125,0.7463243404964031
1786720238.977498,-0.0346679612994194,0.18603515625,0.9672850966453552,0.9856223440516322,-0.2079010009765625,0.4634857177734375,-0.0591278076171875,0.5114077965974222
1786720238.985434,-0.0214843712747097,0.19189453125,0.9770507216453552,0.9959483932415556,0.522613525390625,0.77056884765625,-0.3032684326171875,0.979220602378026
1786720238.99337,-0.0307617150247097,0.1923827975988388,0.9750975966453552,0.9943705279757467,0.5245208740234375,0.4024505615234375,-0.1201629638671875,0.6719581383108534
1786720239.001505,-0.0351562462747097,0.1977538913488388,0.9736327528953552,0.9941344480030476,0.4024505615234375,0.4634857177734375,0.0,0.6138285306585942
1786720239.00964,-0.0263671837747097,0.1865234375,0.9628905653953552,0.9811444654302508,0.4024505615234375,0.4634857177734375,-0.1201629638671875,0.6254794984136856
1786720239.017775,-0.0205078087747097,0.1972656100988388,0.9697265028953552,0.9897998694514273,0.2803802490234375,0.4024505615234375,-0.1201629638671875,0.5049937389694272
1786720239.02591,-0.02392578125,0.1865234375,0.9672850966453552,0.9853952983130443,0.4024505615234375,-0.0247955322265625,-0.1850128173828125,0.4436338754929053
1786720239.037775,-0.024902336299419403,0.19091796875,0.9638671278953552,0.982908763508616,0.2193450927734375,0.2803802490234375,-0.0591278076171875,0.3608620947118828
1786720239.04964,-0.01806640625,0.1982421875,0.9667968153953552,0.9870777285493659,0.156402587890625,-0.02288818359375,0.0,0.15806846126633195
1786720239.061505,-0.0312499962747097,0.19140625,0.9663085341453552,0.9855785600186202,0.156402587890625,-0.14495849609375,0.1201629638671875,0.24477310508712638
1786720239.07337,-0.024414055049419403,0.1982421875,0.9819335341453552,1.0020426520203263,0.217437744140625,0.03814697265625,0.0629425048828125,0.22955636131617757
1786720239.084028,-0.0312499962747097,0.1953125,0.9692382216453552,0.9892149742203007,0.034332275390625,0.03814697265625,-0.1201629638671875,0.1306638226200405
1786720239.094685,-0.0268554650247097,0.19580078125,0.9545897841453552,0.9748337386110923,-0.0247955322265625,0.0972747802734375,-0.1201629638671875,0.1565769433249706
1786720239.105342,-0.0356445275247097,0.1938476413488388,0.9692382216453552,0.9890754120375345,-0.02288818359375,0.16021728515625,0.1850128173828125,0.2458112894213491
1786720239.113393,-0.020996086299419403,0.19970703125,0.9633788466453552,0.9840846183811207,-0.087738037109375,0.03814697265625,0.0,0.09567212069690287
1786720239.121444,-0.02294921875,0.20654296875,0.9609374403953552,0.9831517832638436,-0.270843505859375,0.16021728515625,0.1201629638671875,0.33684554474474415
1786720239.129495,-0.0317382775247097,0.1938476413488388,0.9755858778953552,0.9951643238508877,0.034332275390625,0.64849853515625,-0.1201629638671875,0.6604303090551241
1786720239.137546,-0.0224609337747097,0.19140625,0.9897460341453552,1.0083342988273052,0.0972747802734375,0.2803802490234375,0.1201629638671875,0.32017901993265796
1786720239.145641,-0.0263671837747097,0.19677734375,0.9692382216453552,0.9893630686920579,-0.087738037109375,0.03814697265625,0.1201629638671875,0.15359782734137145
1786720239.153736,-0.024902336299419403,0.19580078125,0.9692382216453552,0.9891313373812046,-0.148773193359375,0.22125244140625,0.0,0.2666197777558373
1786720239.161831,-0.0234374962747097,0.2021484225988388,0.9882811903953552,1.0090158632450166,-0.3910064697265625,0.1583099365234375,0.3032684326171875,0.519538100231513
1786720239.169926,-0.0322265587747097,0.2084960788488388,0.9609374403953552,0.9838241358796692,0.0972747802734375,0.2231597900390625,0.1201629638671875,0.271480777685771
1786720239.180512,-0.0214843712747097,0.2031249850988388,0.9755858778953552,0.9967392552364555,-0.0858306884765625,0.2231597900390625,0.0,0.23909663103991904
1786720239.191098,-0.030273430049419403,0.20068359375,0.9653319716453552,0.9864361108800108,-0.5130767822265625,0.4024505615234375,-0.1201629638671875,0.6630636295377997
1786720239.201684,-0.0312499962747097,0.1997070163488388,0.9667968153953552,0.9877021498937447,-0.3910064697265625,-0.0247955322265625,-0.1201629638671875,0.4098048507177224
1786720239.212289,-0.03662109375,0.2099609375,0.9790038466453552,1.0019347441474058,-0.331878662109375,0.46539306640625,-0.0591278076171875,0.5746566368329318
1786720239.222896,-0.0336914025247097,0.2119140475988388,0.9721679091453552,0.9955667319400827,0.0972747802734375,0.1583099365234375,-0.1201629638671875,0.22127710402264253
1786720239.233503,-0.0371093712747097,0.20654296875,0.9589843153953552,0.9816761281353265,0.217437744140625,-0.02288818359375,-0.3032684326171875,0.3738646596661293
1786720239.241608,-0.033203125,0.19873046875,0.9726561903953552,0.993305749220131,0.5245208740234375,-0.0858306884765625,-0.1850128173828125,0.5627777509520054
1786720239.249712,-0.0317382775247097,0.21142578125,0.9794921278953552,1.00255324439472,0.522613525390625,0.16021728515625,0.0,0.5466209613471263
1786720239.257816,-0.02880859375,0.19287109375,0.9731444716453552,0.9924914894204844,0.4024505615234375,0.2231597900390625,-0.0591278076171875,0.4639642701700463
1786720239.26592,-0.0385742112994194,0.193359375,0.9575194716453552,0.9776089996812443,0.28228759765625,-0.14495849609375,0.3032684326171875,0.4389430436883403
1786720239.274247,-0.0395507737994194,0.21142578125,0.9663085341453552,0.9899582354056411,0.5855560302734375,-0.0858306884765625,0.1201629638671875,0.603888987777799
1786720239.282574,-0.02294921875,0.189453125,0.9531249403953552,0.9720423371526317,-0.02288818359375,-0.14495849609375,0.1201629638671875,0.1896733308173027
1786720239.290901,-0.0341796800494194,0.19970703125,0.9741210341453552,0.9949688125883069,-0.331878662109375,-0.20599365234375,0.3681182861328125,0.5367382078395255
1786720239.299228,-0.0283203087747097,0.1923827975988388,0.9829100966453552,1.0019607970317164,-0.5741119384765625,-0.0858306884765625,-0.1850128173828125,0.6092628066619551
1786720239.310754,-0.029296867549419403,0.19189453125,0.9799804091453552,0.9990212309458509,-0.148773193359375,0.34332275390625,-0.1850128173828125,0.4174131274984573
1786720239.32228,-0.0214843712747097,0.19140625,0.9619140028953552,0.9810078897309121,-0.270843505859375,-0.32806396484375,0.1201629638671875,0.4420648228264103
1786720239.333806,-0.0283203125,0.1904296875,0.9658202528953552,0.9848219467925627,-0.0858306884765625,-0.0858306884765625,0.1201629638671875,0.17080091350478324
1786720239.345332,-0.0283203087747097,0.1874999850988388,0.9721679091453552,0.9904891356664197,0.034332275390625,-0.14495849609375,-0.2422332763671875,0.2843741037838039
1786720239.353343,-0.0244140587747097,0.19189453125,0.9619140028953552,0.9811718026704995,-0.0247955322265625,-0.2651214599609375,0.1850128173828125,0.32424365768067603
1786720239.361354,-0.0209960900247097,0.1938476413488388,0.9711913466453552,0.9905707322809676,0.034332275390625,-0.20599365234375,0.0629425048828125,0.21811430228285886
1786720239.369365,-0.029296867549419403,0.1943359375,0.9658202528953552,0.985613273020945,0.400543212890625,0.34332275390625,0.1201629638671875,0.541058699798703
1786720239.377376,-0.0205078087747097,0.1865234375,0.9804686903953552,0.9982637005336513,-0.0247955322265625,0.5855560302734375,0.0,0.5860807819814478
1786720239.385387,-0.0263671837747097,0.1938476413488388,0.9726561903953552,0.9921351728222938,0.156402587890625,0.52642822265625,-0.1201629638671875,0.5621633045594937
1786720239.393398,-0.0273437462747097,0.19677734375,0.9672850966453552,0.9874763094200567,0.522613525390625,0.22125244140625,0.1201629638671875,0.5801005754477326
1786720239.402977,-0.0380859375,0.20849609375,0.9692382216453552,0.9921410635804333,0.7686614990234375,0.2231597900390625,0.0,0.8004003947845331
1786720239.412556,-0.0200195275247097,0.1865234375,0.9716796278953552,0.9896226924873869,0.6465911865234375,0.2803802490234375,0.1850128173828125,0.7286446247164371
1786720239.422135,-0.0263671837747097,0.2060546875,0.9814452528953552,1.003189188065621,1.010894775390625,0.52642822265625,-0.1201629638671875,1.1460689588355613
1786720239.431714,-0.0214843712747097,0.2041015475988388,0.9628905653953552,0.9845187966050711,0.7686614990234375,0.4024505615234375,-0.0591278076171875,0.8696568588731439
1786720239.441293,-0.0385742112994194,0.2099609375,0.9750975966453552,0.9981918092414899,1.0738372802734375,0.9517669677734375,0.3032684326171875,1.466614675936315
1786720239.449283,-0.02392578125,0.21240234375,0.9692382216453552,0.9925270419173308,1.2569427490234375,0.5855560302734375,0.1850128173828125,1.3989319788710632
1786720239.457273,-0.02880859375,0.201171875,0.9609374403953552,0.9821918461881289,0.9517669677734375,0.4634857177734375,0.1201629638671875,1.065419405403313
1786720239.465263,-0.0356445275247097,0.20556640625,0.9619140028953552,0.9842797512329334,0.705718994140625,0.16021728515625,0.1201629638671875,0.7335857243969798
1786720239.473253,-0.0283203125,0.19189453125,0.9702147841453552,0.9894151194508668,0.4634857177734375,0.2231597900390625,-0.0591278076171875,0.5177986096001534
1786720239.483987,-0.0346679612994194,0.208984375,0.9580077528953552,0.9811499330593701,0.400543212890625,0.03814697265625,-0.4863739013671875,0.6312286660527386
1786720239.494721,-0.0209960900247097,0.1953125,0.9619140028953552,0.9817669567767807,-0.0247955322265625,0.2803802490234375,0.0629425048828125,0.2884261801254633
1786720239.505455,-0.0307617150247097,0.2119140475988388,0.9584960341453552,0.9821244799684805,0.034332275390625,-0.51116943359375,0.1201629638671875,0.5262243180045938
1786720239.516086,-0.0366210900247097,0.20068359375,0.9736327528953552,0.9947742188786362,0.095367431640625,-0.14495849609375,0.0629425048828125,0.18457971591812003
1786720239.526719,-0.0356445275247097,0.20556640625,0.9594725966453552,0.9818939573265436,0.4634857177734375,-0.2079010009765625,0.1850128173828125,0.5406214751403621
1786720239.537352,-0.0190429650247097,0.2070312350988388,0.9663085341453552,0.988421342336166,0.400543212890625,-0.32806396484375,0.1201629638671875,0.5315072608225524
1786720239.545346,-0.03173828125,0.19970703125,0.9697265028953552,0.9905855375711115,0.156402587890625,-0.20599365234375,0.1850128173828125,0.3180014102181441
1786720239.553341,-0.0449218712747097,0.2084960788488388,0.9677733778953552,0.9909964179436517,0.034332275390625,-0.14495849609375,0.2460479736328125,0.28763045049520164
1786720239.561336,-0.0214843712747097,0.2021484225988388,0.9692382216453552,0.9903273667159355,-0.02288818359375,-0.14495849609375,0.1850128173828125,0.2361494804862142
1786720239.569331,-0.0278320275247097,0.2128906100988388,0.9682616591453552,0.9917800533360751,0.156402587890625,-0.20599365234375,0.2460479736328125,0.3569800549521158
1786720239.580035,-0.0351562462747097,0.2080077975988388,0.9648436903953552,0.9876368524967948,0.156402587890625,-0.14495849609375,0.2460479736328125,0.32559843429823127
1786720239.590739,-0.0332031212747097,0.2021484225988388,0.9667968153953552,0.9882623711748729,-0.0247955322265625,-0.2651214599609375,0.2460479736328125,0.3625518063381159
1786720239.601443,-0.0263671837747097,0.1962890625,0.9624022841453552,0.9825694789507433,-0.0247955322265625,-0.3910064697265625,0.2460479736328125,0.4626450941220937
1786720239.609407,-0.0302734337747097,0.19189453125,0.9643554091453552,0.9837282892466164,-0.4520416259765625,-0.3910064697265625,0.3681182861328125,0.7019535337676724
1786720239.61737,-0.024414055049419403,0.19970703125,0.9731444716453552,0.9937248648939816,-0.5130767822265625,-0.2079010009765625,0.1850128173828125,0.583695428509549
1786720239.625333,-0.02685546875,0.18994140625,0.9648436903953552,0.9837287740560087,-0.8792877197265625,0.0972747802734375,0.1850128173828125,0.9037914690541781
1786720239.633296,-0.0297851525247097,0.2119140475988388,0.9765624403953552,0.9997344241705268,-0.4520416259765625,0.0972747802734375,0.0629425048828125,0.4666538046707675
1786720239.644035,-0.01708984375,0.185546875,0.9614257216453552,0.9793156405485195,-0.820159912109375,0.16021728515625,0.2460479736328125,0.8711322891633108
1786720239.654774,-0.019531242549419403,0.19873046875,0.9707030653953552,0.9910296210573416,-0.6961822509765625,0.2803802490234375,0.0,0.7505216923029195
1786720239.665513,-0.02392578125,0.19873046875,0.9697265028953552,0.9901695474188614,-1.0013580322265625,0.2803802490234375,-0.1201629638671875,1.0467903947937454
1786720239.67349,-0.02197265625,0.20458984375,0.9731444716453552,0.9946607283301415,-0.3910064697265625,0.4634857177734375,-0.2422332763671875,0.6529793489288693
1786720239.681469,-0.0322265625,0.1953125,0.9550780653953552,0.9753766631338638,-0.2689361572265625,0.5855560302734375,-0.0591278076171875,0.6470692535478659
1786720239.689448,-0.0253906212747097,0.1879882663488388,0.9775390028953552,0.9957744594611789,-0.5741119384765625,0.2231597900390625,0.1201629638671875,0.6275698747366238
1786720239.697427,-0.02783203125,0.18994140625,0.9824218153953552,1.001001989576661,-0.3910064697265625,0.1583099365234375,-0.3032684326171875,0.519538100231513
1786720239.708587,-0.0214843712747097,0.1933593600988388,0.9609374403953552,0.980433671749639,-0.3910064697265625,0.4024505615234375,-0.0591278076171875,0.564223901897265
1786720239.719747,-0.020019523799419403,0.205078125,0.9731444716453552,0.9947200517636048,-0.148773193359375,0.46539306640625,-0.3032684326171875,0.5750616589057592
1786720239.730907,-0.02294921875,0.1904296875,0.9702147841453552,0.9889928512870056,-0.331878662109375,0.40435791015625,0.0629425048828125,0.5268875826875801
1786720239.738584,-0.019531242549419403,0.20556640625,0.9653319716453552,0.9871701131490829,-0.5130767822265625,0.7686614990234375,0.1201629638671875,0.9319481865566714
1786720239.746263,-0.0073242150247097015,0.1938476413488388,0.9677733778953552,0.9870237399096449,-0.270843505859375,0.83160400390625,-0.2422332763671875,0.9075232141155871
1786720239.753942,-0.03759765625,0.19970703125,0.9726561903953552,0.9936581639581025,-0.3910064697265625,0.7114410400390625,-0.0591278076171875,0.8139597720118036
1786720239.761621,-0.03662109375,0.18994140625,0.9780272841453552,0.9969735256507132,-0.51116943359375,0.64849853515625,-0.0591278076171875,0.8278530289694979
1786720239.772676,-0.0341796837747097,0.1923827975988388,0.9794921278953552,0.9987913797204429,-0.2689361572265625,0.5855560302734375,0.1201629638671875,0.655470563136686
1786720239.783731,-0.02880859375,0.19775390625,0.9780272841453552,0.9982353986128351,-0.270843505859375,0.46539306640625,-0.1201629638671875,0.5517119255649242
1786720239.794786,-0.0327148400247097,0.1977538913488388,0.9746093153953552,0.9950076280897818,-0.148773193359375,0.03814697265625,0.1850128173828125,0.24045456365207252
1786720239.804967,-0.0361328087747097,0.1953125,0.9809569716453552,1.0008641929581785,-0.0247955322265625,0.2803802490234375,-0.1850128173828125,0.33683474443229466
1786720239.815151,-0.0375976525247097,0.1879882663488388,0.9648436903953552,0.9837055040284866,-0.0858306884765625,-0.0247955322265625,-0.2422332763671875,0.2581834341748933
1786720239.825335,-0.0395507737994194,0.19873046875,0.9560546278953552,0.9772914173560789,-0.0858306884765625,0.2231597900390625,0.0,0.23909663103991904
1786720239.836016,-0.0302734337747097,0.2026367038488388,0.9785155653953552,0.9997353781177424,0.034332275390625,-0.02288818359375,0.0629425048828125,0.07526176321773094
1786720239.846698,-0.0351562462747097,0.19677734375,0.9589843153953552,0.9795959380477911,-0.148773193359375,0.03814697265625,0.1201629638671875,0.19500716004939325
1786720239.85738,-0.0380859337747097,0.1977538913488388,0.9653319716453552,0.9861150822169839,-0.3910064697265625,0.1583099365234375,0.3681182861328125,0.5598742429826927
1786720239.865364,-0.0263671837747097,0.19091796875,0.9536132216453552,0.972894174958751,-0.2079010009765625,0.1583099365234375,0.1201629638671875,0.28761780211673
1786720239.873348,-0.0302734337747097,0.2060546875,0.9726561903953552,0.9947035134891401,-0.0858306884765625,0.0972747802734375,0.2460479736328125,0.2781526474625389
1786720239.881332,-0.0234374962747097,0.1972656100988388,0.9721679091453552,0.9922567614943956,-0.453948974609375,-0.20599365234375,0.3032684326171875,0.5835021838664414
1786720239.889316,-0.0380859375,0.20458984375,0.9755858778953552,0.9975346349624931,-0.2079010009765625,0.0972747802734375,0.3032684326171875,0.38033794355334544
1786720239.899977,-0.020996086299419403,0.19970703125,0.9780272841453552,0.998429317730264,-0.331878662109375,0.03814697265625,0.1850128173828125,0.3818748230536694
1786720239.910638,-0.0356445275247097,0.201171875,0.9638671278953552,0.9852819372497988,-0.5130767822265625,-0.2079010009765625,0.0629425048828125,0.5571645803422387
1786720239.921299,-0.0268554650247097,0.2026367038488388,0.9692382216453552,0.9905582163844112,-0.5741119384765625,-0.3910064697265625,0.0629425048828125,0.6974613510369362
1786720239.931955,-0.0336913987994194,0.19140625,0.9736327528953552,0.9928404707719725,-0.6961822509765625,-0.0247955322265625,0.0629425048828125,0.699461438475428
1786720239.942614,-0.02197265625,0.205078125,0.9741210341453552,0.9957166384773394,-0.5741119384765625,-0.0247955322265625,0.1850128173828125,0.6036961809682423
1786720239.953273,-0.0205078087747097,0.18701171875,0.9614257216453552,0.9796598243328453,-0.6961822509765625,0.0972747802734375,0.4863739013671875,0.8548050546078783
1786720239.963967,-0.0234375,0.18798828125,0.9677733778953552,0.9861410757374247,-0.453948974609375,0.22125244140625,0.1201629638671875,0.5190967657985128
1786720239.974659,-0.033203125,0.19384765625,0.9853515028953552,1.0047870150442426,-0.5741119384765625,-0.0858306884765625,0.1850128173828125,0.6092628066619551
1786720239.985351,-0.02294921875,0.20458984375,0.9667968153953552,0.9884734458069602,-0.270843505859375,-0.32806396484375,0.1850128173828125,0.463909379395507
1786720239.993428,-0.033203125,0.1865234375,0.9750975966453552,0.9933321515133444,-0.02288818359375,-0.32806396484375,-0.1850128173828125,0.3773321833254465
1786720240.001507,-0.0263671837747097,0.1928710788488388,0.9794921278953552,0.998648742073756,0.0972747802734375,-0.3299713134765625,0.1201629638671875,0.3643934528501307
1786720240.009586,-0.0371093712747097,0.1889648288488388,0.9799804091453552,0.9987223910011095,0.2803802490234375,-0.0247955322265625,0.1850128173828125,0.33683474443229466
1786720240.017665,-0.0385742112994194,0.1875,0.9624022841453552,0.9812555102039271,0.217437744140625,0.03814697265625,0.2460479736328125,0.3305661347274003
1786720240.02826,-0.0302734337747097,0.1933593600988388,0.9843749403953552,1.0036425390589536,0.4634857177734375,0.0972747802734375,-0.1850128173828125,0.508439904072379
1786720240.038855,-0.0263671837747097,0.1767578125,0.9702147841453552,0.9865370140213761,0.827789306640625,0.03814697265625,0.3032684326171875,0.8824183077959619
1786720240.04945,-0.0278320275247097,0.19677734375,0.9633788466453552,0.9836639400390648,0.5855560302734375,0.4024505615234375,0.1850128173828125,0.7342152692882673
1786720240.060104,-0.024414055049419403,0.1953125,0.9838866591453552,1.0033822685220297,0.705718994140625,0.34332275390625,-0.0591278076171875,0.787023449253097
1786720240.070758,-0.02294921875,0.2060546875,0.9804686903953552,1.0021497162238489,1.010894775390625,0.34332275390625,0.3681182861328125,1.1292873119127802
1786720240.081412,-0.033203125,0.1806640625,0.9892577528953552,1.0061674078662741,1.316070556640625,-0.08392333984375,0.0,1.318743658573149
1786720240.089576,-0.0268554650247097,0.17138671875,0.9716796278953552,0.9870440327728247,1.2569427490234375,0.0972747802734375,0.2460479736328125,1.284487081495433
1786720240.09774,-0.025390617549419403,0.205078125,0.9731444716453552,0.9948426425857378,1.2569427490234375,0.1583099365234375,0.0,1.266872965346033
1786720240.105904,-0.0297851525247097,0.2119140475988388,0.9741210341453552,0.9973497420890324,1.4400482177734375,0.0400543212890625,0.4291534423828125,1.5031686183776587
1786720240.114068,-0.0341796800494194,0.19580078125,0.9653319716453552,0.9855820675860026,1.44195556640625,0.16021728515625,0.1850128173828125,1.4625782633926754
1786720240.121966,-0.0312499962747097,0.2036132663488388,0.9575194716453552,0.979427620133521,1.377105712890625,0.34332275390625,0.3681182861328125,1.4662202189340887
1786720240.129864,-0.0224609337747097,0.20166015625,0.9770507216453552,0.9978975021676905,1.316070556640625,0.09918212890625,0.1850128173828125,1.332707224917261
1786720240.137762,-0.04248046875,0.2001953125,0.9633788466453552,0.9848764163771652,1.1348724365234375,0.4024505615234375,0.3681182861328125,1.2591318335410844
1786720240.14566,-0.029296867549419403,0.19921875,0.9614257216453552,0.9822860250665602,0.827789306640625,-0.02288818359375,0.4291534423828125,0.9327012824295922
1786720240.156214,-0.0268554650247097,0.2041015475988388,0.9731444716453552,0.994680260399216,0.7686614990234375,-0.2079010009765625,0.3681182861328125,0.8772538964708985
1786720240.166768,-0.0224609375,0.19921875,0.9643554091453552,0.9849740906302291,0.7686614990234375,0.2803802490234375,0.2460479736328125,0.8543963889508288
1786720240.177322,-0.0346679612994194,0.19970703125,0.9624022841453552,0.98351559336878,0.583648681640625,0.34332275390625,0.0629425048828125,0.6800573915865734
1786720240.185432,-0.0380859375,0.201171875,0.9711913466453552,0.992538812200857,0.705718994140625,0.22125244140625,0.3032684326171875,0.7993520399305722
1786720240.193544,-0.033203125,0.19580078125,0.9716796278953552,0.9917669548410715,0.7686614990234375,-0.0247955322265625,0.0629425048828125,0.7716327348034682
1786720240.201656,-0.0302734337747097,0.1972656100988388,0.9667968153953552,0.9871809783311161,0.9517669677734375,-0.0247955322265625,0.1201629638671875,0.9596428071154335
1786720240.209768,-0.0410156212747097,0.1923827975988388,0.9726561903953552,0.9923474626938448,0.827789306640625,0.22125244140625,0.1201629638671875,0.8652322907185906
1786720240.22036,-0.03662109375,0.1953125,0.9790038466453552,0.9989677717074252,0.7076263427734375,-0.2079010009765625,0.1850128173828125,0.7603864871168431
1786720240.230952,-0.0419921837747097,0.1977538913488388,0.9667968153953552,0.9877074603850969,0.8907318115234375,-0.2651214599609375,-0.0591278076171875,0.9312296420460738
1786720240.241544,-0.0302734337747097,0.2026367038488388,0.9667968153953552,0.9882682817928714,0.46539306640625,-0.32806396484375,0.1201629638671875,0.5819414138668604
1786720240.252116,-0.024414055049419403,0.1962890625,0.9775390028953552,0.9973504621359185,0.4634857177734375,-0.2079010009765625,0.2460479736328125,0.5644301924204874
1786720240.26269,-0.05224609375,0.2001953125,0.9667968153953552,0.9886879688343067,0.339508056640625,-0.32806396484375,0.1850128173828125,0.5070714231238248
1786720240.273264,-0.0268554650247097,0.1972656100988388,0.9638671278953552,0.9842127702720594,0.339508056640625,-0.63323974609375,0.3681182861328125,0.8073223452513438
1786720240.284109,-0.0268554650247097,0.2021484225988388,0.9638671278953552,0.9852030455688477,0.156402587890625,-0.38909912109375,0.1850128173828125,0.45835536227990104
1786720240.294954,-0.01806640625,0.20361328125,0.9697265028953552,0.9910369588233514,-0.2079010009765625,-0.2079010009765625,0.1201629638671875,0.3176236614288367
1786720240.305799,-0.0400390587747097,0.20654296875,0.9775390028953552,0.9999228101955038,0.2803802490234375,-0.5130767822265625,0.3032684326171875,0.6586597078343975
1786720240.316372,-0.0209960900247097,0.2021484225988388,0.9707030653953552,0.9917506045994949,-0.2079010009765625,-0.2079010009765625,0.0,0.2940164152119968
1786720240.326944,-0.0161132775247097,0.1923827975988388,0.9697265028953552,0.9887569311727729,-0.2079010009765625,-0.2079010009765625,-0.1201629638671875,0.3176236614288367
1786720240.337516,-0.01416015625,0.203125,0.9775390028953552,0.9985202941511353,0.156402587890625,-0.26702880859375,-0.2422332763671875,0.39299251175749456
1786720240.345502,-0.014648433774709702,0.19677734375,0.9741210341453552,0.9939052715373704,0.034332275390625,-0.14495849609375,-0.3681182861328125,0.3971180470699093
1786720240.353489,-0.0214843712747097,0.2001953125,0.9677733778953552,0.9884963592846603,0.2193450927734375,0.2803802490234375,-0.1201629638671875,0.37571863362306074
1786720240.361476,-0.0307617150247097,0.2075195163488388,0.9721679091453552,0.9945456632799567,0.034332275390625,0.03814697265625,-0.6732940673828125,0.6752472123816771
1786720240.369463,-0.0253906212747097,0.1933593600988388,0.9687499403953552,0.988184685573781,-0.270843505859375,0.52642822265625,-0.4253387451171875,0.728969084648368
1786720240.38024,-0.0234375,0.19580078125,0.9589843153953552,0.9790496307739759,-0.3910064697265625,1.0166168212890625,-0.4253387451171875,1.169319831694379
1786720240.391017,-0.020019523799419403,0.18896484375,0.9545897841453552,0.9733191406220743,-0.2079010009765625,0.5855560302734375,-0.2422332763671875,0.666915025303993
1786720240.401794,-0.013671875,0.22314453125,0.9604491591453552,0.986125240167707,-0.2079010009765625,0.7114410400390625,-0.6084442138671875,0.9589450146110461
1786720240.412359,-0.0268554650247097,0.2060546875,0.9921874403953552,1.0137137994131789,-0.148773193359375,0.58746337890625,-0.6732940673828125,0.9058540642902616
1786720240.422926,-0.0361328087747097,0.201171875,0.9833983778953552,1.0044142934109317,0.339508056640625,0.34332275390625,-1.0356903076171875,1.1427119703432924
1786720240.433493,-0.0371093712747097,0.1884765475988388,0.9677733778953552,0.9866538528755501,0.4634857177734375,-0.0858306884765625,-0.9746551513671875,1.0826534910814791
1786720240.441539,-0.029785148799419403,0.19140625,0.9594725966453552,0.9788315336877161,0.339508056640625,0.28228759765625,-0.6084442138671875,0.751768827301911
1786720240.449584,-0.033203125,0.20556640625,0.9692382216453552,0.9913539858126139,-0.0247955322265625,0.2803802490234375,-0.6732940673828125,0.7297621555231092
1786720240.457629,-0.0449218675494194,0.19970703125,0.9755858778953552,0.996829312201275,0.156402587890625,0.46539306640625,-0.5474090576171875,0.7353292814237946
1786720240.465674,-0.0346679650247097,0.2026367038488388,0.9692382216453552,0.9908008033121124,0.034332275390625,0.46539306640625,-0.5474090576171875,0.7193233541001204
1786720240.473719,-0.0336914025247097,0.1874999850988388,0.9667968153953552,0.9853869479928925,-0.148773193359375,0.46539306640625,-0.6084442138671875,0.7803387281878416
1786720240.481764,-0.0395507775247097,0.20654296875,0.9570311903953552,0.979863746309875,-0.2079010009765625,0.7686614990234375,-0.4863739013671875,0.9330717540570785
1786720240.491518,-0.03271484375,0.20361328125,0.9814452528953552,1.0028775666719274,0.46539306640625,0.64849853515625,-0.1850128173828125,0.8193721980606494
1786720240.501272,-0.0444335862994194,0.19580078125,0.9736327528953552,0.9941192217436127,0.2193450927734375,0.2803802490234375,-0.3032684326171875,0.46765061315935247
1786720240.511026,-0.03271484375,0.19970703125,0.9833983778953552,1.0040047454964998,0.522613525390625,0.03814697265625,-0.1201629638671875,0.5376050839876806
1786720240.52078,-0.03271484375,0.201171875,0.9848632216453552,1.0057315494913495,0.77056884765625,0.34332275390625,0.1201629638671875,0.8521068009430506
1786720240.530534,-0.0234375,0.19873046875,0.9755858778953552,0.9958970432553235,0.339508056640625,0.22125244140625,-0.0591278076171875,0.4095295605761995
1786720240.53995,-0.0351562462747097,0.2021484225988388,0.9653319716453552,0.9868970371280054,0.8907318115234375,-0.2651214599609375,-0.1201629638671875,0.9370868083998358
1786720240.549363,-0.0234374962747097,0.1972656100988388,0.9726561903953552,0.992735162001276,0.46539306640625,-0.14495849609375,0.1201629638671875,0.5020386536255161
1786720240.558776,-0.03271484375,0.1865234375,0.9697265028953552,0.9880438978891872,0.217437744140625,-0.45013427734375,-0.1850128173828125,0.5330382564250618
1786720240.568189,-0.0336913987994194,0.19580078125,0.9575194716453552,0.977914410810666,0.4024505615234375,-0.0858306884765625,0.4291534423828125,0.5945637381003898
1786720240.577602,-0.0253906212747097,0.19091796875,0.9697265028953552,0.9886677120539524,0.2803802490234375,-0.3910064697265625,0.2460479736328125,0.54040609613446
1786720240.585611,-0.0263671837747097,0.1977538913488388,0.9697265028953552,0.9900360197192186,0.0972747802734375,-0.0858306884765625,-0.1850128173828125,0.22596245829237252
1786720240.59362,-0.0278320275247097,0.20654296875,0.9594725966453552,0.9818463644631884,0.0362396240234375,-0.0858306884765625,-0.1201629638671875,0.15205050252816607
1786720240.601629,-0.01904296875,0.19384765625,0.9726561903953552,0.9919675464483891,-0.0858306884765625,-0.0247955322265625,0.1201629638671875,0.1497359789366144
1786720240.609638,-0.0419921837747097,0.1928710788488388,0.9790038466453552,0.9987047252821457,0.339508056640625,-0.14495849609375,0.0,0.36915943183624006
1786720240.617647,-0.02880859375,0.1982421875,0.9663085341453552,0.9868546413432846,0.156402587890625,0.09918212890625,-0.1201629638671875,0.22076685004458363
1786720240.625656,-0.0166015587747097,0.2041015475988388,0.9804686903953552,1.0016246334488654,0.034332275390625,0.03814697265625,0.1850128173828125,0.19199906055046292
1786720240.635189,-0.0322265587747097,0.2031249850988388,0.9653319716453552,0.9869975309708592,0.156402587890625,-0.32806396484375,0.0,0.36343876310581663
1786720240.644722,-0.0361328087747097,0.2041015475988388,0.9716796278953552,0.9935413030513863,0.339508056640625,0.16021728515625,-0.4863739013671875,0.6144061123702071
1786720240.654255,-0.0185546875,0.185546875,0.9697265028953552,0.9874924858793325,0.156402587890625,0.34332275390625,-0.0591278076171875,0.3818748230536694
1786720240.663788,-0.02392578125,0.21630859375,0.9599608778953552,0.9843204446866612,-0.148773193359375,0.16021728515625,-0.1850128173828125,0.28641365910359623
1786720240.673321,-0.0263671837747097,0.19189453125,0.9765624403953552,0.9955867312769884,0.0362396240234375,0.0972747802734375,-0.2422332763671875,0.26353871329690426
1786720240.682927,-0.00927734375,0.19921875,0.9804686903953552,1.0005463668937093,0.034332275390625,0.16021728515625,0.0629425048828125,0.17552789669240532
1786720240.692531,-0.024902336299419403,0.2158203125,0.9482421278953552,0.9728112184572494,-0.148773193359375,-0.26702880859375,0.0,0.3056760502253056
1786720240.702135,-0.0234375,0.1884765625,0.9907225966453552,1.008763596945182,-0.0858306884765625,-0.5741119384765625,-0.4253387451171875,0.7196419061474538
1786720240.711739,-0.0219726525247097,0.1962890625,0.9702147841453552,0.9901156098609489,0.4024505615234375,-0.0858306884765625,0.0,0.4115013506112597
1786720240.721343,-0.0336914025247097,0.2172851413488388,0.9443358778953552,0.9695969232291624,-0.51116943359375,0.03814697265625,-0.1850128173828125,0.544957910264011
1786720240.730944,-0.0410156212747097,0.1894531100988388,0.9799804091453552,0.9989676493377405,0.156402587890625,-0.38909912109375,-0.1850128173828125,0.45835536227990104
1786720240.740543,-0.0346679612994194,0.2060546875,0.9433593153953552,0.9662231624860657,0.156402587890625,-0.02288818359375,0.1850128173828125,0.24334210700787443
1786720240.750142,-0.0371093712747097,0.1982421725988388,0.9838866591453552,1.0043455692525958,-0.331878662109375,0.03814697265625,0.1201629638671875,0.3550179935886242
1786720240.759741,-0.029296867549419403,0.203125,0.9785155653953552,0.999805372957257,-0.331878662109375,-0.20599365234375,-0.0591278076171875,0.3950606647124484
1786720240.76934,-0.0380859337747097,0.1977538913488388,0.9501952528953552,0.9713023002752377,0.0972747802734375,0.1583099365234375,0.1850128173828125,0.2622101475443433
1786720240.778936,-0.0219726525247097,0.1992187350988388,0.9794921278953552,0.9997878427358096,-0.453948974609375,-0.02288818359375,-0.2422332763671875,0.5150441735198122
1786720240.788535,-0.015136711299419403,0.189453125,0.9716796278953552,0.9900923723916287,-0.02288818359375,0.16021728515625,-0.0591278076171875,0.17230654382430016
1786720240.798134,-0.0322265587747097,0.21142578125,0.9560546278953552,0.979683552780059,-0.148773193359375,0.46539306640625,0.1201629638671875,0.5031533635053086
1786720240.807733,-0.03173828125,0.2001953125,0.9804686903953552,1.0012014455089744,-0.270843505859375,-0.14495849609375,-0.3032684326171875,0.431672228059722
1786720240.817332,-0.01416015625,0.1826171875,0.9794921278953552,0.9964709608435187,-0.0247955322265625,0.2231597900390625,-0.1850128173828125,0.2909378849593206
1786720240.826926,-0.02783203125,0.205078125,0.9306640028953552,0.9533976849154934,-0.5741119384765625,0.4024505615234375,0.0,0.7011212251614171
1786720240.83652,-0.0356445275247097,0.2080077975988388,0.9672850966453552,0.9900395115330466,-0.453948974609375,-0.14495849609375,-0.6084442138671875,0.7728434502065243
1786720240.846114,-0.0200195275247097,0.1982421725988388,0.9868163466453552,1.0067309682757883,0.0972747802734375,0.2231597900390625,-0.1201629638671875,0.271480777685771
1786720240.855708,-0.0205078087747097,0.20654296875,0.9531249403953552,0.975462823568614,-0.331878662109375,0.77056884765625,-0.1850128173828125,0.8591562942432044
1786720240.865302,-0.029296867549419403,0.1904296875,0.9736327528953552,0.9925132290504463,-0.148773193359375,-0.38909912109375,-0.4253387451171875,0.5953525318633813
1786720240.874912,-0.0244140587747097,0.2080077975988388,0.9731444716453552,0.9954262668935816,0.339508056640625,0.22125244140625,-0.3032684326171875,0.5061522553285775
1786720240.884524,-0.0385742112994194,0.17822265625,0.9619140028953552,0.9790453686854064,0.400543212890625,0.16021728515625,-0.4253387451171875,0.6058196860068575
1786720240.894136,-0.0273437462747097,0.2080077975988388,0.9951171278953552,1.016992144784293,-0.0858306884765625,-0.3910064697265625,-0.4863739013671875,0.6299305821942038
1786720240.903748,-0.0361328087747097,0.2133788913488388,0.9614257216453552,0.9854823942539518,0.6465911865234375,-0.0858306884765625,-0.4253387451171875,0.7786912852164273
1786720240.91336,-0.03759765625,0.205078125,0.9687499403953552,0.990932423591545,0.400543212890625,0.16021728515625,-0.1850128173828125,0.46939768475303495
1786720240.921397,-0.0209960900247097,0.171875,0.9882811903953552,1.0033352195107008,0.034332275390625,0.16021728515625,0.1850128173828125,0.24713968963374291
1786720240.929432,-0.0312499962747097,0.2089843600988388,0.9609374403953552,0.9838962289726836,0.0972747802734375,0.5283355712890625,-0.4253387451171875,0.6852108484725336
1786720240.937467,-0.0405273400247097,0.20166015625,0.9614257216453552,0.9831829443951644,0.034332275390625,0.34332275390625,0.1201629638671875,0.365360584038038
1786720240.945502,-0.02685546875,0.19970703125,0.9672850966453552,0.9880508958169538,0.4024505615234375,0.0972747802734375,0.0,0.4140396567332358
1786720240.953537,-0.0371093712747097,0.201171875,0.9628905653953552,0.9843807544110189,-0.148773193359375,0.46539306640625,0.0,0.48859407417748957
1786720240.97116,-0.0434570237994194,0.19921875,0.9970702528953552,1.0177061031937822,-1.07574462890625,0.156402587890625,-0.0705718994140625,1.0893432283290876
1786720240.980744,-0.0351562462747097,0.1977538913488388,0.9785155653953552,0.9989170510691706,-0.4673004150390625,-0.3299713134765625,-0.0095367431640625,0.572137828746977
1786720240.990328,-0.0356445237994194,0.185546875,0.9584960341453552,0.9769405418814018,0.08392333984375,-0.514984130859375,-0.0705718994140625,0.5265284180311866
1786720240.999912,-0.04150390625,0.2001953125,0.9658202528953552,0.9872231248729081,0.0209808349609375,-0.7572174072265625,-0.3147125244140625,0.8202818846382308
1786720241.009496,-0.0341796800494194,0.19873046875,0.9677733778953552,0.9885582232225179,0.1468658447265625,-0.7572174072265625,-0.0705718994140625,0.7745503025246798
1786720241.020212,-0.0302734337747097,0.1826171875,0.9702147841453552,0.9877156702903626,0.08392333984375,-0.08392333984375,0.1735687255859375,0.21026734516463935
1786720241.030931,-0.0449218712747097,0.2026367038488388,0.9765624403953552,0.9983755847658111,-0.1010894775390625,-0.2689361572265625,0.1735687255859375,0.3356662652612524
1786720241.04165,-0.0419921837747097,0.1982421725988388,0.9692382216453552,0.9901949468630546,-0.22125244140625,-0.331878662109375,0.2346038818359375,0.46274730746296655
1786720241.049553,-0.0234375,0.19189453125,0.9653319716453552,0.9844991838547232,-0.1621246337890625,-0.3910064697265625,0.2346038818359375,0.4839518959790915
1786720241.057458,-0.0214843712747097,0.2143554538488388,0.9648436903953552,0.9886016314469339,0.3261566162109375,-0.5741119384765625,0.4787445068359375,0.8155850409522419
1786720241.065363,-0.015136715024709702,0.1977538913488388,0.9765624403953552,0.9964988317485772,0.3261566162109375,-0.4520416259765625,0.1125335693359375,0.5686682461164765
1786720241.073268,-0.0307617150247097,0.19677734375,0.9897460341453552,1.009586459017268,0.45013427734375,-0.38909912109375,0.4177093505859375,0.726980120252703
1786720241.083966,-0.01904296875,0.19140625,0.9770507216453552,0.9958047498709701,0.4520416259765625,-0.4520416259765625,0.4177093505859375,0.7636519919426613
1786720241.094664,-0.013671875,0.205078125,0.9799804091453552,1.0013019324001273,0.6923675537109375,-0.0858306884765625,0.2956390380859375,0.7577217017852973
1786720241.105362,-0.020019523799419403,0.20458984375,0.9560546278953552,0.977905024539158,0.6923675537109375,0.0972747802734375,0.2346038818359375,0.7374782665824153
1786720241.113363,-0.02880859375,0.2001953125,0.9672850966453552,0.9882047138184675,0.3261566162109375,0.0972747802734375,0.3566741943359375,0.49300811563361147
1786720241.121364,-0.0161132775247097,0.19677734375,0.9653319716453552,0.9853155718888253,0.3261566162109375,-0.0858306884765625,0.2346038818359375,0.41083333208859774
1786720241.129365,-0.02783203125,0.18994140625,0.9765624403953552,0.9952520081681123,0.57220458984375,-0.148773193359375,0.0514984130859375,0.5934674736251094
1786720241.137366,-0.0297851525247097,0.2026367038488388,0.9707030653953552,0.9920752139961876,0.2040863037109375,-0.0858306884765625,0.1125335693359375,0.24835847212092443
1786720241.145362,-0.037109375,0.20556640625,0.9594725966453552,0.9819482251141407,-0.0362396240234375,0.0362396240234375,0.1735687255859375,0.18097713446799485
1786720241.153358,-0.02734375,0.208984375,0.9628905653953552,0.985687775406386,0.14495849609375,-0.331878662109375,-0.0095367431640625,0.36228077705482487
1786720241.161354,-0.0258789025247097,0.20166015625,0.9663085341453552,0.9874658066874027,0.20599365234375,-0.026702880859375,-0.0095367431640625,0.20793599525403245
1786720241.16935,-0.02392578125,0.2001953125,0.9702147841453552,0.990942648960884,0.08392333984375,0.09918212890625,0.1125335693359375,0.1718837569184238
1786720241.180011,-0.033203125,0.21533203125,0.9672850966453552,0.9915194346981964,-0.3414154052734375,0.5855560302734375,-0.3147125244140625,0.747318082593138
1786720241.190672,-0.019531242549419403,0.19970703125,0.9687499403953552,0.9893133046624901,-0.28228759765625,0.278472900390625,-0.1316070556640625,0.41779643505308595
1786720241.201333,-0.0195312462747097,0.1874999850988388,0.9750975966453552,0.9931530783200825,0.2040863037109375,0.3414154052734375,-0.2536773681640625,0.47177103073319787
1786720241.211993,-0.0253906212747097,0.1982421725988388,0.9570311903953552,0.9776775245626618,-0.1621246337890625,0.5855560302734375,-0.0705718994140625,0.6116703805627121
1786720241.222653,-0.037109375,0.208984375,0.9599608778953552,0.9831462057072958,-0.5893707275390625,0.2193450927734375,-0.3147125244140625,0.7032169631250256
1786720241.233313,-0.02783203125,0.19384765625,0.9868163466453552,1.0060606531435394,-0.03814697265625,0.156402587890625,-0.1316070556640625,0.20793599525403245
1786720241.241724,-0.0322265587747097,0.19677734375,0.9604491591453552,0.9809293865548047,-0.1010894775390625,0.4024505615234375,-0.0095367431640625,0.41506202718368257
1786720241.250135,-0.0283203125,0.19140625,0.9887694716453552,1.0075234293538762,-0.4673004150390625,0.0362396240234375,-0.3147125244140625,0.5645590857192115
1786720241.258546,-0.02197265625,0.1904296875,0.9658202528953552,0.9846598521351808,-0.2841949462890625,-0.1468658447265625,-0.1926422119140625,0.3734265197527252
1786720241.266957,-0.033203125,0.20068359375,0.9536132216453552,0.9750664227666821,0.0209808349609375,-0.2689361572265625,0.1125335693359375,0.29228523111326493
1786720241.276229,-0.037109375,0.19482421875,0.9829100966453552,1.0027192229192676,-0.1621246337890625,-0.3299713134765625,-0.0705718994140625,0.3743605983348061
1786720241.2855,-0.015136715024709702,0.1928710788488388,0.9672850966453552,0.9864425129678204,-0.1621246337890625,0.0362396240234375,0.2956390380859375,0.3391167174749368
1786720241.294771,-0.0346679650247097,0.2031249850988388,0.9541015028953552,0.9761000487642306,-0.2841949462890625,-0.2689361572265625,0.1735687255859375,0.4280415010972183
1786720241.304042,-0.0356445237994194,0.205078125,0.9643554091453552,0.9865642019545958,-0.40435791015625,-0.026702880859375,0.2956390380859375,0.5016181856676434
1786720241.313313,-0.029296867549419403,0.1982421875,0.9731444716453552,0.993563502775193,-0.09918212890625,0.09918212890625,0.2956390380859375,0.3272256564347154
1786720241.322913,-0.0390624925494194,0.2109375,0.9619140028953552,0.9855450553864034,-0.28228759765625,0.156402587890625,0.4787445068359375,0.5773598185837031
1786720241.332513,-0.0332031212747097,0.2070312350988388,0.9604491591453552,0.9830701739306068,-0.77056884765625,-0.026702880859375,-0.0705718994140625,0.7742543418098342
1786720241.342113,-0.0385742112994194,0.1767578125,0.9790038466453552,0.9955801453441906,-0.4673004150390625,-0.0858306884765625,-0.1316070556640625,0.49300811563361147
1786720241.351713,-0.0356445237994194,0.1953125,0.9785155653953552,0.9984539130346123,-0.1621246337890625,-0.0247955322265625,0.1125335693359375,0.1989045487843915
1786720241.361313,-0.033203125,0.19970703125,0.9643554091453552,0.985376426036446,-0.34332275390625,0.156402587890625,0.2956390380859375,0.4793065028653738
1786720241.371035,-0.0263671837747097,0.1894531100988388,0.9726561903953552,0.9912859194101051,-0.6504058837890625,-0.3910064697265625,0.1735687255859375,0.7784856938550555
1786720241.380759,-0.0249023400247097,0.2070312350988388,0.9716796278953552,0.9938024743942394,-0.40435791015625,-0.514984130859375,0.1735687255859375,0.6773773520309357
1786720241.390483,-0.024902336299419403,0.19091796875,0.9565429091453552,0.9757274897127038,-0.3414154052734375,-0.2689361572265625,0.2346038818359375,0.4938928193386764
1786720241.400207,-0.04638671875,0.19970703125,0.9682616591453552,0.9897298957685355,-0.3414154052734375,-0.2689361572265625,0.1125335693359375,0.44894870514269464
1786720241.409931,-0.02880859375,0.2099609375,0.9721679091453552,0.9949994843826719,-0.4673004150390625,-0.4520416259765625,0.3566741943359375,0.7415711634202106
1786720241.419482,-0.0458984300494194,0.18994140625,0.9702147841453552,0.9896974947242451,-0.40435791015625,-0.453948974609375,0.1735687255859375,0.6322191815789516
1786720241.429033,-0.0209960900247097,0.1845702975988388,0.9716796278953552,0.9892766700063768,-0.28228759765625,-0.698089599609375,0.0514984130859375,0.7547631836700067
1786720241.438584,-0.0229492150247097,0.1874999850988388,0.9697265028953552,0.9879536432950539,-0.34332275390625,-0.698089599609375,0.2346038818359375,0.8125506653772672
1786720241.448135,-0.0175781212747097,0.1865234375,0.9873046278953552,1.0049230872797932,-0.2841949462890625,-0.3910064697265625,0.1735687255859375,0.5135941290219338
1786720241.457686,-0.0205078087747097,0.201171875,0.9653319716453552,0.9862841928128345,-0.2841949462890625,-0.2689361572265625,0.4787445068359375,0.6182958248165829
1786720241.467221,-0.033203125,0.208984375,0.9741210341453552,0.9968393580052518,-0.09918212890625,-0.38909912109375,0.1125335693359375,0.4170120201598402
1786720241.476757,-0.0332031212747097,0.1923827975988388,0.9819335341453552,1.0011528622311012,-0.28228759765625,-0.514984130859375,0.4787445068359375,0.7576880925902872
1786720241.486293,-0.0253906212747097,0.19091796875,0.9589843153953552,0.9781335653246135,-0.34332275390625,-0.331878662109375,0.1735687255859375,0.5080748588690516
1786720241.495829,-0.0200195275247097,0.20166015625,0.9760741591453552,0.9968893440359362,-0.4673004150390625,-0.4520416259765625,0.1125335693359375,0.659829609625622
1786720241.505365,-0.020019523799419403,0.1953125,0.9697265028953552,0.9894024683651547,-0.5245208740234375,-0.2689361572265625,0.2346038818359375,0.6344192504350665
1786720241.514957,-0.0312499962747097,0.1997070163488388,0.9707030653953552,0.9915260439413904,-0.4673004150390625,-0.5741119384765625,0.2956390380859375,0.7971051603379411
1786720241.524552,-0.014648430049419403,0.1943359375,0.9809569716453552,1.0001287983687615,-0.22125244140625,-0.38909912109375,0.1735687255859375,0.480080067661303
1786720241.534147,-0.0302734337747097,0.1972656100988388,0.9711913466453552,0.9914851655567003,-0.34332275390625,-0.331878662109375,0.1125335693359375,0.49058920079916807
1786720241.543742,-0.0170898400247097,0.2187499850988388,0.9638671278953552,0.9885259019621354,-0.58746337890625,-0.148773193359375,0.0514984130859375,0.6081930377508971
1786720241.553337,-0.0327148400247097,0.1977538913488388,0.9638671278953552,0.9844880408307111,-0.40435791015625,-0.148773193359375,0.2346038818359375,0.49058920079916807
1786720241.562953,-0.0322265587747097,0.19189453125,0.9731444716453552,0.9924072878148541,-0.46539306640625,-0.026702880859375,0.2956390380859375,0.552001984548589
1786720241.572571,-0.0263671837747097,0.2021484225988388,0.9477538466453552,0.9694310532319849,-0.8335113525390625,-0.1468658447265625,0.1125335693359375,0.8538000675721631
1786720241.582189,-0.0317382775247097,0.1894531100988388,0.9580077528953552,0.9770765854291905,-0.6504058837890625,-0.0858306884765625,-0.0095367431640625,0.6561140679957789
1786720241.591807,-0.0253906212747097,0.1982421725988388,0.9716796278953552,0.9920211398515051,-1.0128021240234375,-0.5741119384765625,0.1125335693359375,1.1696309095416335
1786720241.601425,-0.0224609337747097,0.1972656100988388,0.9965819716453552,1.0161662465769283,-0.89263916015625,-0.637054443359375,-0.0095367431640625,1.0966922920849567
1786720241.611008,-0.0278320275247097,0.2128906100988388,0.9814452528953552,1.0046550741698466,0.08392333984375,-0.453948974609375,0.1125335693359375,0.4751595550411659
1786720241.620595,-0.0336913987994194,0.205078125,0.9687499403953552,0.9907919028345868,0.3261566162109375,-0.5741119384765625,-0.0095367431640625,0.6603586947028579
1786720241.630182,-0.02294921875,0.19921875,0.9599608778953552,0.9806832638943213,0.57220458984375,-0.026702880859375,0.1125335693359375,0.5837764475481435
1786720241.639769,-0.02294921875,0.2001953125,0.9731444716453552,0.9937882030302662,0.57220458984375,0.034332275390625,-0.1926422119140625,0.6047378106112553
1786720241.649356,-0.0307617150247097,0.1943359225988388,0.9819335341453552,1.0014520454833524,0.5092620849609375,0.2193450927734375,0.1735687255859375,0.5810217236937665
1786720241.658964,-0.0249023400247097,0.20166015625,0.9565429091453552,0.9778861294617794,0.63323974609375,0.644683837890625,0.4177093505859375,0.995535498331018
1786720241.668575,-0.025878898799419403,0.20458984375,0.9677733778953552,0.9895009007230392,0.45013427734375,0.644683837890625,-0.0095367431640625,0.7863390286303631
1786720241.678186,-0.0200195275247097,0.2080077975988388,0.9765624403953552,0.9986702285214893,0.51116943359375,0.461578369140625,-0.4367828369140625,0.8155538163246928
1786720241.687797,-0.0322265625,0.185546875,0.9628905653953552,0.9811342594569914,0.3261566162109375,0.4634857177734375,0.1125335693359375,0.5778070206441019
1786720241.697408,-0.0253906212747097,0.1982421725988388,0.9604491591453552,0.9810235623818846,0.57220458984375,0.339508056640625,0.1125335693359375,0.6747945001180984
1786720241.706986,-0.02880859375,0.19970703125,0.9667968153953552,0.987627923695529,-0.22125244140625,-0.148773193359375,-0.1316070556640625,0.2973323443406985
1786720241.716568,-0.0234374962747097,0.1923827975988388,0.9624022841453552,0.9817222690617646,0.08392333984375,0.09918212890625,-0.1926422119140625,0.2323601589688906
1786720241.72615,-0.0351562462747097,0.1982421725988388,0.9677733778953552,0.9884944266974002,-0.1621246337890625,0.0362396240234375,-0.1316070556640625,0.2119389636927608
1786720241.735732,-0.0229492150247097,0.2026367038488388,0.9643554091453552,0.9856823298430777,-0.1010894775390625,0.2193450927734375,-0.1316070556640625,0.2750486671363309
1786720241.745314,-0.0371093712747097,0.19189453125,0.9692382216453552,0.9887483738840293,-0.03814697265625,-0.209808349609375,-0.0095367431640625,0.21346120153045073
1786720241.754922,-0.0283203125,0.21044921875,0.9736327528953552,0.9965197696399057,0.1468658447265625,0.0972747802734375,-0.0095367431640625,0.17641686057366968
1786720241.764526,-0.0263671837747097,0.1879882663488388,0.9667968153953552,0.9852567680171762,0.08392333984375,0.278472900390625,0.1125335693359375,0.3118558760869879
1786720241.77413,-0.01904296875,0.18603515625,0.9765624403953552,0.9943067504601923,0.2040863037109375,0.0972747802734375,0.1735687255859375,0.2850257966240337
1786720241.783734,-0.0341796800494194,0.20361328125,0.9628905653953552,0.9847765532124834,-0.40435791015625,-0.026702880859375,0.1735687255859375,0.4408451722018133
1786720241.793338,-0.02392578125,0.20849609375,0.9711913466453552,0.9936074153891215,-0.1621246337890625,0.1583099365234375,0.2956390380859375,0.3724900988263592
1786720241.802973,-0.0180664025247097,0.1879882663488388,0.9770507216453552,0.9951352148591347,-0.40435791015625,0.034332275390625,0.1735687255859375,0.4413730022791994
1786720241.812608,-0.02392578125,0.18896484375,0.9716796278953552,0.9901724367244025,-0.1010894775390625,0.0362396240234375,-0.0705718994140625,0.1285020848289602
1786720241.822243,-0.029785148799419403,0.1962890625,0.9790038466453552,0.9989319711034054,-0.16021728515625,0.278472900390625,-0.0095367431640625,0.32141512749866546
1786720241.831878,-0.02734375,0.20556640625,0.9638671278953552,0.9859234596457493,-0.40435791015625,0.156402587890625,-0.0095367431640625,0.43365659048951616
1786720241.841513,-0.0366210900247097,0.19091796875,0.9658202528953552,0.9851901014165092,-0.28228759765625,-0.026702880859375,-0.0705718994140625,0.29219809140998065
1786720241.849627,-0.0395507775247097,0.1977538913488388,0.9692382216453552,0.9899967655728317,0.0209808349609375,0.0362396240234375,-0.0705718994140625,0.08206033616752226
1786720241.857742,-0.0229492150247097,0.2021484225988388,0.9628905653953552,0.9841488160623046,0.02288818359375,-0.026702880859375,0.0514984130859375,0.0623618420573113
1786720241.865857,-0.02685546875,0.19970703125,0.9672850966453552,0.9880508958169538,0.14495849609375,-0.026702880859375,-0.1926422119140625,0.24256345818588232
1786720241.873972,-0.0307617150247097,0.1894531100988388,0.9648436903953552,0.983749008097651,0.08392333984375,-0.148773193359375,-0.1926422119140625,0.2574638068622813
1786720241.882087,-0.0400390550494194,0.20556640625,0.9716796278953552,0.993992943925985,0.0209808349609375,0.0972747802734375,0.1125335693359375,0.15022111216599981
1786720241.890202,-0.014648430049419403,0.19384765625,0.9780272841453552,0.9971603977642064,-0.03814697265625,-0.148773193359375,0.0514984130859375,0.16198994146413082
1786720241.899698,-0.0200195275247097,0.19189453125,0.9692382216453552,0.988254533459989,-0.2193450927734375,0.2193450927734375,0.3566741943359375,0.4726954837448375
1786720241.909194,-0.0166015587747097,0.1923827975988388,0.9628905653953552,0.9820616037159241,-0.28228759765625,0.156402587890625,0.1125335693359375,0.34177750294147186
1786720241.91869,-0.024902336299419403,0.189453125,0.9658202528953552,0.9845411996601681,-0.4673004150390625,0.0972747802734375,-0.1316070556640625,0.4951287487850905
1786720241.928186,-0.029296867549419403,0.189453125,0.9736327528953552,0.9923263226031352,-0.22125244140625,0.156402587890625,-0.1316070556640625,0.30122222598552456
1786720241.937682,-0.0351562425494194,0.18408203125,0.9741210341453552,0.9919848510858096,-0.2841949462890625,0.2193450927734375,0.1735687255859375,0.398754485519044
1786720241.947201,-0.025390617549419403,0.2001953125,0.9570311903953552,0.9780754296045189,-0.7724761962890625,0.2193450927734375,-0.0705718994140625,0.8061092584407616
1786720241.95672,-0.029296867549419403,0.19677734375,0.9916991591453552,1.0114577854320557,-0.22125244140625,-0.209808349609375,0.1125335693359375,0.3250169082086685
1786720241.966239,-0.0336913987994194,0.19482421875,0.9594725966453552,0.9796322015317738,-0.16021728515625,0.278472900390625,0.0514984130859375,0.32537489341554293
1786720241.975758,-0.0483398362994194,0.19677734375,0.9814452528953552,1.0021441249728444,-0.46539306640625,-0.209808349609375,0.0514984130859375,0.513090963061319
1786720241.985277,-0.0322265625,0.20068359375,0.9746093153953552,0.9955781103391057,-0.1621246337890625,-0.3910064697265625,0.1125335693359375,0.4379888816816622
1786720241.995005,-0.024902336299419403,0.19384765625,0.9819335341453552,1.0011945393708332,-0.28228759765625,-0.331878662109375,0.2956390380859375,0.5265284180311866
1786720242.004729,-0.0341796800494194,0.201171875,0.9682616591453552,0.9895296935363852,0.0820159912109375,-0.2689361572265625,0.1735687255859375,0.3304230348804838
1786720242.014453,-0.0283203087747097,0.1923827975988388,0.9829100966453552,1.0019607970317164,0.14495849609375,-0.331878662109375,0.2956390380859375,0.46750278372823495
1786720242.024177,-0.0341796800494194,0.20556640625,0.9648436903953552,0.9870912545466851,0.08392333984375,-0.38909912109375,0.6618499755859375,0.7723254774960906
1786720242.033901,-0.0380859337747097,0.1972656100988388,0.9677733778953552,0.9884075931730516,0.2040863037109375,-0.3910064697265625,0.3566741943359375,0.5672334260563392
1786720242.044369,-0.02197265625,0.1953125,0.9770507216453552,0.9966232402200141,0.2040863037109375,-0.4520416259765625,0.5397796630859375,0.7330449751953121
1786720242.054837,-0.0390624962747097,0.1928710788488388,0.9750975966453552,0.9947564800769455,-0.3414154052734375,-0.0858306884765625,0.0514984130859375,0.35578571161972783
1786720242.065305,-0.02197265625,0.19970703125,0.9594725966453552,0.9802822857048625,-0.2841949462890625,-0.4520416259765625,0.1125335693359375,0.5456850770721734
1786720242.076278,-0.024902336299419403,0.20068359375,0.9677733778953552,0.9886755494683634,-0.4062652587890625,-0.2689361572265625,0.1125335693359375,0.5000419196329648
1786720242.087251,-0.020507805049419403,0.21435546875,0.9658202528953552,0.9895340307204321,-0.46539306640625,-0.514984130859375,0.2346038818359375,0.732692529420417
1786720242.098224,-0.02197265625,0.1953125,0.9672850966453552,0.987051279554991,-0.52642822265625,-0.514984130859375,-0.2536773681640625,0.7789014929788295
1786720242.106054,-0.0205078087747097,0.1879882663488388,0.9702147841453552,0.9884719954959778,-0.70953369140625,0.034332275390625,0.0514984130859375,0.71222808911503
1786720242.113883,-0.0332031212747097,0.1874999850988388,0.9653319716453552,0.9839331822614565,-0.4673004150390625,-0.4520416259765625,0.0514984130859375,0.6521988930238876
1786720242.121712,-0.0224609375,0.18896484375,0.9755858778953552,0.9939718361380727,-0.40435791015625,-0.331878662109375,0.1735687255859375,0.551157752708755
1786720242.129541,-0.025390617549419403,0.21484375,0.9702147841453552,0.9940418742426406,-0.5245208740234375,0.0362396240234375,0.1125335693359375,0.5376795159415664
1786720242.140359,-0.0283203125,0.19140625,0.9531249403953552,0.9725664731229479,-0.70953369140625,-0.209808349609375,0.4177093505859375,0.849669761950674
1786720242.151177,-0.0400390587747097,0.1923827975988388,0.9692382216453552,0.9889575306037015,-0.34332275390625,-0.331878662109375,0.0514984130859375,0.48027705156883155
1786720242.161995,-0.0214843712747097,0.19091796875,0.9716796278953552,0.9904910642037875,-0.5893707275390625,-0.4520416259765625,0.2346038818359375,0.7789341868655841
1786720242.172486,-0.0351562462747097,0.2021484225988388,0.9741210341453552,0.9954957235346333,-0.4673004150390625,-0.7572174072265625,0.0514984130859375,0.8912911792747462
1786720242.18298,-0.0307617150247097,0.1987304538488388,0.9648436903953552,0.9855777104287389,-0.7724761962890625,-0.5741119384765625,0.1125335693359375,0.9690138265071457
1786720242.193474,-0.0327148400247097,0.1982421725988388,0.9702147841453552,0.9908011642750367,-0.7724761962890625,-0.8792877197265625,0.0514984130859375,1.171545327524943
1786720242.201532,-0.0205078087747097,0.1865234375,0.9726561903953552,0.9905915544117878,-0.8335113525390625,-0.9403228759765625,0.2346038818359375,1.2782751140770994
1786720242.209593,-0.0317382775247097,0.1992187350988388,0.9643554091453552,0.9852293021538298,-0.46539306640625,-0.514984130859375,-0.0095367431640625,0.6941831968336423
1786720242.217654,-0.020507805049419403,0.1953125,0.9697265028953552,0.989412468660998,-0.7724761962890625,-0.3910064697265625,0.1735687255859375,0.8830241421970149
1786720242.225715,-0.0336913987994194,0.19677734375,0.9785155653953552,0.9986736929985484,-0.9555816650390625,0.0362396240234375,-0.0705718994140625,0.9588691370020707
1786720242.23632,-0.0317382775247097,0.1987304538488388,0.9692382216453552,0.9899110272370197,-0.22125244140625,-0.026702880859375,0.3566741943359375,0.4205736173128388
1786720242.246925,-0.02685546875,0.20947265625,0.9829100966453552,1.005341866235359,-0.3414154052734375,-0.3910064697265625,0.3566741943359375,0.6298150674850872
1786720242.25753,-0.0361328087747097,0.2036132663488388,0.9580077528953552,0.9800728527567738,0.02288818359375,-0.514984130859375,0.1735687255859375,0.5439288799895935
1786720242.265598,-0.0361328087747097,0.201171875,0.9638671278953552,0.9852997226216023,-0.1010894775390625,-0.5741119384765625,-0.0705718994140625,0.5872001305835562
1786720242.273666,-0.0185546875,0.19970703125,0.9584960341453552,0.9792557491438512,-0.8335113525390625,-0.4520416259765625,0.1735687255859375,0.9639548272240552
1786720242.281734,-0.0341796837747097,0.1972656100988388,0.9580077528953552,0.9787036458081753,-1.19781494140625,-0.698089599609375,0.0514984130859375,1.3873506440295493
1786720242.289802,-0.0214843712747097,0.1889648288488388,0.9775390028953552,0.9958673540851642,-0.77056884765625,-0.514984130859375,-0.0705718994140625,0.9294973894542015
1786720242.300322,-0.01904296875,0.197265625,0.9775390028953552,0.9974261193928597,-0.2841949462890625,-0.1468658447265625,-0.0705718994140625,0.3275923332900183
1786720242.310842,-0.0205078087747097,0.1982421725988388,0.9809569716453552,1.0009980566599888,0.6923675537109375,-0.2689361572265625,0.0514984130859375,0.7445478981541941
1786720242.321362,-0.0317382775247097,0.19677734375,0.9702147841453552,0.9904773438336484,0.20599365234375,-0.331878662109375,-0.3147125244140625,0.5016181856676434
1786720242.329717,-0.02294921875,0.193359375,0.9624022841453552,0.9819025771785218,-0.09918212890625,0.09918212890625,-0.1926422119140625,0.23829647752305225
1786720242.338072,-0.00341796875,0.19677734375,0.9765624403953552,0.9961963689527348,0.08392333984375,0.156402587890625,0.2956390380859375,0.34482943219770645
1786720242.346427,-0.0185546875,0.2099609375,0.9589843153953552,0.9818751391487615,0.26702880859375,0.522613525390625,-0.0705718994140625,0.5911088516738043
1786720242.354782,-0.0366210900247097,0.2070312350988388,0.9775390028953552,0.9998927636115754,0.57220458984375,0.644683837890625,-0.1926422119140625,0.883258945772293
1786720242.366431,-0.02294921875,0.2060546875,0.9765624403953552,0.9983283031512679,0.45013427734375,0.461578369140625,-0.0095367431640625,0.6447995099009276
1786720242.37808,-0.0278320275247097,0.2075195163488388,0.9833983778953552,1.0054408690067298,0.57220458984375,0.522613525390625,-0.1926422119140625,0.7985324109706594
1786720242.389729,-0.0317382775247097,0.21142578125,0.9711913466453552,0.9944449763743728,0.8144378662109375,0.6465911865234375,-0.3757476806640625,1.1057013701413387
1786720242.401378,-0.019531242549419403,0.20458984375,0.9648436903953552,0.986489645407848,0.9975433349609375,0.8907318115234375,-0.4367828369140625,1.4068671265643782
1786720242.409373,-0.024902336299419403,0.19384765625,0.9702147841453552,0.9897038787238361,0.6351470947265625,0.5855560302734375,-0.0095367431640625,0.8639320841358753
1786720242.417369,-0.0307617150247097,0.20654296875,0.9624022841453552,0.9847966478311764,0.3261566162109375,0.8296966552734375,-0.7419586181640625,1.1598608835278579
1786720242.425365,-0.0380859375,0.203125,0.9687499403953552,0.9905487122177578,0.26702880859375,0.766754150390625,-0.4367828369140625,0.9219520369210881
1786720242.433361,-0.0244140587747097,0.19189453125,0.9584960341453552,0.9778211517766867,0.3871917724609375,0.5245208740234375,-0.4367828369140625,0.7847412711017878
1786720242.443998,-0.0449218675494194,0.20458984375,0.9721679091453552,0.9944774617465338,0.14495849609375,0.461578369140625,-0.3757476806640625,0.6125796894875826
1786720242.454635,-0.0268554650247097,0.19580078125,0.9721679091453552,0.9920532271566155,0.2040863037109375,0.5245208740234375,-0.2536773681640625,0.617353686121132
1786720242.465272,-0.0283203125,0.19482421875,0.9721679091453552,0.9919016886182306,0.3871917724609375,0.5245208740234375,-0.3147125244140625,0.7239361774154025
1786720242.476191,-0.0273437462747097,0.1879882663488388,0.9790038466453552,0.9972641578295992,0.08392333984375,0.156402587890625,-0.0095367431640625,0.17775220375452883
1786720242.487108,-0.0200195275247097,0.18212890625,0.9682616591453552,0.9854452600449454,0.0209808349609375,0.1583099365234375,-0.0705718994140625,0.17459273875113324
1786720242.498025,-0.029296867549419403,0.1796875,0.9716796278953552,0.9885884904100969,0.26702880859375,0.09918212890625,0.1125335693359375,0.30627648218702624
1786720242.505842,-0.025390617549419403,0.18505859375,0.9760741591453552,0.9937867632100865,0.5092620849609375,-0.2689361572265625,0.2346038818359375,0.6218629344277097
1786720242.51366,-0.024902336299419403,0.1904296875,0.9804686903953552,0.9991008182761637,0.5092620849609375,-0.3299713134765625,-0.1316070556640625,0.6209262081735418
1786720242.521478,-0.0268554650247097,0.1977538913488388,0.9770507216453552,0.9972241123303283,0.5092620849609375,0.0972747802734375,0.1735687255859375,0.5467507261609564
1786720242.529296,-0.0253906212747097,0.1987304538488388,0.9775390028953552,0.9978581958962538,0.0820159912109375,-0.2689361572265625,0.4177093505859375,0.5035219767249773
1786720242.53998,-0.0292968712747097,0.1874999850988388,0.9741210341453552,0.9924345521206767,0.45013427734375,-0.148773193359375,0.2956390380859375,0.5587099171685647
1786720242.550664,-0.0283203125,0.19091796875,0.9667968153953552,0.9858741264230055,0.20599365234375,-0.026702880859375,0.2346038818359375,0.313345512213911
1786720242.561348,-0.0205078087747097,0.19091796875,0.9663085341453552,0.9852017175048525,0.26702880859375,-0.209808349609375,0.4177093505859375,0.5383354249459467
1786720242.572015,-0.0302734337747097,0.19189453125,0.9663085341453552,0.9856430261906762,0.26702880859375,0.09918212890625,0.1735687255859375,0.3335679568167483
1786720242.582685,-0.0249023400247097,0.20166015625,0.9624022841453552,0.9836183719744552,0.26702880859375,-0.148773193359375,0.1125335693359375,0.3257324851911915
1786720242.593355,-0.019531242549419403,0.1982421875,0.9736327528953552,0.9938018775645864,0.0209808349609375,-0.1468658447265625,0.0514984130859375,0.1570409447668815
1786720242.601333,-0.0297851525247097,0.1865234375,0.9531249403953552,0.9716611034982239,-0.1010894775390625,0.5245208740234375,0.0514984130859375,0.5366500873994164
1786720242.60931,-0.0312499962747097,0.1992187350988388,0.9736327528953552,0.9942964367793633,-0.3414154052734375,0.0362396240234375,0.1735687255859375,0.3847127393379535
1786720242.617287,-0.0283203125,0.19091796875,0.9750975966453552,0.9940156104786643,-0.1621246337890625,0.3414154052734375,-0.1316070556640625,0.40021156022762117
1786720242.625264,-0.0268554650247097,0.20654296875,0.9672850966453552,0.9894552400861654,-0.22125244140625,0.09918212890625,-0.0095367431640625,0.24265342979809573
1786720242.633372,-0.0336913987994194,0.19189453125,0.9653319716453552,0.9847966475153271,-0.1010894775390625,0.0362396240234375,-0.1316070556640625,0.16986114893949228
1786720242.64148,-0.0283203125,0.2060546875,0.9682616591453552,0.9903490369116014,-0.3414154052734375,0.3414154052734375,-0.2536773681640625,0.5454183394741109
1786720242.649588,-0.0258789025247097,0.1992187350988388,0.9702147841453552,0.9907949078313246,-0.1621246337890625,0.4634857177734375,-0.0705718994140625,0.4960683425175454
1786720242.657696,-0.0336914025247097,0.1874999850988388,0.9682616591453552,0.9868241968998647,-0.22125244140625,0.58746337890625,-0.1926422119140625,0.6566406065690097
1786720242.66962,-0.02880859375,0.19677734375,0.9692382216453552,0.9894311438323583,-0.40435791015625,0.461578369140625,-0.0705718994140625,0.6176894878103055
1786720242.681544,-0.02783203125,0.18994140625,0.9990233778953552,1.0173003830497531,-0.6504058837890625,0.0972747802734375,-0.2536773681640625,0.7048704871558479
1786720242.693468,-0.0375976525247097,0.19677734375,0.9790038466453552,0.999291468108818,-0.4673004150390625,0.0362396240234375,-0.0095367431640625,0.46880053083930856
1786720242.705392,-0.030761711299419403,0.205078125,0.9853515028953552,1.0069363954558994,-0.03814697265625,-0.514984130859375,-0.1316070556640625,0.53290173921689
1786720242.713445,-0.0263671837747097,0.1972656100988388,0.9716796278953552,0.9918519287548583,0.14495849609375,-0.209808349609375,-0.1926422119140625,0.3195990159038573
1786720242.7215,-0.0268554650247097,0.1987304538488388,0.9785155653953552,0.9988532029330689,-0.0362396240234375,-0.4520416259765625,-0.2536773681640625,0.5196221214339704
1786720242.729555,-0.0380859375,0.20458984375,0.9809569716453552,1.0027881745515996,0.20599365234375,-0.514984130859375,-0.0705718994140625,0.5591264909032769
1786720242.73761,-0.0258789025247097,0.2036132663488388,0.9672850966453552,0.9888217928531616,0.1468658447265625,0.0362396240234375,-0.0095367431640625,0.15157122473208484
1786720242.745665,-0.024414055049419403,0.19580078125,0.9780272841453552,0.9977331108842714,0.6923675537109375,-0.1468658447265625,0.0514984130859375,0.7096439193914682
1786720242.75372,-0.0327148400247097,0.1982421725988388,0.9736327528953552,0.9941483577741996,0.32806396484375,-0.209808349609375,-0.1316070556640625,0.41105465049719925
1786720242.763241,-0.0327148400247097,0.20166015625,0.9775390028953552,0.9986588914931174,0.3261566162109375,0.3414154052734375,-0.2536773681640625,0.5359989033336165
1786720242.772762,-0.0356445275247097,0.1943359225988388,0.9838866591453552,1.0035287445803485,0.69427490234375,0.278472900390625,0.1125335693359375,0.7564579304256628
1786720242.782283,-0.02197265625,0.2001953125,0.9633788466453552,0.9842051427082609,0.26702880859375,0.034332275390625,-0.1316070556640625,0.29967233247842373
1786720242.791804,-0.0209960900247097,0.2021484225988388,0.9809569716453552,1.0017890999482628,0.1468658447265625,0.4024505615234375,0.2346038818359375,0.4884414112155801
1786720242.801325,-0.0258789025247097,0.1879882663488388,0.9750975966453552,0.9933904714986315,0.2040863037109375,0.3414154052734375,0.2956390380859375,0.49559876832050037
1786720242.809334,-0.0317382775247097,0.20166015625,0.9609374403953552,0.9823822582032855,0.08392333984375,0.034332275390625,0.1125335693359375,0.14451863662349407
1786720242.817343,-0.0390624925494194,0.18701171875,0.9765624403953552,0.9950746008540938,-0.09918212890625,0.09918212890625,0.1125335693359375,0.17982767755892928
1786720242.825352,-0.0214843712747097,0.1933593600988388,0.9707030653953552,0.9900070007403187,-0.03814697265625,0.09918212890625,0.1735687255859375,0.2035150822881173
1786720242.833361,-0.0380859375,0.19677734375,0.9628905653953552,0.9835294111392635,-0.1010894775390625,-0.2689361572265625,-0.1316070556640625,0.31601606958108097
1786720242.84137,-0.0468749962747097,0.1884765475988388,0.9677733778953552,0.9870693923091312,-0.28228759765625,-0.209808349609375,0.0514984130859375,0.35546858919842195
1786720242.849379,-0.020019523799419403,0.201171875,0.9643554091453552,0.9853183545291727,-0.1621246337890625,-0.3299713134765625,0.1735687255859375,0.4065606561144499
1786720242.859027,-0.01904296875,0.19091796875,0.9736327528953552,0.9923573161724698,-0.40435791015625,-0.148773193359375,0.2956390380859375,0.5225334663049386
1786720242.868675,-0.0253906212747097,0.1874999850988388,0.9760741591453552,0.994244281960974,-0.1621246337890625,-0.5741119384765625,-0.1926422119140625,0.6268970701747588
1786720242.878323,-0.0366210900247097,0.18212890625,0.9702147841453552,0.9878404578172719,0.08392333984375,-0.453948974609375,0.0514984130859375,0.4645049892840791
1786720242.887971,-0.0405273400247097,0.1943359225988388,0.9707030653953552,0.9907943062360419,0.1468658447265625,-0.0858306884765625,-0.0095367431640625,0.17037439039299532
1786720242.897619,-0.0229492150247097,0.1928710788488388,0.9760741591453552,0.9952118787865615,0.26702880859375,-0.209808349609375,-0.0095367431640625,0.3397276521788955
1786720242.907193,-0.0322265587747097,0.19677734375,0.9638671278953552,0.9842762388379629,0.0209808349609375,-0.0858306884765625,0.2346038818359375,0.2506912122363074
1786720242.916767,-0.0351562462747097,0.1982421725988388,0.9658202528953552,0.986582323757974,0.0209808349609375,-0.0858306884765625,0.1735687255859375,0.1947644860377407
1786720242.926341,-0.0175781212747097,0.1972656100988388,0.9731444716453552,0.9930925807643178,0.0820159912109375,-0.2689361572265625,0.2956390380859375,0.4079898532052989
1786720242.935915,-0.037109375,0.19091796875,0.9580077528953552,0.9775508330067161,0.0820159912109375,0.2193450927734375,0.2346038818359375,0.33147831589802523
1786720242.945489,-0.0317382775247097,0.201171875,0.9663085341453552,0.9875371510547825,0.08392333984375,-0.148773193359375,0.1735687255859375,0.2435214416317422
1786720242.953573,-0.0322265625,0.2099609375,0.9619140028953552,0.9850891815326218,-0.09918212890625,-0.148773193359375,0.3566741943359375,0.39898250420527476
1786720242.961657,-0.0346679650247097,0.1982421725988388,0.9790038466453552,0.9994750414803085,-0.09918212890625,-0.026702880859375,0.3566741943359375,0.3711692598340494
1786720242.969741,-0.0234375,0.20654296875,0.9594725966453552,0.9817316222164253,-0.1621246337890625,0.0972747802734375,0.0514984130859375,0.19595628672959955
1786720242.977825,-0.0346679612994194,0.19384765625,0.9741210341453552,0.9938262275361284,-0.1010894775390625,-0.2689361572265625,-0.0095367431640625,0.28746597816626623
1786720242.985909,-0.0209960900247097,0.2084960788488388,0.9707030653953552,0.9930638911266516,0.0820159912109375,-0.2689361572265625,-0.0705718994140625,0.2898856196243813
1786720242.993993,-0.029785148799419403,0.20947265625,0.9707030653953552,0.9934940311714879,-0.4673004150390625,-0.1468658447265625,0.1735687255859375,0.519678128022003
1786720243.003499,-0.0185546875,0.21044921875,0.9624022841453552,0.9853178708563572,-0.34332275390625,-0.331878662109375,0.2346038818359375,0.5320271995732649
1786720243.013005,-0.01416015625,0.2001953125,0.9599608778953552,0.9807158407314619,-0.40435791015625,-0.453948974609375,0.1125335693359375,0.6182546362804886
1786720243.022511,-0.02880859375,0.19482421875,0.9741210341453552,0.9938300661832569,-0.4673004150390625,0.0972747802734375,-0.0095367431640625,0.4774128299942335
1786720243.032017,-0.0219726525247097,0.19580078125,0.9785155653953552,0.998155025593757,-0.6504058837890625,0.0972747802734375,0.0514984130859375,0.6596531536307901
1786720243.041523,-0.0214843712747097,0.2070312350988388,0.9575194716453552,0.9798811402897907,-0.40435791015625,0.09918212890625,0.0514984130859375,0.41951698505623797
1786720243.051123,-0.024902336299419403,0.2001953125,0.9726561903953552,0.9933571131343186,-0.09918212890625,0.156402587890625,-0.0705718994140625,0.19818995226844682
1786720243.060721,-0.029296867549419403,0.21044921875,0.9697265028953552,0.9927319227960532,-0.6504058837890625,0.0972747802734375,-0.0095367431640625,0.6577090131774495
1786720243.070319,-0.0341796800494194,0.208984375,0.9663085341453552,0.9892395577839406,-0.52642822265625,0.278472900390625,-0.0705718994140625,0.5997117831491172
1786720243.079917,-0.0234374962747097,0.2124023288488388,0.9692382216453552,0.9925153882083079,-0.58746337890625,0.339508056640625,0.1735687255859375,0.7003606532218729
1786720243.089515,-0.0209960900247097,0.1943359225988388,0.9755858778953552,0.9949749201650856,-0.40435791015625,0.156402587890625,0.1125335693359375,0.4479184001939426
1786720243.099178,-0.0351562425494194,0.1904296875,0.9804686903953552,0.9994089653976115,-0.3414154052734375,-0.1468658447265625,-0.0095367431640625,0.3717862353227317
1786720243.108839,-0.0336913987994194,0.2158203125,0.9711913466453552,0.9954527359144067,-0.22125244140625,-0.08392333984375,0.0514984130859375,0.242173194943465
1786720243.1185,-0.0219726525247097,0.2041015475988388,0.9711913466453552,0.992649419981713,0.08392333984375,-0.026702880859375,-0.1926422119140625,0.2118187730770389
1786720243.128161,-0.0214843712747097,0.1997070163488388,0.9814452528953552,1.0017880289855996,0.20599365234375,-0.209808349609375,-0.1926422119140625,0.351516642824874
1786720243.137822,-0.02880859375,0.18701171875,0.9638671278953552,0.9822643016321639,-0.1010894775390625,0.0362396240234375,0.0514984130859375,0.11909861195182163
1786720243.14735,-0.0229492150247097,0.1928710788488388,0.9721679091453552,0.991381038298906,-0.09918212890625,0.156402587890625,0.2346038818359375,0.2988943719205017
1786720243.156879,-0.0234375,0.19482421875,0.9682616591453552,0.9879455618548595,-0.1621246337890625,0.0362396240234375,-0.1316070556640625,0.2119389636927608
1786720243.166408,-0.0361328087747097,0.1894531100988388,0.9692382216453552,0.9882412615825769,-0.28228759765625,0.278472900390625,0.1125335693359375,0.4121859389523011
1786720243.175937,-0.02734375,0.19482421875,0.9736327528953552,0.9933100696087794,-0.40435791015625,0.278472900390625,-0.1926422119140625,0.5274120756761638
1786720243.185466,-0.033203125,0.20556640625,0.9853515028953552,1.0071134887123898,-0.40435791015625,-0.08392333984375,0.0514984130859375,0.41617368132407095
1786720243.19354,-0.0263671875,0.18017578125,0.9760741591453552,0.9929145506422092,-0.2841949462890625,0.0362396240234375,0.3566741943359375,0.45748940834820795
1786720243.201614,-0.0405273400247097,0.1889648288488388,0.9755858778953552,0.9945441050954956,-0.179290771484375,-0.00762939453125,-0.1163482666015625,0.2138698378490153
1786720243.209688,-0.0356445237994194,0.18994140625,0.9755858778953552,0.9945431489050467,-0.30517578125,-0.31280517578125,0.0667572021484375,0.44208128154873727
1786720243.217762,-0.0390624925494194,0.20849609375,0.9648436903953552,0.987886555394348,-0.6694793701171875,-0.3108978271484375,0.2498626708984375,0.7792890607769538
1786720243.225836,-0.02783203125,0.19970703125,0.9858397841453552,1.0062492734397128,-0.4253387451171875,-0.5550384521484375,0.2498626708984375,0.7425712664584444
1786720243.23391,-0.033203125,0.185546875,0.9721679091453552,0.9902729592915697,-0.54931640625,-0.19073486328125,0.3719329833984375,0.6902625923414903
1786720243.243414,-0.0346679650247097,0.1928710788488388,0.9697265028953552,0.989328363726081,-0.5474090576171875,-0.4329681396484375,0.4329681396484375,0.8213278859643054
1786720243.252921,-0.0336913987994194,0.19873046875,0.9711913466453552,0.9918878673325301,-0.2422332763671875,-0.2498626708984375,0.2498626708984375,0.4284152994427067
1786720243.262428,-0.029296867549419403,0.2060546875,0.9702147841453552,0.9922870391490303,0.0,-0.00762939453125,0.3719329833984375,0.3720112253690416
1786720243.271935,-0.0332031212747097,0.1928710788488388,0.9775390028953552,0.9969374115260914,-0.30517578125,-0.370025634765625,0.4329681396484375,0.6461521785120595
1786720243.281442,-0.01318359375,0.203125,0.9702147841453552,0.9913376317599283,-0.0591278076171875,-0.3719329833984375,0.2498626708984375,0.45195309057664207
1786720243.291042,-0.0263671837747097,0.1962890625,0.9677733778953552,0.9878309245009108,-0.1220703125,-0.19073486328125,0.3108978271484375,0.3846276227604883
1786720243.300642,-0.02294921875,0.1865234375,0.9809569716453552,0.9987963954669029,0.0,0.118255615234375,0.3719329833984375,0.3902800720945446
1786720243.310242,-0.0278320275247097,0.2124023288488388,0.9721679091453552,0.9954897360739577,-0.0591278076171875,0.2384185791015625,0.6160736083984375,0.6632391781699076
1786720243.319842,-0.011230465024709702,0.2001953125,0.9672850966453552,0.9878485433930942,-0.06103515625,-0.19073486328125,0.3108978271484375,0.36981419293342266
1786720243.329442,-0.029296867549419403,0.20654296875,0.9648436903953552,0.9871381115548117,-0.1811981201171875,0.1773834228515625,-0.1773834228515625,0.3094551924577695
1786720243.337407,-0.03662109375,0.2099609375,0.9526366591453552,0.9761871255711934,-0.244140625,-0.19073486328125,-0.1163482666015625,0.33094010332308776
1786720243.345372,-0.0283203125,0.205078125,0.9604491591453552,0.982507844628547,-0.7915496826171875,-0.2498626708984375,0.0057220458984375,0.8300692719099624
1786720243.353337,-0.0380859375,0.19189453125,0.9770507216453552,0.9964447613523896,-0.9136199951171875,0.0553131103515625,-0.1163482666015625,0.922658092034033
1786720243.361302,-0.024902336299419403,0.2001953125,0.9809569716453552,1.0014863302710468,-0.9136199951171875,-0.0667572021484375,-0.1163482666015625,0.923414824798587
1786720243.369312,-0.02392578125,0.18994140625,0.9658202528953552,0.9846110611401327,-0.4253387451171875,-0.2498626708984375,0.1888275146484375,0.5282047261192109
1786720243.377322,-0.01171875,0.19970703125,0.9711913466453552,0.9915809897487292,-0.179290771484375,-0.00762939453125,-0.1163482666015625,0.2138698378490153
1786720243.385332,-0.0224609337747097,0.1962890625,0.9697265028953552,0.9896481091887238,-0.30517578125,-0.12969970703125,-0.2994537353515625,0.4467961627873986
1786720243.393342,-0.02783203125,0.19384765625,0.9804686903953552,0.9998351807386566,-0.2422332763671875,0.4215240478515625,-0.2994537353515625,0.5709921389237791
1786720243.401369,-0.012695308774709702,0.1879882663488388,0.9765624403953552,0.9945727520602295,0.1239776611328125,0.4825592041015625,-0.3604888916015625,0.6149683625124296
1786720243.409396,-0.0302734337747097,0.1884765475988388,0.9750975966453552,0.9936071722621758,0.3070831298828125,0.8487701416015625,-0.3604888916015625,0.9719377772785066
1786720243.417423,-0.0312499962747097,0.1933593600988388,0.9799804091453552,0.9993628003451497,0.5512237548828125,0.3604888916015625,-0.6656646728515625,0.936434368014015
1786720243.42545,-0.0336913987994194,0.18798828125,0.9882811903953552,1.006565653859524,0.1850128173828125,0.7266998291015625,-0.2994537353515625,0.8074620262453026
1786720243.435024,-0.0161132775247097,0.1806640625,0.9814452528953552,0.9980650908745481,1.15966796875,0.118255615234375,-0.5435943603515625,1.2861994467753577
1786720243.444598,-0.019531242549419403,0.19384765625,0.9741210341453552,0.9934133945309771,1.1005401611328125,0.0553131103515625,-0.2994537353515625,1.1418934827990765
1786720243.454172,-0.0336913987994194,0.20361328125,0.9604491591453552,0.9823726716259329,0.9784698486328125,-0.3719329833984375,-0.1773834228515625,1.0616978230766594
1786720243.463746,-0.0258789025247097,0.18212890625,0.9594725966453552,0.9769484734626925,0.9174346923828125,0.5435943603515625,0.0667572021484375,1.0684745048115363
1786720243.47332,-0.0312499962747097,0.1948242038488388,0.9653319716453552,0.9852912504194951,0.9784698486328125,0.3604888916015625,0.1888275146484375,1.0597222824589223
1786720243.482906,-0.0385742112994194,0.2001953125,0.9726561903953552,0.9937938406122018,0.8563995361328125,0.7266998291015625,0.0667572021484375,1.1251530256562545
1786720243.492492,-0.03759765625,0.20068359375,0.9628905653953552,0.9842996136762907,0.7343292236328125,0.1163482666015625,-0.1773834228515625,0.7643567272713008
1786720243.502078,-0.033203125,0.19140625,0.9721679091453552,0.9913875345297013,0.6122589111328125,0.4215240478515625,0.1888275146484375,0.7669415411014124
1786720243.511664,-0.0390624925494194,0.203125,0.9692382216453552,0.991064263429685,0.67138671875,0.05340576171875,0.0057220458984375,0.6735317685958958
1786720243.52125,-0.0385742112994194,0.19482421875,0.9658202528953552,0.9860290091532642,0.614166259765625,-0.19073486328125,0.1888275146484375,0.6702505598608032
1786720243.530879,-0.0385742112994194,0.189453125,0.9755858778953552,0.9945593303058842,0.54931640625,-0.49591064453125,0.0667572021484375,0.7430561254531869
1786720243.540511,-0.0283203087747097,0.1928710788488388,0.9726561903953552,0.9919986681744162,0.3070831298828125,0.0553131103515625,0.2498626708984375,0.3997385935131724
1786720243.550143,-0.02685546875,0.18505859375,0.9531249403953552,0.9712955530250096,0.06103515625,-0.00762939453125,0.0667572021484375,0.09077456691200862
1786720243.559775,-0.02734375,0.19482421875,0.9790038466453552,0.9985753294679438,0.4901885986328125,0.2994537353515625,0.3719329833984375,0.6843183075040932
1786720243.569407,-0.0268554650247097,0.2036132663488388,0.9682616591453552,0.9898031212346486,0.3662109375,-0.12969970703125,0.1888275146484375,0.4319586728344818
1786720243.578997,-0.033203125,0.19189453125,0.9721679091453552,0.9914819222787042,0.2460479736328125,0.1163482666015625,0.2498626708984375,0.36946972647092796
1786720243.588588,-0.02783203125,0.1884765625,0.9692382216453552,0.9877857899734983,0.1850128173828125,-0.0667572021484375,0.1888275146484375,0.27265747179000827
1786720243.598179,-0.02783203125,0.21142578125,0.9575194716453552,0.980978604007587,0.1239776611328125,0.4215240478515625,0.1277923583984375,0.4575848230024282
1786720243.60777,-0.0263671875,0.2099609375,0.9594725966453552,0.9825306547716054,0.1850128173828125,-0.2498626708984375,0.3108978271484375,0.439680060760147
1786720243.617361,-0.03173828125,0.1953125,0.9584960341453552,0.9787077902138759,-0.0591278076171875,-0.0667572021484375,0.1888275146484375,0.2088263679725536
1786720243.626972,-0.03271484375,0.2060546875,0.9682616591453552,0.9904844450132599,-0.48828125,-0.19073486328125,0.3108978271484375,0.6094717598856401
1786720243.636585,-0.0302734337747097,0.2133788913488388,0.9663085341453552,0.9900501074329099,-0.6084442138671875,0.0553131103515625,0.1277923583984375,0.6241752866224829
1786720243.646198,-0.0283203125,0.2041015625,0.9736327528953552,0.99519858592425,-0.3032684326171875,-0.0667572021484375,0.0057220458984375,0.3105817252673389
1786720243.655811,-0.0336914025247097,0.1972656100988388,0.9516600966453552,0.9724740464808281,-0.5474090576171875,-0.1277923583984375,-0.1163482666015625,0.5740422304739959
1786720243.665424,-0.0234374962747097,0.2070312350988388,0.9711913466453552,0.9932894242550839,-0.6084442138671875,-0.2498626708984375,0.0057220458984375,0.6577753852997423
1786720243.674997,-0.0224609337747097,0.19140625,0.9633788466453552,0.9824661053943944,-0.4253387451171875,-0.1277923583984375,-0.2384185791015625,0.5040707825531118
1786720243.68457,-0.030273430049419403,0.205078125,0.9663085341453552,0.9882943392950391,-0.8525848388671875,0.2384185791015625,-0.1773834228515625,0.9028893647781727
1786720243.694143,-0.0175781212747097,0.2026367038488388,0.9716796278953552,0.9927396050128787,-0.91552734375,-0.00762939453125,-0.3604888916015625,0.9839719334325381
1786720243.703716,-0.0273437462747097,0.1928710788488388,0.9780272841453552,0.9972383376351864,-0.8525848388671875,0.1163482666015625,-0.2384185791015625,0.8929060675503243
1786720243.713289,-0.0317382775247097,0.2041015475988388,0.9765624403953552,0.9981678015160619,-0.7305145263671875,0.3604888916015625,0.0667572021484375,0.8173495202422809
1786720243.721353,-0.01904296875,0.20263671875,0.9624022841453552,0.983688177713231,-0.5474090576171875,0.4215240478515625,-0.1773834228515625,0.7133050385221178
1786720243.729417,-0.0366210900247097,0.1982421725988388,0.9638671278953552,0.9847237701348266,-0.6103515625,0.35858154296875,-0.3604888916015625,0.7943941048196191
1786720243.737481,-0.0214843712747097,0.1933593600988388,0.9633788466453552,0.98282664926763,-0.6694793701171875,0.1163482666015625,-0.1773834228515625,0.7022851449776156
1786720243.745545,-0.029296867549419403,0.20458984375,0.9663085341453552,0.9881636978638725,-0.5474090576171875,0.2994537353515625,-0.6046295166015625,0.8688533065616889
1786720243.753609,-0.03271484375,0.2041015625,0.9760741591453552,0.9977216410241088,-0.5474090576171875,0.1773834228515625,-0.2384185791015625,0.6228683439738141
1786720243.761673,-0.0234375,0.20947265625,0.9707030653953552,0.9933239910978794,-0.1201629638671875,0.7266998291015625,-0.1773834228515625,0.7576256715582725
1786720243.771206,-0.04248046875,0.19482421875,0.9711913466453552,0.9914503004364799,-0.5474090576171875,0.4825592041015625,-0.4215240478515625,0.8427351806716255
