timestamp,accel_x,accel_y,accel_z,accel_rms,gyro_x,gyro_y,gyro_z,gyro_rms
1780401849.041839,-0.0336913987994194,-0.08544921875,0.9838866591453552,0.9881647825045452,0.22125244140625,0.32806396484375,-0.3643035888671875,0.5378621688859889
1780401849.049858,-0.0527343712747097,-0.09228515625,0.9960936903953552,1.0017485233446883,0.40435791015625,0.08392333984375,-0.4863739013671875,0.6380501691932995
1780401849.057875,-0.0522460900247097,-0.08447265625,0.9877929091453552,0.9927739495648769,0.1010894775390625,0.1468658447265625,-0.1811981201171875,0.25420743016357744
1780401849.065893,-0.0375976525247097,-0.0869140625,0.9863280653953552,0.9908636083347531,0.2803802490234375,-0.1583099365234375,0.1850128173828125,0.3713554397614576
1780401849.073868,-0.0478515587747097,-0.0791015625,0.9819335341453552,0.9862759727106295,0.40435791015625,-0.22125244140625,-0.5474090576171875,0.7156218545401568
1780401849.081841,-0.0449218712747097,-0.06787109375,0.9912108778953552,0.9945468638247892,0.1010894775390625,-0.3414154052734375,-0.1811981201171875,0.3995201123362238
1780401849.089816,-0.0463867150247097,-0.07763671875,0.9931640028953552,0.9972732444401461,0.1010894775390625,-0.4634857177734375,-0.4863739013671875,0.6794097916428772
1780401849.09779,-0.046875,-0.0703125,0.9853515028953552,0.9889685017933509,0.09918212890625,-0.09918212890625,-0.4253387451171875,0.4478696657361556
1780401849.108511,-0.0346679650247097,-0.0771484375,0.9868163466453552,0.9904343750164025,0.1583099365234375,-0.0362396240234375,-0.3032684326171875,0.34401611673510374
1780401849.119234,-0.0439453050494194,-0.07958984375,0.9697265028953552,0.9739790672707968,-0.0247955322265625,0.1468658447265625,-0.5474090576171875,0.5673103834119225
1780401849.129955,-0.03759765625,-0.07666015625,0.9912108778953552,0.9948815847978333,-0.3871917724609375,0.1468658447265625,-0.1811981201171875,0.45201748167818895
1780401849.140606,-0.0434570237994194,-0.08154296875,0.9897460341453552,0.994049787876103,-0.32806396484375,0.38909912109375,0.0629425048828125,0.5128214601455879
1780401849.151256,-0.0385742112994194,-0.080078125,0.9907225966453552,0.994701834413008,-0.0820159912109375,0.5130767822265625,0.1239776611328125,0.5341768131754115
1780401849.161906,-0.0478515625,-0.07958984375,0.9843749403953552,0.9887458412252362,-0.2079010009765625,0.0858306884765625,0.1239776611328125,0.25682716708202785
1780401849.169919,-0.0395507737994194,-0.08447265625,0.9936522841453552,0.9980204182026263,0.34332275390625,0.45013427734375,-0.3643035888671875,0.6732076097691293
1780401849.177935,-0.0434570237994194,-0.0791015625,0.9790038466453552,0.9831551768941904,0.4634857177734375,0.5130767822265625,-0.1201629638671875,0.7017876694024119
1780401849.185951,-0.0419921837747097,-0.07763671875,0.9912108778953552,0.9951330604770984,0.4634857177734375,1.0013580322265625,-0.4253387451171875,1.1825607668878906
1780401849.193967,-0.0478515587747097,-0.0869140625,0.9907225966453552,0.9956782057678769,0.8296966552734375,0.3299713134765625,-0.3643035888671875,0.9643623345770458
1780401849.204596,-0.0454101525247097,-0.0869140625,0.9877929091453552,0.9926484612240203,0.70953369140625,0.38909912109375,-0.6694793701171875,1.050256545939617
1780401849.215224,-0.0483398362994194,-0.07861328125,0.9833983778953552,0.9877191693034828,0.89263916015625,0.26702880859375,-0.5474090576171875,1.0806320979985697
1780401849.225851,-0.0458984337747097,-0.09033203125,0.9814452528953552,0.986661708248349,0.64849853515625,0.08392333984375,-0.8525848388671875,1.0744740036578455
1780401849.234076,-0.0449218675494194,-0.0859375,0.9868163466453552,0.991569326924176,0.2803802490234375,-0.0362396240234375,-0.4863739013671875,0.5625708544911864
1780401849.242302,-0.0395507737994194,-0.080078125,0.9790038466453552,0.9830693269337878,0.09918212890625,-0.40435791015625,-0.4863739013671875,0.640235883195752
1780401849.250529,-0.0551757737994194,-0.076171875,0.9892577528953552,0.993718985538139,0.2193450927734375,-0.6465911865234375,-0.1201629638671875,0.6932759696534431
1780401849.258754,-0.0449218675494194,-0.08154296875,0.9892577528953552,0.9936287695111584,-0.0247955322265625,-0.7076263427734375,-0.0591278076171875,0.7105251276618753
1780401849.269157,-0.0263671837747097,-0.06884765625,1.00341796875,1.0061226804727659,0.22125244140625,-0.52642822265625,-0.4863739013671875,0.750092586530745
1780401849.279561,-0.0322265587747097,-0.0625,0.9790038466453552,0.9815260224960223,0.1583099365234375,-0.6465911865234375,0.2460479736328125,0.709705434543554
1780401849.289963,-0.0458984337747097,-0.08935546875,0.9887694716453552,0.9938592124020075,-0.0247955322265625,-0.4634857177734375,-0.0591278076171875,0.4678994834705123
1780401849.300617,-0.0478515625,-0.09130859375,0.9907225966453552,0.996071430586185,-0.26702880859375,-0.52642822265625,-0.3643035888671875,0.6936484434420138
1780401849.311269,-0.05224609375,-0.08154296875,0.9897460341453552,0.9944727860384898,-0.75531005859375,-0.40435791015625,-0.3643035888671875,0.9309756758263541
1780401849.321922,-0.0405273400247097,-0.0888671875,1.0009765625,1.0057305409392492,-0.6351470947265625,-0.2803802490234375,-0.2422332763671875,0.7353243339925724
1780401849.332591,-0.0458984337747097,-0.09130859375,1.001953125,1.007151423676122,-0.87738037109375,-0.03814697265625,-0.3032684326171875,0.9290980838025277
1780401849.343263,-0.0454101525247097,-0.087890625,0.9892577528953552,0.9941920063945272,-0.81634521484375,0.26702880859375,-0.3643035888671875,0.9329742757862077
1780401849.353935,-0.0507812462747097,-0.10107421875,0.9999999403953552,1.0063769738322959,-0.4520416259765625,0.0247955322265625,-0.1201629638671875,0.4683968274009549
1780401849.362052,-0.0473632775247097,-0.0927734375,1.00634765625,1.0117241699214847,0.6465911865234375,0.0247955322265625,0.1850128173828125,0.6729968228038756
1780401849.37017,-0.0444335862994194,-0.0859375,0.9804686903953552,0.9852301509511677,0.83160400390625,0.38909912109375,-0.1811981201171875,0.9358397854776414
1780401849.378288,-0.0327148400247097,-0.09375,0.9960936903953552,1.0010304507372791,1.19781494140625,0.26702880859375,0.0629425048828125,1.228831468264049
1780401849.386406,-0.03759765625,-0.09521484375,0.9931640028953552,0.9984258544694019,1.5659332275390625,0.0247955322265625,-0.0591278076171875,1.5672452868529925
1780401849.396939,-0.0556640587747097,-0.0693359375,0.9829100966453552,0.9869236129284068,1.4400482177734375,0.2689361572265625,-0.1201629638671875,1.4698655258429565
1780401849.40747,-0.0449218675494194,-0.08642578125,0.9829100966453552,0.9877244797696278,1.4400482177734375,0.0858306884765625,0.1239776611328125,1.4479213504388893
1780401849.418002,-0.0415039025247097,-0.07177734375,0.9916991591453552,0.9951591748309367,1.3179779052734375,0.2079010009765625,0.1850128173828125,1.3470405812713813
1780401849.426034,-0.0307617150247097,-0.06884765625,0.9804686903953552,0.9833641928237791,1.19781494140625,-0.09918212890625,-0.0591278076171875,1.2033677019864084
1780401849.434065,-0.0419921837747097,-0.0791015625,0.9794921278953552,0.9835777698266067,1.01470947265625,-0.09918212890625,0.4291534423828125,1.106184923826807
1780401849.442096,-0.0312499962747097,-0.06884765625,0.9873046278953552,0.9901954303580043,0.4634857177734375,-0.0362396240234375,0.3681182861328125,0.5929952727591324
1780401849.450127,-0.0512695275247097,-0.0634765625,0.9799804091453552,0.9833714663076824,0.22125244140625,0.63323974609375,-0.1201629638671875,0.6814575238020709
1780401849.460795,-0.0498046837747097,-0.08251953125,0.9770507216453552,0.9817933042302376,-0.08392333984375,0.08392333984375,0.1239776611328125,0.17162958486526034
1780401849.471463,-0.0341796800494194,-0.0693359375,0.9853515028953552,0.9883791312120161,-0.2079010009765625,0.1468658447265625,0.0019073486328125,0.2545506639808871
1780401849.482131,-0.0419921837747097,-0.08251953125,0.9829100966453552,0.987261401364031,-0.08392333984375,-0.52642822265625,-0.1811981201171875,0.5630298032196436
1780401849.492841,-0.0371093712747097,-0.0791015625,0.9873046278953552,0.991163251381896,-0.0476837158203125,0.2727508544921875,-0.3414154052734375,0.43958075974577904
1780401849.503552,-0.0537109300494194,-0.08154296875,0.9863280653953552,0.9911494197878952,-0.110626220703125,0.213623046875,-0.2765655517578125,0.36655350398314057
1780401849.514264,-0.0512695275247097,-0.06787109375,0.9936522841453552,0.9972862736479983,-0.110626220703125,0.030517578125,-0.1583099365234375,0.19552881957329668
1780401849.522651,-0.0498046800494194,-0.07568359375,0.9677733778953552,0.9720050532176908,-0.1697540283203125,-0.1544952392578125,0.3299713134765625,0.4019530778607748
1780401849.531039,-0.0312499962747097,-0.08544921875,0.9936522841453552,0.9978090964906245,-0.110626220703125,-0.396728515625,0.3299713134765625,0.5277430658327216
1780401849.539427,-0.0449218675494194,-0.08984375,1.00732421875,1.0123200853872691,-0.232696533203125,-0.518798828125,0.4520416259765625,0.7263893805970464
1780401849.547815,-0.0434570275247097,-0.0830078125,1.00634765625,1.0106999631033864,0.133514404296875,-0.152587890625,0.3299713134765625,0.3872857191242458
1780401849.557837,-0.02880859375,-0.07080078125,0.9916991591453552,0.9946405923493509,0.3795623779296875,-0.0324249267578125,0.3948211669921875,0.5486371556137638
1780401849.567859,-0.0283203125,-0.08056640625,0.9912108778953552,0.9948829028454648,0.621795654296875,0.335693359375,0.5168914794921875,0.8754979547677849
1780401849.577881,-0.0405273400247097,-0.07666015625,0.9833983778953552,0.987214067207801,0.560760498046875,1.312255859375,-0.0362396240234375,1.4275086994421993
1780401849.588577,-0.0444335862994194,-0.08447265625,0.9873046278953552,0.9919074561212575,0.3814697265625,1.190185546875,-0.2765655517578125,1.2800583161297436
1780401849.599269,-0.0561523400247097,-0.06689453125,0.9809569716453552,0.9848373184546949,0.072479248046875,0.762939453125,-0.4596710205078125,0.8936594975866414
1780401849.609962,-0.0507812462747097,-0.0625,0.9755858778953552,0.9789038717474069,-0.110626220703125,0.213623046875,-0.3986358642578125,0.4656001708932119
1780401849.620584,-0.0463867150247097,-0.08056640625,0.9838866591453552,0.9882690075030341,-0.537872314453125,-0.152587890625,-0.5245208740234375,0.7666236614577319
1780401849.631207,-0.0483398362994194,-0.07861328125,0.9746093153953552,0.9789688991064779,-0.8411407470703125,-0.3986358642578125,-0.6427764892578125,1.1311896055910236
1780401849.64183,-0.0488281175494194,-0.07958984375,0.9833983778953552,0.987821389694911,-1.1463165283203125,-0.7610321044921875,-0.3414154052734375,1.4176656609109806
1780401849.652549,-0.0507812462747097,-0.0712890625,0.9936522841453552,0.9974997379411302,-0.9632110595703125,-0.6427764892578125,-0.5817413330078125,1.2959012844159348
1780401849.663268,-0.0444335862994194,-0.08154296875,1.0009765625,1.005274926583921,-0.904083251953125,-0.335693359375,-0.1583099365234375,0.9773016903662172
1780401849.673987,-0.0444335900247097,-0.1025390625,1.001953125,1.0081659922642345,-0.3528594970703125,-0.3376007080078125,0.3299713134765625,0.589376900156036
1780401849.681993,-0.0419921837747097,-0.07177734375,0.9970702528953552,1.0005320683430303,-0.110626220703125,-0.030517578125,0.6999969482421875,0.7093413922999614
1780401849.689998,-0.0488281175494194,-0.09033203125,0.9892577528953552,0.994572753797699,0.133514404296875,0.213623046875,0.5779266357421875,0.630444365992108
1780401849.698004,-0.0356445275247097,-0.07470703125,0.9887694716453552,0.9922281697868103,0.438690185546875,0.640869140625,0.7610321044921875,1.0873510005368026
1780401849.70601,-0.0283203125,-0.08935546875,0.9863280653953552,0.9907721698161359,0.5016326904296875,0.3337860107421875,0.7610321044921875,0.9706793091143533
1780401849.716717,-0.0380859337747097,-0.07763671875,0.9838866591453552,0.9876795818958528,0.5016326904296875,0.2155303955078125,1.0051727294921875,1.1438797679871147
1780401849.727422,-0.0454101525247097,-0.07861328125,0.9946288466453552,0.9987635718828949,0.133514404296875,0.335693359375,0.4520416259765625,0.5786689548427121
1780401849.738128,-0.0444335900247097,-0.0830078125,0.9956054091453552,1.0000473846663513,-0.0476837158203125,0.0896453857421875,0.5168914794921875,0.5267701904160109
1780401849.748685,-0.0346679612994194,-0.0810546875,1.0048828125,1.0087423837453697,0.6237030029296875,0.0896453857421875,-0.0362396240234375,0.6311537383219207
1780401849.759242,-0.0361328087747097,-0.0791015625,0.9970702528953552,1.0008554971966226,0.804901123046875,-0.457763671875,-0.2765655517578125,0.9663860003071788
1780401849.769799,-0.0419921837747097,-0.0830078125,0.9965819716453552,1.000914215426451,0.9899139404296875,0.0896453857421875,-0.4596710205078125,1.0951088310010975
1780401849.777879,-0.0610351525247097,-0.0849609375,0.9907225966453552,0.9962303520011366,1.2950897216796875,-0.0324249267578125,-0.5245208740234375,1.397651927470474
1780401849.785956,-0.0541992112994194,-0.0703125,0.9951171278953552,0.9990693171108949,1.537322998046875,0.213623046875,-0.2765655517578125,1.5765422007986636
1780401849.794034,-0.0546874925494194,-0.08056640625,1.00390625,1.008617581864626,1.598358154296875,0.213623046875,-0.0362396240234375,1.6129776520190326
1780401849.802113,-0.0444335900247097,-0.07275390625,0.9887694716453552,0.9924376770633775,2.025604248046875,0.030517578125,0.8182525634765625,2.1848435069624843
1780401849.812786,-0.0595703087747097,-0.0830078125,0.9770507216453552,0.9823782526558997,2.3326873779296875,-0.8258819580078125,1.6765594482421875,2.9890404806903246
1780401849.82346,-0.0532226487994194,-0.0654296875,0.9741210341453552,0.9777655565195525,2.208709716796875,-0.946044921875,2.6531219482421875,3.579449074860938
1780401849.834135,-0.0439453050494194,-0.06982421875,0.9750975966453552,0.9785815930945575,1.8463134765625,-0.762939453125,3.5076141357421875,4.036620738703277
1780401849.844887,-0.0400390587747097,-0.0590820275247097,0.9619140028953552,0.9645581170516169,1.1730194091796875,0.3337860107421875,3.9310455322265625,4.115884669389786
1780401849.85564,-0.0488281175494194,-0.056640625,0.9716796278953552,0.9745530487001036,0.3185272216796875,0.8869171142578125,3.7479400634765625,3.8646004033958135
1780401849.866393,-0.0478515625,-0.05517578125,0.9624022841453552,0.9651695682098749,-0.1697540283203125,0.4558563232421875,3.4427642822265625,3.4769594936590558
1780401849.874246,-0.0561523400247097,-0.0576171912252903,0.9643554091453552,0.9677056273282943,-0.904083251953125,0.335693359375,3.7479400634765625,3.8700272967258655
1780401849.882098,-0.0517578125,-0.0712890625,0.9814452528953552,0.9853911842602113,-1.331329345703125,0.030517578125,4.0569305419921875,4.2699010025823725
1780401849.889951,-0.0678710862994194,-0.06982421875,0.9731444716453552,0.9780041250288408,-1.514434814453125,-0.823974609375,4.0569305419921875,4.408075814533069
1780401849.897803,-0.09228515625,-0.0673828125,0.9760741591453552,0.9827399237009806,-2.3059844970703125,-1.0089874267578125,5.7659149169921875,6.2913746477281896
1780401849.908544,-0.1025390550494194,-0.064453125,1.0009765625,1.0082770164032353,-2.8553009033203125,-1.3751983642578125,7.4748992919921875,8.118992130491597
1780401849.919285,-0.1025390550494194,-0.07373046875,0.9814452528953552,0.9895378841981495,-3.223419189453125,-1.312255859375,10.343551635742188,10.913363695610238
1780401849.930026,-0.0908203125,-0.08935546875,1.0029296875,1.0109899539693643,-3.833770751953125,-1.251220703125,13.574600219726562,14.16097180817264
1780401849.940675,-0.0791015550494194,-0.080078125,1.015625,1.0218432867811738,-3.5877227783203125,-0.5207061767578125,18.335342407226562,18.690309543900895
1780401849.951325,-0.0693359300494194,-0.0849609375,1.00439453125,1.0103634031879836,-3.1604766845703125,0.0896453857421875,19.193649291992188,19.452321771780603
1780401849.961976,-0.0366210900247097,-0.0966796875,1.00390625,1.009215450237836,-2.7942657470703125,0.1506805419921875,19.559860229492188,19.75901712859867
1780401849.96993,0.00048828125,-0.08984375,0.9877929091453552,0.9918704397200703,-2.1228790283203125,0.5779266357421875,18.518447875976562,18.648686985963472
1780401849.977887,0.0073242224752902985,-0.0791015625,1.0048828125,1.0080179404567753,-1.3294219970703125,0.7610321044921875,17.423629760742188,17.49083779439347
1780401849.985844,0.0180664099752903,-0.07861328125,0.9843749403953552,0.9876742714258816,-0.7801055908203125,0.9441375732421875,15.104293823242188,15.15386592222819
1780401849.993801,0.013671878725290298,-0.0927734375,0.9921874403953552,0.9966091249089244,-0.5359649658203125,0.9441375732421875,12.662887573242188,12.709342071656025
1780401850.004514,0.0146484375,-0.07958984375,0.9838866591453552,0.9872092371901456,-0.5359649658203125,0.9441375732421875,9.790420532226562,9.850430873806378
1780401850.015227,0.013183597475290298,-0.078125,0.9814452528953552,0.9846380590339875,0.072479248046875,0.946044921875,6.9255828857421875,6.99027556988192
1780401850.02594,0.0063476599752902985,-0.08740234375,0.9746093153953552,0.9785411489230067,0.0133514404296875,0.6389617919921875,4.5452117919921875,4.589923819264569
1780401850.036624,0.0024414099752902985,-0.08203125,0.9877929091453552,0.9911962055098243,0.072479248046875,0.457763671875,-0.3414154052734375,0.5756433788761481
1780401850.047309,-0.00341796875,-0.076171875,0.9819335341453552,0.9848894874708426,0.1964569091796875,1.0662078857421875,-2.5959014892578125,2.813200866400085
1780401850.057995,-0.011230465024709702,-0.07177734375,0.9882811903953552,0.9909479409685139,0.1964569091796875,1.2493133544921875,-4.5490264892578125,4.721548599225281
1780401850.066255,-0.0361328087747097,-0.06982421875,0.9936522841453552,0.9967576752557661,0.1354217529296875,1.0662078857421875,-5.8956146240234375,5.9927798309118945
1780401850.074514,-0.0463867150247097,-0.0620117224752903,0.9814452528953552,0.984495792518162,0.1354217529296875,1.0662078857421875,-6.8721771240234375,6.95571396268826
1780401850.082773,-0.03759765625,-0.07080078125,0.9785155653953552,0.9817937900099466,0.255584716796875,1.190185546875,-7.7266693115234375,7.821974420380595
1780401850.091032,-0.0410156212747097,-0.076171875,0.9838866591453552,0.9876828406800304,-0.1697540283203125,1.0662078857421875,-8.272171020507812,8.342327557599202
1780401850.101347,-0.0537109337747097,-0.06787109375,0.9853515028953552,0.9891455575555641,-0.3528594970703125,1.0662078857421875,-8.638381958007812,8.711082133278644
1780401850.111662,-0.0419921837747097,-0.0732421875,0.9902343153953552,0.9938268264212141,-0.6580352783203125,1.0051727294921875,-8.943557739257812,9.02389093900559
1780401850.121977,-0.0468749962747097,-0.06982421875,0.9975585341453552,1.0010972559377194,-0.7801055908203125,1.0662078857421875,-9.798049926757812,9.886715650593311
1780401850.130052,-0.0493164025247097,-0.07861328125,0.9790038466453552,0.9833924380903449,-1.1463165283203125,0.7610321044921875,-10.225296020507812,10.317455604662472
1780401850.13813,-0.0336913987994194,-0.08935546875,0.9897460341453552,0.9943423566634645,-1.1463165283203125,1.0051727294921875,-11.144638061523438,11.248438617051345
1780401850.146209,-0.030761711299419403,-0.1005859375,0.9985350966453552,1.0040598353372032,-0.9021759033203125,0.5779266357421875,-12.422561645507812,12.468679095769282
1780401850.154286,-0.029296867549419403,-0.07568359375,0.9941405653953552,0.9974476309940887,-0.4749298095703125,0.8869171142578125,-14.070510864257812,14.10643315203312
1780401850.162271,-0.030273430049419403,-0.0859375,0.9995116591453552,1.0036559625891273,-0.1697540283203125,0.8869171142578125,-15.233993530273438,15.260733838125457
1780401850.170254,-0.0434570237994194,-0.09326171875,1.005859375,1.011107978099816,-0.0476837158203125,0.5779266357421875,-16.328811645507812,16.339105320901947
1780401850.178238,-0.0507812462747097,-0.08935546875,1.009765625,1.0149826364033947,0.3814697265625,0.152587890625,-16.817092895507812,16.822110916076745
1780401850.186222,-0.0600585862994194,-0.08984375,0.9970702528953552,1.0029097778021485,0.4405975341796875,-0.7038116455078125,-16.633987426757812,16.654699478916292
1780401850.19679,-0.06982421875,-0.08935546875,0.9848632216453552,0.9913704588443455,0.560760498046875,-1.373291015625,-16.145706176757812,16.21370434219033
1780401850.207358,-0.0732421800494194,-0.08447265625,0.9809569716453552,0.9873077670169259,0.3795623779296875,-1.5544891357421875,-15.722274780273438,15.803494181297449
1780401850.217927,-0.0703125,-0.0869140625,0.9877929091453552,0.9940989554739246,0.560760498046875,-1.373291015625,-14.986038208007812,15.05927361201848
1780401850.225954,-0.076171875,-0.0859375,0.9833983778953552,0.9900806927187711,0.5016326904296875,-1.6193389892578125,-14.070510864257812,14.172267641398655
1780401850.23398,-0.0771484300494194,-0.07373046875,0.9765624403953552,0.9823758253703705,0.316619873046875,-1.617431640625,-13.338088989257812,13.439529424107958
1780401850.242007,-0.080078125,-0.06884765625,0.9829100966453552,0.9885670255283733,0.133514404296875,-1.617431640625,-12.178421020507812,12.286083581068304
1780401850.250034,-0.06591796875,-0.083984375,0.9829100966453552,0.9886914644800208,0.072479248046875,-1.312255859375,-10.896682739257812,10.975653210716008
1780401850.260657,-0.0732421800494194,-0.0712890625,0.9809569716453552,0.986267269856476,-0.2307891845703125,-1.8634796142578125,-9.496688842773438,9.680543316205272
1780401850.27128,-0.0781249925494194,-0.07958984375,0.9814452528953552,0.9877615309981574,-0.3528594970703125,-2.0465850830078125,-8.333206176757812,8.588093240703513
1780401850.281903,-0.0834960862994194,-0.08642578125,0.9809569716453552,0.9882902368796421,-0.2918243408203125,-2.2258758544921875,-6.6242218017578125,6.994283326002033
1780401850.292889,-0.0644531175494194,-0.0849609375,0.9838866591453552,0.9896491920407587,-0.232696533203125,-2.288818359375,-5.2814483642578125,5.760775467165713
1780401850.303876,-0.0566406212747097,-0.0673828125,0.9965819716453552,1.0004620080779374,-0.415802001953125,-2.593994140625,-3.7555694580078125,4.583230177543579
1780401850.314863,-0.0649413987994194,-0.0849609375,1.00146484375,1.0071581700240118,-0.720977783203125,-2.410888671875,-2.4127960205078125,3.4862268699305887
1780401850.322738,-0.0517578087747097,-0.0830078125,0.9912108778953552,0.9960261905006692,-0.4730224609375,-2.105712890625,-0.0362396240234375,2.158492607502982
1780401850.330614,-0.0366210900247097,-0.07275390625,0.9877929091453552,0.991145330648879,-0.6580352783203125,-1.8634796142578125,0.3948211669921875,2.0153040599804313
1780401850.338488,-0.0488281175494194,-0.0712890625,0.9868163466453552,0.9905921549770292,-0.904083251953125,-1.251220703125,1.3065338134765625,2.022362573859684
1780401850.346363,-0.0488281212747097,-0.0732421875,0.9755858778953552,0.9795490843269947,-0.843048095703125,-1.129150390625,1.6765594482421875,2.1901055407919054
1780401850.356905,-0.0302734337747097,-0.0869140625,0.9897460341453552,0.9940159692677096,-0.720977783203125,-1.007080078125,1.9817352294921875,2.336941113387156
1780401850.367448,-0.0346679650247097,-0.08740234375,0.9843749403953552,0.9888554296611345,-0.904083251953125,-1.129150390625,1.9817352294921875,2.453491726279341
1780401850.377989,-0.0317382775247097,-0.0830078125,0.9780272841453552,0.9820565074011831,-0.9632110595703125,-1.2493133544921875,1.7375946044921875,2.346869065915576
1780401850.388678,-0.015624996274709702,-0.07373046875,0.9873046278953552,0.9901771310196299,-0.6580352783203125,-1.3751983642578125,1.8596649169921875,2.404690119758264
1780401850.399365,-0.013671875,-0.0888671875,0.9926757216453552,0.9967393769307514,-0.904083251953125,-0.946044921875,1.6765594482421875,2.126786097415008
1780401850.410052,-0.0063476525247097015,-0.08544921875,0.9931640028953552,0.9968533484543677,-1.1463165283203125,-0.3376007080078125,1.0051727294921875,1.5615338732356991
1780401850.420676,-0.011718746274709702,-0.07861328125,0.9887694716453552,0.9919588928282147,-0.6580352783203125,1.1920928955078125,-0.0362396240234375,1.3621340643944162
1780401850.431304,-0.029296867549419403,-0.08642578125,0.9990233778953552,1.0031826512127922,-0.6580352783203125,1.7375946044921875,-0.7648468017578125,2.0092874526143856
1780401850.441931,-0.030273430049419403,-0.0849609375,0.9921874403953552,0.9962784542215708,-0.6580352783203125,1.3751983642578125,-0.4596710205078125,1.5923185660118857
1780401850.449898,-0.0400390550494194,-0.06982421875,0.9843749403953552,0.9876601494095312,-0.4749298095703125,1.1272430419921875,-0.6427764892578125,1.3818092541595213
1780401850.457866,-0.0546874925494194,-0.07470703125,0.9877929091453552,0.9921223179212204,-0.6580352783203125,0.6389617919921875,-0.4596710205078125,1.025953237840133
1780401850.465836,-0.04296875,-0.0908203125,0.9824218153953552,0.987546082977329,-0.8411407470703125,0.5779266357421875,-0.1583099365234375,1.0327531111956727
1780401850.473804,-0.0395507737994194,-0.09521484375,0.9877929091453552,0.9931590816864707,-0.7781982421875,0.335693359375,-0.0362396240234375,0.8482899539789139
1780401850.481808,-0.0419921837747097,-0.08837890625,0.9809569716453552,0.9858249108172006,-1.087188720703125,-0.091552734375,0.1468658447265625,1.100877283780024
1780401850.489812,-0.0454101525247097,-0.08740234375,0.9829100966453552,0.9878327336815136,-1.6956329345703125,0.0896453857421875,0.3299713134765625,1.7297654210042017
1780401850.497816,-0.0327148400247097,-0.09912109375,0.9833983778953552,0.9889224548119304,-0.9632110595703125,0.0896453857421875,0.4520416259765625,1.0677796926702456
1780401850.505821,-0.0385742150247097,-0.07763671875,0.9829100966453552,0.9867257411512181,-1.3294219970703125,0.3337860107421875,0.9441375732421875,1.6643832805184173
1780401850.516519,-0.0493164025247097,-0.08251953125,0.9853515028953552,0.9900298807883701,-1.2683868408203125,0.4558563232421875,1.3065338134765625,1.8771363219445805
1780401850.527218,-0.0380859337747097,-0.07763671875,0.9833983778953552,0.9871931766867993,-1.2664794921875,0.396728515625,1.4324188232421875,1.952738462882333
1780401850.537917,-0.0415039025247097,-0.080078125,0.9931640028953552,0.9972511301951086,-1.026153564453125,0.518798828125,1.1882781982421875,1.6535260621839096
1780401850.545912,-0.0444335862994194,-0.0859375,0.9824218153953552,0.9871738554390423,-1.0242462158203125,0.4558563232421875,1.3713836669921875,1.771321105885394
1780401850.553905,-0.0483398400247097,-0.0869140625,0.9921874403953552,0.9971593209072235,-0.3528594970703125,0.4558563232421875,1.4324188232421875,1.5440655741551694
1780401850.561899,-0.0473632775247097,-0.08740234375,0.9868163466453552,0.9918109455724724,0.133514404296875,0.335693359375,1.1234283447265625,1.1800878668210628
1780401850.569893,-0.0415039025247097,-0.0947265625,0.9804686903953552,0.9859079817170717,0.0133514404296875,0.7038116455078125,1.2493133544921875,1.4339849898191
1780401850.580591,-0.0341796837747097,-0.07373046875,0.9853515028953552,0.988697131109001,-0.110626220703125,0.640869140625,1.1234283447265625,1.2980919312003856
1780401850.591289,-0.0463867150247097,-0.08203125,0.9833983778953552,0.9879034481944893,-0.1697540283203125,0.5779266357421875,0.8831024169921875,1.0689646885321797
1780401850.601987,-0.0424804650247097,-0.06787109375,0.9877929091453552,0.9910327475080634,-0.110626220703125,0.579833984375,0.8182525634765625,1.0089513703738204
1780401850.612602,-0.0429687462747097,-0.07861328125,0.9858397841453552,0.9899022381776256,-0.415802001953125,0.457763671875,0.5779266357421875,0.8464266538909277
1780401850.623219,-0.0507812462747097,-0.080078125,0.9824218153953552,0.9869872666055189,-0.4749298095703125,-0.0896453857421875,0.4520416259765625,0.6617675202205782
1780401850.633835,-0.030761711299419403,-0.07568359375,0.9702147841453552,0.9736483023244081,-0.537872314453125,-0.152587890625,0.3299713134765625,0.649207793189512
1780401850.6445,-0.0424804650247097,-0.0732421875,0.9692382216453552,0.9729294621074805,-0.843048095703125,-0.152587890625,0.5779266357421875,1.033446830917941
1780401850.655163,-0.0434570237994194,-0.07861328125,0.9926757216453552,0.9967314830236484,-0.354766845703125,-0.762939453125,0.2727508544921875,0.8844937266996513
1780401850.665827,-0.0332031212747097,-0.0830078125,0.9848632216453552,0.9889126905587198,-0.5359649658203125,-0.8869171142578125,0.2727508544921875,1.0715752147079518
1780401850.673912,-0.0273437462747097,-0.0869140625,0.9863280653953552,0.9905275298077958,-0.720977783203125,-0.762939453125,0.0286102294921875,1.050097194662838
1780401850.681998,-0.029785148799419403,-0.09130859375,1.00244140625,1.0070318700746683,-0.5359649658203125,0.2727508544921875,-0.1583099365234375,0.6218629344277097
1780401850.690084,-0.0351562462747097,-0.07421875,0.9877929091453552,0.991200895813525,-0.232696533203125,0.396728515625,-0.3986358642578125,0.6086474709939589
1780401850.69817,-0.0288085900247097,-0.0771484375,0.9892577528953552,0.9926795645783542,-0.110626220703125,0.396728515625,-0.3986358642578125,0.5731860327063505
1780401850.708825,-0.0488281175494194,-0.0849609375,0.9916991591453552,0.9965288596994587,-0.5359649658203125,0.4558563232421875,-0.3414154052734375,0.7820664364263947
1780401850.71948,-0.0439453087747097,-0.08740234375,0.9887694716453552,0.9935972161364648,0.0152587890625,0.030517578125,-0.3414154052734375,0.3431160622534231
1780401850.730135,-0.03759765625,-0.08154296875,0.9907225966453552,0.9947834452843352,0.255584716796875,-0.030517578125,-0.1583099365234375,0.3021868727076163
1780401850.73833,-0.0449218712747097,-0.08203125,0.9931640028953552,0.9975579367347589,0.1354217529296875,-0.3986358642578125,-0.1583099365234375,0.44979066179854965
1780401850.746526,-0.0419921837747097,-0.08349609375,0.9868163466453552,0.9912322851764684,-0.049591064453125,-0.335693359375,-0.0934600830078125,0.3519717209065156
1780401850.75472,-0.0332031212747097,-0.08251953125,0.9853515028953552,0.9893581275545463,0.2574920654296875,-0.3986358642578125,-0.2155303955078125,0.5212159508491405
1780401850.762915,-0.0468749962747097,-0.08251953125,0.9907225966453552,0.9952577564717539,-0.1697540283203125,-0.2727508544921875,-0.1583099365234375,0.3581501008784539
1780401850.77335,-0.033203125,-0.08984375,0.9921874403953552,0.9968000119392629,0.0133514404296875,-0.5779266357421875,-0.2155303955078125,0.6169528415118815
1780401850.783786,-0.0268554650247097,-0.07373046875,0.9892577528953552,0.9923650032560377,-0.3528594970703125,-0.3986358642578125,-0.7648468017578125,0.9318857264195227
1780401850.79422,-0.0317382775247097,-0.08349609375,0.9829100966453552,0.9869605736903201,-0.4749298095703125,-0.3986358642578125,-0.8296966552734375,1.0357921683730746
1780401850.802161,-0.0488281212747097,-0.087890625,0.9790038466453552,0.9841531786955273,-0.3528594970703125,-0.0896453857421875,-0.7038116455078125,0.7923994902888278
1780401850.810104,-0.0405273400247097,-0.07470703125,0.9848632216453552,0.9885237332291699,-0.4138946533203125,-0.3986358642578125,-0.3986358642578125,0.6993782156975493
1780401850.818045,-0.0336913987994194,-0.07861328125,0.9921874403953552,0.9958669967521967,-0.2918243408203125,-0.3376007080078125,-0.1583099365234375,0.47349521639045206
1780401850.825987,-0.0400390550494194,-0.08984375,0.9956054091453552,1.000452475664288,-0.110626220703125,-0.091552734375,-0.2155303955078125,0.2589853572431266
1780401850.836895,-0.0322265625,-0.0849609375,0.9902343153953552,0.9943947463748756,0.1354217529296875,0.0896453857421875,0.0286102294921875,0.1649057051257189
1780401850.847801,-0.0400390587747097,-0.0888671875,1.005859375,1.0105709205776285,0.4405975341796875,0.0896453857421875,-0.0934600830078125,0.4592355271817651
1780401850.858708,-0.0166015587747097,-0.0849609375,0.9916991591453552,0.9954703385356259,0.3814697265625,0.030517578125,0.0896453857421875,0.3930480505525369
1780401850.869125,-0.0463867150247097,-0.08251953125,0.9951171278953552,0.9996095730830133,0.3795623779296875,-0.2155303955078125,-0.4596710205078125,0.6338914711700157
1780401850.879543,-0.0336914025247097,-0.08203125,0.9873046278953552,0.9912793071804891,0.255584716796875,-0.091552734375,-0.5817413330078125,0.6419722962569215
1780401850.889959,-0.0454101525247097,-0.07861328125,0.9824218153953552,0.9866076998006423,-0.0476837158203125,-0.3986358642578125,-0.8869171142578125,0.9735534174304002
1780401850.897982,-0.0415039025247097,-0.0869140625,0.9838866591453552,0.9885896955912715,0.1354217529296875,-0.3986358642578125,-0.8869171142578125,0.9817696119775393
1780401850.906004,-0.0541992112994194,-0.07958984375,0.9877929091453552,0.9924751528836742,0.0743865966796875,-0.3986358642578125,-0.2155303955078125,0.4592355271817651
1780401850.914026,-0.03759765625,-0.06640625,1.01220703125,1.0150795278728135,-0.232696533203125,-0.274658203125,0.2117156982421875,0.41762224795954517
1780401850.922049,-0.0380859375,-0.09130859375,0.9868163466453552,0.9917632277586936,-0.232696533203125,-0.335693359375,0.0896453857421875,0.4181793912641936
1780401850.932888,-0.0405273400247097,-0.083984375,0.9897460341453552,0.994129293723949,0.0133514404296875,-0.1544952392578125,0.2117156982421875,0.26243204224532724
1780401850.943728,-0.0400390550494194,-0.08984375,1.00146484375,1.0062836869444545,-0.0476837158203125,-0.3986358642578125,0.3948211669921875,0.5630879531050884
1780401850.954568,-0.0273437462747097,-0.07373046875,0.9750975966453552,0.9782633517954039,-0.232696533203125,-0.274658203125,0.3299713134765625,0.4883296763724837
1780401850.965052,-0.0336913987994194,-0.07666015625,0.9995116591453552,1.0030131837004121,0.1354217529296875,-0.2155303955078125,0.3299713134765625,0.4167414909410284
1780401850.975537,-0.0380859375,-0.0849609375,0.9892577528953552,0.9936296096633295,0.1964569091796875,0.0896453857421875,0.1468658447265625,0.2611535730112616
1780401850.986022,-0.0439453050494194,-0.07958984375,0.9843749403953552,0.9885644927582595,0.0152587890625,-0.457763671875,-0.0934600830078125,0.4674560910373976
1780401850.994015,-0.0449218712747097,-0.08740234375,0.9848632216453552,0.9897538631202623,0.072479248046875,-0.335693359375,-0.1583099365234375,0.37816042750130285
1780401851.00201,-0.0415039025247097,-0.07373046875,0.9809569716453552,0.9845990738196444,0.5016326904296875,-0.1544952392578125,0.2727508544921875,0.591521059377664
1780401851.010005,-0.0366210900247097,-0.07470703125,0.9926757216453552,0.9961562794546411,0.6237030029296875,-0.0324249267578125,-0.0362396240234375,0.6255958136753469
1780401851.018,-0.04296875,-0.08935546875,0.9868163466453552,0.9917848634046502,0.6847381591796875,0.0896453857421875,-0.0934600830078125,0.6968769108942267
1780401851.028656,-0.0371093712747097,-0.083984375,0.9829100966453552,0.9871893125272003,0.3795623779296875,-0.0324249267578125,-0.1583099365234375,0.41253001177725634
1780401851.039312,-0.0312499962747097,-0.0849609375,0.9780272841453552,0.9822078658312545,0.438690185546875,0.030517578125,-0.0362396240234375,0.44124110395466015
1780401851.049968,-0.0380859375,-0.0947265625,0.9799804091453552,0.9852843562073936,0.5016326904296875,-0.0324249267578125,-0.0362396240234375,0.5039841687318525
1780401851.058031,-0.0478515587747097,-0.0771484375,0.9956054091453552,0.9997358570169178,0.5016326904296875,-0.1544952392578125,-0.2155303955078125,0.5674129769830872
1780401851.066094,-0.0346679612994194,-0.0810546875,0.9951171278953552,0.9990144283928443,0.438690185546875,-0.152587890625,-0.4596710205078125,0.653475011270693
1780401851.074157,-0.03173828125,-0.076171875,1.0078125,1.0111851997502583,0.5016326904296875,-0.0324249267578125,-0.5245208740234375,0.7265045624559332
1780401851.082221,-0.0346679612994194,-0.08154296875,0.9838866591453552,0.9878684534579641,0.255584716796875,-0.274658203125,-0.3986358642578125,0.5474223490839277
1780401851.090544,-0.0346679612994194,-0.08544921875,0.9775390028953552,0.9818787800473583,0.1983642578125,-0.152587890625,-0.5245208740234375,0.5811657168391833
1780401851.098868,-0.0458984337747097,-0.076171875,0.9868163466453552,0.9908154837155467,-0.049591064453125,0.213623046875,-0.4596710205078125,0.5093049449244001
1780401851.107192,-0.0541992150247097,-0.0830078125,0.9956054091453552,1.0005288514404869,0.3814697265625,-0.152587890625,-0.2155303955078125,0.4639564290284267
1780401851.115516,-0.0312499962747097,-0.0849609375,0.9877929091453552,0.9919323336427199,0.0133514404296875,0.0896453857421875,-0.2765655517578125,0.2910379022833905
1780401851.125653,-0.04296875,-0.08642578125,0.9921874403953552,0.9968709274622878,0.133514404296875,-0.457763671875,-0.2765655517578125,0.5512369543692942
1780401851.135788,-0.0351562425494194,-0.080078125,0.9897460341453552,0.993602374997246,0.255584716796875,-0.274658203125,-0.0934600830078125,0.38664643166570123
1780401851.145924,-0.0312499962747097,-0.0908203125,0.9829100966453552,0.9875915904447286,-0.1697540283203125,-0.7038116455078125,-0.1583099365234375,0.7411000596987177
1780401851.154043,-0.0434570275247097,-0.078125,0.9765624403953552,0.9806458223320054,-0.415802001953125,-0.579833984375,-0.0362396240234375,0.7144312875383989
1780401851.162163,-0.0419921837747097,-0.0849609375,0.9750975966453552,0.9796923126076859,-0.354766845703125,-0.457763671875,0.0286102294921875,0.5798496695956834
1780401851.170281,-0.0493164025247097,-0.078125,0.9921874403953552,0.9964795733286588,-0.171661376953125,-0.946044921875,0.1468658447265625,0.9726449500666543
1780401851.178401,-0.0473632775247097,-0.0791015625,0.9873046278953552,0.9916001036261594,-0.415802001953125,-0.579833984375,-0.0934600830078125,0.7196065184392381
1780401851.188878,-0.0327148400247097,-0.0771484375,0.9833983778953552,0.9869622646351529,-0.598907470703125,-0.335693359375,0.0286102294921875,0.6871671814224564
1780401851.199356,-0.0498046837747097,-0.08447265625,0.9838866591453552,0.9887613939793756,-0.6580352783203125,-0.3376007080078125,0.0896453857421875,0.7449972890865664
1780401851.209835,-0.0395507775247097,-0.0732421875,0.9833983778953552,0.9869149161299621,-0.415802001953125,-0.457763671875,0.1468658447265625,0.6356165986378549
1780401851.2205,-0.0395507737994194,-0.07958984375,0.9863280653953552,0.9903241184192306,-0.0476837158203125,-0.7038116455078125,0.2727508544921875,0.7563184499488728
1780401851.231168,-0.0341796800494194,-0.0888671875,0.9941405653953552,0.9986896871936934,0.1983642578125,-0.457763671875,-0.0934600830078125,0.5075733889614524
1780401851.241836,-0.0429687462747097,-0.087890625,0.9970702528953552,1.0018583554216227,0.1354217529296875,-1.0089874267578125,0.2117156982421875,1.0398164335131843
1780401851.249843,-0.02880859375,-0.08935546875,0.9907225966453552,0.9951610916696352,0.5016326904296875,-0.5207061767578125,0.7610321044921875,1.0497333674268303
1780401851.257852,-0.0273437462747097,-0.08349609375,0.9999999403953552,1.0038521598933572,0.4405975341796875,-0.2155303955078125,0.7610321044921875,0.9054001339633116
1780401851.265861,-0.02392578125,-0.0810546875,0.9956054091453552,0.9991858866565498,0.072479248046875,0.518798828125,0.7610321044921875,0.9238914057015151
1780401851.27387,-0.0336913987994194,-0.0849609375,0.9838866591453552,0.9881226792752754,0.3185272216796875,1.3751983642578125,0.3948211669921875,1.4657809815635543
1780401851.284551,-0.0356445275247097,-0.08984375,0.9819335341453552,0.9866792271228323,-0.1697540283203125,1.4934539794921875,0.3948211669921875,1.5540608009010128
1780401851.295233,-0.0371093712747097,-0.08935546875,0.9794921278953552,0.9842592818159793,0.0133514404296875,1.4324188232421875,0.2117156982421875,1.4480419479498021
1780401851.305913,-0.0380859337747097,-0.0771484375,0.9755858778953552,0.9793723627451583,-0.4730224609375,1.007080078125,0.3299713134765625,1.160535049029142
1780401851.316558,-0.0341796800494194,-0.07421875,0.9887694716453552,0.9921399807676727,-0.537872314453125,0.640869140625,0.1468658447265625,0.8494642184387958
1780401851.327205,-0.0385742112994194,-0.08642578125,0.9848632216453552,0.9894002985605539,-0.9632110595703125,-0.2727508544921875,-0.0362396240234375,1.0017394293198918
1780401851.337852,-0.0371093712747097,-0.07275390625,0.9887694716453552,0.9921367367298083,-0.9632110595703125,-0.3986358642578125,0.1468658447265625,1.0527372292734707
1780401851.345835,-0.0458984337747097,-0.091796875,0.9902343153953552,0.9955387144000202,-0.9021759033203125,-0.3986358642578125,-0.1583099365234375,0.998946419387171
1780401851.353817,-0.0375976525247097,-0.08251953125,0.9970702528953552,1.0011853703095628,-1.4514923095703125,-0.2155303955078125,0.2117156982421875,1.4826013668588367
1780401851.361799,-0.0478515587747097,-0.08251953125,0.9838866591453552,0.9884999761047532,-1.087188720703125,-0.213623046875,-0.0362396240234375,1.1085699936989166
1780401851.369781,-0.0351562462747097,-0.07958984375,0.9804686903953552,0.984321775501213,-1.2073516845703125,-0.2155303955078125,0.4520416259765625,1.3070933682174581
1780401851.380445,-0.0390624962747097,-0.08740234375,0.9916991591453552,0.9963093247369561,-0.6580352783203125,-0.0896453857421875,0.4520416259765625,0.8033606626630975
1780401851.391107,-0.0385742112994194,-0.09912109375,0.9965819716453552,1.0022417808154438,-0.232696533203125,0.335693359375,0.3948211669921875,0.568085787534153
1780401851.401771,-0.0292968712747097,-0.09814453125,0.9999999403953552,1.0052315835027683,0.0133514404296875,0.2155303955078125,0.2727508544921875,0.34788595972749464
1780401851.412448,-0.0380859337747097,-0.0771484375,0.9931640028953552,0.9968837226112723,0.5035400390625,0.030517578125,0.3299713134765625,0.6027976121644207
1780401851.423125,-0.046875,-0.0810546875,0.9897460341453552,0.9941651472955494,0.6847381591796875,0.3337860107421875,0.3299713134765625,0.8301569221065489
1780401851.4338,-0.0483398400247097,-0.09765625,0.9843749403953552,0.990387553726336,1.049041748046875,0.213623046875,0.3299713134765625,1.1202698170614298
1780401851.441866,-0.0463867150247097,-0.08154296875,0.9833983778953552,0.9878630232631258,0.743865966796875,0.335693359375,0.3948211669921875,0.9065927211224427
1780401851.449934,-0.0410156212747097,-0.07763671875,0.9775390028953552,0.9814745251245507,0.3185272216796875,0.4558563232421875,0.2727508544921875,0.6194010066322826
1780401851.458002,-0.0424804650247097,-0.06396484375,0.9921874403953552,0.9951542634300292,0.3185272216796875,0.2727508544921875,0.3948211669921875,0.5759656009539736
1780401851.46607,-0.0419921837747097,-0.07470703125,0.9916991591453552,0.9953952512775828,-0.049591064453125,-0.274658203125,-0.0362396240234375,0.2814422011120718
1780401851.475655,-0.04248046875,-0.0712890625,0.9770507216453552,0.9805686275447824,-0.537872314453125,0.152587890625,-0.0362396240234375,0.5602704716205454
1780401851.48524,-0.0449218712747097,-0.08203125,0.9931640028953552,0.9975579367347589,-0.415802001953125,-0.152587890625,-0.0362396240234375,0.4443958590524597
1780401851.494825,-0.0419921837747097,-0.07861328125,0.9975585341453552,1.0015320366984226,-0.537872314453125,-0.274658203125,-0.1583099365234375,0.6243442889953187
1780401851.50441,-0.0351562462747097,-0.09619140625,0.9946288466453552,0.9998876391212915,-0.6580352783203125,-0.8869171142578125,-0.0362396240234375,1.1049641195201123
1780401851.513995,-0.0385742112994194,-0.08935546875,0.9848632216453552,0.9896605149861101,-0.5359649658203125,-1.1920928955078125,0.0286102294921875,1.3073494029289052
1780401851.523607,-0.0390624925494194,-0.095703125,0.9838866591453552,0.9893017358233773,-0.415802001953125,-0.823974609375,0.0286102294921875,0.9233872464759875
1780401851.533219,-0.03271484375,-0.0859375,0.9990233778953552,1.0032463428736147,-0.537872314453125,-0.152587890625,-0.0934600830078125,0.5668549004254754
1780401851.542831,-0.0444335862994194,-0.07568359375,0.9975585341453552,1.0014116930616364,-0.3528594970703125,0.2727508544921875,-0.0362396240234375,0.4474552085385669
1780401851.552444,-0.029785148799419403,-0.08056640625,0.9892577528953552,0.9929798601022134,0.0133514404296875,0.3986358642578125,0.3299713134765625,0.5176580733955267
1780401851.562055,-0.0278320275247097,-0.083984375,0.9902343153953552,0.9941790565017876,0.1354217529296875,0.6389617919921875,-0.0934600830078125,0.6598075552070043
1780401851.571668,-0.0444335900247097,-0.0771484375,0.9965819716453552,1.0005507740938082,0.133514404296875,0.701904296875,-0.2155303955078125,0.7462902180211741
1780401851.581281,-0.0385742112994194,-0.080078125,0.9785155653953552,0.9825442420582798,0.0133514404296875,-0.0324249267578125,0.1468658447265625,0.15099408327495406
1780401851.590894,-0.0390624962747097,-0.0830078125,0.9897460341453552,0.993988625517267,0.2574920654296875,-0.2155303955078125,-0.3414154052734375,0.4788736723865973
1780401851.600507,-0.0361328087747097,-0.08056640625,0.9931640028953552,0.9970813719717739,0.072479248046875,-0.579833984375,-0.3986358642578125,0.7073692409952537
1780401851.610121,-0.0327148400247097,-0.068359375,0.9921874403953552,0.9950774752683931,0.0133514404296875,-0.6427764892578125,-0.6427764892578125,0.9091212742240415
1780401851.61853,-0.0346679650247097,-0.0830078125,0.9873046278953552,0.9913942671806084,-0.1697540283203125,-0.3986358642578125,-0.6427764892578125,0.7751700442781218
1780401851.626937,-0.0434570275247097,-0.0830078125,0.9951171278953552,0.9995183382049673,-0.1697540283203125,-0.6427764892578125,-0.5817413330078125,0.8834030924800291
1780401851.635345,-0.0346679650247097,-0.09375,0.9980468153953552,1.003039568521484,-0.1697540283203125,-0.3376007080078125,-0.9479522705078125,1.0204921240946776
1780401851.643754,-0.0429687462747097,-0.087890625,0.9868163466453552,0.9916539603741805,-0.2899169921875,-0.274658203125,-0.8869171142578125,0.9726823522950884
1780401851.652162,-0.0351562462747097,-0.08203125,0.9965819716453552,1.0005701943578142,-0.2307891845703125,0.0896453857421875,-0.5245208740234375,0.5800190429510105
1780401851.660569,-0.0395507775247097,-0.09228515625,0.9931640028953552,0.9982262021776533,-0.110626220703125,-0.030517578125,-0.6427764892578125,0.6529403482893906
1780401851.669631,-0.0405273400247097,-0.080078125,0.9814452528953552,0.9855403369846522,0.2574920654296875,-0.2155303955078125,-0.2765655517578125,0.43502186102091905
1780401851.678693,-0.0405273400247097,-0.08251953125,0.9819335341453552,0.9862278660666538,0.1354217529296875,0.3986358642578125,-0.2765655517578125,0.5037242379102138
1780401851.687756,-0.0449218712747097,-0.07861328125,0.9897460341453552,0.9938788832720875,-0.049591064453125,0.518798828125,0.1468658447265625,0.5414619784294314
1780401851.696817,-0.017578125,-0.07470703125,0.9809569716453552,0.9839546286370782,0.133514404296875,0.213623046875,0.2117156982421875,0.3290660103886222
1780401851.705879,-0.04150390625,-0.08056640625,0.9799804091453552,0.9841621423112894,0.1354217529296875,0.0896453857421875,0.0286102294921875,0.1649057051257189
1780401851.715512,-0.033203125,-0.08447265625,0.9770507216453552,0.9812574533889695,-0.0476837158203125,0.2727508544921875,-0.3414154052734375,0.43958075974577904
1780401851.725144,-0.0366210900247097,-0.08447265625,0.9858397841453552,0.9901296954905904,-0.2918243408203125,0.2727508544921875,-0.3986358642578125,0.564327056585099
1780401851.734776,-0.0512695275247097,-0.0888671875,0.9814452528953552,0.9867931525388666,0.133514404296875,0.213623046875,0.0286102294921875,0.2535339179330913
1780401851.744408,-0.0351562425494194,-0.07666015625,0.9916991591453552,0.9952788369075636,-0.2918243408203125,0.0896453857421875,-0.0934600830078125,0.3192687397724724
1780401851.75404,-0.052734375,-0.0810546875,0.9902343153953552,0.9949446095430997,0.072479248046875,-0.335693359375,-0.2155303955078125,0.4054585358747148
1780401851.763596,-0.05712890625,-0.0703125,0.9643554091453552,0.9686015252586982,0.255584716796875,-0.030517578125,0.2727508544921875,0.37503053030516426
1780401851.773149,-0.0498046800494194,-0.0712890625,0.9853515028953552,0.9891815914406662,0.3185272216796875,-0.2155303955078125,0.1468658447265625,0.4116825460059992
1780401851.782703,-0.0473632775247097,-0.08203125,0.9804686903953552,0.9850336333750377,0.0133514404296875,-0.1544952392578125,0.4520416259765625,0.47790027362454046
1780401851.792258,-0.0434570237994194,-0.0751953125,0.9892577528953552,0.9930628125164307,-0.3528594970703125,-0.0896453857421875,0.5779266357421875,0.6830412258113433
1780401851.801811,-0.0356445275247097,-0.0869140625,0.9848632216453552,0.9893331855105143,-0.2899169921875,-0.274658203125,0.4520416259765625,0.603183738605771
1780401851.811426,-0.020996086299419403,-0.0908203125,0.9794921278953552,0.9839176761352858,-0.171661376953125,0.030517578125,0.7610321044921875,0.7807488808700697
1780401851.821041,-0.0317382775247097,-0.08349609375,0.9790038466453552,0.9830704184737462,-0.8411407470703125,-0.0896453857421875,0.2727508544921875,0.8887896715157572
1780401851.830657,-0.0073242150247097015,-0.07275390625,0.9941405653953552,0.996826082506351,-0.8411407470703125,0.0896453857421875,0.2117156982421875,0.8719963236442262
1780401851.840271,-0.0336914025247097,-0.0869140625,0.9965819716453552,1.0009319612605443,-0.598907470703125,-0.152587890625,-0.5817413330078125,0.8487615692048669
1780401851.849886,-0.0361328087747097,-0.08203125,0.9868163466453552,0.9908790076760119,-0.904083251953125,-0.030517578125,-0.5817413330078125,1.0755095664690575
1780401851.859472,-0.0458984337747097,-0.07421875,0.9868163466453552,0.9906672453861689,-0.2918243408203125,-0.0896453857421875,-0.3414154052734375,0.45799805680603173
1780401851.869061,-0.0375976525247097,-0.083984375,0.9770507216453552,0.9813740731174931,-0.2918243408203125,0.5779266357421875,-0.0362396240234375,0.6484396290672348
1780401851.87865,-0.0532226487994194,-0.0830078125,0.9965819716453552,1.0014482380481804,0.072479248046875,0.152587890625,0.3299713134765625,0.3706984940356182
1780401851.888239,-0.0395507775247097,-0.08837890625,0.9785155653953552,0.983294364264205,0.255584716796875,0.152587890625,1.0662078857421875,1.1069805180961187
1780401851.897828,-0.0419921875,-0.08544921875,0.9877929091453552,0.9923707694979053,0.1354217529296875,0.5779266357421875,1.4934539794921875,1.6070914834967809
1780401851.907431,-0.0273437462747097,-0.06884765625,0.9960936903953552,0.9988444925397004,0.255584716796875,0.213623046875,0.9441375732421875,1.0011763634964341
1780401851.917037,-0.0400390587747097,-0.083984375,0.9907225966453552,0.9950817880834824,0.438690185546875,0.396728515625,1.0051727294921875,1.1662824744117275
1780401851.926641,-0.0307617150247097,-0.0595703087747097,0.9799804091453552,0.9822710965448762,0.438690185546875,0.396728515625,0.4520416259765625,0.7444355080332358
1780401851.936247,-0.0405273400247097,-0.07666015625,0.9853515028953552,0.9891596580450944,0.133514404296875,0.701904296875,0.0286102294921875,0.7150624331888322
1780401851.945851,-0.0410156212747097,-0.08837890625,0.9794921278953552,0.9843261354182706,-0.232696533203125,0.457763671875,-0.3986358642578125,0.6500813857708962
1780401851.953901,-0.0410156212747097,-0.06884765625,0.9746093153953552,0.9778985625386059,-0.110626220703125,0.396728515625,-0.5245208740234375,0.666898660295088
1780401851.961951,-0.0351562462747097,-0.0830078125,0.9868163466453552,0.9909252043391817,-0.4730224609375,0.030517578125,-0.6427764892578125,0.798650853795689
1780401851.970001,-0.0419921837747097,-0.08203125,0.9921874403953552,0.9964579200111855,-0.6580352783203125,-0.2155303955078125,-0.6427764892578125,0.9447885446196117
1780401851.978051,-0.0439453050494194,-0.07421875,0.9858397841453552,0.9896058269286866,-0.7781982421875,-0.457763671875,-0.5245208740234375,1.044156229076142
1780401851.988647,-0.0361328087747097,-0.07373046875,0.9956054091453552,0.99898543163128,-0.598907470703125,-0.335693359375,-0.2155303955078125,0.7196065184392381
1780401851.999243,-0.04736328125,-0.080078125,0.9755858778953552,0.9800120364889062,-0.598907470703125,-0.457763671875,-0.3414154052734375,0.8275277739813467
1780401852.009839,-0.0424804650247097,-0.07421875,0.9902343153953552,0.9939200230133136,-0.415802001953125,-0.152587890625,0.0286102294921875,0.4438388383469941
1780401852.017869,-0.029785148799419403,-0.08642578125,1.00146484375,1.0056283627766711,0.072479248046875,0.213623046875,0.2727508544921875,0.3539506691331679
1780401852.025895,-0.0346679612994194,-0.06982421875,0.9970702528953552,1.0001131827315914,-0.110626220703125,0.640869140625,0.0896453857421875,0.6564965432485903
1780401852.033922,-0.0478515587747097,-0.0771484375,0.9897460341453552,0.9939008326751314,0.072479248046875,-0.030517578125,0.0896453857421875,0.11925124383804768
1780401852.04195,-0.0361328087747097,-0.0732421875,0.9936522841453552,0.997002938655156,0.1983642578125,0.030517578125,0.1468658447265625,0.24869515013237836
1780401852.052605,-0.0380859375,-0.0810546875,0.9931640028953552,0.997193630970486,0.255584716796875,0.213623046875,0.3299713134765625,0.46887036730182163
1780401852.063262,-0.0468749962747097,-0.078125,0.9838866591453552,0.9880960170676545,0.0152587890625,0.030517578125,0.2117156982421875,0.21444740637379214
1780401852.073917,-0.0385742112994194,-0.07421875,0.9814452528953552,0.9850031355583405,0.072479248046875,0.213623046875,0.5168914794921875,0.5639723833001234
1780401852.082107,-0.0390624962747097,-0.0869140625,0.9873046278953552,0.9918923132775309,-0.2918243408203125,-0.0896453857421875,0.0286102294921875,0.3066207532305521
1780401852.090299,-0.0317382775247097,-0.09423828125,0.9907225966453552,0.9957004747497636,-0.171661376953125,0.030517578125,0.2117156982421875,0.2742671832251087
1780401852.098491,-0.0312499962747097,-0.07861328125,0.9965819716453552,1.0001661044369603,-0.2899169921875,-0.640869140625,0.0286102294921875,0.7039770330032569
1780401852.106683,-0.0268554650247097,-0.06884765625,0.9873046278953552,0.9900664846546404,-0.2899169921875,-0.762939453125,-0.2765655517578125,0.8617522706165759
1780401852.117125,-0.0312499962747097,-0.076171875,0.9907225966453552,0.9941378075055289,0.0133514404296875,-0.7610321044921875,-0.1583099365234375,0.7774382039952823
1780401852.127567,-0.0405273400247097,-0.08935546875,0.9892577528953552,0.9941115464315754,0.072479248046875,-0.335693359375,-0.2155303955078125,0.4054585358747148
1780401852.138009,-0.0249023400247097,-0.0830078125,0.9887694716453552,0.992560069483241,0.5016326904296875,0.1506805419921875,-0.5245208740234375,0.7412571275401653
1780401852.145999,-0.0385742112994194,-0.08837890625,0.9941405653953552,0.9988064199893366,0.133514404296875,1.495361328125,-0.7038116455078125,1.6580960256145987
1780401852.153989,-0.04248046875,-0.0751953125,0.9843749403953552,0.9881563380991651,-0.4749298095703125,1.2493133544921875,-0.7648468017578125,1.539913248170224
1780401852.161979,-0.0498046837747097,-0.08203125,0.9853515028953552,0.9900137457432582,-0.720977783203125,0.640869140625,-0.2765655517578125,1.003499239509937
1780401852.169969,-0.0541992112994194,-0.07666015625,0.9775390028953552,0.9820370849633933,-0.6580352783203125,-0.2155303955078125,-0.2155303955078125,0.7252014411800347
1780401852.180578,-0.0361328087747097,-0.068359375,0.9921874403953552,0.9951957098473782,-1.2664794921875,-0.762939453125,-0.0362396240234375,1.4789726919776247
1780401852.191185,-0.0478515587747097,-0.0869140625,0.9746093153953552,0.979646438054478,-1.331329345703125,-0.762939453125,-0.2765655517578125,1.559167386871624
1780401852.201793,-0.0312499962747097,-0.0654296875,0.9863280653953552,0.9889897162559685,-1.392364501953125,-0.640869140625,-0.2765655517578125,1.5575238894231136
1780401852.20985,-0.04248046875,-0.10009765625,0.9873046278953552,0.9932746645694477,-1.2683868408203125,-0.5207061767578125,-0.2155303955078125,1.3879457669043216
1780401852.217907,-0.03271484375,-0.0849609375,0.9902343153953552,0.9944106904538856,-1.026153564453125,-0.335693359375,0.0286102294921875,1.0800461631800384
1780401852.225965,-0.0434570275247097,-0.09228515625,0.9912108778953552,0.9964457174193941,-0.6580352783203125,-0.2155303955078125,0.2727508544921875,0.7442155652282904
1780401852.234021,-0.0356445275247097,-0.08447265625,0.9892577528953552,0.9934973898606669,-0.2918243408203125,0.1506805419921875,0.4520416259765625,0.5587554950475241
1780401852.244666,-0.0322265625,-0.0654296875,1.0009765625,1.003630247656591,0.1964569091796875,0.1506805419921875,0.5779266357421875,0.6287281918283755
1780401852.255311,-0.0405273400247097,-0.08740234375,0.9838866591453552,0.9885922278809802,0.3814697265625,0.518798828125,0.5779266357421875,0.8652575181111256
1780401852.265956,-0.04296875,-0.10009765625,0.9907225966453552,0.9966930910601421,0.438690185546875,0.518798828125,0.6999969482421875,0.9754983498230023
1780401852.273991,-0.0346679612994194,-0.07666015625,0.9873046278953552,0.9908829776318282,0.743865966796875,0.823974609375,0.5168914794921875,1.224519307738737
1780401852.282029,-0.0375976525247097,-0.0791015625,0.9863280653953552,0.9902089139428378,0.6847381591796875,0.7610321044921875,0.8831024169921875,1.3520007727815981
1780401852.290067,-0.0434570237994194,-0.0791015625,0.9804686903953552,0.9846138445873223,0.5016326904296875,0.7038116455078125,1.0051727294921875,1.3256539535545904
1780401852.298105,-0.0317382775247097,-0.08642578125,0.9868163466453552,0.9911020310398896,0.5016326904296875,0.6389617919921875,0.5779266357421875,0.9969487068219093
1780401852.307725,-0.0336913987994194,-0.07421875,0.9892577528953552,0.9926099107243448,0.3814697265625,0.335693359375,0.2117156982421875,0.550484078511194
1780401852.317344,-0.0434570237994194,-0.07373046875,0.9946288466453552,0.9983041808580527,0.0133514404296875,0.1506805419921875,-0.2155303955078125,0.26331775117595274
1780401852.326963,-0.0390624925494194,-0.06591796875,0.9936522841453552,0.9966021867904872,-0.2918243408203125,0.2727508544921875,-0.3986358642578125,0.564327056585099
1780401852.336582,-0.0468749962747097,-0.08203125,0.9877929091453552,0.9923009738028884,-0.2918243408203125,0.0896453857421875,-0.5245208740234375,0.6068936384296563
1780401852.346201,-0.0444335862994194,-0.0849609375,0.9887694716453552,0.9934071534623363,-0.4730224609375,0.030517578125,-0.1583099365234375,0.49974354135700344
1780401852.355767,-0.0488281175494194,-0.0849609375,0.9941405653953552,0.9989584624642285,-0.2899169921875,-0.274658203125,-0.0362396240234375,0.4010016225057709
1780401852.365331,-0.0400390550494194,-0.08056640625,0.9873046278953552,0.9913952289621311,-0.2899169921875,-0.457763671875,0.0286102294921875,0.5426029735258785
1780401852.374896,-0.0356445275247097,-0.0703125,0.9941405653953552,0.9972611712903027,-0.2899169921875,-0.762939453125,0.4520416259765625,0.9329898729939439
1780401852.384461,-0.0473632775247097,-0.0869140625,0.9902343153953552,0.9951689975600347,0.0152587890625,-0.457763671875,0.5779266357421875,0.7374141348200614
1780401852.394027,-0.03759765625,-0.08447265625,0.9848632216453552,0.9891940046113765,-0.2307891845703125,0.0896453857421875,0.2117156982421875,0.32576598929549466
1780401852.403615,-0.0336913987994194,-0.0751953125,0.9916991591453552,0.9951164090821931,-0.110626220703125,0.640869140625,0.3299713134765625,0.729268457997417
1780401852.413204,-0.0434570237994194,-0.07568359375,0.9799804091453552,0.9838587914884515,-0.415802001953125,0.762939453125,0.3948211669921875,0.9543854922765609
1780401852.422793,-0.0507812462747097,-0.07763671875,0.9829100966453552,0.9872783058281291,0.133514404296875,0.885009765625,0.3299713134765625,0.9539127051904774
1780401852.432382,-0.0361328087747097,-0.08349609375,0.9892577528953552,0.9934324733996902,0.1983642578125,0.701904296875,0.1468658447265625,0.7440346746599509
1780401852.441972,-0.0405273400247097,-0.07666015625,0.9873046278953552,0.9911052785195621,0.072479248046875,0.640869140625,-0.0934600830078125,0.6516910954729194
1780401852.449993,-0.0336913987994194,-0.0751953125,0.9833983778953552,0.9868443722402485,0.072479248046875,0.396728515625,-0.0934600830078125,0.4139825402396622
1780401852.458015,-0.0483398362994194,-0.07666015625,0.9887694716453552,0.9929141893374089,0.1354217529296875,-0.0324249267578125,-0.3414154052734375,0.36872063408470157
1780401852.466038,-0.0419921837747097,-0.072265625,0.9921874403953552,0.9957015521395436,-0.1697540283203125,-0.3376007080078125,-0.3414154052734375,0.5092692285386732
1780401852.47406,-0.0351562425494194,-0.076171875,0.9902343153953552,0.9937817241817828,0.0133514404296875,-0.2155303955078125,-0.2765655517578125,0.35088476280454933
1780401852.484721,-0.0556640587747097,-0.087890625,0.9931640028953552,0.9985980102369972,0.316619873046875,-0.457763671875,-0.6427764892578125,0.8502689800523718
1780401852.495384,-0.0332031212747097,-0.08837890625,0.9887694716453552,0.9932665032055417,-0.1697540283203125,-0.2155303955078125,-0.2155303955078125,0.3488884247241253
1780401852.506045,-0.0400390550494194,-0.09033203125,0.9858397841453552,0.9907790277366402,0.0133514404296875,-0.0896453857421875,0.0896453857421875,0.1274788269920879
1780401852.51667,-0.0507812462747097,-0.06787109375,0.9970702528953552,1.0006669323750244,-0.232696533203125,0.213623046875,0.3299713134765625,0.45679705607453225
1780401852.527297,-0.0395507737994194,-0.08935546875,0.9956054091453552,1.0003893213260302,0.1983642578125,0.518798828125,0.3299713134765625,0.6460508266064096
1780401852.537924,-0.0415039025247097,-0.08203125,0.9877929091453552,0.9920617577848604,0.1354217529296875,0.2727508544921875,0.5779266357421875,0.6532467191598063
1780401852.546144,-0.04296875,-0.0791015625,1.0009765625,1.0050161438209937,-0.110626220703125,0.518798828125,0.3948211669921875,0.6612670706121715
1780401852.554361,-0.0424804650247097,-0.08203125,0.9838866591453552,0.9882138806601972,-0.049591064453125,0.213623046875,0.3948211669921875,0.4516390524908417
1780401852.562579,-0.0488281175494194,-0.08544921875,0.9785155653953552,0.9834523200284785,-0.110626220703125,0.030517578125,0.6999969482421875,0.7093413922999614
1780401852.570797,-0.0288085900247097,-0.07763671875,0.9887694716453552,0.9922310532407829,-0.2918243408203125,0.0896453857421875,-0.0934600830078125,0.3192687397724724
1780401852.581125,-0.0234375,-0.0791015625,0.9965819716453552,0.9999909998618662,-0.110626220703125,0.030517578125,-0.4596710205078125,0.47377941109377664
1780401852.591454,-0.0366210900247097,-0.09375,0.9892577528953552,0.9943646556460892,-0.110626220703125,-0.030517578125,-0.5245208740234375,0.5369279565900651
1780401852.601782,-0.0454101525247097,-0.0869140625,0.9868163466453552,0.991676680283981,-0.232696533203125,-0.640869140625,-0.7038116455078125,0.9799039566827934
1780401852.612493,-0.0366210900247097,-0.0869140625,1.00146484375,1.0058961138020486,-0.2918243408203125,-0.0324249267578125,-0.6427764892578125,0.706664302843336
1780401852.623206,-0.0439453050494194,-0.08447265625,0.9819335341453552,0.9865395506359614,-0.171661376953125,-0.457763671875,-0.3986358642578125,0.6308135698433402
1780401852.633919,-0.0405273400247097,-0.07666015625,0.9946288466453552,0.9984016162971805,-0.049591064453125,-0.640869140625,0.0286102294921875,0.6434213816082084
1780401852.641886,-0.0493164025247097,-0.08203125,0.9956054091453552,1.0001956629850142,0.1354217529296875,-0.3376007080078125,0.1468658447265625,0.3922790659226826
1780401852.649853,-0.0507812462747097,-0.0771484375,0.9960936903953552,1.0003665610301766,0.3185272216796875,-0.3376007080078125,0.5779266357421875,0.7412374958801262
1780401852.657821,-0.0400390587747097,-0.07470703125,0.9780272841453552,0.9816932490745225,0.133514404296875,-0.274658203125,0.7610321044921875,0.8200201758288701
1780401852.665789,-0.0458984337747097,-0.07666015625,0.9916991591453552,0.9957161583648476,0.0133514404296875,0.2727508544921875,0.6999969482421875,0.7513767478010892
1780401852.676466,-0.0336914025247097,-0.072265625,0.9980468153953552,1.0012266860614198,0.1659393310546875,0.3299713134765625,0.7610321044921875,0.8459236333003901
1780401852.687143,-0.0419921837747097,-0.08837890625,0.9863280653953552,0.9911696258232793,0.0400543212890625,0.2079010009765625,1.0662078857421875,1.0870264166430408
1780401852.69782,-0.0395507775247097,-0.07861328125,0.9833983778953552,0.987328051682376,0.0400543212890625,0.2079010009765625,1.0662078857421875,1.0870264166430408
1780401852.705832,-0.0385742150247097,-0.08251953125,0.9873046278953552,0.991497791911852,0.102996826171875,0.08392333984375,1.1882781982421875,1.1956824618558677
1780401852.713842,-0.0351562462747097,-0.07421875,0.9956054091453552,0.9989867442680012,-0.1430511474609375,0.2689361572265625,1.1234283447265625,1.163993785717409
1780401852.721853,-0.0185546837747097,-0.07275390625,0.9765624403953552,0.9794445401121724,0.102996826171875,-0.03814697265625,0.5779266357421875,0.5882709698978857
1780401852.729864,-0.0312499962747097,-0.07421875,0.9858397841453552,0.9891233821533553,-0.019073486328125,-0.278472900390625,0.3299713134765625,0.432194425982247
1780401852.740558,-0.0380859337747097,-0.06787109375,0.9843749403953552,0.9874467312198021,-0.080108642578125,-0.22125244140625,-0.0934600830078125,0.25318930577684967
1780401852.751252,-0.0366210900247097,-0.0703125,0.9887694716453552,0.9919425487137261,0.102996826171875,0.57220458984375,-0.0934600830078125,0.5888643527634873
1780401852.761946,-0.0390624962747097,-0.08251953125,0.9794921278953552,0.9837378615575911,-0.1430511474609375,0.0858306884765625,-0.7648468017578125,0.7828289519642245
1780401852.770106,-0.0405273362994194,-0.076171875,0.9868163466453552,0.9905812039075987,0.102996826171875,-0.278472900390625,-0.8296966552734375,0.8812219029423722
1780401852.77827,-0.0371093712747097,-0.08447265625,0.9892577528953552,0.9935510237294825,-0.2651214599609375,-0.2803802490234375,-0.6427764892578125,0.7497093354873358
1780401852.786433,-0.0410156212747097,-0.068359375,0.9897460341453552,0.992951407393836,-0.202178955078125,-0.34332275390625,-0.7038116455078125,0.8087630528026541
1780401852.794595,-0.0488281175494194,-0.0791015625,0.9926757216453552,0.9970187212873628,-0.324249267578125,-0.40435791015625,-0.3986358642578125,0.6538757216042308
1780401852.802707,-0.0415039025247097,-0.0556640587747097,0.9877929091453552,0.9902302220806528,-0.324249267578125,-0.278472900390625,-0.7038116455078125,0.8234291567155806
1780401852.810819,-0.0444335900247097,-0.0927734375,0.9902343153953552,0.9955627825579652,-0.2651214599609375,-0.2193450927734375,-0.5245208740234375,0.6273147579500403
1780401852.818931,-0.0429687462747097,-0.09228515625,0.9892577528953552,0.9944816563839048,-0.202178955078125,0.14495849609375,-0.6427764892578125,0.689239371052498
1780401852.827043,-0.0351562425494194,-0.076171875,0.9804686903953552,0.9840513039353141,-0.4482269287109375,0.0858306884765625,-0.9479522705078125,1.0520873508729764
1780401852.837358,-0.046875,-0.0810546875,0.9863280653953552,0.9907624238823689,-0.385284423828125,0.08392333984375,-0.5817413330078125,0.7027874449254243
1780401852.847673,-0.0512695275247097,-0.1044921875,0.9931640028953552,0.9999609584120108,0.0400543212890625,0.0858306884765625,-0.8869171142578125,0.8919603260805347
1780401852.857988,-0.0551757775247097,-0.08837890625,0.9863280653953552,0.9918156331102805,-0.019073486328125,-0.03814697265625,-0.7648468017578125,0.7660349989149976
1780401852.868779,-0.04736328125,-0.08056640625,0.9877929091453552,0.9922041410842078,0.2231597900390625,0.0247955322265625,-0.7648468017578125,0.797123416083
1780401852.879572,-0.0478515625,-0.0947265625,0.9819335341453552,0.98765194231366,0.4062652587890625,-0.0362396240234375,-0.4596710205078125,0.6145422832832561
1780401852.890365,-0.0561523400247097,-0.091796875,0.9946288466453552,1.0004330532969639,0.4062652587890625,-0.1583099365234375,-0.2155303955078125,0.48638138110823365
1780401852.900932,-0.0429687462747097,-0.0888671875,0.9873046278953552,0.9922268482731993,0.8945465087890625,-0.2803802490234375,0.2117156982421875,0.9610671554638219
1780401852.9115,-0.0346679650247097,-0.08349609375,0.9814452528953552,0.9856004514514444,0.286102294921875,-0.22125244140625,-0.2155303955078125,0.4210231791428397
1780401852.922069,-0.0537109300494194,-0.0703125,0.9877929091453552,0.991747721459882,0.286102294921875,-0.40435791015625,-0.4596710205078125,0.675764226457858
1780401852.932763,-0.0361328087747097,-0.0791015625,0.9780272841453552,0.9818859432707194,0.286102294921875,-0.70953369140625,-0.2155303955078125,0.7948244672806049
1780401852.943458,-0.0390624962747097,-0.08349609375,0.9848632216453552,0.9891678531151266,0.164031982421875,-1.255035400390625,-0.1583099365234375,1.275571394902285
1780401852.954151,-0.033203125,-0.0810546875,0.9887694716453552,0.9926416160595541,-0.0820159912109375,-1.2569427490234375,-0.3986358642578125,1.321189709848469
1780401852.962353,-0.0234374962747097,-0.07861328125,1.0029296875,1.0062789485472536,0.469207763671875,-1.19781494140625,0.0286102294921875,1.2867537078157638
1780401852.970554,-0.0390624925494194,-0.0849609375,0.9999999403953552,1.0043625441123172,0.469207763671875,-0.278472900390625,-0.2155303955078125,0.5866484749231716
1780401852.978755,-0.0336913987994194,-0.07568359375,0.9907225966453552,0.9941802553962192,0.774383544921875,0.026702880859375,-0.3986358642578125,0.8713744721785994
1780401852.986957,-0.0366210900247097,-0.06982421875,0.9824218153953552,0.9855806152331483,0.5283355712890625,0.6351470947265625,0.0286102294921875,0.8266612686345772
1780401852.997582,-0.0366210900247097,-0.07763671875,0.9892577528953552,0.9929750580938235,0.164031982421875,0.698089599609375,0.2117156982421875,0.747702559325702
1780401853.008208,-0.0385742112994194,-0.06591796875,0.9848632216453552,0.9878201828932056,-0.019073486328125,0.63323974609375,0.0286102294921875,0.6341726256668462
1780401853.018834,-0.0493163987994194,-0.076171875,0.9819335341453552,0.9861175017262124,-0.751495361328125,0.38909912109375,0.2727508544921875,0.8891211575256975
1780401853.026631,-0.03662109375,-0.0712890625,0.9833983778953552,0.9866588085994018,-0.9365081787109375,-0.1583099365234375,0.2727508544921875,0.9881814779789948
1780401853.034427,-0.03662109375,-0.08544921875,0.9877929091453552,0.9921580039743043,-1.178741455078125,-0.09918212890625,0.7610321044921875,1.4065697198083993
1780401853.042223,-0.0444335862994194,-0.07470703125,0.9843749403953552,0.9882051949812729,-1.300811767578125,-0.40435791015625,0.6999969482421875,1.5315391936623861
1780401853.050019,-0.02685546875,-0.08544921875,0.9873046278953552,0.9913592756666745,-1.4820098876953125,-0.4634857177734375,0.5168914794921875,1.6365662587803325
1780401853.058103,-0.0312499962747097,-0.06787109375,0.9907225966453552,0.9935362656379011,-1.1196136474609375,-0.3414154052734375,0.5168914794921875,1.2795608622142334
1780401853.066185,-0.0405273400247097,-0.080078125,0.9956054091453552,0.9996424871485227,-0.9937286376953125,-0.1583099365234375,0.6351470947265625,1.189945575779594
1780401853.074268,-0.0312499962747097,-0.0751953125,0.9907225966453552,0.9940634591377239,-0.873565673828125,0.209808349609375,0.4520416259765625,1.0057227061532072
1780401853.082351,-0.0224609337747097,-0.0830078125,0.9916991591453552,0.9954205205498184,-0.8754730224609375,0.0247955322265625,0.2117156982421875,0.9010501475264652
1780401853.094243,-0.024902336299419403,-0.08154296875,1.001953125,1.0055741876177005,0.286102294921875,0.38909912109375,0.6351470947265625,0.7979125773761717
1780401853.106138,-0.0205078087747097,-0.09326171875,1.0068359375,1.0113540050083591,0.4711151123046875,0.3299713134765625,-0.0934600830078125,0.5827223214148686
1780401853.118033,-0.03271484375,-0.0849609375,0.9868163466453552,0.9910071260636584,0.8945465087890625,0.6961822509765625,0.0286102294921875,1.1338878816677993
1780401853.129928,-0.0390624962747097,-0.0869140625,0.9980468153953552,1.0025853472878385,1.262664794921875,0.63323974609375,-0.1583099365234375,1.4213996610278308
1780401853.137893,-0.0463867150247097,-0.09130859375,0.9916991591453552,0.9969735246600036,0.7114410400390625,0.7572174072265625,-0.0362396240234375,1.0396344865423333
1780401853.145858,-0.0419921837747097,-0.06396484375,0.9960936903953552,0.9990282702604409,0.7724761962890625,0.5130767822265625,-0.0362396240234375,0.9280520290600854
1780401853.153823,-0.0410156212747097,-0.07177734375,0.9921874403953552,0.9956255245536058,0.5893707275390625,0.6961822509765625,-0.3986358642578125,0.9954587552115308
1780401853.161788,-0.04296875,-0.0693359375,0.9873046278953552,0.9906685691840396,0.652313232421875,0.57220458984375,-0.2765655517578125,0.9107245194075059
1780401853.169815,-0.0483398362994194,-0.0751953125,0.9794921278953552,0.9835628619485377,0.164031982421875,0.38909912109375,-0.2765655517578125,0.5047703653269299
1780401853.17784,-0.05224609375,-0.07080078125,0.9824218153953552,0.9863544131307213,0.0400543212890625,0.1468658447265625,-0.5817413330078125,0.6013292804536303
1780401853.185867,-0.0449218675494194,-0.08984375,0.9736327528953552,0.9788005982368309,-0.202178955078125,0.38909912109375,0.0896453857421875,0.44756089093806756
1780401853.193892,-0.0415039025247097,-0.064453125,0.9921874403953552,0.995144560415889,-0.3871917724609375,0.0247955322265625,-0.0362396240234375,0.38967370636110543
1780401853.204542,-0.0458984337747097,-0.078125,0.9848632216453552,0.989022622186995,-0.690460205078125,-0.40435791015625,0.1468658447265625,0.8135171729285763
1780401853.215192,-0.0444335862994194,-0.080078125,0.9873046278953552,0.9915428775189348,-0.385284423828125,-0.58746337890625,0.5168914794921875,0.8722007282570572
1780401853.225842,-0.0468749962747097,-0.09423828125,0.9897460341453552,0.9953267458654805,-0.507354736328125,-0.949859619140625,0.6351470947265625,1.250221562959201
1780401853.236507,-0.0390624925494194,-0.0791015625,0.9838866591453552,0.9878339402745399,-0.324249267578125,-0.58746337890625,0.3299713134765625,0.7477512131707622
1780401853.247171,-0.0385742112994194,-0.08154296875,0.9829100966453552,0.9870407710005282,-0.812530517578125,0.08392333984375,-0.0934600830078125,0.8221823131654757
1780401853.257836,-0.0307617150247097,-0.07958984375,0.9877929091453552,0.991471460858685,-0.507354736328125,0.26702880859375,-0.3414154052734375,0.6672913097378119
1780401853.266157,-0.0419921875,-0.09033203125,0.9887694716453552,0.9937747671070246,0.0400543212890625,-0.2193450927734375,-0.7038116455078125,0.7382868349971643
1780401853.27448,-0.0400390550494194,-0.0859375,0.9921874403953552,0.9967067255285212,0.0400543212890625,-0.3414154052734375,-0.7038116455078125,0.7832749580858357
1780401853.282804,-0.0341796837747097,-0.09228515625,0.9902343153953552,0.9951124560739524,0.286102294921875,-0.22125244140625,-0.9479522705078125,1.0146037025108408
1780401853.291126,-0.0405273400247097,-0.0986328125,0.9951171278953552,1.0008141661776373,-0.019073486328125,-0.52642822265625,-1.0700225830078125,1.1926603873846229
1780401853.301453,-0.0312499962747097,-0.09033203125,0.9833983778953552,0.9880327969172563,0.2231597900390625,-0.4634857177734375,-0.8296966552734375,0.9762253030126634
1780401853.31178,-0.0493164025247097,-0.08740234375,0.9921874403953552,0.9972498153067059,0.102996826171875,-0.278472900390625,-0.7038116455078125,0.763875863479048
1780401853.322107,-0.0356445275247097,-0.072265625,0.9814452528953552,0.9847474992757931,0.164031982421875,-0.09918212890625,-0.7648468017578125,0.7885012467401563
1780401853.332764,-0.0341796800494194,-0.0810546875,0.9775390028953552,0.9814889785808338,-0.202178955078125,-0.278472900390625,-0.7038116455078125,0.7834375013240458
1780401853.343421,-0.0429687462747097,-0.08251953125,0.9775390028953552,0.9819563576736928,-0.2651214599609375,0.1468658447265625,-0.3986358642578125,0.5007689259045921
1780401853.354079,-0.0415039025247097,-0.091796875,0.9926757216453552,0.9977746882581623,-0.507354736328125,0.26702880859375,-0.6427764892578125,0.8613215591381523
1780401853.364903,-0.0400390587747097,-0.0771484375,1.0068359375,1.0105808293638663,-0.202178955078125,0.08392333984375,-0.3414154052734375,0.4055661916445176
1780401853.375727,-0.0537109337747097,-0.0830078125,0.9985350966453552,1.003417909235995,0.1010894775390625,-0.1583099365234375,-0.1583099365234375,0.24564843674086395
1780401853.386552,-0.0390624925494194,-0.080078125,0.9985350966453552,1.002502231249506,0.1010894775390625,0.1468658447265625,-0.3414154052734375,0.3851663767443791
1780401853.394639,-0.0498046800494194,-0.06640625,0.9848632216453552,0.9883551292645552,-0.019073486328125,0.209808349609375,-0.5245208740234375,0.5652481656165101
1780401853.402729,-0.0356445275247097,-0.08349609375,0.9921874403953552,0.9963322974250384,0.164031982421875,-0.22125244140625,-0.3414154052734375,0.4386611597161321
1780401853.410818,-0.0249023400247097,-0.07421875,0.9882811903953552,0.9913769518601535,0.102996826171875,-0.278472900390625,-0.7648468017578125,0.8204548327681427
1780401853.418906,-0.0297851525247097,-0.087890625,0.9843749403953552,0.9887395716528038,0.164031982421875,-0.278472900390625,-0.6427764892578125,0.719454837117533
1780401853.429319,-0.0346679650247097,-0.06884765625,0.9887694716453552,0.9917695980558728,-0.019073486328125,-0.22125244140625,-0.7038116455078125,0.7380157674883038
1780401853.439733,-0.0419921875,-0.08056640625,0.9848632216453552,0.9890449206061084,-0.202178955078125,-0.09918212890625,-1.0700225830078125,1.093463192209765
1780401853.450145,-0.0322265587747097,-0.08251953125,0.9833983778953552,0.987380571904975,-0.1430511474609375,-0.1583099365234375,-0.8869171142578125,0.9122212639241377
1780401853.458216,-0.0537109300494194,-0.06982421875,0.9804686903953552,0.9844181725143052,-0.0820159912109375,-0.1583099365234375,-0.3414154052734375,0.3851663767443791
1780401853.46629,-0.0454101525247097,-0.07861328125,0.9916991591453552,0.9958460484386197,-0.1430511474609375,0.1468658447265625,-0.3986358642578125,0.44826750875979265
1780401853.474362,-0.0429687462747097,-0.072265625,0.9946288466453552,0.9981759245203876,-0.202178955078125,0.14495849609375,-0.0362396240234375,0.2514012844350727
1780401853.482435,-0.0444335900247097,-0.0830078125,1.001953125,1.0063670829055293,0.591278076171875,0.26702880859375,-0.0362396240234375,0.6497903187412624
1780401853.492886,-0.0346679650247097,-0.08349609375,0.9882811903953552,0.9924077673817974,0.2231597900390625,-0.0362396240234375,-0.0934600830078125,0.24463930460060127
1780401853.503335,-0.0483398400247097,-0.0927734375,0.9858397841453552,0.9913746672388505,0.3452301025390625,0.0247955322265625,0.0896453857421875,0.3575401198500606
1780401853.513785,-0.0390624925494194,-0.07470703125,0.9882811903953552,0.9918703192109452,0.4711151123046875,-0.1583099365234375,0.3948211669921875,0.6347402925204811
1780401853.521869,-0.05224609375,-0.0849609375,0.9941405653953552,0.9991313622230108,0.591278076171875,0.38909912109375,0.3948211669921875,0.8104885213884988
1780401853.529953,-0.0297851525247097,-0.08203125,0.9868163466453552,0.9906678471081862,0.3452301025390625,-0.0362396240234375,0.2727508544921875,0.4414636595176438
1780401853.538038,-0.0356445275247097,-0.0791015625,0.9897460341453552,0.9935415449989295,0.2231597900390625,-0.0362396240234375,0.2727508544921875,0.35426915031633366
1780401853.546121,-0.0424804650247097,-0.0771484375,0.9819335341453552,0.9858752136029156,0.2231597900390625,0.0247955322265625,0.2727508544921875,0.3532819538766386
1780401853.556903,-0.0346679650247097,-0.07861328125,0.9868163466453552,0.990549553426951,0.2231597900390625,0.0247955322265625,-0.0934600830078125,0.24320751925979625
1780401853.567685,-0.0444335862994194,-0.09033203125,0.9912108778953552,0.996309803183357,-0.202178955078125,0.14495849609375,-0.2765655517578125,0.371991666419219
1780401853.578467,-0.0361328087747097,-0.08349609375,0.9946288466453552,0.9987811172226516,-0.202178955078125,-0.09918212890625,-0.1583099365234375,0.27527342874479055
1780401853.58639,-0.0429687462747097,-0.08251953125,0.9863280653953552,0.990706232331605,-0.080108642578125,-0.40435791015625,-0.2765655517578125,0.49639824590820525
1780401853.594311,-0.0336913987994194,-0.09375,0.9926757216453552,0.9976618972363274,-0.019073486328125,0.026702880859375,-0.3986358642578125,0.39998424218895456
1780401853.602232,-0.0356445275247097,-0.078125,0.9877929091453552,0.9915184714998021,-0.0171661376953125,-0.1583099365234375,-0.0362396240234375,0.16330959137414233
1780401853.610153,-0.0327148400247097,-0.087890625,0.9892577528953552,0.9936930735314102,0.102996826171875,0.209808349609375,-0.0934600830078125,0.25171944081281517
1780401853.619689,-0.0361328087747097,-0.08154296875,0.9824218153953552,0.9864620920173358,-0.202178955078125,0.08392333984375,0.3299713134765625,0.3959804598265676
1780401853.629225,-0.0336914025247097,-0.08251953125,0.9892577528953552,0.9932650629642469,0.3452301025390625,0.3299713134765625,0.4520416259765625,0.6575762488351552
1780401853.638762,-0.0488281175494194,-0.08544921875,0.9873046278953552,0.9921976528454354,0.102996826171875,0.08392333984375,0.2117156982421875,0.2499500151113938
1780401853.648298,-0.0297851525247097,-0.06884765625,0.9902343153953552,0.993071575702651,0.3452301025390625,0.3299713134765625,0.1468658447265625,0.4996343340522409
1780401853.657834,-0.0463867150247097,-0.083984375,0.9824218153953552,0.9870956012158243,-0.1430511474609375,0.5130767822265625,0.3948211669921875,0.663019735117234
1780401853.667429,-0.0371093712747097,-0.07958984375,0.9760741591453552,0.9800165370114251,-0.202178955078125,0.38909912109375,0.5168914794921875,0.6778283392452943
1780401853.677026,-0.037109375,-0.07568359375,0.9887694716453552,0.9923558737336322,0.041961669921875,0.38909912109375,0.3948211669921875,0.5559160563283219
1780401853.686621,-0.0375976525247097,-0.08837890625,0.9794921278953552,0.9841896378007066,-0.202178955078125,0.08392333984375,0.2117156982421875,0.304537343735032
1780401853.696217,-0.04248046875,-0.07470703125,1.001953125,1.0056320377954722,-0.1430511474609375,0.2689361572265625,0.1468658447265625,0.3381713527206703
1780401853.705813,-0.0341796837747097,-0.0830078125,0.9843749403953552,0.9884596961926841,0.0400543212890625,0.2689361572265625,0.2727508544921875,0.3851285940357275
1780401853.713843,-0.0478515625,-0.08154296875,0.9975585341453552,1.0020289700564973,0.0400543212890625,0.0247955322265625,-0.2155303955078125,0.22061849074835052
1780401853.721874,-0.029785148799419403,-0.0703125,0.9814452528953552,0.9844113912262907,-0.080108642578125,-0.22125244140625,-0.3414154052734375,0.4146498720631196
1780401853.729903,-0.029785148799419403,-0.08935546875,0.9829100966453552,0.9874126862522667,-0.385284423828125,-0.52642822265625,-0.7038116455078125,0.9596465980797323
1780401853.737933,-0.0332031212747097,-0.078125,0.9877929091453552,0.9914337064298485,0.0400543212890625,-0.2803802490234375,-0.8296966552734375,0.8767063205363023
1780401853.745934,-0.0434570237994194,-0.0751953125,0.9853515028953552,0.9891715888548412,0.286102294921875,-0.22125244140625,-0.7648468017578125,0.8460483414952978
1780401853.753935,-0.0385742112994194,-0.0859375,0.9931640028953552,0.9976211507033856,0.2231597900390625,-0.5245208740234375,-0.7038116455078125,0.9056893902045027
1780401853.761936,-0.0444335900247097,-0.08837890625,0.9814452528953552,0.9864177408295423,0.4062652587890625,-0.1583099365234375,-0.2155303955078125,0.48638138110823365
1780401853.769938,-0.0493163987994194,-0.07421875,0.9936522841453552,0.9976399109044243,0.3452301025390625,-0.4024505615234375,0.2727508544921875,0.5962745230142574
1780401853.780707,-0.0449218712747097,-0.0830078125,0.9921874403953552,0.9966665381827281,0.164031982421875,-0.09918212890625,0.6351470947265625,0.6634420983712288
1780401853.791477,-0.0439453087747097,-0.0732421875,0.9877929091453552,0.9914789153335202,0.0400543212890625,-0.2193450927734375,0.6351470947265625,0.6731481637182919
1780401853.802248,-0.0473632775247097,-0.07421875,0.9746093153953552,0.9785780605372513,0.225067138671875,-0.09918212890625,0.8831024169921875,0.9167127088143615
1780401853.812867,-0.0361328087747097,-0.07421875,0.9975585341453552,1.0009680473260583,0.102996826171875,-0.09918212890625,0.8831024169921875,0.8946034427573476
1780401853.823488,-0.0229492150247097,-0.08203125,0.9916991591453552,0.9953506993499414,0.164031982421875,-0.09918212890625,0.8182525634765625,0.8404051663260955
1780401853.83411,-0.0283203125,-0.07958984375,0.9902343153953552,0.9938312647098374,-0.080108642578125,0.26702880859375,0.7610321044921875,0.8104885213884988
1780401853.844909,-0.0356445275247097,-0.07373046875,0.9868163466453552,0.9902086731447268,-0.1430511474609375,1.1234283447265625,-0.2765655517578125,1.1657801597831636
1780401853.855707,-0.0478515625,-0.08447265625,0.9868163466453552,0.991580507923642,-0.2651214599609375,1.1844635009765625,-0.5245208740234375,1.322257660580488
1780401853.866505,-0.0405273400247097,-0.0693359375,0.9843749403953552,0.9876456656093021,-0.446319580078125,1.36566162109375,-0.7648468017578125,1.627643530091487
1780401853.874462,-0.0410156212747097,-0.08056640625,0.9790038466453552,0.9831692421709461,-0.385284423828125,0.45013427734375,-0.7648468017578125,0.9674996563531715
1780401853.882419,-0.0380859375,-0.07470703125,0.9902343153953552,0.9937784856495688,-0.4482269287109375,-0.1583099365234375,-0.5817413330078125,0.751260536800251
1780401853.890376,-0.029785148799419403,-0.08154296875,0.9887694716453552,0.9925731604770511,-0.6923675537109375,-0.6465911865234375,-0.5245208740234375,1.0828550868919466
1780401853.898334,-0.0473632775247097,-0.068359375,0.9829100966453552,0.9864220913461209,-0.812530517578125,-1.01470947265625,-0.5245208740234375,1.4017714875044405
1780401853.908914,-0.0371093712747097,-0.0771484375,0.9912108778953552,0.994900995729312,-1.1196136474609375,-1.3179779052734375,-0.5245208740234375,1.80713104827958
1780401853.919495,-0.0278320275247097,-0.0888671875,0.9975585341453552,1.0018957170367215,-1.1196136474609375,-1.1348724365234375,-0.5245208740234375,1.6782706319446035
1780401853.930076,-0.0439453050494194,-0.0888671875,0.9833983778953552,0.9883829907972226,-0.690460205078125,-0.70953369140625,-0.2155303955078125,1.0132258906210698
1780401853.940785,-0.0458984337747097,-0.0927734375,0.9663085341453552,0.9718362825551858,-0.9365081787109375,-0.3414154052734375,0.5779266357421875,1.1522201369750427
1780401853.951493,-0.0322265625,-0.08642578125,0.9775390028953552,0.981881087085847,-0.8754730224609375,0.0247955322265625,1.1234283447265625,1.4244855482630745
1780401853.962201,-0.0244140587747097,-0.078125,0.9838866591453552,0.9872854298201019,-1.117706298828125,0.38909912109375,0.8831024169921875,1.4766635958719365
1780401853.970186,-0.0322265587747097,-0.09765625,0.9946288466453552,0.9999309160304986,-0.202178955078125,0.698089599609375,1.1234283447265625,1.3380196802343096
1780401853.978172,-0.0341796800494194,-0.0908203125,0.9985350966453552,1.0032392132106016,0.1010894775390625,0.8182525634765625,1.0662078857421875,1.3477965706010355
1780401853.986158,-0.0317382775247097,-0.09423828125,0.9848632216453552,0.9898705659139773,0.591278076171875,0.87738037109375,0.6351470947265625,1.2340250851914287
1780401853.994144,-0.029785148799419403,-0.08935546875,0.9868163466453552,0.991301193831129,0.652313232421875,0.75531005859375,0.3948211669921875,1.073261194542429
1780401854.004707,-0.0263671837747097,-0.09912109375,0.9833983778953552,0.988732819953713,1.018524169921875,0.38909912109375,0.2727508544921875,1.1239139821966766
1780401854.01527,-0.0395507775247097,-0.0791015625,0.9882811903953552,0.9922303323734922,0.713348388671875,0.38909912109375,-0.0934600830078125,0.8179234907816968
1780401854.025833,-0.0351562462747097,-0.07861328125,0.9829100966453552,0.9866753608600962,0.7114410400390625,0.4520416259765625,-0.0934600830078125,0.8480712070240474
1780401854.034036,-0.0483398362994194,-0.07177734375,0.9975585341453552,1.0013050264007917,-0.202178955078125,-0.03814697265625,-0.2155303955078125,0.297967905632592
1780401854.042239,-0.0502929612994194,-0.0751953125,0.9799804091453552,0.9841470008524821,-0.3871917724609375,0.1468658447265625,-0.2155303955078125,0.4668408683871232
1780401854.050442,-0.0512695275247097,-0.0732421875,0.9760741591453552,0.9801600617418077,-0.6313323974609375,-0.1583099365234375,0.0286102294921875,0.651506851320403
1780401854.058645,-0.04150390625,-0.08056640625,0.9824218153953552,0.9865932005719248,-0.8754730224609375,-0.3414154052734375,-0.0362396240234375,0.9403886443190788
1780401854.069136,-0.0546874962747097,-0.064453125,0.9809569716453552,0.9845920514561797,-0.812530517578125,-0.22125244140625,0.2117156982421875,0.8683213815783755
1780401854.079628,-0.0537109300494194,-0.09423828125,0.9873046278953552,0.9932452597034196,-0.5702972412109375,-0.6465911865234375,0.4520416259765625,0.973478678471248
1780401854.090118,-0.0346679650247097,-0.07763671875,0.9916991591453552,0.9953374051781766,-0.5702972412109375,-1.0128021240234375,0.8831024169921875,1.4597523641551797
1780401854.10073,-0.0405273400247097,-0.08935546875,0.9985350966453552,1.003344010954149,-0.3871917724609375,-0.8296966552734375,0.9441375732421875,1.3151843086202857
1780401854.111343,-0.024414055049419403,-0.0859375,0.9926757216453552,0.9966877085297745,-0.3223419189453125,-0.1583099365234375,0.9441375732421875,1.0101297470716561
1780401854.121956,-0.0380859337747097,-0.0869140625,0.9897460341453552,0.9942845692849729,0.041961669921875,0.38909912109375,0.9441375732421875,1.0220345713263363
1780401854.132576,-0.0302734337747097,-0.07861328125,1.005859375,1.0093808057699503,0.8373260498046875,1.1844635009765625,0.1468658447265625,1.4579568838530252
1780401854.143194,-0.0346679650247097,-0.0791015625,0.9916991591453552,0.9954527348088911,0.6542205810546875,1.0013580322265625,-0.2765655517578125,1.2276852128291231
1780401854.153812,-0.0385742150247097,-0.078125,0.9887694716453552,0.9926009035597376,0.7114410400390625,0.6351470947265625,-0.0934600830078125,0.9582770854545585
1780401854.162017,-0.0498046800494194,-0.08154296875,0.9921874403953552,0.9967776476153922,0.774383544921875,-0.03814697265625,-0.3986358642578125,0.8718002170458432
1780401854.170221,-0.0400390587747097,-0.064453125,0.9785155653953552,0.9814530265228295,0.591278076171875,-0.22125244140625,-0.4596710205078125,0.7809352426958547
1780401854.178424,-0.0517578087747097,-0.0888671875,0.9936522841453552,0.9989600139998605,0.164031982421875,-0.70953369140625,-0.6427764892578125,0.9713424553886383
1780401854.186628,-0.0361328087747097,-0.07470703125,0.9858397841453552,0.9893264377301856,-0.1430511474609375,-0.4634857177734375,-0.5245208740234375,0.7144261953877113
1780401854.196167,-0.0395507775247097,-0.072265625,0.9790038466453552,0.9824637989798158,-0.1430511474609375,-0.5855560302734375,-0.2765655517578125,0.6631952953682505
1780401854.205707,-0.04296875,-0.08984375,0.9936522841453552,0.9986305997103768,-0.2651214599609375,-0.5245208740234375,-0.0934600830078125,0.5951019433122001
1780401854.215245,-0.0366210900247097,-0.08740234375,0.9990233778953552,1.003507839286289,-0.2651214599609375,-0.4634857177734375,-0.2155303955078125,0.5758139894962014
1780401854.224784,-0.0317382775247097,-0.0791015625,0.9916991591453552,0.9953550108879653,-0.324249267578125,-0.03814697265625,-0.0362396240234375,0.32849062299728937
1780401854.234324,-0.03271484375,-0.0849609375,0.9921874403953552,0.9963556286691777,-0.019073486328125,-0.278472900390625,0.2727508544921875,0.3902614287357829
1780401854.243879,-0.0537109337747097,-0.08203125,1.00244140625,1.007225279343202,0.2231597900390625,0.1468658447265625,0.0286102294921875,0.26867901568436797
1780401854.253436,-0.0371093712747097,-0.08349609375,0.9975585341453552,1.0017343620711745,0.286102294921875,0.08392333984375,-0.0362396240234375,0.3003513950016767
1780401854.262993,-0.0512695275247097,-0.0849609375,0.9843749403953552,0.9893639111226187,0.102996826171875,0.08392333984375,0.2727508544921875,0.3033883679349415
1780401854.27255,-0.0532226525247097,-0.0869140625,0.9941405653953552,0.9993508737008321,0.5283355712890625,0.1468658447265625,0.2117156982421875,0.587819350752222
1780401854.282107,-0.0341796837747097,-0.0771484375,0.9877929091453552,0.9913904193351247,0.5283355712890625,-0.0362396240234375,0.1468658447265625,0.5495647028202839
1780401854.291739,-0.0351562425494194,-0.07568359375,0.9829100966453552,0.9864462609998024,0.1659393310546875,-0.1583099365234375,0.6351470947265625,0.6752849247040281
1780401854.301371,-0.0454101525247097,-0.07958984375,0.9790038466453552,0.9832828468588624,-0.0820159912109375,-0.2803802490234375,0.2727508544921875,0.3996657797247293
1780401854.311003,-0.0317382775247097,-0.07275390625,0.9794921278953552,0.982703046572992,0.164031982421875,-0.03814697265625,0.5168914794921875,0.5436345135766395
1780401854.320635,-0.0444335900247097,-0.0888671875,0.9873046278953552,0.9922913630583661,-0.2651214599609375,-0.4634857177734375,0.5779266357421875,0.7868339058607354
1780401854.330267,-0.0317382775247097,-0.07861328125,0.9863280653953552,0.9899648573740742,-0.6313323974609375,-0.2193450927734375,0.2117156982421875,0.7010823080707002
1780401854.339784,-0.0356445275247097,-0.07373046875,0.9838866591453552,0.987289052106202,-0.751495361328125,0.08392333984375,-0.2765655517578125,0.8051564503171554
1780401854.349305,-0.0278320275247097,-0.0771484375,0.9775390028953552,0.9809734987992657,-0.9365081787109375,-0.3414154052734375,-0.3414154052734375,1.053649147823187
1780401854.358826,-0.0273437462747097,-0.08203125,0.9960936903953552,0.9998397103947892,-0.4482269287109375,-0.7076263427734375,-0.0362396240234375,0.8384245529312166
1780401854.368347,-0.0468749962747097,-0.08935546875,0.9931640028953552,0.9982767160053426,-0.324249267578125,-0.40435791015625,-0.3414154052734375,0.6206507761929457
1780401854.377869,-0.0253906212747097,-0.10302734375,1.00830078125,1.0138687206331285,-0.080108642578125,-0.22125244140625,-0.3414154052734375,0.4146498720631196
1780401854.387465,-0.0488281175494194,-0.08935546875,0.9956054091453552,1.0007990385579126,0.102996826171875,-0.09918212890625,-0.2765655517578125,0.3113421675824826
1780401854.39706,-0.0380859375,-0.076171875,0.9858397841453552,0.9895113810260244,0.774383544921875,-0.278472900390625,-0.2155303955078125,0.8506881815832935
1780401854.406657,-0.0307617150247097,-0.09716796875,0.9897460341453552,0.9949799542547182,0.8373260498046875,-0.2803802490234375,-0.5245208740234375,1.0270589783504536
1780401854.416252,-0.0356445237994194,-0.0810546875,0.9726561903953552,0.976678278225238,0.8945465087890625,0.0247955322265625,-0.3414154052734375,0.9578062193174173
1780401854.425848,-0.0429687462747097,-0.0771484375,0.9770507216453552,0.981033285486696,0.6542205810546875,0.1468658447265625,-0.3414154052734375,0.7524218391173965
1780401854.435446,-0.0478515625,-0.08642578125,0.9931640028953552,0.998065090234845,0.469207763671875,0.209808349609375,-0.1583099365234375,0.5378080559621868
1780401854.445041,-0.0336914025247097,-0.07763671875,0.9882811903953552,0.9918983224058849,-0.1430511474609375,0.2079010009765625,0.0896453857421875,0.2678110382000957
1780401854.454637,-0.0546874962747097,-0.078125,0.9995116591453552,1.0040506932626942,-0.0171661376953125,0.3299713134765625,0.0286102294921875,0.3316538696177356
1780401854.464233,-0.0439453050494194,-0.07958984375,0.9824218153953552,0.9866196614849824,-0.1430511474609375,0.1468658447265625,0.3948211669921875,0.4448785913507307
1780401854.473829,-0.046875,-0.08544921875,0.9926757216453552,0.9974487069288888,-0.0820159912109375,0.3299713134765625,0.3948211669921875,0.5210484089188194
1780401854.481822,-0.0502929650247097,-0.083984375,0.9829100966453552,0.9877727550719846,-0.1430511474609375,-0.0972747802734375,-0.0362396240234375,0.17674649647587512
1780401854.489812,-0.0307617150247097,-0.0849609375,0.9726561903953552,0.9768442602209145,0.2231597900390625,0.2079010009765625,0.0896453857421875,0.3178984323368089
1780401854.497803,-0.0444335862994194,-0.07568359375,0.9926757216453552,0.9965477601693106,0.286102294921875,0.026702880859375,-0.2765655517578125,0.3988183438921244
1780401854.505794,-0.03271484375,-0.08642578125,0.9921874403953552,0.9964816072284256,0.102996826171875,0.38909912109375,-0.2765655517578125,0.48835947483028463
1780401854.513785,-0.0498046837747097,-0.0791015625,0.9877929091453552,0.9922058229388115,0.469207763671875,0.026702880859375,-0.3414154052734375,0.5808902205186257
1780401854.521776,-0.025390617549419403,-0.08544921875,0.9780272841453552,0.9820812700470698,-0.202178955078125,0.209808349609375,-0.5817413330078125,0.650629581230364
1780401854.531401,-0.0512695275247097,-0.07763671875,0.9814452528953552,0.9858452256727226,0.0400543212890625,0.0858306884765625,-0.2155303955078125,0.23542431294588553
1780401854.541026,-0.0400390587747097,-0.0830078125,0.9892577528953552,0.993541305043312,0.0400543212890625,0.1468658447265625,-0.2155303955078125,0.26386980954426803
1780401854.550651,-0.0458984337747097,-0.07861328125,0.9868163466453552,0.9910061635622398,-0.1430511474609375,0.0858306884765625,-0.1583099365234375,0.2299838556862338
1780401854.560277,-0.0361328087747097,-0.07373046875,0.9897460341453552,0.993145998329804,-0.202178955078125,0.026702880859375,0.0286102294921875,0.20593183084280123
1780401854.569901,-0.033203125,-0.07470703125,0.9965819716453552,0.9999296046404955,-0.4482269287109375,-0.4634857177734375,-0.1583099365234375,0.6639189906936337
1780401854.577922,-0.0351562462747097,-0.0791015625,0.9912108778953552,0.9949834286560506,-0.0820159912109375,0.1468658447265625,-0.0362396240234375,0.17207413957628687
1780401854.585943,-0.0561523400247097,-0.0830078125,0.9824218153953552,0.9875201292080031,-0.3223419189453125,0.0247955322265625,-0.0934600830078125,0.3365321949584796
1780401854.593965,-0.0502929650247097,-0.07177734375,1.0009765625,1.0048061743844425,0.0400543212890625,0.1468658447265625,0.0286102294921875,0.1548950297226152
1780401854.601985,-0.046875,-0.0712890625,1.00537109375,1.0089848523170208,-0.1430511474609375,-0.0972747802734375,0.1468658447265625,0.2269263977909648
1780401854.612654,-0.0385742112994194,-0.08056640625,0.9936522841453552,0.9976591488984071,0.164031982421875,-0.09918212890625,0.2117156982421875,0.2855995847927712
1780401854.623323,-0.0473632775247097,-0.08740234375,0.9853515028953552,0.9903534894213334,0.2231597900390625,-0.5245208740234375,-0.3986358642578125,0.6955810459243138
1780401854.633992,-0.0434570237994194,-0.08935546875,0.9877929091453552,0.9927777918904509,0.2841949462890625,-0.6465911865234375,-0.3414154052734375,0.7844816179771553
1780401854.644682,-0.0341796837747097,-0.08251953125,0.9873046278953552,0.9913365483448316,0.3452301025390625,-0.2193450927734375,-0.5245208740234375,0.6651452778974156
1780401854.655373,-0.0219726525247097,-0.08154296875,0.9916991591453552,0.9952885387972372,-0.019073486328125,-0.03814697265625,-0.7038116455078125,0.705102702984438
1780401854.666062,-0.0444335862994194,-0.07568359375,0.9975585341453552,1.0014116930616364,-0.1430511474609375,-0.0972747802734375,-0.5817413330078125,0.6069176156587013
1780401854.674567,-0.0444335900247097,-0.078125,0.9833983778953552,0.9874969514862817,-0.0820159912109375,-0.4634857177734375,-0.1583099365234375,0.4965960827436378
1780401854.68307,-0.0322265625,-0.09033203125,0.9863280653953552,0.9909800602367645,-0.080108642578125,-1.07574462890625,0.1468658447265625,1.0886751019397853
1780401854.691574,-0.0356445275247097,-0.07275390625,1.00146484375,1.0047365308797653,0.1010894775390625,-0.9517669677734375,0.3299713134765625,1.0124033342157719
1780401854.700077,-0.0346679650247097,-0.087890625,0.9912108778953552,0.9957035875299064,0.469207763671875,-0.34332275390625,0.6351470947265625,0.861068098804808
1780401854.70926,-0.0380859375,-0.08154296875,1.00830078125,1.0123093696381447,0.0400543212890625,0.5130767822265625,0.6999969482421875,0.86881980908717
1780401854.718441,-0.0351562425494194,-0.07666015625,0.9926757216453552,0.996251890482821,0.1659393310546875,1.4896392822265625,0.2727508544921875,1.5234677815331585
1780401854.727623,-0.0371093712747097,-0.08203125,0.9980468153953552,1.0020996343347188,0.164031982421875,1.857757568359375,0.0896453857421875,1.8671384440471075
1780401854.736805,-0.0502929650247097,-0.078125,0.9873046278953552,0.9916669431918977,0.102996826171875,2.03704833984375,-0.2155303955078125,2.0510064935171246
1780401854.745987,-0.0380859375,-0.0810546875,0.9853515028953552,0.9894129498137326,-0.4482269287109375,1.7948150634765625,-0.2765655517578125,1.8704964571265887
1780401854.753997,-0.0400390587747097,-0.087890625,0.9877929091453552,0.9925032592129354,-0.3223419189453125,1.1234283447265625,-0.2765655517578125,1.201034580211375
1780401854.762006,-0.0498046837747097,-0.087890625,0.9931640028953552,0.9982885380168975,-0.8106231689453125,-0.1583099365234375,-0.1583099365234375,0.8409720530642206
1780401854.770015,-0.0556640587747097,-0.068359375,0.9775390028953552,0.9815059825448392,-0.9365081787109375,-0.3414154052734375,-0.5245208740234375,1.126381016813056
1780401854.778023,-0.0395507775247097,-0.0830078125,0.9907225966453552,0.9949803135954799,-1.239776611328125,-0.89263916015625,-0.8296966552734375,1.7384611747210903
1780401854.786032,-0.0449218712747097,-0.078125,0.9887694716453552,0.9928678452853917,-0.812530517578125,-1.255035400390625,-0.9479522705078125,1.7702918418696814
1780401854.794041,-0.04296875,-0.09423828125,0.9931640028953552,0.9985499004940322,-0.690460205078125,-1.01470947265625,-1.2531280517578125,1.7540525997806287
1780401854.803606,-0.0429687462747097,-0.07373046875,0.9980468153953552,1.0016885448577943,-0.4482269287109375,-0.9517669677734375,-0.8869171142578125,1.3760049811427606
1780401854.813169,-0.04296875,-0.07958984375,0.9882811903953552,0.9924114912645723,-0.3871917724609375,-0.8296966552734375,-0.4596710205078125,1.0245054687643524
1780401854.822733,-0.0356445237994194,-0.0859375,0.9941405653953552,0.998484476468079,-0.2651214599609375,-1.0128021240234375,-0.2155303955078125,1.0688830068562039
1780401854.832298,-0.0415039025247097,-0.07373046875,1.00146484375,1.0050326309200548,-0.080108642578125,-0.58746337890625,-0.0934600830078125,0.6002211286580016
1780401854.841861,-0.02734375,-0.0908203125,0.9775390028953552,0.98212958004955,0.2231597900390625,-0.5245208740234375,0.2117156982421875,0.6080674107849937
1780401854.85258,-0.0415039025247097,-0.078125,0.9877929091453552,0.9917463994931489,0.102996826171875,0.08392333984375,0.2117156982421875,0.2499500151113938
1780401854.863299,-0.0288085900247097,-0.08251953125,0.9809569716453552,0.9848431286842376,0.2231597900390625,0.2689361572265625,0.5779266357421875,0.6753711163903531
1780401854.874018,-0.0395507737994194,-0.07470703125,0.9897460341453552,0.9933491915398028,0.4711151123046875,0.3299713134765625,0.5168914794921875,0.7733093290080811
1780401854.88197,-0.0385742112994194,-0.10009765625,0.9980468153953552,1.0037952760821929,0.3452301025390625,0.8792877197265625,0.6351470947265625,1.1383068785264643
1780401854.889924,-0.0458984337747097,-0.08203125,0.9970702528953552,1.0014913286735645,0.3452301025390625,0.9403228759765625,0.3948211669921875,1.0766961914528341
1780401854.897879,-0.0278320275247097,-0.087890625,0.9960936903953552,1.000350950299176,0.0400543212890625,1.0013580322265625,0.0286102294921875,1.0025671062777675
1780401854.905833,-0.0322265625,-0.07666015625,0.9907225966453552,0.9942065149608285,0.0209808349609375,0.7152557373046875,0.0286102294921875,0.7161351202214048
1780401854.916514,-0.0390624925494194,-0.08984375,0.9897460341453552,0.9945828220136795,-0.1010894775390625,0.7152557373046875,-0.0324249267578125,0.7230914382646515
1780401854.927197,-0.0493163987994194,-0.09521484375,0.9780272841453552,0.9838878707421997,-0.1621246337890625,0.3528594970703125,-0.5207061767578125,0.6495607316238334
1780401854.937879,-0.0356445275247097,-0.08349609375,0.9765624403953552,0.9807733326334379,-0.0400543212890625,-0.0782012939453125,-0.5817413330078125,0.5883389920431547
1780401854.948579,-0.0405273400247097,-0.0830078125,0.9843749403953552,0.9886995425830198,-0.286102294921875,-0.6256103515625,-0.3986358642578125,0.7950807427011998
1780401854.95928,-0.0449218675494194,-0.10009765625,0.9980468153953552,1.0040592416245573,-0.225067138671875,-1.1749267578125,-0.0324249267578125,1.196728657218915
1780401854.969981,-0.0390624962747097,-0.08203125,0.9863280653953552,0.9905039410210937,-0.041961669921875,-0.9918212890625,0.2117156982421875,1.0150338851794105
1780401854.980631,-0.0351562462747097,-0.08837890625,0.9975585341453552,1.0020827419770806,0.1430511474609375,-0.4444122314453125,0.3948211669921875,0.611432429752598
1780401854.991282,-0.0244140587747097,-0.0732421875,0.9946288466453552,0.9976206728384841,0.080108642578125,0.1068115234375,0.1506805419921875,0.20132243265420963
1780401855.001934,-0.0341796800494194,-0.0888671875,1.0029296875,1.0074391225336092,-0.041961669921875,0.6561279296875,0.0896453857421875,0.6635517591292355
1780401855.009938,-0.02734375,-0.08642578125,0.9956054091453552,0.9997235753188106,0.3261566162109375,1.0242462158203125,-0.3376007080078125,1.126691034386879
1780401855.017941,-0.0405273400247097,-0.0693359375,0.9873046278953552,0.9905656796911895,0.385284423828125,0.7781982421875,0.0896453857421875,0.8729678611341604
1780401855.025945,-0.0390624962747097,-0.091796875,0.9936522841453552,0.9986477890939623,0.0820159912109375,0.5321502685546875,0.2727508544921875,0.6035756454358948
1780401855.033949,-0.029296867549419403,-0.07666015625,0.9912108778953552,0.9946024786127187,0.1430511474609375,0.2269744873046875,-0.0324249267578125,0.27024511938676365
1780401855.044673,-0.0297851525247097,-0.08203125,0.9838866591453552,0.9877495833113225,0.1430511474609375,0.0438690185546875,-0.1544952392578125,0.21507417448910768
1780401855.055397,-0.0468749962747097,-0.07470703125,0.9887694716453552,0.9926950558211607,0.0209808349609375,-0.2613067626953125,-0.4596710205078125,0.5291680893257418
1780401855.066122,-0.0478515625,-0.0810546875,0.9892577528953552,0.9937255838826843,-0.286102294921875,-0.1983642578125,-0.3376007080078125,0.4849506572677717
1780401855.076791,-0.0473632775247097,-0.08349609375,0.9926757216453552,0.9973063551755389,-0.4673004150390625,-0.0782012939453125,-0.3376007080078125,0.5817726001779197
1780401855.087462,-0.0405273400247097,-0.06884765625,0.9785155653953552,0.9817714483430389,-0.286102294921875,-0.3814697265625,-0.4596710205078125,0.6623225215391108
1780401855.098135,-0.0493163987994194,-0.0693359375,0.9755858778953552,0.979289224166384,-0.286102294921875,-0.1373291015625,-0.3986358642578125,0.50953347050817
1780401855.106115,-0.0322265587747097,-0.09423828125,0.9892577528953552,0.9942586717786179,-0.46539306640625,-0.5035400390625,-0.3376007080078125,0.7642758109775898
1780401855.114097,-0.0273437462747097,-0.09716796875,0.9995116591453552,1.0045958647032336,-0.408172607421875,-0.3204345703125,-0.0324249267578125,0.5199370800165902
1780401855.122079,-0.0390624925494194,-0.08984375,0.9882811903953552,0.993125112474504,0.0820159912109375,-0.0782012939453125,0.0896453857421875,0.14449346135344443
1780401855.130061,-0.0434570237994194,-0.07861328125,0.9970702528953552,1.0011082109918001,0.1430511474609375,0.2269744873046875,-0.0324249267578125,0.27024511938676365
1780401855.138482,-0.0385742112994194,-0.08642578125,0.9853515028953552,0.9898863418090889,-0.102996826171875,0.2899169921875,-0.0934600830078125,0.3215509223689983
1780401855.146904,-0.0346679612994194,-0.07666015625,0.9965819716453552,1.0001271285719011,0.3261566162109375,0.4100799560546875,-0.4596710205078125,0.697023066871303
1780401855.155324,-0.04248046875,-0.0859375,0.9765624403953552,0.9812563600417586,0.3261566162109375,0.2880096435546875,0.0286102294921875,0.43605760893517564
1780401855.163746,-0.0405273400247097,-0.08740234375,0.9877929091453552,0.9924799576516977,0.385284423828125,0.2899169921875,0.2117156982421875,0.5266113239247654
1780401855.173872,-0.0468749962747097,-0.0791015625,0.9902343153953552,0.9944940029242023,0.202178955078125,0.2899169921875,0.2117156982421875,0.41200937989044184
1780401855.184,-0.0483398362994194,-0.08837890625,0.9785155653953552,0.9836870856956457,-0.0400543212890625,0.3528594970703125,0.3337860107421875,0.48736769927214607
1780401855.194126,-0.0366210900247097,-0.07666015625,0.9858397841453552,0.9894937916907983,0.202178955078125,0.2899169921875,0.3337860107421875,0.48614945562317885
1780401855.202105,-0.0434570237994194,-0.09130859375,0.9946288466453552,0.999756127657728,0.0820159912109375,-0.0782012939453125,0.0896453857421875,0.14449346135344443
1780401855.210084,-0.046875,-0.08642578125,0.9858397841453552,0.9907304180721582,0.263214111328125,-0.0152587890625,-0.2765655517578125,0.3821033936842379
1780401855.218063,-0.0439453050494194,-0.08642578125,0.9931640028953552,0.9978854353820805,0.141143798828125,-0.5035400390625,-0.2765655517578125,0.5915764086792183
1780401855.226042,-0.0493164025247097,-0.08349609375,0.9833983778953552,0.988168039797232,0.02288818359375,-0.8087158203125,-0.3986358642578125,0.9019177896263684
1780401855.236678,-0.0385742112994194,-0.07080078125,0.9951171278953552,0.9983780940273496,-0.0400543212890625,-0.4444122314453125,-0.3376007080078125,0.5595362527660792
1780401855.247314,-0.0415039025247097,-0.080078125,0.9951171278953552,0.999196266135436,0.202178955078125,-0.8087158203125,-0.2155303955078125,0.8610173977847116
1780401855.257951,-0.029785148799419403,-0.0810546875,0.9863280653953552,0.9901010403192546,0.1430511474609375,-0.6237030029296875,-0.0324249267578125,0.6407186921954519
1780401855.266024,-0.0312499962747097,-0.09423828125,0.9887694716453552,0.9937416585702535,0.202178955078125,-0.2593994140625,0.2727508544921875,0.42726738059284286
1780401855.274097,-0.0351562462747097,-0.08203125,0.9902343153953552,0.9942480007599706,-0.102996826171875,-0.0152587890625,-0.0324249267578125,0.1090529812539887
1780401855.28217,-0.0346679650247097,-0.0869140625,0.9892577528953552,0.9936733989207802,-0.2231597900390625,0.5321502685546875,-0.0324249267578125,0.5779581092850536
1780401855.290243,-0.0410156212747097,-0.0810546875,0.9863280653953552,0.9905024967867659,0.3261566162109375,0.0438690185546875,-0.0934600830078125,0.34210731679247597
1780401855.300792,-0.037109375,-0.09521484375,0.9926757216453552,0.9979218709535103,-0.0400543212890625,-0.0782012939453125,-0.0324249267578125,0.09365450818779691
1780401855.31134,-0.0468749962747097,-0.0849609375,0.9873046278953552,0.9920615174676511,0.202178955078125,0.2288818359375,0.0896453857421875,0.3182758550117629
1780401855.321887,-0.0390624925494194,-0.07958984375,0.9956054091453552,0.999545172701971,0.202178955078125,0.1068115234375,0.0286102294921875,0.23044213296859958
1780401855.33259,-0.0473632775247097,-0.078125,0.9907225966453552,0.9949261576552292,0.385284423828125,0.2899169921875,0.0896453857421875,0.49044086777967716
1780401855.343294,-0.0415039025247097,-0.0620117224752903,0.9843749403953552,0.9871990938648051,0.51116943359375,0.6561279296875,-0.1544952392578125,0.8459709385728855
1780401855.353998,-0.0341796800494194,-0.06982421875,0.9843749403953552,0.9874399704947575,0.1430511474609375,0.5931854248046875,-0.2155303955078125,0.6471367169141019
1780401855.364714,-0.0395507775247097,-0.07275390625,0.9750975966453552,0.978607540263711,-0.1010894775390625,0.2269744873046875,-0.0934600830078125,0.26546428662284044
1780401855.375429,-0.0366210900247097,-0.08447265625,0.9926757216453552,0.9969362177354454,0.1430511474609375,0.0438690185546875,-0.3986358642578125,0.4257918198502826
1780401855.386144,-0.0410156212747097,-0.0927734375,0.9897460341453552,0.9949303513314766,0.0209808349609375,0.1049041748046875,-0.0324249267578125,0.11178755387949069
1780401855.394082,-0.0410156212747097,-0.080078125,0.9853515028953552,0.9894505402243213,0.1430511474609375,-0.0171661376953125,-0.3986358642578125,0.4238736360589538
1780401855.40202,-0.0351562462747097,-0.07470703125,0.9912108778953552,0.9946437083842622,-0.102996826171875,-0.1983642578125,-0.0934600830078125,0.24226331149146502
1780401855.409959,-0.03271484375,-0.08984375,0.9843749403953552,0.9890076762563618,0.3261566162109375,-0.4444122314453125,-0.0324249267578125,0.5522062528001837
1780401855.417898,-0.0390624925494194,-0.0791015625,0.9921874403953552,0.9961018283249968,0.080108642578125,-0.1983642578125,-0.0934600830078125,0.23345355107395765
1780401855.428848,-0.0395507775247097,-0.0791015625,0.9843749403953552,0.9883396908305917,0.1430511474609375,-0.1354217529296875,-0.2765655517578125,0.3395455586155464
1780401855.439799,-0.04638671875,-0.0810546875,0.9926757216453552,0.9970590144952509,0.385284423828125,-0.2593994140625,-0.3376007080078125,0.5742006455133213
1780401855.450748,-0.0483398362994194,-0.07421875,0.9858397841453552,0.989810710504174,0.568389892578125,-0.1983642578125,-0.2155303955078125,0.6394284949470351
1780401855.458564,-0.0473632775247097,-0.087890625,0.9819335341453552,0.9869962043999768,0.080108642578125,0.1068115234375,-0.3376007080078125,0.3630431574925021
1780401855.466381,-0.0444335862994194,-0.08447265625,0.9858397841453552,0.9904494198338041,-0.2231597900390625,0.1049041748046875,0.2117156982421875,0.3250057148173058
1780401855.474196,-0.0424804650247097,-0.07763671875,0.9843749403953552,0.9883451185114142,-0.1621246337890625,0.0438690185546875,0.2727508544921875,0.32031533884034896
1780401855.482013,-0.0322265587747097,-0.083984375,0.9848632216453552,0.9889628363514317,-0.286102294921875,0.1678466796875,0.2117156982421875,0.39351056901163245
1780401855.492727,-0.0336914025247097,-0.0771484375,0.9848632216453552,0.9884546309074795,0.080108642578125,-0.3204345703125,0.2117156982421875,0.39232543296253847
1780401855.50344,-0.03759765625,-0.08984375,0.9907225966453552,0.9954982404169637,-0.1010894775390625,-0.2613067626953125,0.2727508544921875,0.3910157737555397
1780401855.514154,-0.0307617150247097,-0.0791015625,0.9868163466453552,0.9904594097224221,0.1430511474609375,-0.1354217529296875,-0.1544952392578125,0.25034268695084533
1780401855.524843,-0.0478515625,-0.07666015625,0.9936522841453552,0.9977531825943967,0.3261566162109375,-0.1354217529296875,-0.3376007080078125,0.488560566882034
1780401855.535534,-0.0366210900247097,-0.07958984375,0.9892577528953552,0.9931296738726091,0.3261566162109375,-0.0782012939453125,-0.2765655517578125,0.4347206977957148
1780401855.546225,-0.0405273400247097,-0.087890625,0.9892577528953552,0.9939809499763749,0.5702972412109375,0.0438690185546875,0.0286102294921875,0.5726971096079964
1780401855.554122,-0.0566406212747097,-0.08837890625,0.9804686903953552,0.9860719263288629,0.446319580078125,-0.6866455078125,0.3948211669921875,0.909157288297945
1780401855.562018,-0.0375976525247097,-0.07373046875,0.9829100966453552,0.986388373605876,0.3261566162109375,-0.7495880126953125,1.0051727294921875,1.295620524377972
1780401855.569914,-0.0258789025247097,-0.0791015625,0.9936522841453552,0.9971317047276687,0.385284423828125,-0.5645751953125,0.6389617919921875,0.9356609482246148
1780401855.577811,-0.019531242549419403,-0.0810546875,0.9941405653953552,0.9976305907327839,-0.0400543212890625,0.0438690185546875,0.2727508544921875,0.2791448872343848
1780401855.588503,-0.0185546875,-0.07177734375,0.9970702528953552,0.9998226606317923,0.02288818359375,0.8392333984375,-0.1544952392578125,0.8536423987563561
1780401855.599194,-0.0346679612994194,-0.08642578125,0.9809569716453552,0.9853668674280444,-0.1621246337890625,1.7528533935546875,-0.5817413330078125,1.8539693618577218
1780401855.609886,-0.03173828125,-0.0810546875,0.9897460341453552,0.9935665015331815,-0.102996826171875,1.4495849609375,-1.0700225830078125,1.80467538170286
1780401855.620595,-0.0488281175494194,-0.064453125,0.9868163466453552,0.9901236753013087,-0.408172607421875,1.7547607421875,-1.4362335205078125,2.304030569502554
1780401855.631303,-0.0498046800494194,-0.0712890625,0.9897460341453552,0.9935591822802567,-0.4062652587890625,0.8983612060546875,-0.8258819580078125,1.2861513618566809
1780401855.642012,-0.0600585900247097,-0.068359375,0.9843749403953552,0.9885717281333236,-0.5283355712890625,0.2269744873046875,-0.5207061767578125,0.7757517749192097
1780401855.649997,-0.06201171875,-0.08544921875,0.9873046278953552,0.9929337593771803,-0.6504058837890625,-0.4444122314453125,0.2117156982421875,0.8156920877437824
1780401855.657978,-0.0375976525247097,-0.08349609375,0.9819335341453552,0.9861940207819478,-0.8335113525390625,-0.3833770751953125,0.8220672607421875,1.2318740754561617
1780401855.665961,-0.0507812462747097,-0.08935546875,0.9892577528953552,0.9945823427109053,-0.8945465087890625,-0.5664825439453125,1.0051727294921875,1.4599616930235626
1780401855.673943,-0.0483398400247097,-0.09228515625,0.9936522841453552,0.9990986697944219,-0.8335113525390625,-0.2613067626953125,0.7610321044921875,1.1585302167443063
1780401855.684594,-0.0390624925494194,-0.0810546875,0.9877929091453552,0.9918823378041067,-0.6504058837890625,-0.0782012939453125,0.3948211669921875,0.7648705837899804
1780401855.695246,-0.0366210900247097,-0.08984375,0.9858397841453552,0.9906023842351789,-0.286102294921875,0.1068115234375,0.4558563232421875,0.5486968308077684
1780401855.705899,-0.0361328087747097,-0.083984375,1.00439453125,1.008547137975711,-0.0400543212890625,0.5321502685546875,0.2117156982421875,0.5741182751480138
1780401855.716552,-0.0380859337747097,-0.08349609375,1.00048828125,1.004688477559875,0.3261566162109375,0.2269744873046875,-0.2155303955078125,0.4520496737894505
1780401855.727208,-0.0322265587747097,-0.0888671875,0.9833983778953552,0.9879313223862456,0.4482269287109375,-0.0782012939453125,-0.3986358642578125,0.6049242715158106
1780401855.737864,-0.0400390587747097,-0.07373046875,0.9853515028953552,0.988917030143477,0.751495361328125,-0.1373291015625,-0.5207061767578125,0.9245212181163778
1780401855.748527,-0.0439453050494194,-0.07958984375,0.9931640028953552,0.9973166346307281,0.5092620849609375,-0.2613067626953125,-0.1544952392578125,0.592872561654184
1780401855.759192,-0.0463867150247097,-0.07666015625,0.9921874403953552,0.9962250868982093,0.51116943359375,-0.1983642578125,-0.0934600830078125,0.5562170041754264
1780401855.769858,-0.0356445275247097,-0.07861328125,0.9721679091453552,0.9759923277892112,0.3261566162109375,0.3528594970703125,-0.2155303955078125,0.5266320483588487
1780401855.777838,-0.0434570275247097,-0.09228515625,0.9902343153953552,0.9954742903218938,0.263214111328125,0.3509521484375,0.1506805419921875,0.4638466391278598
1780401855.78582,-0.0444335862994194,-0.08154296875,0.9907225966453552,0.9950652555725713,0.080108642578125,0.5950927734375,0.2117156982421875,0.6366917154286071
1780401855.793802,-0.0380859375,-0.07568359375,0.9863280653953552,0.9899604020286433,0.0209808349609375,0.4100799560546875,0.4558563232421875,0.6135232295792542
1780401855.801784,-0.0449218675494194,-0.0810546875,0.9809569716453552,0.9853245235806711,-0.286102294921875,0.7171630859375,0.5168914794921875,0.9291685619749434
1780401855.81248,-0.0434570237994194,-0.07421875,0.9833983778953552,0.9871521186809465,-0.530242919921875,0.6561279296875,0.7610321044921875,1.1361475600955575
1780401855.823176,-0.0385742112994194,-0.0849609375,0.9960936903953552,1.0004543821302843,-0.713348388671875,0.2899169921875,0.3337860107421875,0.8392442355756703
1780401855.833872,-0.0361328087747097,-0.09423828125,0.9887694716453552,0.9939071896212135,-0.6504058837890625,-0.2613067626953125,0.2727508544921875,0.7521316816382316
1780401855.841866,-0.0454101487994194,-0.08544921875,0.9887694716453552,0.9934931900404782,-0.4062652587890625,-0.5664825439453125,0.1506805419921875,0.7132030277759316
1780401855.849858,-0.0371093712747097,-0.0927734375,0.9799804091453552,0.9850612257370952,-0.3452301025390625,-0.2613067626953125,-0.2155303955078125,0.48365111321818544
