timestamp,accel_x,accel_y,accel_z,accel_rms,gyro_x,gyro_y,gyro_z,gyro_rms
1785170359.751801,-0.0634765550494194,-0.2861328125,0.9365233778953552,0.9813140663287306,0.3528594970703125,-0.1964569091796875,-0.7228851318359375,0.8280507566970823
1785170359.762303,-0.0400390550494194,-0.28125,0.9404296278953552,0.9824014319272172,0.049591064453125,0.354766845703125,-0.9059906005859375,0.9742370126585248
1785170359.772805,-0.0488281175494194,-0.27392578125,0.9262694716453552,0.9671580288655046,-0.072479248046875,-0.011444091796875,-0.8487701416015625,0.8519360081067311
1785170359.780824,-0.0517578087747097,-0.2861328125,0.9335936903953552,0.9778282241295441,-0.194549560546875,-0.011444091796875,-0.6618499755859375,0.6899462942353872
1785170359.788843,-0.0493163987994194,-0.28125,0.9536132216453552,0.9954455515935449,-0.499725341796875,-0.072479248046875,-0.9670257568359375,1.0909250538032216
1785170359.796862,-0.0498046800494194,-0.287109375,0.9472655653953552,0.991072323673453,-0.4405975341796875,-0.1964569091796875,-1.0318756103515625,1.1390736497382716
1785170359.804881,-0.0454101487994194,-0.2724609375,0.9482421278953552,0.9876538751976197,-0.3185272216796875,-0.0133514404296875,-0.6008148193359375,0.6801590248215512
1785170359.8155,-0.0498046837747097,-0.27978515625,0.9506835341453552,0.9922496773891331,-0.560760498046875,-0.011444091796875,-1.0890960693359375,1.22503614299735
1785170359.826119,-0.0502929650247097,-0.29052734375,0.9511718153953552,0.995822947214967,0.049591064453125,-0.133514404296875,-0.6008148193359375,0.6174656403088504
1785170359.836738,-0.0449218712747097,-0.28857421875,0.9335936903953552,0.9782076635316311,0.537872314453125,-0.438690185546875,-0.6618499755859375,0.9590626130412023
1785170359.847426,-0.0571289025247097,-0.2802734375,0.9355468153953552,0.9782968644885535,0.4138946533203125,-0.8678436279296875,-0.2956390380859375,1.0059144036277052
1785170359.858115,-0.0546874962747097,-0.279296875,0.9453124403953552,0.9872249371849275,0.293731689453125,-0.621795654296875,-0.1735687255859375,0.7092490702094663
1785170359.868804,-0.0463867150247097,-0.28759765625,0.9443358778953552,0.9882481416585958,0.3528594970703125,-0.5016326904296875,-0.3604888916015625,0.7114052443920861
1785170359.876809,-0.0395507775247097,-0.28369140625,0.9370116591453552,0.9798142310444582,-0.1354217529296875,0.1125335693359375,-0.6618499755859375,0.6848709700207344
1785170359.884816,-0.03759765625,-0.2880859375,0.9609374403953552,1.0038963370260516,-0.1354217529296875,0.4749298095703125,-0.6618499755859375,0.8257982594848143
1785170359.892823,-0.0356445275247097,-0.29541015625,0.9516600966453552,0.9970930910928809,0.415802001953125,0.476837158203125,-0.9670257568359375,1.1555967266549245
1785170359.90083,-0.0556640587747097,-0.2763671875,0.9404296278953552,0.9817765503358342,0.3528594970703125,0.1697540283203125,-1.2722015380859375,1.331098421722418
1785170359.911465,-0.0546874962747097,-0.2802734375,0.9428710341453552,0.9851648131389967,0.598907470703125,-0.072479248046875,-1.5201568603515625,1.6354877804298553
1785170359.9221,-0.046875,-0.27294921875,0.9335936903953552,0.9738047650259541,0.232696533203125,-0.255584716796875,-1.2722015380859375,1.3183201346915387
1785170359.932735,-0.0537109300494194,-0.26904296875,0.9467772841453552,0.9857262342122389,0.2307891845703125,-0.3795623779296875,-1.3370513916015625,1.408913648964316
1785170359.94078,-0.0551757737994194,-0.27197265625,0.9287108778953552,0.9692870506115341,-0.743865966796875,-0.011444091796875,-1.0318756103515625,1.2720985885669847
1785170359.948824,-0.0512695275247097,-0.27783203125,0.9414061903953552,0.9828859635562021,-0.9860992431640625,-0.0133514404296875,-0.6618499755859375,1.1876932973261196
1785170359.956868,-0.0541992150247097,-0.2744140625,0.9482421278953552,0.9886373277003857,-0.9860992431640625,0.2918243408203125,-0.4177093505859375,1.1099703891685004
1785170359.975527,-0.052734375,-0.28125,0.9521483778953552,0.9942177881809382,-0.560760498046875,-0.011444091796875,-0.1735687255859375,0.587119583993211
1785170359.986139,-0.0483398362994194,-0.28076171875,0.9492186903953552,0.9910499506507137,-0.255584716796875,0.171661376953125,-0.1125335693359375,0.3278032642074632
1785170359.996751,-0.0483398362994194,-0.28955078125,0.9487304091453552,0.9931091500600793,-0.072479248046875,-0.011444091796875,-0.2346038818359375,0.2458112894213491
1785170360.00476,-0.0600585900247097,-0.2783203125,0.9609374403953552,1.002232505429469,0.171661376953125,-0.255584716796875,-0.2956390380859375,0.42684144203434615
1785170360.012768,-0.0507812462747097,-0.27197265625,0.9438475966453552,0.9835629854839529,0.110626220703125,-0.316619873046875,-0.0553131103515625,0.3399203508059497
1785170360.020776,-0.03173828125,-0.28271484375,0.9394530653953552,0.981583956395998,0.049591064453125,-0.133514404296875,-0.2956390380859375,0.3281582098145981
1785170360.028784,-0.0444335862994194,-0.267578125,0.9384765028953552,0.9768881937338783,-0.133514404296875,-0.072479248046875,-0.3604888916015625,0.3911925082619974
1785170360.039477,-0.0434570237994194,-0.2822265625,0.9511718153953552,0.993110350313884,-0.194549560546875,-0.011444091796875,-0.3604888916015625,0.40979597327714257
1785170360.05017,-0.0361328087747097,-0.28076171875,0.9443358778953552,0.9858513949200433,-0.072479248046875,0.232696533203125,-0.8487701416015625,0.8830694600293513
1785170360.060863,-0.0380859375,-0.28173828125,0.9521483778953552,0.9936868376333231,-0.194549560546875,0.232696533203125,-0.7228851318359375,0.7839388508698851
1785170360.071515,-0.0502929650247097,-0.2802734375,0.9584960341453552,0.9998986096457065,-0.194549560546875,-0.072479248046875,-0.5435943603515625,0.581891400101812
1785170360.082167,-0.052734375,-0.28564453125,0.9345702528953552,0.9786701539009766,0.110626220703125,0.293731689453125,-0.6008148193359375,0.6778605411363895
1785170360.092819,-0.0561523400247097,-0.28125,0.9443358778953552,0.9869269973359944,0.476837158203125,0.171661376953125,-0.2956390380859375,0.5867228857144174
1785170360.100811,-0.052734375,-0.27587890625,0.9467772841453552,0.9875612948035133,0.110626220703125,-0.072479248046875,0.0705718994140625,0.1499059541559491
1785170360.108803,-0.0507812462747097,-0.2841796875,0.9404296278953552,0.9837401662960635,-0.255584716796875,-0.621795654296875,0.6160736083984375,0.9118662589040616
1785170360.116795,-0.0478515625,-0.28271484375,0.9384765028953552,0.9813030120187006,-0.743865966796875,-0.133514404296875,0.8029937744140625,1.1027065223626553
1785170360.124787,-0.0576171875,-0.27783203125,0.9326171278953552,0.9748256690956042,-0.682830810546875,0.598907470703125,0.3147125244140625,0.9612450506084225
1785170360.135446,-0.0532226487994194,-0.29150390625,0.9350585341453552,0.980888189337753,-0.560760498046875,0.537872314453125,0.0705718994140625,0.7802175054507873
1785170360.146105,-0.0537109300494194,-0.28125,0.9526366591453552,0.9947376693653445,-0.133514404296875,0.415802001953125,0.0705718994140625,0.4423774338388934
1785170360.156764,-0.0546874925494194,-0.283203125,0.9570311903953552,0.9995516150958184,0.3528594970703125,0.1125335693359375,0.1926422119140625,0.41747413178703985
1785170360.164778,-0.0493163987994194,-0.291015625,0.9492186903953552,0.9940514691808252,0.6580352783203125,-0.1354217529296875,-0.2956390380859375,0.7339972203769023
1785170360.172793,-0.0483398362994194,-0.28125,0.9555663466453552,0.9972689432217399,0.782012939453125,-0.316619873046875,-0.1735687255859375,0.8613469010694023
1785170360.180808,-0.0556640587747097,-0.27685546875,0.9580077528953552,0.9987623804607704,1.1463165283203125,-0.1964569091796875,0.3147125244140625,1.204857200371829
1785170360.188823,-0.0478515625,-0.28759765625,0.9404296278953552,0.9845862425087916,1.087188720703125,-0.316619873046875,0.1277923583984375,1.1395430423188724
1785170360.199475,-0.0522460900247097,-0.26953125,0.9428710341453552,0.9820298038653227,0.598907470703125,0.110626220703125,0.0705718994140625,0.613113947124007
1785170360.210127,-0.05224609375,-0.27783203125,0.9409179091453552,0.982469746939366,0.232696533203125,0.110626220703125,0.1277923583984375,0.2876051531820045
1785170360.220779,-0.052734375,-0.267578125,0.9360350966453552,0.9749567525983066,-0.011444091796875,0.171661376953125,0.2536773681640625,0.3065139518735542
1785170360.231439,-0.0537109300494194,-0.291015625,0.9477538466453552,0.992880814515006,-0.316619873046875,-0.255584716796875,0.1926422119140625,0.45020296898121476
1785170360.242102,-0.0400390587747097,-0.2802734375,0.9501952528953552,0.991477354567667,-0.133514404296875,-0.072479248046875,-0.0553131103515625,0.16167522299027132
1785170360.252765,-0.0493163987994194,-0.28173828125,0.9472655653953552,0.9895052388421344,0.049591064453125,-0.072479248046875,0.0705718994140625,0.11266280689714324
1785170360.260776,-0.0493163987994194,-0.27783203125,0.9458007216453552,0.9869963271684039,-0.3185272216796875,-0.0133514404296875,-0.2346038818359375,0.39582424544868244
1785170360.268789,-0.0493163987994194,-0.28564453125,0.9360350966453552,0.9798911202656421,-0.08392333984375,0.3662109375,-0.3032684326171875,0.48283052921003666
1785170360.276802,-0.0336913987994194,-0.27685546875,0.9287108778953552,0.9696844619003674,-0.4520416259765625,-0.0019073486328125,-0.1811981201171875,0.4870092692427365
1785170360.284815,-0.0371093712747097,-0.279296875,0.9516600966453552,0.9924922112380614,-0.14495849609375,0.057220458984375,-0.4253387451171875,0.45299028092665306
1785170360.295474,-0.0444335900247097,-0.3037109375,0.9433593153953552,0.9920390493437273,-0.0247955322265625,0.1201629638671875,-0.5474090576171875,0.5609907598749581
1785170360.306133,-0.06201171875,-0.2880859375,0.9418944716453552,0.986916489052476,-0.2689361572265625,-0.0019073486328125,-0.4863739013671875,0.5557786129150132
1785170360.316792,-0.05224609375,-0.28662109375,0.9516600966453552,0.9952578787639046,0.34332275390625,-0.247955322265625,-0.6694793701171875,0.792183679585819
1785170360.327459,-0.0532226525247097,-0.29345703125,0.9560546278953552,1.0014939497830007,0.58746337890625,-0.1220703125,-0.5474090576171875,0.8122013661101126
1785170360.338125,-0.0561523400247097,-0.26953125,0.9423827528953552,0.9817766716374153,0.70953369140625,-0.247955322265625,-0.3643035888671875,0.8352466737089962
1785170360.348791,-0.0507812462747097,-0.27978515625,0.9409179091453552,0.9829470893092448,0.1583099365234375,0.1811981201171875,-0.4863739013671875,0.5426364958857782
1785170360.356811,-0.0517578087747097,-0.275390625,0.9374999403953552,0.9784809683117729,0.2803802490234375,0.4253387451171875,-0.4253387451171875,0.663655920065641
1785170360.364834,-0.052734375,-0.27197265625,0.9453124403953552,0.9850713933621985,-0.2079010009765625,-0.0019073486328125,-0.2422332763671875,0.3192231576271464
1785170360.372857,-0.046875,-0.27783203125,0.9428710341453552,0.9840699620676533,-0.2079010009765625,0.3032684326171875,-0.5474090576171875,0.6594325172377228
1785170360.38088,-0.0541992112994194,-0.2734375,0.9355468153953552,0.9761933541610084,-0.2079010009765625,0.2422332763671875,-0.5474090576171875,0.6336848291919068
1785170360.391555,-0.0512695275247097,-0.26953125,0.9545897841453552,0.9932357802525266,-0.08392333984375,0.301361083984375,-0.6084442138671875,0.6841534851911718
1785170360.40223,-0.0581054612994194,-0.27978515625,0.9516600966453552,0.9936362100073155,-0.2079010009765625,-0.0019073486328125,-0.7915496826171875,0.8183992694505745
1785170360.412905,-0.0537109300494194,-0.2958984375,0.9555663466453552,1.001772325512572,0.2803802490234375,-0.1850128173828125,-0.7305145263671875,0.8040486924756778
1785170360.42354,-0.0488281175494194,-0.27685546875,0.9511718153953552,0.9918472453168874,0.70953369140625,-0.064849853515625,-1.0356903076171875,1.2570990319118704
1785170360.434177,-0.04736328125,-0.2734375,0.9360350966453552,0.9763058173384486,0.8296966552734375,0.3032684326171875,-0.6694793701171875,1.108409179412784
1785170360.444814,-0.0449218712747097,-0.27392578125,0.9423827528953552,0.9824146584344478,0.5893707275390625,0.3032684326171875,-0.8525848388671875,1.0799215268565572
1785170360.45548,-0.05224609375,-0.28759765625,0.9404296278953552,0.98480960150479,0.3414154052734375,0.3643035888671875,-0.6694793701171875,0.8351552016434098
1785170360.466147,-0.0395507737994194,-0.28271484375,0.9438475966453552,0.9860731373878577,0.4634857177734375,0.3032684326171875,-0.5474090576171875,0.7787473461677936
1785170360.476814,-0.0502929650247097,-0.28076171875,0.9477538466453552,0.989744350262985,0.58746337890625,0.240325927734375,-0.4253387451171875,0.7640568180411716
1785170360.484818,-0.0517578087747097,-0.2841796875,0.9374999403953552,0.980990878549873,0.40435791015625,-0.186920166015625,-0.4863739013671875,0.6595483605471075
1785170360.492822,-0.0566406212747097,-0.28076171875,0.9462890028953552,0.9886850760957833,0.2803802490234375,-0.3681182861328125,-0.4253387451171875,0.628519852292406
1785170360.500826,-0.0532226487994194,-0.2666015625,0.9472655653953552,0.9855055021949141,0.0362396240234375,-0.3070831298828125,-0.3643035888671875,0.47783937036361623
1785170360.50883,-0.052734375,-0.27783203125,0.9360350966453552,0.9778206655859862,-0.45013427734375,-0.064849853515625,-0.4253387451171875,0.6226872563644144
1785170360.519495,-0.0473632775247097,-0.28369140625,0.9458007216453552,0.988566183471223,-0.38909912109375,0.240325927734375,-0.1201629638671875,0.4728570772047974
1785170360.53016,-0.0419921837747097,-0.28125,0.9404296278953552,0.9824829723825066,-0.3871917724609375,0.4863739013671875,-0.3643035888671875,0.7205512788511959
1785170360.540825,-0.05712890625,-0.29150390625,0.9384765028953552,0.9843659816221941,-0.2079010009765625,0.2422332763671875,-0.0591278076171875,0.32464732252130774
1785170360.548809,-0.0541992112994194,-0.2763671875,0.9453124403953552,0.9863731478494137,-0.08392333984375,0.423431396484375,-0.1201629638671875,0.4480808101052583
1785170360.556792,-0.0444335862994194,-0.27783203125,0.9477538466453552,0.9886366041225645,-0.0247955322265625,0.1201629638671875,0.2460479736328125,0.27494283339006803
1785170360.564775,-0.0454101525247097,-0.2861328125,0.9497069716453552,0.9929135915744477,0.1583099365234375,-0.1239776611328125,0.4291534423828125,0.47392528268814194
1785170360.572758,-0.0571289025247097,-0.28515625,0.9340819716453552,0.9783081969249846,0.16021728515625,0.057220458984375,0.4291534423828125,0.46164535792991535
1785170360.5835,-0.052734375,-0.2666015625,0.9462890028953552,0.9845405956255778,-0.26702880859375,0.240325927734375,0.3070831298828125,0.47261081750104905
1785170360.594242,-0.0444335862994194,-0.27587890625,0.9467772841453552,0.9871528454493655,-0.45013427734375,0.423431396484375,0.0629425048828125,0.6211898052040221
1785170360.604984,-0.0532226487994194,-0.2705078125,0.9345702528953552,0.9743863117704649,-0.75531005859375,0.18310546875,0.3681182861328125,0.8599604466976435
1785170360.615589,-0.0458984300494194,-0.2822265625,0.9418944716453552,0.9843392170271642,-0.45013427734375,-0.30517578125,0.0629425048828125,0.5474622215479811
1785170360.626193,-0.0366210900247097,-0.27880859375,0.9399413466453552,0.9811040063708507,-0.5130767822265625,-0.5512237548828125,0.2460479736328125,0.7922341937431656
1785170360.636797,-0.0590820237994194,-0.287109375,0.9599608778953552,1.0037167757085397,0.2803802490234375,-0.8563995361328125,0.0019073486328125,0.9011308936607092
1785170360.644802,-0.0522460900247097,-0.29345703125,0.9472655653953552,0.9930552524893645,0.4634857177734375,-0.1850128173828125,-0.1201629638671875,0.5133107159033712
1785170360.652808,-0.0566406212747097,-0.27880859375,0.9409179091453552,0.9829897780128258,0.6465911865234375,-0.0019073486328125,-0.0591278076171875,0.6492918435512716
1785170360.660814,-0.0410156212747097,-0.27685546875,0.9462890028953552,0.9868100672196338,0.5245208740234375,0.4863739013671875,-0.1201629638671875,0.7253418898028684
1785170360.66882,-0.0551757775247097,-0.2734375,0.9301757216453552,0.9711021089309628,0.52642822265625,0.3662109375,0.0019073486328125,0.6412805644430949
1785170360.679493,-0.0551757775247097,-0.26953125,0.9374999403953552,0.9770351065306269,-0.2079010009765625,0.4253387451171875,-0.0591278076171875,0.477107924833088
1785170360.690166,-0.0424804650247097,-0.27392578125,0.9340819716453552,0.9743454486448904,-0.45013427734375,0.240325927734375,0.3070831298828125,0.5955480399092858
1785170360.700839,-0.0424804650247097,-0.27490234375,0.9370116591453552,0.9774286356979164,-1.12152099609375,-0.1220703125,0.3681182861328125,1.1866851218660845
1785170360.711477,-0.0620117150247097,-0.27392578125,0.9404296278953552,0.9814727054060775,-1.54876708984375,-0.064849853515625,0.1850128173828125,1.561126114277768
1785170360.722113,-0.0502929650247097,-0.2783203125,0.9477538466453552,0.9890545649822066,-1.2416839599609375,-0.0019073486328125,0.1850128173828125,1.255393339554981
1785170360.732749,-0.0517578087747097,-0.29150390625,0.9497069716453552,0.9947847657257121,-0.93841552734375,0.118255615234375,0.0629425048828125,0.9479292438865001
1785170360.740758,-0.0375976525247097,-0.2705078125,0.9438475966453552,0.9825662042794455,-0.87738037109375,0.057220458984375,0.4901885986328125,1.006655531319721
1785170360.748765,-0.0502929612994194,-0.2724609375,0.9389647841453552,0.9789888713794337,-0.2079010009765625,0.2422332763671875,0.3681182861328125,0.4872482518921931
1785170360.756772,-0.0493163987994194,-0.2861328125,0.9409179091453552,0.9846982305915708,-0.32806396484375,0.057220458984375,0.2460479736328125,0.4140528363436205
1785170360.764779,-0.0463867150247097,-0.2802734375,0.9370116591453552,0.979130112126668,-0.08392333984375,-0.1220703125,0.2460479736328125,0.2872000931287983
1785170360.775468,-0.0581054612994194,-0.2822265625,0.9443358778953552,0.9873187567821123,-0.26702880859375,-0.1220703125,-0.3643035888671875,0.46789170827698795
1785170360.786157,-0.0634765550494194,-0.27490234375,0.9379882216453552,0.9795011360818328,-0.08392333984375,-0.30517578125,-0.0591278076171875,0.32198056162708416
1785170360.796846,-0.0454101525247097,-0.28955078125,0.9545897841453552,0.9985706749496895,0.09918212890625,-0.247955322265625,-0.1201629638671875,0.2928447957870738
1785170360.807495,-0.0502929650247097,-0.291015625,0.9423827528953552,0.9875751765206259,0.3414154052734375,-0.3681182861328125,-0.3032684326171875,0.5865554481593964
1785170360.818145,-0.0454101487994194,-0.27734375,0.9433593153953552,0.9843314661338635,0.4634857177734375,-0.2460479736328125,-0.3032684326171875,0.6060778482429937
1785170360.828795,-0.0581054612994194,-0.27978515625,0.9389647841453552,0.9814840009678144,0.46539306640625,-0.431060791015625,-0.4863739013671875,0.7993520399305722
1785170360.839482,-0.0463867150247097,-0.27978515625,0.9467772841453552,0.9883413816906966,0.40435791015625,-0.30517578125,-0.3643035888671875,0.6239829178983913
1785170360.85017,-0.0556640587747097,-0.2763671875,0.9433593153953552,0.9845832152282141,0.22125244140625,-0.370025634765625,0.0019073486328125,0.4311325216110899
1785170360.860858,-0.0405273400247097,-0.29296875,0.9423827528953552,0.9877036026666447,0.03814697265625,0.118255615234375,-0.0591278076171875,0.13760697544424252
1785170360.86889,-0.0502929612994194,-0.287109375,0.9335936903953552,0.978038012510339,-0.5130767822265625,-0.3681182861328125,0.0629425048828125,0.6346027229426655
1785170360.876921,-0.0302734337747097,-0.279296875,0.9482421278953552,0.988982486342801,-0.57220458984375,-0.064849853515625,0.0019073486328125,0.5758708484704355
1785170360.884952,-0.0541992112994194,-0.27294921875,0.9428710341453552,0.9830791512142072,-0.75531005859375,-0.6103515625,-0.1811981201171875,0.9878537711590153
1785170360.892983,-0.0576171837747097,-0.27392578125,0.9360350966453552,0.9769937439162193,-0.5130767822265625,-0.3681182861328125,-0.2422332763671875,0.6763400159867113
1785170360.903591,-0.0541992112994194,-0.2861328125,0.9506835341453552,0.9942880482987523,-0.38909912109375,0.118255615234375,-0.3643035888671875,0.545985001105252
1785170360.914199,-0.0478515625,-0.2822265625,0.9433593153953552,0.9858338615392814,-0.3871917724609375,0.4863739013671875,-0.1201629638671875,0.6331794204472599
1785170360.924807,-0.0493164025247097,-0.2841796875,0.9560546278953552,0.9986143669433677,-0.0247955322265625,0.3032684326171875,-0.0591278076171875,0.3099720282123844
1785170360.93555,-0.04736328125,-0.29736328125,0.9516600966453552,0.9981608793143418,0.22125244140625,0.118255615234375,0.2460479736328125,0.351392428335472
1785170360.946294,-0.0473632775247097,-0.2958984375,0.9355468153953552,0.9823680619651756,0.22125244140625,0.18310546875,0.4901885986328125,0.5681242097851348
1785170360.957038,-0.0415039025247097,-0.28173828125,0.9472655653953552,0.9891466445529028,0.4634857177734375,0.3032684326171875,0.3681182861328125,0.6650577609406595
1785170360.964972,-0.0556640550494194,-0.2724609375,0.9379882216453552,0.9783431675201395,0.34332275390625,0.057220458984375,0.1239776611328125,0.36947957282658606
1785170360.972905,-0.0400390550494194,-0.2822265625,0.9404296278953552,0.9826814557796505,-0.2079010009765625,-0.3070831298828125,0.4291534423828125,0.5671821153515852
1785170360.980838,-0.0493163987994194,-0.271484375,0.9443358778953552,0.9838222010811075,-0.38909912109375,0.423431396484375,-0.1811981201171875,0.6029303710202691
1785170360.988771,-0.0517578087747097,-0.279296875,0.9399413466453552,0.9819243098566248,-0.51116943359375,0.240325927734375,0.0629425048828125,0.5683418868101013
1785170360.999525,-0.0415039025247097,-0.27880859375,0.9477538466453552,0.9887841825720619,-0.6351470947265625,0.3032684326171875,0.0019073486328125,0.7038374898657258
1785170361.010279,-0.0478515625,-0.2880859375,0.9414061903953552,0.9856616532733944,-0.1468658447265625,0.4863739013671875,-0.1811981201171875,0.5394088495866453
1785170361.021033,-0.0556640587747097,-0.28466796875,0.9501952528953552,0.9934814333928911,-0.0247955322265625,0.3643035888671875,-0.4863739013671875,0.608187056102849
1785170361.031615,-0.0449218675494194,-0.27734375,0.9526366591453552,0.9932039741139852,0.09918212890625,0.057220458984375,0.0019073486328125,0.11452036325285396
1785170361.042196,-0.0620117150247097,-0.28857421875,0.9374999403953552,0.9828665579664277,0.22125244140625,0.240325927734375,-0.4253387451171875,0.5363042443123847
1785170361.052777,-0.0600585900247097,-0.2890625,0.9360350966453552,0.9814916531962387,0.4634857177734375,0.4253387451171875,-0.0591278076171875,0.6318450413759987
1785170361.060856,-0.06640625,-0.27978515625,0.9326171278953552,0.9759427395809043,0.0362396240234375,0.4863739013671875,0.1850128173828125,0.5216345702466667
1785170361.068935,-0.0439453050494194,-0.2802734375,0.9335936903953552,0.975746672220803,0.16021728515625,0.057220458984375,0.2460479736328125,0.2991377019334655
1785170361.077014,-0.0561523400247097,-0.28515625,0.9438475966453552,0.9875806083037102,0.16021728515625,0.240325927734375,0.1239776611328125,0.31431924927402977
1785170361.085093,-0.0483398362994194,-0.271484375,0.9521483778953552,0.9912754607934927,-0.2079010009765625,0.0591278076171875,0.0629425048828125,0.22512370546345103
1785170361.09312,-0.0561523400247097,-0.2841796875,0.9511718153953552,0.9943032749017495,-0.0247955322265625,0.1811981201171875,0.2460479736328125,0.30657329055417465
1785170361.101147,-0.0395507737994194,-0.2724609375,0.9316405653953552,0.9714696954932196,-0.08392333984375,0.18310546875,-0.1201629638671875,0.2345418460361259
1785170361.109174,-0.0478515625,-0.28271484375,0.9340819716453552,0.977101112814407,-0.08392333984375,-0.064849853515625,-0.1811981201171875,0.20995568390860556
1785170361.117201,-0.0576171875,-0.28076171875,0.9453124403953552,0.9878069107761326,-0.26702880859375,0.057220458984375,-0.4253387451171875,0.5054617825743544
1785170361.127725,-0.0498046837747097,-0.29443359375,0.9443358778953552,0.9904251097053376,-0.2079010009765625,-0.1239776611328125,-0.2422332763671875,0.3424474366185289
1785170361.138249,-0.0673828050494194,-0.27734375,0.9516600966453552,0.9935375874255776,0.03814697265625,0.057220458984375,0.0629425048828125,0.09322623756294203
1785170361.148773,-0.0502929650247097,-0.28857421875,0.9423827528953552,0.9868585081017327,-0.2689361572265625,-0.0019073486328125,0.0629425048828125,0.2762101619483257
1785170361.159466,-0.0561523400247097,-0.28173828125,0.9511718153953552,0.9936082562129053,-0.1468658447265625,0.1811981201171875,-0.3032684326171875,0.38258865286797916
1785170361.170159,-0.0561523400247097,-0.28515625,0.9414061903953552,0.985247576763835,-0.2079010009765625,0.1811981201171875,-0.0591278076171875,0.28204907830850023
1785170361.180852,-0.0478515625,-0.2880859375,0.9584960341453552,1.0019969695020636,-0.26702880859375,0.118255615234375,-0.1811981201171875,0.3436881346329268
1785170361.191499,-0.0385742112994194,-0.27783203125,0.9423827528953552,0.9832415066098976,-0.26702880859375,-0.1220703125,-0.5474090576171875,0.6211780921556898
1785170361.202145,-0.0600585900247097,-0.29052734375,0.9487304091453552,0.9940334807939317,-0.1468658447265625,-0.0019073486328125,-0.3643035888671875,0.3927980641341892
1785170361.212791,-0.0458984337747097,-0.28369140625,0.9497069716453552,0.9922352605077415,0.22125244140625,-0.1220703125,-0.3032684326171875,0.39474744615280205
1785170361.220849,-0.06591796875,-0.2880859375,0.9389647841453552,0.9843747009419297,-0.0247955322265625,-0.3070831298828125,-0.4253387451171875,0.5251932169924576
1785170361.228906,-0.0439453050494194,-0.29150390625,0.9443358778953552,0.9892805302214769,0.34332275390625,0.057220458984375,-0.1811981201171875,0.39239960883027997
1785170361.236963,-0.0493163987994194,-0.28662109375,0.9389647841453552,0.9829743762876646,0.09918212890625,-0.064849853515625,-0.0591278076171875,0.13243374127838098
1785170361.24502,-0.0590820237994194,-0.2724609375,0.9443358778953552,0.9846298280470713,-0.38909912109375,0.118255615234375,-0.1201629638671875,0.42405383438395683
1785170361.255636,-0.0444335862994194,-0.2822265625,0.9550780653953552,0.9968953240793783,-0.45013427734375,-0.064849853515625,0.3070831298828125,0.548749869976661
1785170361.266252,-0.0517578087747097,-0.28515625,0.9360350966453552,0.979874818451368,-0.26702880859375,-0.1220703125,0.1239776611328125,0.3187099092792813
1785170361.276868,-0.0493164025247097,-0.28955078125,0.9458007216453552,0.9903589084495273,-0.5130767822265625,-0.0629425048828125,0.1850128173828125,0.5490348677240929
1785170361.287498,-0.0341796800494194,-0.27783203125,0.9453124403953552,0.9858876701140975,-0.1468658447265625,-0.1239776611328125,0.4291534423828125,0.4702262369500741
1785170361.298129,-0.03271484375,-0.283203125,0.9443358778953552,0.9864301907848034,0.0362396240234375,0.1811981201171875,0.4291534423828125,0.4672459161858783
1785170361.30876,-0.0458984337747097,-0.28857421875,0.9511718153953552,0.9950424957521362,-0.08392333984375,0.301361083984375,0.3070831298828125,0.43836249676425487
1785170361.319453,-0.0419921837747097,-0.2744140625,0.9497069716453552,0.9894492170837846,0.09918212890625,0.545501708984375,0.4291534423828125,0.7011290083203431
1785170361.330146,-0.0502929612994194,-0.2666015625,0.9472655653953552,0.9853516258003984,-0.0247955322265625,0.4863739013671875,0.1239776611328125,0.5025384072978897
1785170361.340839,-0.0512695275247097,-0.2890625,0.9316405653953552,0.9768008171828247,-0.2079010009765625,0.6084442138671875,0.3070831298828125,0.7125498131738867
1785170361.351485,-0.0551757737994194,-0.27197265625,0.9399413466453552,0.9800526653683103,-0.26702880859375,0.606536865234375,0.0629425048828125,0.6656974631379203
1785170361.362134,-0.0493164025247097,-0.28369140625,0.9604491591453552,1.0026841520843448,0.2803802490234375,0.1811981201171875,0.3681182861328125,0.49694759820508916
1785170361.372783,-0.0561523400247097,-0.26953125,0.9414061903953552,0.9808393320679534,0.40435791015625,0.118255615234375,0.0629425048828125,0.4259712067280057
1785170361.380793,-0.0483398362994194,-0.28173828125,0.9379882216453552,0.9805789630828181,0.03814697265625,0.423431396484375,0.6122589111328125,0.7453927242152836
1785170361.388803,-0.0561523400247097,-0.2841796875,0.9350585341453552,0.9789002208376034,-0.6961822509765625,0.4253387451171875,0.5512237548828125,0.9845965684582514
1785170361.396813,-0.0541992112994194,-0.2734375,0.9458007216453552,0.9860246578948235,-1.0013580322265625,-0.1850128173828125,0.5512237548828125,1.157927147642582
1785170361.404823,-0.0507812462747097,-0.2783203125,0.9389647841453552,0.9806608981643165,-0.75531005859375,-0.431060791015625,0.6122589111328125,1.0635636626104934
1785170361.415493,-0.0512695275247097,-0.28466796875,0.9448241591453552,0.988107842590871,-0.57220458984375,-0.858306884765625,0.6122589111328125,1.1995706629189726
1785170361.426163,-0.064453125,-0.28857421875,0.9511718153953552,0.9960708345554217,-0.8754730224609375,-0.3070831298828125,0.4291534423828125,1.0222160920395116
1785170361.436833,-0.0620117150247097,-0.291015625,0.9682616591453552,1.01294925211748,-0.08392333984375,-0.370025634765625,0.3070831298828125,0.48812103623267206
1785170361.444821,-0.0498046800494194,-0.2783203125,0.9458007216453552,0.9871584004453375,0.6465911865234375,0.1811981201171875,-0.0591278076171875,0.6740986714550063
1785170361.452811,-0.0507812462747097,-0.28759765625,0.9536132216453552,0.9973311001620973,0.52642822265625,0.545501708984375,0.1239776611328125,0.7681596504463474
1785170361.460801,-0.0502929650247097,-0.2705078125,0.9409179091453552,0.9803215649494704,0.22125244140625,0.67138671875,-0.0591278076171875,0.7093721636600444
1785170361.468791,-0.0590820237994194,-0.27294921875,0.9506835341453552,0.9908537448319874,0.2193450927734375,-0.0019073486328125,-0.1811981201171875,0.2845147912439663
1785170361.479502,-0.0483398362994194,-0.26806640625,0.9467772841453552,0.985181995220629,-0.8182525634765625,0.1811981201171875,-0.0591278076171875,0.840158386260343
1785170361.490213,-0.0551757775247097,-0.28125,0.9287108778953552,0.9719309767913654,-1.24359130859375,0.18310546875,0.1850128173828125,1.27054189151401
1785170361.500924,-0.05126953125,-0.2724609375,0.9335936903953552,0.9738894732175679,-1.67083740234375,0.057220458984375,0.0019073486328125,1.6718180056381735
1785170361.511551,-0.0463867150247097,-0.2783203125,0.9526366591453552,0.9935444268015925,-1.8558502197265625,0.1201629638671875,-0.0591278076171875,1.8606760259588697
1785170361.522177,-0.0595703050494194,-0.28173828125,0.9335936903953552,0.9769965502044535,-1.9779205322265625,-0.0629425048828125,-0.1201629638671875,1.9825666517445708
1785170361.532803,-0.06396484375,-0.2900390625,0.9477538466453552,0.9932026544683156,-1.97601318359375,0.545501708984375,0.0019073486328125,2.0499277680493986
1785170361.540847,-0.0458984300494194,-0.2919921875,0.9472655653953552,0.9923095055605476,-1.42669677734375,0.301361083984375,-0.3643035888671875,1.5029967738770407
1785170361.54889,-0.0561523400247097,-0.29833984375,0.9545897841453552,1.001699258087826,-1.54876708984375,0.545501708984375,-0.4863739013671875,1.7125452359044682
1785170361.556933,-0.0502929650247097,-0.29443359375,0.9550780653953552,1.0006970742731545,-1.30462646484375,0.057220458984375,-0.6084442138671875,1.4406695509677239
1785170361.564976,-0.0502929612994194,-0.28759765625,0.9545897841453552,0.9982401764262115,-0.75531005859375,-0.1220703125,-0.2422332763671875,0.8025405946033658
1785170361.575604,-0.0537109337747097,-0.29833984375,0.9501952528953552,0.9973778348251949,-0.6961822509765625,-0.0629425048828125,-0.3032684326171875,0.7619732460643234
1785170361.586232,-0.0444335862994194,-0.29736328125,0.9531249403953552,0.999423041875083,-0.0247955322265625,-0.1850128173828125,-0.2422332763671875,0.30581288591867195
1785170361.59686,-0.0566406212747097,-0.2900390625,0.9536132216453552,0.9983531410533536,0.1583099365234375,-0.3681182861328125,-0.5474090576171875,0.678402376874338
1785170361.607487,-0.046875,-0.29150390625,0.9516600966453552,0.9964079147272243,0.16021728515625,-0.431060791015625,-0.3643035888671875,0.5866856814985075
1785170361.618115,-0.04736328125,-0.27734375,0.9374999403953552,0.9788099786557776,-0.3871917724609375,-0.0019073486328125,-0.5474090576171875,0.6705056174273164
1785170361.628743,-0.04296875,-0.27685546875,0.9340819716453552,0.9751945415178548,-0.5130767822265625,0.1201629638671875,-0.1811981201171875,0.5572429282452251
1785170361.636775,-0.0566406212747097,-0.2744140625,0.9453124403953552,0.9859649322579181,-1.3065338134765625,0.1811981201171875,-0.6694793701171875,1.479211273450861
1785170361.644806,-0.0502929650247097,-0.28466796875,0.9384765028953552,0.9819895015986287,-0.93841552734375,0.057220458984375,-0.7915496826171875,1.2290031663659786
1785170361.652837,-0.0488281175494194,-0.2822265625,0.9487304091453552,0.9910224048330589,-0.93841552734375,0.18310546875,-0.5474090576171875,1.1017295453092573
1785170361.660868,-0.0454101525247097,-0.28857421875,0.9389647841453552,0.983357527832387,-0.93841552734375,-0.1220703125,-0.6694793701171875,1.1591926027050907
1785170361.671851,-0.0561523400247097,-0.287109375,0.9443358778953552,0.9886127294262058,-0.75531005859375,-0.431060791015625,-0.3032684326171875,0.9210203213751562
1785170361.682834,-0.052734375,-0.2861328125,0.9477538466453552,0.9914082179036384,-0.57220458984375,-0.858306884765625,-0.3643035888671875,1.0939953866154275
1785170361.693817,-0.0449218712747097,-0.28369140625,0.9560546278953552,0.9982681203058877,-0.3299713134765625,-0.6732940673828125,-0.5474090576171875,0.9283655773733085
1785170361.704143,-0.0478515625,-0.27392578125,0.9423827528953552,0.9825529800584508,-0.3299713134765625,-0.3070831298828125,-0.2422332763671875,0.5117207017071465
1785170361.714471,-0.0478515625,-0.27734375,0.9418944716453552,0.9830435002652919,-0.1468658447265625,0.1811981201171875,-0.5474090576171875,0.5950285803577731
1785170361.724799,-0.0434570237994194,-0.291015625,0.9511718153953552,0.995643726095906,-0.32806396484375,0.057220458984375,-0.1811981201171875,0.37912122690425354
1785170361.732797,-0.0507812462747097,-0.2958984375,0.9545897841453552,1.0006879015371526,-0.2079010009765625,-0.0019073486328125,-0.1201629638671875,0.24013663208933939
1785170361.740797,-0.0585937462747097,-0.28369140625,0.9458007216453552,0.9891678553953733,-0.26702880859375,-0.247955322265625,-0.1811981201171875,0.40696312510207877
1785170361.748797,-0.0424804650247097,-0.28466796875,0.9340819716453552,0.977419854562941,-0.3871917724609375,-0.0019073486328125,0.1239776611328125,0.4065606561144499
1785170361.756797,-0.04736328125,-0.28125,0.9467772841453552,0.9888033518776225,-0.38909912109375,-0.1220703125,0.2460479736328125,0.4762760675895752
1785170361.767495,-0.0625,-0.302734375,0.9472655653953552,0.9964268177796213,-0.57220458984375,0.240325927734375,0.0019073486328125,0.6206273295291219
1785170361.778193,-0.052734375,-0.291015625,0.9370116591453552,0.9825791864654536,-0.38909912109375,-0.064849853515625,0.0629425048828125,0.3994563661501086
1785170361.788891,-0.0424804650247097,-0.28369140625,0.9389647841453552,0.9818045985601981,-0.26702880859375,0.057220458984375,0.1239776611328125,0.29991503130944036
1785170361.799666,-0.0512695275247097,-0.28857421875,0.9521483778953552,0.9962380125795923,-0.1468658447265625,-0.0019073486328125,0.2460479736328125,0.28655334521667525
1785170361.810441,-0.0449218712747097,-0.28515625,0.9487304091453552,0.9916760815256145,0.2803802490234375,0.0591278076171875,0.4291534423828125,0.5160250563539313
1785170361.821216,-0.0537109337747097,-0.2890625,0.9404296278953552,0.9853171460685121,-0.14495849609375,-0.064849853515625,0.4901885986328125,0.5152701537255582
1785170361.831785,-0.0605468675494194,-0.287109375,0.9321288466453552,0.977221522036502,-0.38909912109375,0.423431396484375,0.0019073486328125,0.5750616589057592
1785170361.842355,-0.0375976525247097,-0.28564453125,0.9467772841453552,0.9896431717958022,-0.45013427734375,0.301361083984375,-0.3643035888671875,0.652806614122077
1785170361.852925,-0.06689453125,-0.287109375,0.9379882216453552,0.9832235633209082,-0.38909912109375,0.118255615234375,-0.1811981201171875,0.4452137411450729
1785170361.860972,-0.0595703050494194,-0.291015625,0.9418944716453552,0.9876253899905086,-0.2079010009765625,0.4253387451171875,-0.4253387451171875,0.6364345389769354
1785170361.86902,-0.0620117150247097,-0.2841796875,0.9433593153953552,0.9871830354757403,0.03814697265625,-0.1220703125,-0.3643035888671875,0.3861003206139528
1785170361.877068,-0.0610351525247097,-0.2890625,0.9233397841453552,0.9694528228519198,-0.02288818359375,0.057220458984375,-0.3032684326171875,0.30946694831062227
1785170361.885116,-0.04296875,-0.28759765625,0.9492186903953552,0.9927612238362903,-0.2079010009765625,0.1201629638671875,-0.1811981201171875,0.3008234080426694
1785170361.895783,-0.0498046837747097,-0.279296875,0.9453124403953552,0.9869664943030673,-0.0247955322265625,-0.1850128173828125,-0.3643035888671875,0.40934296851886587
1785170361.90645,-0.0458984337747097,-0.27978515625,0.9345702528953552,0.9766309218316286,-0.26702880859375,-0.431060791015625,-0.4863739013671875,0.7026217774173759
1785170361.917117,-0.05126953125,-0.287109375,0.9428710341453552,0.9869478938007907,-0.14495849609375,-0.247955322265625,-0.6084442138671875,0.6728292270837166
1785170361.92772,-0.0561523400247097,-0.2763671875,0.9521483778953552,0.9930349647145699,-0.2079010009765625,-0.0019073486328125,0.1239776611328125,0.2420680165693647
1785170361.938323,-0.0546874925494194,-0.28125,0.9477538466453552,0.9901159720822659,-0.14495849609375,0.057220458984375,0.0629425048828125,0.16807410697982944
1785170361.948926,-0.0581054650247097,-0.2890625,0.9526366591453552,0.9972211280952743,0.03814697265625,0.118255615234375,0.3070831298828125,0.3312697250216529
1785170361.9569,-0.0473632775247097,-0.28466796875,0.9477538466453552,0.9907151388371943,0.03814697265625,-0.1220703125,0.7953643798828125,0.8055810632723781
1785170361.964875,-0.0463867150247097,-0.27978515625,0.9414061903953552,0.9831973740319471,-0.0247955322265625,-0.3070831298828125,0.6732940673828125,0.740432149659855
1785170361.97285,-0.0405273400247097,-0.28955078125,0.9433593153953552,0.9876279249571456,-0.38909912109375,-0.1220703125,0.7343292236328125,0.839963508678172
1785170361.980825,-0.0371093712747097,-0.28564453125,0.9433593153953552,0.9863552613600385,-0.57220458984375,0.057220458984375,0.1239776611328125,0.5882709698978857
1785170361.991513,-0.0512695275247097,-0.28515625,0.9267577528953552,0.9709905169044226,-0.5130767822265625,0.1811981201171875,-0.1201629638671875,0.5572429282452251
1785170362.002201,-0.0493163987994194,-0.283203125,0.9467772841453552,0.9894560844089866,-0.8182525634765625,0.3032684326171875,-0.1201629638671875,0.8808791845329293
1785170362.012889,-0.0454101525247097,-0.28857421875,0.9467772841453552,0.9908200580595575,-0.26702880859375,0.423431396484375,-0.4863739013671875,0.6979671224913422
1785170362.020878,-0.0483398362994194,-0.29541015625,0.9374999403953552,0.9841290761025195,-0.0247955322265625,0.1201629638671875,-0.9136199951171875,0.9218218112963456
1785170362.02887,-0.0468749962747097,-0.2880859375,0.9482421278953552,0.9921461111028552,0.1583099365234375,0.3032684326171875,-0.7305145263671875,0.8066506377965722
1785170362.036862,-0.0566406212747097,-0.28857421875,0.9482421278953552,0.9927972465821353,0.1583099365234375,-0.0629425048828125,-0.8525848388671875,0.8694393034531885
1785170362.044854,-0.05712890625,-0.2919921875,0.9321288466453552,0.9784617193527586,-0.08392333984375,0.18310546875,-0.4863739013671875,0.5264316779866361
1785170362.055535,-0.0595703050494194,-0.28125,0.9443358778953552,0.9871273646414995,-0.14495849609375,0.240325927734375,-0.1201629638671875,0.305300925344973
1785170362.066216,-0.0610351525247097,-0.2890625,0.9355468153953552,0.9810862666179542,-0.2079010009765625,-0.0019073486328125,0.2460479736328125,0.3221274119268289
1785170362.076897,-0.0590820237994194,-0.2978515625,0.9433593153953552,0.9910262543258477,-0.5130767822265625,-0.3070831298828125,0.3070831298828125,0.6721963119336583
1785170362.087517,-0.0600585900247097,-0.29443359375,0.9501952528953552,0.996578744499984,-0.5130767822265625,-0.4901885986328125,0.3070831298828125,0.7731964144693043
1785170362.098137,-0.0551757737994194,-0.3017578125,0.9506835341453552,0.9989501116243256,-0.08392333984375,-0.6103515625,0.3681182861328125,0.7176929910498501
1785170362.108757,-0.0527343712747097,-0.29443359375,0.9467772841453552,0.9929044671145022,-0.14495849609375,-0.247955322265625,0.3070831298828125,0.42046980401479006
1785170362.116775,-0.0507812425494194,-0.29248046875,0.9374999403953552,0.9833766813568324,0.22125244140625,0.118255615234375,0.3070831298828125,0.3965313127879196
1785170362.124793,-0.0498046837747097,-0.2744140625,0.9389647841453552,0.9795092904555761,0.1583099365234375,-0.0629425048828125,0.0629425048828125,0.18161925515732236
1785170362.132811,-0.046875,-0.27783203125,0.9536132216453552,0.994367175499239,0.03814697265625,0.118255615234375,0.0629425048828125,0.1392886965199262
1785170362.140829,-0.0488281175494194,-0.2861328125,0.9379882216453552,0.9818747758232697,0.09918212890625,0.057220458984375,-0.1201629638671875,0.165983172358241
1785170362.151494,-0.0439453050494194,-0.27880859375,0.9399413466453552,0.9814046856002996,-0.26702880859375,0.240325927734375,-0.4253387451171875,0.5567530729670465
1785170362.162159,-0.05224609375,-0.2783203125,0.9423827528953552,0.9840107233241209,-0.08392333984375,0.3662109375,-0.4253387451171875,0.5675091416118531
1785170362.172824,-0.0498046837747097,-0.2890625,0.9418944716453552,0.9865104313428377,-0.08392333984375,0.301361083984375,-0.1811981201171875,0.3615167888836835
1785170362.183472,-0.06640625,-0.29736328125,0.9570311903953552,1.0043621908775637,-0.14495849609375,0.423431396484375,0.1239776611328125,0.4644109964012827
1785170362.194119,-0.0532226487994194,-0.291015625,0.9311522841453552,0.9770196111688236,0.16021728515625,0.057220458984375,0.4291534423828125,0.46164535792991535
1785170362.204766,-0.0571289025247097,-0.29541015625,0.9477538466453552,0.9943682545970556,0.34332275390625,-0.064849853515625,0.6122589111328125,0.7049375795858146
1785170362.212781,-0.0502929612994194,-0.28759765625,0.9599608778953552,1.0033776362498714,0.22125244140625,-0.370025634765625,0.7343292236328125,0.8515345101010874
1785170362.220798,-0.0595703087747097,-0.29052734375,0.9472655653953552,0.9926060701696957,0.16021728515625,-0.431060791015625,0.6122589111328125,0.7657309960262759
1785170362.228815,-0.0502929650247097,-0.28076171875,0.9458007216453552,0.9878742481264027,0.40435791015625,0.18310546875,0.2460479736328125,0.5075160465649341
1785170362.236832,-0.0483398362994194,-0.2734375,0.9418944716453552,0.9819725056720211,-0.08392333984375,0.3662109375,0.3070831298828125,0.48523564004902064
1785170362.247478,-0.056640625,-0.27197265625,0.9418944716453552,0.9820094102727093,-0.32806396484375,0.423431396484375,-0.0591278076171875,0.5389027836180885
1785170362.258124,-0.046875,-0.27685546875,0.9428710341453552,0.9837946956718733,-0.3299713134765625,0.4863739013671875,-0.0591278076171875,0.5907086737827723
1785170362.26877,-0.0532226487994194,-0.28173828125,0.9521483778953552,0.9943820407648595,-0.3871917724609375,-0.0019073486328125,-0.2422332763671875,0.4567253735231181
1785170362.279458,-0.0512695275247097,-0.2841796875,0.9399413466453552,0.9832987309936327,-0.14495849609375,-0.431060791015625,-0.0591278076171875,0.4586092768080397
1785170362.290146,-0.0585937425494194,-0.291015625,0.9482421278953552,0.9936228931418597,-0.0247955322265625,-0.3681182861328125,-0.3032684326171875,0.4775956796557558
1785170362.300834,-0.0478515625,-0.287109375,0.9331054091453552,0.9774493694421736,-0.26702880859375,-0.48828125,-0.4253387451171875,0.7004541468350544
1785170362.308855,-0.0561523400247097,-0.29296875,0.9497069716453552,0.9954532162581046,-0.45013427734375,0.057220458984375,-0.0591278076171875,0.4575927733255604
1785170362.316876,-0.0561523400247097,-0.2890625,0.9306640028953552,0.976138156452101,-0.51116943359375,0.728607177734375,-0.1811981201171875,0.9082925564049333
1785170362.324897,-0.0517578087747097,-0.2880859375,0.9335936903953552,0.978401531530093,-0.87738037109375,0.728607177734375,0.3070831298828125,1.1810862727528764
1785170362.332918,-0.0546874962747097,-0.28369140625,0.9384765028953552,0.9819417919182352,-0.75531005859375,0.67138671875,0.1850128173828125,1.027367097644611
1785170362.343556,-0.0493163987994194,-0.28125,0.9360350966453552,0.9786191147951397,-0.75531005859375,0.423431396484375,0.3070831298828125,0.9187423364579572
1785170362.354194,-0.0576171837747097,-0.28369140625,0.9418944716453552,0.98537594326344,-0.75531005859375,0.240325927734375,0.4291534423828125,0.9013448359331183
1785170362.364832,-0.0629882737994194,-0.29296875,0.9462890028953552,0.9926031876401963,-0.5130767822265625,-0.0019073486328125,0.0629425048828125,0.5169266692285216
1785170362.375512,-0.0458984337747097,-0.29833984375,0.9394530653953552,0.9867549800596273,-0.0247955322265625,-0.3681182861328125,0.0019073486328125,0.36895735388058715
1785170362.38619,-0.0493164025247097,-0.30517578125,0.9399413466453552,0.9894716267549115,-0.2079010009765625,-0.4901885986328125,0.1239776611328125,0.5466974930403647
1785170362.396868,-0.0410156212747097,-0.28515625,0.9448241591453552,0.987769740277227,-0.26702880859375,-0.30517578125,-0.1811981201171875,0.44415020073680944
1785170362.407505,-0.0424804650247097,-0.28857421875,0.9453124403953552,0.9892902908661898,-0.2079010009765625,-0.0019073486328125,-0.1811981201171875,0.27578836617933405
1785170362.418142,-0.0522460900247097,-0.2890625,0.9458007216453552,0.9903664917059718,-0.3871917724609375,-0.1850128173828125,-0.5474090576171875,0.6955601250925082
1785170362.428779,-0.0541992112994194,-0.27880859375,0.9384765028953552,0.9805151365180587,-0.6961822509765625,-0.3070831298828125,-0.3032684326171875,0.8191101986030349
1785170362.436783,-0.052734375,-0.2822265625,0.9453124403953552,0.9879515964122073,-0.5130767822265625,-0.0019073486328125,-0.5474090576171875,0.7502720165380738
1785170362.44479,-0.05712890625,-0.3017578125,0.9448241591453552,0.9934858735980265,-0.5702972412109375,-0.0019073486328125,-0.1201629638671875,0.5828222020453239
1785170362.452797,-0.0625,-0.291015625,0.9384765028953552,0.984547860939648,-0.57220458984375,-0.1220703125,-0.3643035888671875,0.6892288144684714
1785170362.460804,-0.0610351525247097,-0.28662109375,0.9521483778953552,0.9962246105948783,-0.75531005859375,0.18310546875,-0.0591278076171875,0.7794337655841364
1785170362.471544,-0.0454101525247097,-0.283203125,0.9443358778953552,0.9869327952006024,-0.8182525634765625,-0.3070831298828125,0.1239776611328125,0.8827274589331368
1785170362.482284,-0.0546874925494194,-0.283203125,0.9492186903953552,0.9920740164156007,-0.6351470947265625,-0.3070831298828125,0.0019073486328125,0.7054895595095823
1785170362.493024,-0.0449218675494194,-0.283203125,0.9443358778953552,0.9869104490653062,-0.5702972412109375,-0.1850128173828125,0.6122589111328125,0.856930370677962
1785170362.500963,-0.0478515587747097,-0.279296875,0.9521483778953552,0.9934198757779569,0.0133514404296875,0.5092620849609375,0.7457733154296875,0.9031633131097038
1785170362.508903,-0.0615234337747097,-0.29541015625,0.9531249403953552,0.9997496913341509,0.3204345703125,0.51116943359375,0.3757476806640625,0.7107452590178382
1785170362.516843,-0.0463867150247097,-0.296875,0.9291991591453552,0.9765744059272795,-0.1087188720703125,0.4482269287109375,0.9288787841796875,1.0370838772563264
1785170362.524783,-0.0449218675494194,-0.2861328125,0.9301757216453552,0.9742262743899618,-0.1678466796875,0.32806396484375,0.7457733154296875,0.8318511350705171
1785170362.53547,-0.037109375,-0.2822265625,0.9492186903953552,0.9909818668821999,-0.2899169921875,-0.09918212890625,0.3757476806640625,0.4848456213866897
1785170362.546157,-0.0395507737994194,-0.287109375,0.9379882216453552,0.9817423087890423,0.3223419189453125,-0.2231597900390625,0.1926422119140625,0.43682448009557273
1785170362.556844,-0.0541992112994194,-0.27734375,0.9414061903953552,0.9829052474599154,0.0133514404296875,-0.1621246337890625,0.3185272216796875,0.35766219927994336
1785170362.567488,-0.05224609375,-0.28759765625,0.9360350966453552,0.9806139751933513,-0.2307891845703125,0.2651214599609375,0.1354217529296875,0.37668566127873526
1785170362.578132,-0.0517578087747097,-0.2900390625,0.9394530653953552,0.9845677176435189,-0.0457763671875,-0.09918212890625,0.0095367431640625,0.1096518123764405
1785170362.588776,-0.0585937425494194,-0.287109375,0.9467772841453552,0.991086396664031,-0.1087188720703125,0.2651214599609375,-0.2307891845703125,0.36793046814675423
1785170362.599465,-0.0595703050494194,-0.2880859375,0.9467772841453552,0.9914279370698555,-0.8373260498046875,0.2651214599609375,0.0095367431640625,0.8783480242384099
1785170362.610154,-0.0571289025247097,-0.2802734375,0.9233397841453552,0.9666298506963953,-1.3275146484375,0.20599365234375,0.2574920654296875,1.3678562389305768
1785170362.620843,-0.0551757775247097,-0.2900390625,0.9418944716453552,0.9870826813987864,-1.8768310546875,0.14495849609375,0.8068084716796875,2.048035078655458
1785170362.628837,-0.0590820237994194,-0.28271484375,0.9379882216453552,0.9814480487311786,-1.9397735595703125,0.0858306884765625,0.9860992431640625,2.177723602035203
1785170362.636834,-0.0444335862994194,-0.28759765625,0.9599608778953552,1.0031010131395253,-2.1820068359375,0.14495849609375,0.6237030029296875,2.2740211594290964
1785170362.644831,-0.0488281212747097,-0.28857421875,0.9536132216453552,0.9975156347903645,-2.3670196533203125,0.2651214599609375,0.8068084716796875,2.514758703675274
1785170362.652828,-0.0556640587747097,-0.3076171875,0.9589843153953552,1.0086514455742295,-2.1839141845703125,0.2651214599609375,0.8068084716796875,2.34322650720611
1785170362.663521,-0.0361328087747097,-0.28466796875,0.9511718153953552,0.9935135905988888,-2.1228790283203125,0.2040863037109375,0.4405975341796875,2.1777035554385744
1785170362.674214,-0.0585937425494194,-0.29150390625,0.9374999403953552,0.9835211702176273,-1.7566680908203125,0.2651214599609375,0.6237030029296875,1.8828642026714542
1785170362.684907,-0.0576171875,-0.2822265625,0.9321288466453552,0.9756207047948382,-1.8138885498046875,0.4482269287109375,0.0743865966796875,1.869928452240828
1785170362.692942,-0.0537109300494194,-0.28759765625,0.9306640028953552,0.975567917765069,-2.4280548095703125,0.2651214599609375,-0.0476837158203125,2.442951756290692
1785170362.700977,-0.0512695275247097,-0.27978515625,0.9379882216453552,0.9801684559583929,-2.4261474609375,0.20599365234375,-0.1087188720703125,2.437302746924074
1785170362.709012,-0.0493163987994194,-0.2763671875,0.9384765028953552,0.9795657588972264,-2.4871826171875,0.08392333984375,-0.0476837158203125,2.489054887897136
1785170362.717047,-0.0488281175494194,-0.2861328125,0.9531249403953552,0.9963449821503741,-2.3040771484375,-0.16021728515625,-0.0476837158203125,2.310133074342072
1785170362.727658,-0.0600585900247097,-0.29443359375,0.9628905653953552,1.0086904462181066,-1.9397735595703125,-0.1621246337890625,0.1926422119140625,1.9560462369536311
1785170362.738269,-0.0688476487994194,-0.296875,0.9472655653953552,0.9950813111268798,-1.3885498046875,-0.28228759765625,0.4978179931640625,1.5018587157939078
1785170362.74888,-0.06494140625,-0.30078125,0.9541015028953552,1.0024950994515962,-0.7171630859375,-0.28228759765625,0.6809234619140625,1.0284288699793325
1785170362.759539,-0.0629882737994194,-0.31103515625,0.9487304091453552,1.000399810224295,-0.7171630859375,-0.16021728515625,0.8640289306640625,1.1342567889674369
1785170362.770199,-0.0551757775247097,-0.31494140625,0.9282225966453552,0.9817482593410745,-0.6542205810546875,-0.2231597900390625,1.1119842529296875,1.3093180818003725
1785170362.780859,-0.0546874925494194,-0.2880859375,0.9262694716453552,0.9715757115782394,-0.3509521484375,-0.03814697265625,0.9860992431640625,1.0473845136264286
1785170362.788928,-0.0385742150247097,-0.29931640625,0.9360350966453552,0.9834835958301832,-0.9613037109375,-0.58746337890625,0.8068084716796875,1.3856976424141991
1785170362.797,-0.0537109337747097,-0.30859375,0.9501952528953552,1.0004928713243697,-1.2664794921875,-0.28228759765625,0.8068084716796875,1.5279386446765975
1785170362.805072,-0.052734375,-0.2822265625,0.9423827528953552,0.9851487196570045,-1.2683868408203125,-0.2231597900390625,0.4978179931640625,1.3807346682742148
1785170362.813144,-0.0507812462747097,-0.2861328125,0.9370116591453552,0.9810410647555505,-1.8787384033203125,-0.2231597900390625,0.6809234619140625,2.0107498703185005
1785170362.823726,-0.0576171837747097,-0.2939453125,0.9531249403953552,0.9990849506475917,-1.8768310546875,0.02288818359375,0.6809234619140625,1.996666080688668
1785170362.834308,-0.0463867150247097,-0.28759765625,0.9301757216453552,0.9747261217130349,-2.0618438720703125,0.2651214599609375,0.1926422119140625,2.08772617053503
1785170362.84489,-0.0488281175494194,-0.28515625,0.9453124403953552,0.9885918682366877,-2.3651123046875,0.38909912109375,0.3185272216796875,2.4179772395064285
1785170362.855554,-0.0522460900247097,-0.2958984375,0.9370116591453552,0.9840103600126082,-2.3040771484375,0.14495849609375,-0.0476837158203125,2.30912498758644
1785170362.866217,-0.0488281175494194,-0.29296875,0.9384765028953552,0.984354113125291,-2.3670196533203125,0.2651214599609375,0.0743865966796875,2.382982331764551
1785170362.87688,-0.0507812425494194,-0.30224609375,0.9511718153953552,0.9993294042429115,-2.6702880859375,0.14495849609375,0.1926422119140625,2.6811494641852143
1785170362.884865,-0.0654296800494194,-0.306640625,0.9448241591453552,0.9954909379981756,-2.4261474609375,-0.09918212890625,0.1926422119140625,2.435803690513461
1785170362.892852,-0.0576171837747097,-0.2900390625,0.9418944716453552,0.9872221600825675,-2.2449493408203125,-0.0400543212890625,0.1926422119140625,2.253555615758046
1785170362.900839,-0.0522460900247097,-0.29931640625,0.9389647841453552,0.9869016317943844,-2.3670196533203125,-0.0400543212890625,0.6237030029296875,2.4481404828404045
1785170362.908826,-0.0576171837747097,-0.3095703125,0.9335936903953552,0.9852668151285188,-2.3021697998046875,-0.0400543212890625,0.7457733154296875,2.4202826227103458
1785170362.919492,-0.064453125,-0.29541015625,0.9418944716453552,0.9892353417938513,-2.5501251220703125,0.1430511474609375,0.8640289306640625,2.696321153354789
1785170362.930158,-0.0483398362994194,-0.29052734375,0.9340819716453552,0.9794141141482287,-2.9144287109375,0.20599365234375,0.9288787841796875,3.065802324293246
1785170362.940824,-0.0600585900247097,-0.2890625,0.9287108778953552,0.9745091368802898,-2.9754638671875,0.02288818359375,1.0509490966796875,3.1556937585416085
1785170362.951501,-0.0478515625,-0.31689453125,0.9389647841453552,0.9921526000746973,-3.1585693359375,0.20599365234375,0.9860992431640625,3.3153258289494434
1785170362.962178,-0.0561523400247097,-0.3046875,0.9384765028953552,0.988294340990171,-3.5877227783203125,0.2651214599609375,1.1692047119140625,3.7827349604449276
1785170362.972855,-0.0561523400247097,-0.3056640625,0.9340819716453552,0.9844250779755302,-3.6468505859375,0.14495849609375,1.2950897216796875,3.8726979676890396
1785170362.9835,-0.0498046800494194,-0.3125,0.9384765028953552,0.990391287644192,-3.1585693359375,0.57220458984375,0.4978179931640625,3.248353597883212
1785170362.994144,-0.0444335900247097,-0.31982421875,0.9472655653953552,1.0007866536906425,-3.0364990234375,0.32806396484375,-0.0476837158203125,3.054541867632579
1785170363.004788,-0.056640625,-0.32177734375,0.9560546278953552,1.0103411655828551,-1.6937255859375,0.20599365234375,0.1354217529296875,1.711572024903362
1785170363.012819,-0.056640625,-0.306640625,0.9272460341453552,0.9782749312637375,-1.0223388671875,0.45013427734375,0.3185272216796875,1.1615753173828125
1785170363.020851,-0.0537109337747097,-0.30908203125,0.9443358778953552,0.9950813116167786,-1.8157958984375,-0.09918212890625,0.4405975341796875,1.8711167859334823
1785170363.028883,-0.0629882737994194,-0.314453125,0.9628905653953552,1.0148923742869895,-1.3275146484375,-0.58746337890625,0.5626678466796875,1.5569211505594123
1785170363.036915,-0.06689453125,-0.30322265625,0.9296874403953552,0.9801722269087867,-0.9002685546875,0.08392333984375,0.1926422119140625,0.9244661266594857
1785170363.047558,-0.0541992150247097,-0.30322265625,0.9238280653953552,0.9738274121140383,-0.6561279296875,0.14495849609375,0.3185272216796875,0.7436238408340251
1785170363.058201,-0.0571289025247097,-0.3056640625,0.9306640028953552,0.9812388684173122,-1.2683868408203125,0.6313323974609375,0.7457733154296875,1.6011132414844667
1785170363.068844,-0.0620117150247097,-0.310546875,0.9604491591453552,1.0113097456643,-2.3040771484375,0.32806396484375,0.8068084716796875,2.46319657781408
1785170363.079481,-0.0546874925494194,-0.31640625,0.9672850966453552,1.0191879586575872,-0.4119873046875,0.20599365234375,1.4171600341796875,1.4901374052434768
1785170363.090118,-0.0595703050494194,-0.29296875,0.9228515028953552,0.9700691759438907,-0.3509521484375,-0.40435791015625,1.2340545654296875,1.3452001339788373
1785170363.100755,-0.0532226487994194,-0.29736328125,0.9252929091453552,0.97335735426187,-0.9002685546875,-0.89263916015625,0.8068084716796875,1.5027401807290868
1785170363.108824,-0.0541992112994194,-0.310546875,0.9501952528953552,1.0011233364089624,-0.9002685546875,-0.89263916015625,0.9860992431640625,1.6061381815311884
1785170363.116892,-0.0703124925494194,-0.3125,0.9272460341453552,0.9810123875093532,-0.4119873046875,-0.40435791015625,0.5626678466796875,0.8061227973558106
1785170363.12496,-0.0400390587747097,-0.3037109375,0.9082030653953552,0.9584760131470237,-0.2288818359375,0.14495849609375,0.4978179931640625,0.5667650436731053
1785170363.133028,-0.0517578087747097,-0.31298828125,0.9267577528953552,0.9795511561529785,-0.7801055908203125,-0.0400543212890625,0.2574920654296875,0.8224787202367504
1785170363.140989,-0.06201171875,-0.31640625,0.9711913466453552,1.0233137349318684,-0.9002685546875,0.02288818359375,0.0095367431640625,0.9006099538521205
1785170363.14895,-0.0595703087747097,-0.330078125,0.9487304091453552,1.0062751013158096,0.3204345703125,0.08392333984375,-0.0476837158203125,0.3346568056626346
1785170363.156911,-0.0556640587747097,-0.318359375,0.9223632216453552,0.9773459427110053,1.4820098876953125,0.1430511474609375,0.1354217529296875,1.495043808449476
1785170363.175527,-0.0566406212747097,-0.29541015625,0.9438475966453552,0.9906177901124367,1.6632080078125,-0.09918212890625,0.4978179931640625,1.738942416028747
1785170363.186183,-0.07177734375,-0.32275390625,0.9536132216453552,1.0093068153798788,2.2735595703125,0.08392333984375,0.9860992431640625,2.4796185118075775
1785170363.196839,-0.0551757775247097,-0.3154296875,0.9345702528953552,0.9879077951806495,2.1514892578125,-0.58746337890625,0.8640289306640625,2.391770315281761
1785170363.204834,-0.0561523400247097,-0.31396484375,0.9340819716453552,0.9870340106369622,1.9073486328125,-0.46539306640625,1.0509490966796875,2.22689548860349
1785170363.212829,-0.0585937425494194,-0.30615234375,0.9453124403953552,0.9953783673637818,2.1495819091796875,-0.7114410400390625,0.8640289306640625,2.4235091769475385
1785170363.220824,-0.0512695275247097,-0.3125,0.9487304091453552,1.0001870843445841,2.4566650390625,-0.89263916015625,0.4978179931640625,2.660795095213892
1785170363.228819,-0.0385742112994194,-0.3115234375,0.9428710341453552,0.99375077807241,2.7637481689453125,-0.7114410400390625,0.1926422119140625,2.8603432165758664
1785170363.239473,-0.0498046837747097,-0.29833984375,0.9370116591453552,0.9846207484453111,3.1871795654296875,0.1430511474609375,-0.1697540283203125,3.1949011945932595
1785170363.250127,-0.0449218712747097,-0.30810546875,0.9204100966453552,0.9716489594494458,2.7008056640625,-0.16021728515625,-0.2307891845703125,2.7153792481363537
1785170363.260781,-0.0400390550494194,-0.2861328125,0.9296874403953552,0.9735470451638574,2.1495819091796875,-0.7114410400390625,-0.5359649658203125,2.3268238399825676
1785170363.268791,-0.0444335900247097,-0.3046875,0.9301757216453552,0.9798141097765388,1.2989044189453125,-0.0400543212890625,-0.7839202880859375,1.5176587417078737
1785170363.276799,-0.0605468712747097,-0.28955078125,0.9272460341453552,0.9732886449465702,0.8697509765625,-0.09918212890625,-0.2307891845703125,0.9052996761517306
1785170363.284807,-0.0654296875,-0.2978515625,0.9272460341453552,0.9761054272609738,0.6847381591796875,-0.9555816650390625,0.0095367431640625,1.1756247763065355
1785170363.292815,-0.0541992150247097,-0.28955078125,0.9541015028953552,0.9985423815036373,1.4801025390625,-0.64849853515625,-0.1087188720703125,1.6195905869642804
1785170363.303464,-0.0493164025247097,-0.31298828125,0.9760741591453552,1.0262136892037255,2.5177001953125,-0.58746337890625,0.2574920654296875,2.598120408832469
1785170363.314113,-0.0654296800494194,-0.306640625,0.9619140028953552,1.0117252912218442,3.3092498779296875,-0.4024505615234375,0.2574920654296875,3.343561480339105
1785170363.324762,-0.06201171875,-0.30712890625,0.9404296278953552,0.9912524922238767,3.6144256591796875,0.0858306884765625,0.4405975341796875,3.6421924633311322
1785170363.332774,-0.04638671875,-0.30224609375,0.9306640028953552,0.9796121248477538,3.1890869140625,0.02288818359375,0.4978179931640625,3.2277890217160716
1785170363.340786,-0.0561523400247097,-0.3115234375,0.9355468153953552,0.9876475997026762,2.7618408203125,-0.03814697265625,0.5626678466796875,2.8188322074849395
1785170363.348798,-0.0454101525247097,-0.30615234375,0.9428710341453552,0.9923694506413764,2.8839111328125,-0.52642822265625,0.0743865966796875,2.93250804966235
1785170363.35681,-0.0532226487994194,-0.29248046875,0.9267577528953552,0.9732714973208114,2.0275115966796875,-0.5283355712890625,-0.0476837158203125,2.095761314490366
1785170363.367483,-0.0615234337747097,-0.30517578125,0.9428710341453552,0.9929366431929635,1.6021728515625,-0.40435791015625,-0.0476837158203125,1.6530991810972127
1785170363.378156,-0.0502929650247097,-0.30322265625,0.9384765028953552,0.9875279783788296,1.4801025390625,-0.40435791015625,0.2574920654296875,1.555799154584047
1785170363.388829,-0.06982421875,-0.2998046875,0.9291991591453552,0.9788612514179197,1.5411376953125,-0.95367431640625,0.5626678466796875,1.897681533707173
1785170363.396818,-0.0405273362994194,-0.30224609375,0.9428710341453552,0.9909596122975909,1.1138916015625,-1.25885009765625,0.3185272216796875,1.7108236786272284
1785170363.404809,-0.0493163987994194,-0.3125,0.9443358778953552,0.9959209845519545,1.4190673828125,-0.83160400390625,-0.3528594970703125,1.6822090479330858
1785170363.4128,-0.0366210900247097,-0.2939453125,0.9399413466453552,0.9855123977448504,1.7871856689453125,-0.0400543212890625,-0.2956390380859375,1.8119159485963499
1785170363.420791,-0.0488281175494194,-0.30078125,0.9321288466453552,0.9806720818721121,1.5411376953125,0.08392333984375,-0.5359649658203125,1.6338319887523387
1785170363.431484,-0.0449218712747097,-0.3046875,0.9501952528953552,0.9988610843355245,1.7852783203125,-0.77056884765625,-1.0242462158203125,2.197743238091823
1785170363.442177,-0.0512695275247097,-0.3076171875,0.9624022841453552,1.0116694396027857,1.8463134765625,-0.89263916015625,-1.5125274658203125,2.548218487265481
1785170363.45287,-0.0581054612994194,-0.31640625,0.9365233778953552,0.9902349201156295,2.5177001953125,-0.40435791015625,-1.7604827880859375,3.0986479697005542
1785170363.463883,-0.0444335862994194,-0.3056640625,0.9414061903953552,0.9907827602507664,2.3956298828125,-0.16021728515625,-2.2487640380859375,3.289627914046761
1785170363.474897,-0.0556640587747097,-0.28466796875,0.9340819716453552,0.9780815250399117,2.6378631591796875,-0.4673004150390625,-2.6149749755859375,3.743632707330381
1785170363.485911,-0.0488281175494194,-0.302734375,0.9555663466453552,1.0035633162442774,3.0040740966796875,-0.2231597900390625,-2.2487640380859375,3.7591489953473154
1785170363.493666,-0.0683593675494194,-0.29150390625,0.9296874403953552,0.9767119674293094,3.4923553466796875,-0.3452301025390625,-2.5501251220703125,4.338071902285099
1785170363.501422,-0.0634765550494194,-0.26611328125,0.9340819716453552,0.9733214686070876,3.3721923828125,-0.09918212890625,-2.0618438720703125,3.9538233033592842
1785170363.509178,-0.0537109300494194,-0.2822265625,0.9462890028953552,0.9889386096153925,2.9468536376953125,-0.2231597900390625,-1.3294219970703125,3.2405415442766343
1785170363.516934,-0.0605468712747097,-0.27490234375,0.9384765028953552,0.9797833274286183,2.5787353515625,-0.03814697265625,-1.0242462158203125,2.774961534065515
1785170363.527643,-0.0468749962747097,-0.28125,0.9272460341453552,0.9700948590803083,2.4566650390625,-0.34332275390625,-0.8411407470703125,2.619273064016757
1785170363.538352,-0.0781249925494194,-0.28955078125,0.9316405653953552,0.9787222856732697,1.9073486328125,-0.40435791015625,-0.3528594970703125,1.9814121104077154
1785170363.549061,-0.0551757737994194,-0.296875,0.9414061903953552,0.9886479388306337,1.1138916015625,-0.03814697265625,-0.1087188720703125,1.1198345791671862
1785170363.559626,-0.0585937462747097,-0.30859375,0.9301757216453552,0.9817791008062989,1.3580322265625,0.51116943359375,0.1926422119140625,1.4637816572269238
1785170363.570189,-0.0585937462747097,-0.28955078125,0.9453124403953552,0.9903981482167726,1.5411376953125,0.32806396484375,-0.0476837158203125,1.576389893933781
1785170363.580752,-0.0488281175494194,-0.30224609375,0.9609374403953552,1.0085324241709488,1.6613006591796875,0.2651214599609375,-0.4787445068359375,1.7491156541373325
1785170363.591463,-0.0458984337747097,-0.2978515625,0.9394530653953552,0.9866074607397779,2.0904541015625,0.63323974609375,-0.4787445068359375,2.2361098429187107
1785170363.602173,-0.0424804650247097,-0.3056640625,0.9291991591453552,0.9791047882474861,1.9683837890625,0.38909912109375,-0.9021759033203125,2.1999668696623127
1785170363.612883,-0.0454101525247097,-0.29052734375,0.9379882216453552,0.9830005713956448,1.7242431640625,0.51116943359375,-1.0242462158203125,2.069634989383163
1785170363.620931,-0.0595703087747097,-0.3046875,0.9487304091453552,0.998234683619477,1.5392303466796875,0.6313323974609375,-1.6345977783203125,2.3323208512366276
1785170363.628978,-0.0493163987994194,-0.283203125,0.9204100966453552,0.9642566376266336,0.9307861328125,0.63323974609375,-1.7604827880859375,2.0896542891626266
1785170363.637025,-0.0595703087747097,-0.28955078125,0.9282225966453552,0.9741588502564894,1.1138916015625,0.57220458984375,-1.0852813720703125,1.6571083999643914
1785170363.645072,-0.0600585900247097,-0.29833984375,0.9335936903953552,0.9819423992019842,0.5645751953125,0.08392333984375,-1.2073516845703125,1.335472339049914
1785170363.65566,-0.0444335862994194,-0.29736328125,0.9291991591453552,0.9766321426123705,0.7457733154296875,-0.0400543212890625,-0.7839202880859375,1.0827341339099155
1785170363.666248,-0.0605468712747097,-0.3056640625,0.9262694716453552,0.9772776354891816,0.6847381591796875,-0.0400543212890625,-0.4787445068359375,0.8364609961715487
1785170363.676836,-0.0722656175494194,-0.2978515625,0.9477538466453552,0.9960799298221794,0.5016326904296875,-0.0972747802734375,0.1354217529296875,0.5286178110426488
1785170363.687496,-0.0678710862994194,-0.29638671875,0.9389647841453552,0.9869683061132147,1.1138916015625,-0.40435791015625,0.5626678466796875,1.3118136015549455
1785170363.698157,-0.0561523400247097,-0.2783203125,0.9487304091453552,0.99030534224423,1.1138916015625,-0.46539306640625,1.1692047119140625,1.6805906297050837
1785170363.708818,-0.0561523400247097,-0.30126953125,0.9526366591453552,1.0007162535391683,0.6256103515625,-1.31988525390625,1.1119842529296875,1.835754442790461
1785170363.716921,-0.0493163987994194,-0.28271484375,0.9384765028953552,0.9813755328893349,0.8106231689453125,-0.7114410400390625,1.4171600341796875,1.7808988848216445
1785170363.725026,-0.0424804650247097,-0.2744140625,0.9233397841453552,0.9641908652295254,0.6275177001953125,-0.7114410400390625,1.0509490966796875,1.4157756959780488
1785170363.733131,-0.0244140587747097,-0.2890625,0.9238280653953552,0.9683033974866708,0.0133514404296875,-0.5855560302734375,1.0509490966796875,1.2031409432659939
1785170363.741236,-0.0415039025247097,-0.28515625,0.9335936903953552,0.9770536523573623,-0.3509521484375,0.02288818359375,0.3185272216796875,0.47450065373200384
1785170363.751774,-0.05712890625,-0.29150390625,0.9497069716453552,0.9950786759247339,-0.1678466796875,0.32806396484375,0.7457733154296875,0.8318511350705171
1785170363.762312,-0.0507812462747097,-0.28125,0.9394530653953552,0.9819635225169733,0.0743865966796875,0.1430511474609375,0.8068084716796875,0.8227617556313556
1785170363.77285,-0.0361328087747097,-0.287109375,0.9267577528953552,0.9708848055431132,-0.3509521484375,-0.58746337890625,0.8068084716796875,1.0579322010521082
1785170363.780859,-0.0444335900247097,-0.30859375,0.9658202528953552,1.014895663289776,0.2593994140625,-0.46539306640625,0.0743865966796875,0.5379703784043942
1785170363.788868,-0.0532226487994194,-0.3017578125,0.9414061903953552,0.9900182034006785,0.9899139404296875,0.2040863037109375,0.4405975341796875,1.1025910465556323
1785170363.796877,-0.064453125,-0.30322265625,0.9248046278953552,0.9753777649517328,0.7476806640625,0.14495849609375,0.8068084716796875,1.1094950432412105
1785170363.804886,-0.0537109300494194,-0.29150390625,0.9243163466453552,0.9706802254303931,0.4425048828125,0.63323974609375,1.2950897216796875,1.507998850976403
1785170363.815533,-0.0488281212747097,-0.29833984375,0.9497069716453552,0.9966615171600556,-0.1068115234375,0.75531005859375,1.6002655029296875,1.7727807721257411
1785170363.82618,-0.0581054612994194,-0.29931640625,0.9389647841453552,0.987229163643562,0.3795623779296875,0.3261566162109375,1.4171600341796875,1.5029265782179717
1785170363.836827,-0.0507812462747097,-0.28759765625,0.9409179091453552,0.9851992989259446,0.6847381591796875,0.0858306884765625,1.2340545654296875,1.4139037888693144
1785170363.847497,-0.0507812462747097,-0.29296875,0.9492186903953552,0.9946987210435371,1.2359619140625,0.69427490234375,1.7223358154296875,2.2307084422105254
1785170363.858168,-0.0693359375,-0.28515625,0.9497069716453552,0.9940145326577766,1.3580322265625,0.38909912109375,1.6574859619140625,2.177822161784661
1785170363.868839,-0.05224609375,-0.28662109375,0.9545897841453552,0.9980595982651818,1.3561248779296875,0.3261566162109375,1.1692047119140625,1.8200254067457478
1785170363.87948,-0.0571289025247097,-0.30517578125,0.9282225966453552,0.9787712490098345,2.0904541015625,1.12152099609375,0.9860992431640625,2.569085326100971
1785170363.890121,-0.0493163987994194,-0.28759765625,0.9326171278953552,0.9771996859981167,1.4801025390625,1.54876708984375,1.0509490966796875,2.3861846174456387
1785170363.900762,-0.0634765625,-0.2841796875,0.9379882216453552,0.9821452401349966,0.9307861328125,0.75531005859375,0.9288787841796875,1.516466915348989
1785170363.908819,-0.0537109300494194,-0.29296875,0.9448241591453552,0.9906605090484144,1.2989044189453125,0.4482269287109375,0.8640289306640625,1.6231469626012869
1785170363.916875,-0.0473632775247097,-0.28466796875,0.9453124403953552,0.9883798573708166,1.2359619140625,-0.46539306640625,0.9288787841796875,1.6146232857763403
1785170363.924931,-0.0566406212747097,-0.28466796875,0.9306640028953552,0.974874093765878,1.4820098876953125,-0.2231597900390625,0.8068084716796875,1.7020850475493474
1785170363.932987,-0.0585937425494194,-0.29248046875,0.9428710341453552,0.9889306539371195,1.3561248779296875,-0.0400543212890625,1.2340545654296875,1.8340037359971741
1785170363.943603,-0.0649413987994194,-0.28173828125,0.9482421278953552,0.991340999613776,1.2359619140625,-0.16021728515625,1.0509490966796875,1.630265449332632
1785170363.954219,-0.0419921837747097,-0.28857421875,0.9443358778953552,0.9883363159905302,0.9288787841796875,0.2651214599609375,1.1692047119140625,1.5166228412472889
1785170363.964835,-0.06640625,-0.28857421875,0.9335936903953552,0.9794294505028189,0.8087158203125,0.02288818359375,0.8640289306640625,1.1836769576182617
1785170363.97549,-0.0722656175494194,-0.2890625,0.9189452528953552,0.9660433873304849,0.3204345703125,0.57220458984375,0.6809234619140625,0.9453851952905982
1785170363.986146,-0.052734375,-0.28759765625,0.9370116591453552,0.9815722976742289,-0.1678466796875,0.14495849609375,0.8068084716796875,0.8367349541198772
1785170363.996802,-0.0483398362994194,-0.27734375,0.9536132216453552,0.9943009966475698,-0.4119873046875,0.08392333984375,0.9860992431640625,1.0719927161893112
1785170364.004809,-0.0483398362994194,-0.29443359375,0.9575194716453552,1.002931413149471,0.2593994140625,-0.40435791015625,-0.0476837158203125,0.4827702479195778
1785170364.012815,-0.0600585900247097,-0.2998046875,0.9575194716453552,1.00515343279657,0.7476806640625,-0.28228759765625,0.1926422119140625,0.8220849621630483
1785170364.020821,-0.0541992150247097,-0.28857421875,0.9536132216453552,0.997792970076108,0.8087158203125,-0.34332275390625,0.0743865966796875,0.8817171639131666
1785170364.028827,-0.0546874925494194,-0.29150390625,0.9609374403953552,1.0056669496179778,1.2340545654296875,-0.2231597900390625,0.4405975341796875,1.3292167428502224
1785170364.039482,-0.0449218712747097,-0.294921875,0.9487304091453552,0.9945281675797073,0.9899139404296875,-0.2841949462890625,0.6237030029296875,1.2040356360244424
1785170364.050137,-0.05224609375,-0.2861328125,0.9458007216453552,0.9895153590350019,1.0509490966796875,0.1430511474609375,0.1354217529296875,1.0692505252597688
1785170364.060792,-0.0507812462747097,-0.29541015625,0.9296874403953552,0.9768135094365399,0.4425048828125,0.08392333984375,0.2574920654296875,0.5188023342687275
1785170364.068797,-0.0605468712747097,-0.2783203125,0.9497069716453552,0.9914995975607078,0.0133514404296875,0.2651214599609375,0.1926422119140625,0.327991876887994
1785170364.0768,-0.04736328125,-0.2783203125,0.9335936903953552,0.9753474537347615,-0.0457763671875,0.14495849609375,0.3185272216796875,0.35294196737371336
1785170364.084803,-0.0556640587747097,-0.30615234375,0.9667968153953552,1.0156396148641964,0.1392364501953125,-0.2231597900390625,-0.0476837158203125,0.26732156236955995
1785170364.092806,-0.0532226487994194,-0.28662109375,0.9492186903953552,0.9929755404457583,0.8087158203125,-0.40435791015625,-0.2956390380859375,0.951277582186203
1785170364.103467,-0.0507812462747097,-0.294921875,0.9340819716453552,0.9808500278226038,1.4801025390625,-0.09918212890625,-0.3528594970703125,1.5248116098411466
1785170364.114128,-0.0488281212747097,-0.28955078125,0.9384765028953552,0.9833422531531932,1.2359619140625,-1.31988525390625,-0.4138946533203125,1.8549953424575887
1785170364.124789,-0.0585937425494194,-0.29736328125,0.9501952528953552,0.9973611012700376,0.7476806640625,-1.50299072265625,-0.9670257568359375,1.9373038745090598
1785170364.135479,-0.06982421875,-0.2998046875,0.9252929091453552,0.9751539570168882,0.3795623779296875,1.3027191162109375,-0.0476837158203125,1.357725462394912
1785170364.14617,-0.0634765550494194,-0.275390625,0.9155272841453552,0.9581542033479802,-0.7171630859375,-0.03814697265625,-0.0476837158203125,0.7197581677957305
1785170364.156861,-0.0439453087747097,-0.28369140625,0.9272460341453552,0.9706684356574579,-1.7566680908203125,-0.3452301025390625,0.0095367431640625,1.790295381906458
1785170364.167553,-0.0615234337747097,-0.291015625,0.9653319716453552,1.0101193208617885,-1.3885498046875,0.32806396484375,0.3185272216796875,1.4619015411708398
1785170364.178245,-0.0493163987994194,-0.28125,0.9389647841453552,0.9814216909950976,-0.5340576171875,0.32806396484375,0.7457733154296875,0.9741772639063077
1785170364.188937,-0.0356445275247097,-0.29150390625,0.9433593153953552,0.9880140978977283,-0.2899169921875,-0.58746337890625,0.4405975341796875,0.7894879803012939
1785170364.196892,-0.0576171837747097,-0.29931640625,0.9667968153953552,1.0137090969184128,0.6847381591796875,0.4482269287109375,0.1926422119140625,0.8407643832070727
1785170364.204847,-0.0605468712747097,-0.30517578125,0.9511718153953552,1.0007627108786576,0.8678436279296875,0.6313323974609375,0.6237030029296875,1.2412649171250458
1785170364.212802,-0.0488281175494194,-0.27197265625,0.9272460341453552,0.9675425151637471,0.6256103515625,0.02288818359375,0.3757476806640625,0.7301359465570767
1785170364.220757,-0.04150390625,-0.27734375,0.9374999403953552,0.9785439530952945,-0.1659393310546875,0.2651214599609375,-0.1697540283203125,0.35586750378992127
1785170364.231445,-0.0356445275247097,-0.29150390625,0.9404296278953552,0.9852172068761613,-0.2288818359375,0.32806396484375,-0.0476837158203125,0.40284810612134475
1785170364.242133,-0.0439453050494194,-0.2978515625,0.9311522841453552,0.9786170442970479,-0.8392333984375,0.20599365234375,-0.4138946533203125,0.9581517969017305
1785170364.252821,-0.0600585900247097,-0.279296875,0.9399413466453552,0.982396820920144,-0.3509521484375,0.08392333984375,-0.5359649658203125,0.6461183963099916
1785170364.26084,-0.0537109300494194,-0.2861328125,0.9423827528953552,0.9863275841983544,-0.2918243408203125,0.5092620849609375,-0.3528594970703125,0.6848497220169436
1785170364.268859,-0.0620117150247097,-0.30029296875,0.9702147841453552,1.0175156250668647,0.3814697265625,0.57220458984375,-0.2307891845703125,0.7253970586075963
1785170364.276878,-0.06201171875,-0.29736328125,0.9653319716453552,1.0119961411877045,0.6256103515625,0.32806396484375,-0.4787445068359375,0.8533525530733128
1785170364.284897,-0.0615234337747097,-0.29150390625,0.9311522841453552,0.9776524108964045,1.3580322265625,0.87738037109375,0.0743865966796875,1.6185120357070237
1785170364.295564,-0.0556640587747097,-0.2783203125,0.9150390028953552,0.9580485690240855,1.0528564453125,0.87738037109375,0.2574920654296875,1.3944910088544589
1785170364.306231,-0.06689453125,-0.27734375,0.9414061903953552,0.9836869671241536,-0.1068115234375,-0.09918212890625,-0.1697540283203125,0.22374589686604102
1785170364.316898,-0.0600585862994194,-0.29296875,0.9589843153953552,1.0045340409558778,-0.2288818359375,0.57220458984375,-0.0476837158203125,0.6181251687278291
1785170364.327558,-0.0629882737994194,-0.2880859375,0.9257811903953552,0.9716130106741704,-0.1678466796875,0.02288818359375,0.5626678466796875,0.5876150802332218
1785170364.338219,-0.052734375,-0.28662109375,0.9340819716453552,0.9784894968480556,-0.9632110595703125,-0.5283355712890625,0.7457733154296875,1.3278146930859338
1785170364.34888,-0.0517578087747097,-0.2880859375,0.9667968153953552,1.0101328924517872,-0.7171630859375,-0.34332275390625,0.8068084716796875,1.1327547462514922
1785170364.359516,-0.06591796875,-0.29248046875,0.9531249403953552,0.9991682316847325,0.0133514404296875,-0.5855560302734375,0.5626678466796875,0.8121879285228824
1785170364.370154,-0.0488281175494194,-0.2783203125,0.9467772841453552,0.988045346726137,-0.0457763671875,-0.64849853515625,0.4978179931640625,0.8188214580789767
1785170364.380792,-0.0473632775247097,-0.29052734375,0.9331054091453552,0.9784350372409167,0.1964569091796875,-0.3452301025390625,0.1926422119140625,0.4414636595176438
1785170364.388806,-0.0434570237994194,-0.27685546875,0.9418944716453552,0.9827017142604201,-0.5340576171875,0.08392333984375,-0.5359649658203125,0.7612615253861768
1785170364.39682,-0.0478515625,-0.296875,0.9453124403953552,0.9919879775606726,0.5016326904296875,0.1430511474609375,-0.9021759033203125,1.0421230001441477
1785170364.404834,-0.0541992112994194,-0.28564453125,0.9394530653953552,0.9834136539723459,-0.1678466796875,0.20599365234375,-0.8411407470703125,0.882113172484143
1785170364.412848,-0.0532226487994194,-0.27978515625,0.9282225966453552,0.970932321496256,-0.4749298095703125,0.1430511474609375,-0.8411407470703125,0.9764935796974743
1785170364.423829,-0.05224609375,-0.2783203125,0.9501952528953552,0.9914952694224514,-0.1087188720703125,-0.1621246337890625,-1.0242462158203125,1.042681399396627
1785170364.43481,-0.0605468712747097,-0.31005859375,0.9604491591453552,1.0110711362126819,0.3204345703125,0.08392333984375,-0.7839202880859375,0.851030233831105
1785170364.445791,-0.06201171875,-0.28759765625,0.9609374403953552,1.0049669793064842,1.1138916015625,0.57220458984375,-0.1697540283203125,1.2637203103537977
1785170364.453582,-0.06640625,-0.287109375,0.9423827528953552,0.9873838342846115,0.9899139404296875,-0.3452301025390625,0.3185272216796875,1.0957066323186802
1785170364.461376,-0.0742187425494194,-0.28564453125,0.9287108778953552,0.9744768415410449,0.8087158203125,0.08392333984375,0.5626678466796875,0.9887666613925682
1785170364.46917,-0.0644531175494194,-0.27783203125,0.9453124403953552,0.9874008567530019,0.8087158203125,0.20599365234375,0.8640289306640625,1.2012496226239244
1785170364.476964,-0.0444335862994194,-0.291015625,0.9218749403953552,0.9677385201150713,0.1373291015625,-0.16021728515625,1.6574859619140625,1.6708646188548573
1785170364.487603,-0.0507812425494194,-0.267578125,0.9379882216453552,0.9767285659377403,-0.2288818359375,-0.46539306640625,1.3523101806640625,1.4483509332371083
1785170364.498242,-0.0273437462747097,-0.2841796875,0.9487304091453552,0.9907548458044737,-0.6561279296875,-0.46539306640625,1.1119842529296875,1.3724443686862549
1785170364.508881,-0.0390624925494194,-0.29248046875,0.9575194716453552,1.0019552093304338,-0.6561279296875,-0.28228759765625,0.4405975341796875,0.8392355658763293
1785170364.519515,-0.0546874925494194,-0.28759765625,0.9414061903953552,0.9858746112140893,0.1983642578125,-0.28228759765625,-0.2307891845703125,0.4150883210627235
1785170364.530151,-0.0541992150247097,-0.28955078125,0.9394530653953552,0.9845553676216029,0.3795623779296875,0.1430511474609375,-0.4138946533203125,0.5795170520154446
1785170364.540787,-0.0517578125,-0.28271484375,0.9477538466453552,0.9903756397763627,0.4425048828125,0.02288818359375,-0.5970001220703125,0.7434672729939722
1785170364.548799,-0.0556640587747097,-0.2783203125,0.9497069716453552,0.9912134057715137,0.5016326904296875,0.0858306884765625,-0.4138946533203125,0.6559809808517538
1785170364.556813,-0.0566406212747097,-0.28662109375,0.9199218153953552,0.9652025475521278,0.5016326904296875,0.3910064697265625,-0.4787445068359375,0.7960638908412697
1785170364.564827,-0.0639648362994194,-0.2919921875,0.9360350966453552,0.982605027463083,0.0762939453125,0.32806396484375,-0.5970001220703125,0.6854603393868357
1785170364.572841,-0.0610351525247097,-0.28271484375,0.9389647841453552,0.9825008084400924,-0.3509521484375,0.08392333984375,-0.1697540283203125,0.3987818546453688
1785170364.583593,-0.0737304612994194,-0.2861328125,0.9628905653953552,1.0072072320232675,-0.2918243408203125,0.3261566162109375,0.1926422119140625,0.478174242305586
1785170364.594345,-0.06982421875,-0.298828125,0.9584960341453552,1.00642352778909,0.1373291015625,0.20599365234375,0.3757476806640625,0.4499766510234764
1785170364.605097,-0.0620117150247097,-0.28564453125,0.9428710341453552,0.9871393204931458,0.6256103515625,0.20599365234375,0.5626678466796875,0.86626601138174
1785170364.615651,-0.0649413987994194,-0.2880859375,0.9536132216453552,0.9982930777883379,0.9307861328125,-0.16021728515625,0.7457733154296875,1.2034160716501487
1785170364.626207,-0.056640625,-0.28759765625,0.9438475966453552,0.9883161730813156,1.2969970703125,-0.46539306640625,1.0509490966796875,1.732999166321228
1785170364.636763,-0.0537109300494194,-0.3017578125,0.9296874403953552,0.9789082583370241,0.9899139404296875,-0.5283355712890625,0.9860992431640625,1.493807150443158
1785170364.647451,-0.0561523400247097,-0.29345703125,0.9487304091453552,0.9946655235391579,0.1373291015625,-0.46539306640625,0.6809234619140625,0.8361260367791493
1785170364.658141,-0.0610351525247097,-0.2998046875,0.9492186903953552,0.9973085092821381,-0.2288818359375,-0.28228759765625,0.5626678466796875,0.6698270585007848
1785170364.668831,-0.0498046837747097,-0.29443359375,0.9565429091453552,1.002070848139341,-0.1068115234375,-0.40435791015625,0.4978179931640625,0.6501821093838742
1785170364.676816,-0.0444335862994194,-0.28076171875,0.9418944716453552,0.9838529778493151,-0.1068115234375,0.02288818359375,0.0743865966796875,0.13215875397735602
1785170364.684801,-0.0522460900247097,-0.29443359375,0.9653319716453552,1.0105872602265076,0.5016326904296875,0.1430511474609375,-0.6580352783203125,0.8397079339935456
1785170364.692786,-0.0600585900247097,-0.28955078125,0.9565429091453552,1.0012097813118392,0.5016326904296875,0.2651214599609375,-0.5359649658203125,0.780501882910166
1785170364.700771,-0.0605468712747097,-0.30126953125,0.9570311903953552,1.005155686185131,1.2359619140625,0.38909912109375,-0.4138946533203125,1.3602605497095432
1785170364.71149,-0.06591796875,-0.296875,0.9399413466453552,0.9879117771150467,0.7476806640625,0.32806396484375,-0.0476837158203125,0.8178790113435939
1785170364.722209,-0.0742187425494194,-0.28076171875,0.9233397841453552,0.9679317752024996,0.5016326904296875,0.4482269287109375,-0.0476837158203125,0.6744008247947202
1785170364.732928,-0.0673828050494194,-0.2890625,0.9379882216453552,0.9838289868000404,-0.1068115234375,0.20599365234375,0.1354217529296875,0.26866547510148503
1785170364.740913,-0.0478515625,-0.2783203125,0.9335936903953552,0.9753712868081608,-0.4749298095703125,0.5092620849609375,0.2574920654296875,0.7424340771789109
1785170364.748899,-0.0527343712747097,-0.29541015625,0.9506835341453552,0.996918881566846,-0.2899169921875,0.57220458984375,0.3757476806640625,0.7434085515527269
1785170364.756885,-0.0595703087747097,-0.2998046875,0.9506835341453552,0.9986143672257023,-0.1678466796875,0.51116943359375,0.3185272216796875,0.6252409844801077
1785170364.772842,-0.0571289025247097,-0.2998046875,0.9521483778953552,0.9998665389337752,0.5645751953125,-0.16021728515625,0.1926422119140625,0.6176777083853109
1785170364.780816,-0.0498046800494194,-0.29638671875,0.9506835341453552,0.9970580601456063,0.7457733154296875,-0.0400543212890625,0.0743865966796875,0.7505435046861055
1785170364.78879,-0.0649413987994194,-0.296875,0.9365233778953552,0.9845954439502305,0.5016326904296875,-0.5855560302734375,0.0743865966796875,0.7746254491448754
1785170364.796764,-0.0429687462747097,-0.298828125,0.9443358778953552,0.9914206028360654,0.3204345703125,-0.28228759765625,0.0743865966796875,0.4334719914913533
1785170364.807442,-0.0507812462747097,-0.30078125,0.9467772841453552,0.9947036348070866,0.2593994140625,-0.40435791015625,-0.4138946533203125,0.6341152573223893
1785170364.81812,-0.0629882737994194,-0.2900390625,0.9360350966453552,0.9819632796413463,-0.1678466796875,-0.40435791015625,-0.1087188720703125,0.4511071053888302
1785170364.828798,-0.0507812462747097,-0.29345703125,0.9374999403953552,0.9836675771847778,-0.1068115234375,-0.40435791015625,-0.1087188720703125,0.4321270810643676
1785170364.839477,-0.0595703050494194,-0.291015625,0.9423827528953552,0.9880910728229709,-0.2288818359375,-0.34332275390625,-0.1697540283203125,0.4461769136820793
1785170364.850157,-0.0644531175494194,-0.30126953125,0.9609374403953552,1.0091175844147255,0.3223419189453125,-0.0400543212890625,-0.2956390380859375,0.43921646394875985
1785170364.860837,-0.0600585862994194,-0.2919921875,0.9609374403953552,1.006114921717642,0.5645751953125,0.08392333984375,0.2574920654296875,0.626171256040968
1785170364.868851,-0.0581054650247097,-0.2841796875,0.9492186903953552,0.9925474608547485,0.7476806640625,0.08392333984375,0.4405975341796875,0.8718920171149014
1785170364.876864,-0.052734375,-0.28759765625,0.9462890028953552,0.990432331453199,0.6866455078125,-0.09918212890625,0.3185272216796875,0.7633994623029563
1785170364.884877,-0.04736328125,-0.2783203125,0.9345702528953552,0.976282251379053,0.3795623779296875,-0.1621246337890625,0.5626678466796875,0.6978159508839225
1785170364.89289,-0.0512695275247097,-0.2978515625,0.9565429091453552,1.0031542527311328,-0.4749298095703125,0.0209808349609375,0.2574920654296875,0.5406483914832244
1785170364.903523,-0.0585937425494194,-0.27734375,0.9331054091453552,0.9752120215144657,-0.3509521484375,-0.28228759765625,0.4978179931640625,0.6713244019111241
1785170364.914156,-0.0546874925494194,-0.28125,0.9448241591453552,0.987311995291291,-0.7781982421875,-0.28228759765625,0.1926422119140625,0.8499351820847248
1785170364.924789,-0.052734375,-0.2880859375,0.9389647841453552,0.9835798328336283,-0.6561279296875,-0.46539306640625,0.3185272216796875,0.8651902434297314
1785170364.935439,-0.0517578125,-0.287109375,0.9501952528953552,0.9939726771861206,-0.1068115234375,0.02288818359375,0.0095367431640625,0.1096518123764405
1785170364.946089,-0.0600585900247097,-0.2802734375,0.9541015028953552,0.9962278413249642,0.5016326904296875,0.0209808349609375,-0.0476837158203125,0.5043305347664536
1785170364.956739,-0.0600585862994194,-0.28173828125,0.9472655653953552,0.9900987548188165,0.6256103515625,-0.09918212890625,0.1926422119140625,0.6620698063555485
1785170364.967428,-0.0600585900247097,-0.2900390625,0.9331054091453552,0.9789869236041694,0.8087158203125,0.14495849609375,0.1354217529296875,0.8326903955132609
1785170364.978119,-0.0498046800494194,-0.2958984375,0.9462890028953552,0.9927231580206296,0.4405975341796875,-0.2231597900390625,0.0095367431640625,0.4939812025630901
1785170364.98881,-0.0576171875,-0.2822265625,0.9272460341453552,0.9709566317371059,0.0133514404296875,0.0858306884765625,0.2574920654296875,0.27174865557193595
1785170364.996875,-0.0590820237994194,-0.2880859375,0.9404296278953552,0.9853385600619136,-0.4119873046875,0.08392333984375,0.3185272216796875,0.5274810490862978
1785170365.004939,-0.0454101525247097,-0.28564453125,0.9365233778953552,0.9801688209333512,-0.7171630859375,-0.16021728515625,0.4978179931640625,0.8875895586430317
1785170365.013003,-0.0458984337747097,-0.279296875,0.9501952528953552,0.9914557121892057,-0.5950927734375,0.08392333984375,0.3185272216796875,0.6801750707862249
1785170365.021067,-0.0610351525247097,-0.28955078125,0.9541015028953552,0.9989367460421983,-0.6561279296875,0.14495849609375,0.4978179931640625,0.8362652569751187
1785170365.03178,-0.0703125,-0.28857421875,0.9545897841453552,0.9997302553079499,-0.1659393310546875,0.2651214599609375,1.4171600341796875,1.4512642118507812
1785170365.042493,-0.0615234337747097,-0.2900390625,0.9467772841453552,0.9921164329114626,0.5645751953125,0.38909912109375,1.6002655029296875,1.7409747146540877
1785170365.053206,-0.0502929612994194,-0.2822265625,0.9296874403953552,0.9728822906013339,0.6847381591796875,-0.0400543212890625,2.3937225341796875,2.4900558760659046
1785170365.061118,-0.0541992112994194,-0.30029296875,0.9711913466453552,1.0180010085382951,-0.1068115234375,-0.09918212890625,1.2950897216796875,1.3032663516847913
1785170365.06903,-0.0585937462747097,-0.28857421875,0.9409179091453552,0.9859182616120592,0.3204345703125,0.32806396484375,1.4171600341796875,1.489512283049902
1785170365.076942,-0.0639648362994194,-0.291015625,0.9135741591453552,0.9609366985057314,0.0762939453125,0.38909912109375,1.5392303466796875,1.5894807178028132
1785170365.084854,-0.0405273362994194,-0.27783203125,0.9135741591453552,0.9557462251215906,-0.8373260498046875,-0.2231597900390625,1.1119842529296875,1.4097603286854812
1785170365.095534,-0.0561523400247097,-0.294921875,0.9638671278953552,1.0095404092363056,-1.0833740234375,-0.16021728515625,0.2574920654296875,1.1250204517613192
1785170365.106214,-0.0688476487994194,-0.306640625,0.9809569716453552,1.0300704111201453,0.3204345703125,0.63323974609375,0.8640289306640625,1.1181309775284454
1785170365.116894,-0.06884765625,-0.2998046875,0.9272460341453552,0.9769381035952994,0.9307861328125,0.02288818359375,1.4171600341796875,1.6956500984756386
1785170365.127544,-0.0458984337747097,-0.28515625,0.9497069716453552,0.9926550685554502,-0.3490447998046875,-0.7114410400390625,0.5626678466796875,0.9718928600466791
1785170365.138194,-0.0532226487994194,-0.294921875,0.9785155653953552,1.0233788518528872,-0.4730224609375,-0.28228759765625,0.1354217529296875,0.5672526663740374
1785170365.148844,-0.0527343712747097,-0.29443359375,0.9145507216453552,0.9622240266717096,0.0762939453125,0.38909912109375,0.2574920654296875,0.47278013482645603
1785170365.156839,-0.0346679650247097,-0.2890625,0.9130858778953552,0.9583761355110717,-0.7801055908203125,-0.3452301025390625,-0.6580352783203125,1.0773852533065094
1785170365.164836,-0.0605468675494194,-0.28271484375,0.9453124403953552,0.9885389299430022,-1.3256072998046875,0.4482269287109375,-0.7190704345703125,1.573278228029058
1785170365.172833,-0.0771484300494194,-0.30615234375,0.9677733778953552,1.0179717328127016,0.6256103515625,0.63323974609375,0.0743865966796875,0.893260462452368
1785170365.18083,-0.07568359375,-0.30126953125,0.9443358778953552,0.9941134679214949,0.8697509765625,-0.09918212890625,0.3757476806640625,0.9526227875975992
1785170365.19148,-0.0463867150247097,-0.28076171875,0.9458007216453552,0.9876830843499915,0.5626678466796875,-0.5283355712890625,0.0095367431640625,0.7718967100892927
1785170365.20213,-0.0693359300494194,-0.306640625,0.9511718153953552,1.0017802985179456,0.4425048828125,0.38909912109375,0.6237030029296875,0.8580292146613324
1785170365.21278,-0.0722656175494194,-0.30419921875,0.9458007216453552,0.9961418017695994,0.9307861328125,0.08392333984375,1.0509490966796875,1.4063783117704958
1785170365.220802,-0.0458984300494194,-0.287109375,0.9443358778953552,0.9880833514305781,0.5016326904296875,-1.0738372802734375,0.5626678466796875,1.3120049414159751
1785170365.228824,-0.0483398400247097,-0.2890625,0.9531249403953552,0.9971664961497222,-0.0457763671875,-0.34332275390625,0.5626678466796875,0.660727700970538
1785170365.236846,-0.0429687462747097,-0.28857421875,0.9287108778953552,0.9734604704890459,1.0528564453125,0.20599365234375,0.4978179931640625,1.1826930428305924
1785170365.244868,-0.0307617150247097,-0.28662109375,0.9570311903953552,0.9995031935332965,0.6847381591796875,-0.4673004150390625,-0.3528594970703125,0.90096939415564
1785170365.255514,-0.064453125,-0.28857421875,0.9804686903953552,1.0240840482572813,0.1373291015625,-0.77056884765625,-1.2722015380859375,1.4936975546014895
1785170365.26616,-0.0776367112994194,-0.3046875,0.9184569716453552,0.9707858365064852,1.4190673828125,0.87738037109375,-0.7839202880859375,1.8433880683718402
1785170365.276806,-0.0590820275247097,-0.27001953125,0.9135741591453552,0.9544731413146433,1.7852783203125,0.69427490234375,0.4978179931640625,1.9791561523336503
1785170365.287481,-0.06591796875,-0.29833984375,0.9824218153953552,1.0288364614153243,0.5016326904296875,-0.7114410400390625,-0.9021759033203125,1.2536766210197154
1785170365.298158,-0.0791015625,-0.30810546875,0.9604491591453552,1.0117552195895105,1.5411376953125,0.87738037109375,0.9288787841796875,2.0019284470711898
1785170365.308835,-0.0722656175494194,-0.2900390625,0.9072265028953552,0.9551988823336289,0.8678436279296875,0.1430511474609375,1.4171600341796875,1.6679204884538787
1785170365.3195,-0.0434570237994194,-0.28515625,0.9873046278953552,1.0285781584766185,-1.2073516845703125,-1.6880035400390625,0.5626678466796875,2.1502672269060734
1785170365.330166,-0.06689453125,-0.30810546875,0.9707030653953552,1.0206215260089089,-0.8392333984375,-0.95367431640625,-0.1087188720703125,1.2750008595958375
1785170365.340832,-0.0522460900247097,-0.28466796875,0.9174804091453552,0.9620477158232067,1.1138916015625,1.18255615234375,0.5626678466796875,1.719240721703823
1785170365.351479,-0.02392578125,-0.26171875,0.9204100966453552,0.9571958488818773,-0.2899169921875,-2.05230712890625,-0.9670257568359375,2.287171884249756
1785170365.362127,-0.0356445237994194,-0.296875,0.9951171278953552,1.0390685232132615,0.3204345703125,-0.40435791015625,-1.4553070068359375,1.5440537935910983
1785170365.372775,-0.0810546875,-0.31640625,0.9824218153953552,1.035294837603999,2.0904541015625,1.36566162109375,-0.4138946533203125,2.5310746330590552
1785170365.380806,-0.0541992112994194,-0.2666015625,0.9130858778953552,0.9527537814382329,1.6021728515625,0.87738037109375,-0.1087188720703125,1.8299109145006924
1785170365.388836,-0.0522460900247097,-0.291015625,0.9570311903953552,1.001662841132964,-0.2288818359375,-0.77056884765625,-0.4138946533203125,0.9041415972332781
1785170365.396866,-0.0624999962747097,-0.30810546875,0.9687499403953552,1.0184849907701146,-0.4119873046875,-0.46539306640625,-0.5970001220703125,0.8618198136702655
1785170365.404896,-0.0644531175494194,-0.28662109375,0.9584960341453552,1.0025071088110347,0.3814697265625,0.02288818359375,-0.1087188720703125,0.3973195368669035
1785170365.415519,-0.0522460900247097,-0.279296875,0.9160155653953552,0.9590729452727816,1.2340545654296875,-0.2231597900390625,-0.2307891845703125,1.2751292522967086
1785170365.426142,-0.0405273362994194,-0.28759765625,0.9208983778953552,0.9656131209124676,1.2969970703125,-1.07574462890625,0.0095367431640625,1.6850871955154223
1785170365.436765,-0.0571289025247097,-0.2861328125,0.9760741591453552,1.0187524046814074,0.0743865966796875,-0.5283355712890625,-0.6580352783203125,0.8471613005614796
1785170365.444782,-0.06396484375,-0.3134765625,0.9926757216453552,1.0429593207872037,1.5411376953125,0.75531005859375,-0.5359649658203125,1.7980147733299598
1785170365.452801,-0.0629882737994194,-0.294921875,0.9145507216453552,0.9629898532444597,1.9054412841796875,0.9365081787109375,0.2574920654296875,2.138704332068381
1785170365.46082,-0.052734375,-0.27099609375,0.8984374403953552,0.939898734672282,0.3204345703125,-0.09918212890625,-0.9021759033203125,0.962515853935692
1785170365.468839,-0.0634765550494194,-0.2763671875,0.9648436903953552,1.0056497612306832,-0.2288818359375,0.38909912109375,-0.8411407470703125,0.9546217980122038
1785170365.479512,-0.0771484300494194,-0.30712890625,0.9794921278953552,1.029409963970809,0.9307861328125,0.57220458984375,0.0743865966796875,1.095132084928521
1785170365.490185,-0.0703125,-0.29931640625,0.9379882216453552,0.9870947586995289,1.3561248779296875,0.3261566162109375,0.6809234619140625,1.5521306593914734
1785170365.500858,-0.0551757775247097,-0.2841796875,0.9155272841453552,0.9602044934427374,0.5016326904296875,-0.3452301025390625,0.4978179931640625,0.7865379419486087
1785170365.508842,-0.0546874962747097,-0.29541015625,0.9394530653953552,0.9863214206054614,-0.1068115234375,-0.09918212890625,0.4978179931640625,0.5187181802783764
1785170365.516827,-0.0541992112994194,-0.3017578125,0.9643554091453552,1.0119173321265773,-0.5340576171875,-0.52642822265625,0.2574920654296875,0.7928722317273162
1785170365.524812,-0.0620117150247097,-0.2802734375,0.9570311903953552,0.9991533175433702,0.2593994140625,-0.28228759765625,-0.0476837158203125,0.3863263912301844
1785170365.532797,-0.0620117150247097,-0.2861328125,0.9116210341453552,0.9574812526027404,0.9307861328125,0.38909912109375,0.1926422119140625,1.0270696046924572
1785170365.543476,-0.0561523400247097,-0.27001953125,0.9272460341453552,0.9673928056301688,0.2593994140625,0.20599365234375,0.3185272216796875,0.459544374106426
1785170365.554155,-0.0600585900247097,-0.291015625,0.9707030653953552,1.0151657841938113,-1.0852813720703125,-0.2231597900390625,-0.3528594970703125,1.162818030960052
1785170365.564834,-0.0629882737994194,-0.322265625,0.9765624403953552,1.030289695029414,-0.5340576171875,-0.40435791015625,-0.1087188720703125,0.678632928118111
1785170365.575512,-0.064453125,-0.29052734375,0.9199218153953552,0.9668590844735246,1.2969970703125,-0.40435791015625,0.5626678466796875,1.470476734121385
1785170365.58619,-0.0302734337747097,-0.275390625,0.9257811903953552,0.9663473959297677,-0.2918243408203125,-1.1997222900390625,-0.2956390380859375,1.2696052378405505
1785170365.596868,-0.0541992150247097,-0.28515625,0.9702147841453552,1.0127034952035938,-0.5340576171875,-0.95367431640625,-1.0242462158203125,1.4979294211915155
1785170365.607535,-0.0712890625,-0.28955078125,0.9453124403953552,0.9912302433445199,0.8087158203125,0.08392333984375,-0.5970001220703125,1.0086989395980435
1785170365.618204,-0.0566406212747097,-0.2890625,0.9125975966453552,0.9589575914958458,1.7223358154296875,0.9365081787109375,0.4405975341796875,2.0093816006496987
1785170365.628873,-0.03662109375,-0.2822265625,0.9287108778953552,0.9713376507729813,0.6847381591796875,-0.2231597900390625,-0.1087188720703125,0.7283449949517786
1785170365.639562,-0.0625,-0.2880859375,1.0107421875,1.0528530414913275,0.6256103515625,0.32806396484375,-0.6580352783203125,0.9654142657560262
1785170365.650252,-0.0849609375,-0.31396484375,0.9619140028953552,1.0154165810040756,1.7852783203125,1.36566162109375,0.9288787841796875,2.4320908987958005
1785170365.660942,-0.0419921837747097,-0.28466796875,0.8901366591453552,0.9354904958816387,1.1157989501953125,-0.2231597900390625,0.7457733154296875,1.3605092528734335
1785170365.668898,-0.06298828125,-0.2841796875,0.9873046278953552,1.0293182436088524,-0.3490447998046875,-1.1997222900390625,-0.3528594970703125,1.2983357309109154
1785170365.676855,-0.083984375,-0.30859375,0.9453124403953552,0.9979474373680335,0.5016326904296875,0.6923675537109375,0.1354217529296875,0.8656484486822257
1785170365.684812,-0.0590820237994194,-0.27587890625,0.9121093153953552,0.9547477466225909,1.5411376953125,0.38909912109375,1.4781951904296875,2.1706138631637164
1785170365.692769,-0.0253906212747097,-0.27880859375,0.9360350966453552,0.9770059456059864,0.8087158203125,-1.56402587890625,1.0509490966796875,2.050534620952311
1785170365.70346,-0.0424804650247097,-0.2939453125,0.9697265028953552,1.0141883094707282,-0.1678466796875,-1.56402587890625,0.0743865966796875,1.5747643707984291
1785170365.714151,-0.07177734375,-0.287109375,0.9335936903953552,0.9793778428342734,0.6866455078125,0.87738037109375,-0.1087188720703125,1.1194186715094283
1785170365.724842,-0.0537109300494194,-0.2685546875,0.9257811903953552,0.9654415034971499,0.6866455078125,1.18255615234375,0.1354217529296875,1.3741397883809674
1785170365.73284,-0.0361328087747097,-0.27685546875,0.9399413466453552,0.9805326438116254,-0.4749298095703125,-0.4024505615234375,-0.1697540283203125,0.645245076401205
1785170365.740838,-0.0561523400247097,-0.2919921875,0.9682616591453552,1.012888524676927,0.5626678466796875,0.9365081787109375,0.4405975341796875,1.1780360188062393
1785170365.748836,-0.07177734375,-0.3046875,0.9204100966453552,0.97218373044336,0.8678436279296875,-0.0400543212890625,0.3185272216796875,0.9253196756489457
1785170365.756834,-0.0585937425494194,-0.28076171875,0.9355468153953552,0.9785234862678527,0.1964569091796875,-0.8335113525390625,0.8068084716796875,1.1765527620765872
1785170365.767504,-0.0488281175494194,-0.27783203125,0.9550780653953552,0.9958659215232015,0.4405975341796875,-0.2231597900390625,0.8068084716796875,0.9459737781723193
1785170365.778174,-0.0683593675494194,-0.30224609375,0.9404296278953552,0.9901684651322151,0.0743865966796875,0.4482269287109375,0.5626678466796875,0.7232121756956134
1785170365.788844,-0.07080078125,-0.27001953125,0.9331054091453552,0.9739656064042512,0.0133514404296875,-0.1621246337890625,0.7457733154296875,0.7633089124658334
1785170365.7995,-0.0283203087747097,-0.28466796875,0.9453124403953552,0.9876504960195017,-0.4749298095703125,-0.5855560302734375,0.4978179931640625,0.9034693923570265
1785170365.810158,-0.0712890625,-0.28173828125,0.9672850966453552,1.009999528587042,-0.9002685546875,-0.28228759765625,-0.0476837158203125,0.9446922753490098
1785170365.820816,-0.06494140625,-0.298828125,0.9443358778953552,0.9926156783051204,-0.5359649658203125,0.2651214599609375,0.0743865966796875,0.602562195033985
1785170365.828804,-0.0517578087747097,-0.2763671875,0.9321288466453552,0.9736127976994857,-0.6561279296875,-0.58746337890625,-0.4138946533203125,0.9731011590369703
1785170365.836792,-0.0537109300494194,-0.27587890625,0.9648436903953552,1.004946457188739,-0.2288818359375,0.32806396484375,-0.5359649658203125,0.6687834510795633
1785170365.84478,-0.0727538987994194,-0.30615234375,0.9482421278953552,0.9990923483290448,0.3814697265625,0.75531005859375,-0.4138946533203125,0.9419772932208633
1785170365.852768,-0.06201171875,-0.283203125,0.9057616591453552,0.9510276791186687,-0.4730224609375,0.38909912109375,-0.1697540283203125,0.6355822564533019
1785170365.863571,-0.0595703087747097,-0.2705078125,0.9218749403953552,0.9625884395939882,-1.0852813720703125,0.1430511474609375,-0.6580352783203125,1.2772273544153374
1785170365.874374,-0.0488281175494194,-0.29052734375,0.9702147841453552,1.0139561380572972,-0.7171630859375,0.08392333984375,-0.5359649658203125,0.8992354882836288
1785170365.885177,-0.0610351525247097,-0.30810546875,0.9516600966453552,1.0021532863112401,-0.2288818359375,0.57220458984375,-0.2956390380859375,0.6835257334590653
1785170365.893352,-0.0595703050494194,-0.287109375,0.9267577528953552,0.9720392723590029,-0.2918243408203125,-0.3452301025390625,-0.1087188720703125,0.4649355468649203
1785170365.901528,-0.0629882737994194,-0.27978515625,0.9570311903953552,0.9990775523870097,-0.2899169921875,-0.77056884765625,-0.2956390380859375,0.8747746293633043
1785170365.909704,-0.0742187425494194,-0.28759765625,0.9389647841453552,0.984822674135422,0.2593994140625,0.20599365234375,-0.0476837158203125,0.3346568056626346
1785170365.91788,-0.0537109300494194,-0.27685546875,0.9331054091453552,0.9747920389292665,0.8087158203125,0.14495849609375,-0.0476837158203125,0.8229872297720748
1785170365.9282,-0.0605468712747097,-0.27001953125,0.9599608778953552,0.9990502279501502,-0.1068115234375,-0.77056884765625,-0.5359649658203125,0.9446922753490098
1785170365.93852,-0.0786132737994194,-0.29150390625,0.9428710341453552,0.9900304849886203,0.3204345703125,0.14495849609375,0.0095367431640625,0.3518269871844619
1785170365.94884,-0.0605468712747097,-0.28369140625,0.9003905653953552,0.9459650669312405,0.7476806640625,0.57220458984375,0.5626678466796875,1.0968316068286652
1785170365.956833,-0.025390617549419403,-0.28271484375,0.9423827528953552,0.984204053685391,-0.8392333984375,-0.58746337890625,0.5626678466796875,1.1687690209344446
1785170365.964826,-0.0649413987994194,-0.2919921875,0.9765624403953552,1.0213476503277383,-1.0852813720703125,-1.0166168212890625,-0.4138946533203125,1.5435848541424082
1785170365.972819,-0.0654296875,-0.28564453125,0.9257811903953552,0.9710533737798458,-0.1068115234375,0.51116943359375,-0.2956390380859375,0.6000877704302706
1785170365.980812,-0.0478515625,-0.27685546875,0.9204100966453552,0.9623375024476526,0.1373291015625,0.20599365234375,0.2574920654296875,0.35720418628723777
1785170365.991462,-0.0385742112994194,-0.29248046875,0.9628905653953552,1.0070705215152407,-1.049041748046875,-1.010894775390625,-0.5702972412109375,1.5644921793956375
1785170366.002112,-0.0522460900247097,-0.318359375,0.9799804091453552,1.0317189287213637,-0.8068084716796875,-0.6465911865234375,-1.4286041259765625,1.7634993113753001
1785170366.012762,-0.08056640625,-0.28515625,0.9360350966453552,0.9818180762656502,0.9670257568359375,1.0013580322265625,-0.8144378662109375,1.6128129962915714
1785170366.0208,-0.0322265587747097,-0.28125,0.9013671278953552,0.944776594143177,-0.133514404296875,-0.888824462890625,-1.0585784912109375,1.3886768681165471
1785170366.028838,-0.0385742112994194,-0.296875,0.9541015028953552,0.9999662060437581,-0.438690185546875,-0.339508056640625,-1.6689300537109375,1.7587047289407731
1785170366.036876,-0.07421875,-0.29833984375,0.9726561903953552,1.0200858541979407,1.026153564453125,1.125335693359375,-0.6923675537109375,1.6729448257549162
1785170366.044914,-0.07080078125,-0.2841796875,0.9179686903953552,0.9635545453991546,0.904083251953125,0.148773193359375,0.1010894775390625,0.9218020785361706
1785170366.055573,-0.037109375,-0.26318359375,0.9047850966453552,0.9430157903469064,-1.049041748046875,-1.499176025390625,-0.6923675537109375,1.9563716859745601
1785170366.066232,-0.024902336299419403,-0.28125,0.9619140028953552,1.0024970014016674,-1.049041748046875,-0.766754150390625,-1.6689300537109375,2.1151189187528168
1785170366.076891,-0.07177734375,-0.30224609375,0.9921874403953552,1.0396829349091126,0.7839202880859375,1.4896392822265625,-0.7534027099609375,1.8442266272347583
1785170366.084917,-0.0341796837747097,-0.28369140625,0.9296874403953552,0.9726087608035971,0.965118408203125,0.331878662109375,0.1621246337890625,1.0333834646912443
1785170366.092944,-0.0410156212747097,-0.29052734375,0.9550780653953552,0.9991308871485834,-0.194549560546875,-1.438140869140625,-0.8144378662109375,1.6641537575956613
1785170366.100971,-0.0839843675494194,-0.30126953125,0.9614257216453552,1.0110173701245506,-0.4978179931640625,0.2079010009765625,-1.5468597412109375,1.6382370522925307
1785170366.108998,-0.080078125,-0.2880859375,0.9165038466453552,0.9640463237855857,0.6580352783203125,1.4896392822265625,-0.4520416259765625,1.69008202472013
1785170366.119595,-0.0405273400247097,-0.27099609375,0.9101561903953552,0.950508095195524,-0.377655029296875,-0.217437744140625,0.1010894775390625,0.4473495011725262
1785170366.130192,-0.0478515587747097,-0.29443359375,0.9619140028953552,1.0071044939686622,-1.354217529296875,-1.316070556640625,-0.3871917724609375,1.9276577225671416
1785170366.140789,-0.07470703125,-0.29833984375,0.9531249403953552,1.001516327820277,-1.1119842529296875,0.2079010009765625,-0.8754730224609375,1.4304491665304087
1785170366.151458,-0.0678710862994194,-0.27880859375,0.9443358778953552,0.9869706006688888,-0.011444091796875,-0.095367431640625,-0.2689361572265625,0.28557410757730634
1785170366.162129,-0.0507812462747097,-0.2939453125,0.9443358778953552,0.990329658242308,0.537872314453125,-0.705718994140625,-0.0209808349609375,0.8875731636218362
1785170366.1728,-0.0546874962747097,-0.2890625,0.9331054091453552,0.9783831334049904,0.904083251953125,0.209808349609375,-0.3871917724609375,1.0056358877294456
1785170366.183484,-0.06640625,-0.287109375,0.9648436903953552,1.0088433625433044,0.965118408203125,-0.034332275390625,-0.5702972412109375,1.1215485679714623
1785170366.194167,-0.0512695275247097,-0.29443359375,0.9389647841453552,0.9853804196584589,1.270294189453125,-0.400543212890625,-0.3871917724609375,1.3870831488460087
1785170366.20485,-0.0410156212747097,-0.2802734375,0.8920897841453552,0.9359805895066005,1.3904571533203125,0.0247955322265625,-0.3261566162109375,1.4284131236922302
1785170366.212846,-0.0615234337747097,-0.2705078125,0.9335936903953552,0.9739388010922373,-1.049041748046875,0.698089599609375,-0.8754730224609375,1.534363285302705
1785170366.220844,-0.0615234337747097,-0.27978515625,0.9765624403953552,1.017712664042361,-0.804901123046875,1.125335693359375,-0.3261566162109375,1.4214866791246814
1785170366.228842,-0.052734375,-0.2978515625,0.9287108778953552,0.9767294212377824,-0.560760498046875,0.392913818359375,-0.3871917724609375,0.7866073184816968
1785170366.23684,-0.0590820237994194,-0.27734375,0.9350585341453552,0.9771103844900831,-0.8068084716796875,-0.4024505615234375,-0.5092620849609375,1.0354970959029313
1785170366.247517,-0.0649413987994194,-0.2919921875,0.9702147841453552,1.0152800353662426,-0.011444091796875,0.087738037109375,-0.3871917724609375,0.3971730089700253
1785170366.258194,-0.06982421875,-0.30419921875,0.9584960341453552,1.0080313654269555,0.8411407470703125,0.0247955322265625,-0.0209808349609375,0.8417676462279006
1785170366.268871,-0.06689453125,-0.2783203125,0.9418944716453552,0.9844299215166805,0.3528594970703125,-0.8907318115234375,-0.2689361572265625,0.9951078541526687
1785170366.276857,-0.0532226487994194,-0.294921875,0.9565429091453552,1.002390093593807,0.2307891845703125,-0.7686614990234375,-0.2040863037109375,0.8281034761175567
1785170366.284844,-0.0590820275247097,-0.28955078125,0.9047850966453552,0.9518226788695785,0.720977783203125,0.453948974609375,0.1010894775390625,0.8579613731925907
1785170366.292831,-0.0385742112994194,-0.28173828125,0.9165038466453552,0.9596060284381341,0.476837158203125,-0.095367431640625,0.2193450927734375,0.5334612377527999
1785170366.300818,-0.0390624925494194,-0.2919921875,0.9550780653953552,0.9994795780227543,-1.1119842529296875,-0.7686614990234375,-0.3871917724609375,1.4061532446735654
1785170366.311468,-0.0551757775247097,-0.29443359375,0.9423827528953552,0.9888481989206556,-1.354217529296875,-0.461578369140625,-0.8754730224609375,1.677323081749709
1785170366.322118,-0.0585937462747097,-0.2841796875,0.9272460341453552,0.9715845458468305,-0.743865966796875,0.453948974609375,-0.6351470947265625,1.0783404286435456
1785170366.332768,-0.0444335900247097,-0.2900390625,0.9545897841453552,0.9986684423235965,-1.232147216796875,-0.217437744140625,-1.3637542724609375,1.850754346771259
1785170366.340802,-0.06494140625,-0.28564453125,0.9663085341453552,1.0097338102890805,-0.743865966796875,-0.339508056640625,-1.3637542724609375,1.5901031453141663
1785170366.348836,-0.07080078125,-0.2880859375,0.9506835341453552,0.9958942916323835,-0.072479248046875,0.392913818359375,-0.6923675537109375,0.7993793464224931
1785170366.35687,-0.0742187425494194,-0.29296875,0.9394530653953552,0.9868693795548168,0.1697540283203125,0.5741119384765625,-0.5702972412109375,0.8268372822781372
1785170366.364904,-0.0712890625,-0.2939453125,0.9287108778953552,0.9767240510471793,-0.133514404296875,-0.034332275390625,0.3414154052734375,0.36819733872785215
1785170366.375681,-0.0576171875,-0.29736328125,0.9331054091453552,0.9810353540558554,-0.316619873046875,-0.034332275390625,0.2841949462890625,0.42684144203434615
1785170366.386458,-0.0590820237994194,-0.2822265625,0.9550780653953552,0.9976555663735536,-0.682830810546875,0.392913818359375,0.4673004150390625,0.9159742694997094
1785170366.397235,-0.0590820275247097,-0.30419921875,0.9541015028953552,1.0031637595585858,-0.3185272216796875,-0.1544952392578125,0.9555816650390625,1.0190508762878998
1785170366.407763,-0.0444335862994194,-0.3017578125,0.9365233778953552,0.9849406877273065,-0.4405975341796875,-0.2803802490234375,0.8335113525390625,0.9836058387276699
1785170366.418294,-0.0493164025247097,-0.2802734375,0.9516600966453552,0.9932986695214548,-0.560760498046875,-0.400543212890625,0.2193450927734375,0.7231870237264436
1785170366.428825,-0.0605468712747097,-0.28662109375,0.9570311903953552,1.0008627650148412,0.049591064453125,-0.034332275390625,-0.2689361572265625,0.2756168272636525
1785170366.436822,-0.0444335862994194,-0.28759765625,0.9365233778953552,0.9806950559763454,0.2307891845703125,-0.2803802490234375,-0.0820159912109375,0.37229471467022895
1785170366.444821,-0.05712890625,-0.2822265625,0.9287108778953552,0.9723268170893206,-0.011444091796875,-1.255035400390625,-0.3261566162109375,1.2967740596452724
1785170366.45282,-0.0585937462747097,-0.28857421875,0.9409179091453552,0.9859182616120592,-0.194549560546875,-0.888824462890625,-0.4520416259765625,1.015972484350499
1785170366.460819,-0.0546874925494194,-0.28759765625,0.9467772841453552,0.9910047222367261,-0.377655029296875,-0.034332275390625,-0.2689361572265625,0.46489642174414675
1785170366.471465,-0.0512695275247097,-0.28369140625,0.9384765028953552,0.9817573656048653,-0.1354217529296875,0.2079010009765625,-0.2689361572265625,0.365907821776737
1785170366.482111,-0.0512695275247097,-0.2900390625,0.9467772841453552,0.9915333821925213,-0.499725341796875,0.453948974609375,-0.5702972412109375,0.8837612981544919
1785170366.492757,-0.0654296875,-0.30029296875,0.9438475966453552,0.9926254060723256,-0.438690185546875,0.576019287109375,-0.0820159912109375,0.7286795734967852
1785170366.50345,-0.0551757775247097,-0.28466796875,0.9467772841453552,0.9901855607063567,-0.194549560546875,0.087738037109375,0.3414154052734375,0.4026313122731686
1785170366.514143,-0.0678710862994194,-0.29736328125,0.9565429091453552,1.0039948916341601,0.6580352783203125,-0.2193450927734375,0.0362396240234375,0.6945761351984671
1785170366.524836,-0.0546874962747097,-0.29345703125,0.9389647841453552,0.9852728643903644,0.9021759033203125,0.0247955322265625,0.2841949462890625,0.9462044950466382
1785170366.532829,-0.0615234337747097,-0.283203125,0.9433593153953552,0.9868717955521832,1.0242462158203125,0.0247955322265625,0.2193450927734375,1.0477630451416087
1785170366.540825,-0.0654296800494194,-0.3017578125,0.9467772841453552,0.9958544302305479,0.6580352783203125,0.3337860107421875,0.0362396240234375,0.7387400346743331
1785170366.548821,-0.0585937425494194,-0.29296875,0.9184569716453552,0.9658297592777243,0.904083251953125,0.392913818359375,0.1010894775390625,0.9909424189068718
1785170366.556817,-0.0537109300494194,-0.27734375,0.9443358778953552,0.9856848735530171,0.5359649658203125,0.0247955322265625,-0.2689361572265625,0.6001665766009947
1785170366.567465,-0.0297851525247097,-0.28857421875,0.9414061903953552,0.9850928130652405,-0.0095367431640625,0.0247955322265625,-0.4520416259765625,0.4528215978772548
1785170366.578113,-0.0522460900247097,-0.279296875,0.9511718153953552,0.9927055055302814,-0.194549560546875,0.087738037109375,-0.9975433349609375,1.020117738199752
1785170366.588761,-0.06201171875,-0.29248046875,0.9418944716453552,0.9882082136769719,-0.1354217529296875,0.0247955322265625,-1.1234283447265625,1.131832635737286
1785170366.599443,-0.0610351525247097,-0.27734375,0.9389647841453552,0.9809687616702739,0.1697540283203125,0.0858306884765625,-0.5702972412109375,0.6011840654476301
1785170366.610126,-0.0615234337747097,-0.28466796875,0.9511718153953552,0.9947606786248528,0.232696533203125,-0.095367431640625,-0.6351470947265625,0.6831211133628321
1785170366.620809,-0.0747070237994194,-0.28125,0.9467772841453552,0.9904897413293192,0.537872314453125,-0.156402587890625,-0.0820159912109375,0.5661227949556161
1785170366.62888,-0.0576171875,-0.2822265625,0.9404296278953552,0.9835545017432297,0.598907470703125,-0.217437744140625,0.1621246337890625,0.6574600580432366
1785170366.636951,-0.0551757775247097,-0.27978515625,0.9350585341453552,0.9775779060317155,0.232696533203125,0.148773193359375,0.3414154052734375,0.43914191166993455
1785170366.645022,-0.0620117150247097,-0.2783203125,0.9643554091453552,1.0056286612355025,-0.194549560546875,-0.156402587890625,-0.0820159912109375,0.262750687576987
1785170366.653093,-0.0595703050494194,-0.29150390625,0.9565429091453552,1.001747216436836,-0.2574920654296875,0.2079010009765625,-0.0820159912109375,0.34095690751268803
1785170366.663697,-0.0493163987994194,-0.28173828125,0.9433593153953552,0.9857663842186143,-0.0743865966796875,0.0247955322265625,-0.1468658447265625,0.16648651756593313
1785170366.674301,-0.0571289025247097,-0.28369140625,0.9374999403953552,0.981147625857126,-0.011444091796875,-0.339508056640625,-0.3871917724609375,0.5150865523602723
1785170366.684905,-0.0463867150247097,-0.302734375,0.9423827528953552,0.9909011464783217,0.049591064453125,-0.156402587890625,-0.6923675537109375,0.7115433033935086
1785170366.695542,-0.0585937425494194,-0.2958984375,0.9409179091453552,0.988086850297764,0.232696533203125,-0.339508056640625,-1.0585784912109375,1.1357824699928556
1785170366.706179,-0.0624999962747097,-0.29052734375,0.9331054091453552,0.9792844793915045,-0.133514404296875,-0.339508056640625,-1.4858245849609375,1.5299563764869197
1785170366.716816,-0.0629882737994194,-0.296875,0.9360350966453552,0.9840040601608868,-0.2574920654296875,0.2079010009765625,-1.3637542724609375,1.4033355641548333
1785170366.724819,-0.0400390587747097,-0.29931640625,0.9501952528953552,0.9970278109976911,-0.377655029296875,0.331878662109375,-1.6689300537109375,1.7430129924060591
1785170366.732821,-0.076171875,-0.28564453125,0.9492186903953552,0.9941886515998466,-0.438690185546875,0.453948974609375,-1.7299652099609375,1.841547821295783
