timestamp,accel_x,accel_y,accel_z,accel_rms,gyro_x,gyro_y,gyro_z,gyro_rms
1782295298.373157,-0.0078124962747097015,-0.11669921875,0.9887694716453552,0.9956630006245776,-0.3566741943359375,1.1157989501953125,0.1316070556640625,1.178789292139488
1782295298.383849,-0.0200195275247097,-0.123046875,0.9785155653953552,0.9864248712652018,-0.1125335693359375,0.5664825439453125,0.0095367431640625,0.5776307006145158
1782295298.394541,-0.014648433774709702,-0.11279296875,0.9838866591453552,0.9904391896808703,-0.1125335693359375,0.5664825439453125,0.0705718994140625,0.5818476345308519
1782295298.405219,-0.0244140587747097,-0.11083984375,0.9970702528953552,1.0035091461651893,-0.4177093505859375,0.1392364501953125,-0.0514984130859375,0.4433057378156606
1782295298.415897,-0.009765621274709702,-0.130859375,0.9873046278953552,0.9959869334724515,-0.2346038818359375,0.2613067626953125,-0.2346038818359375,0.422325925057041
1782295298.426575,-0.0322265587747097,-0.12353515625,0.9858397841453552,0.9940722136363798,-0.2346038818359375,0.0171661376953125,0.0705718994140625,0.2455891908101281
1782295298.437267,-0.02783203125,-0.125,0.9873046278953552,0.995575235844628,-0.2346038818359375,-0.0438690185546875,0.0705718994140625,0.24888524493900918
1782295298.447961,-0.0302734337747097,-0.12646484375,0.9858397841453552,0.9943791618396799,-0.4787445068359375,0.2002716064453125,0.1316070556640625,0.5353741087074858
1782295298.458655,-0.0209960900247097,-0.1318359375,0.9916991591453552,1.0006441787480873,-0.17547607421875,-0.2288818359375,0.1926422119140625,0.34682815522458305
1782295298.466729,-0.0307617150247097,-0.11962890625,0.9887694716453552,0.9964549294271506,-0.2956390380859375,-0.2880096435546875,0.1316070556640625,0.43321174120912304
1782295298.474803,-0.0317382775247097,-0.11669921875,0.9833983778953552,0.9908069416209758,-0.2956390380859375,-0.2880096435546875,0.1316070556640625,0.43321174120912304
1782295298.482877,-0.0239257775247097,-0.13232421875,0.9814452528953552,0.9906144184942937,-0.29754638671875,0.1373291015625,0.1926422119140625,0.3801370229226429
1782295298.490952,-0.0219726525247097,-0.11865234375,0.9956054091453552,1.0028914731195144,-0.0514984130859375,-0.0438690185546875,0.1926422119140625,0.20417541269815995
1782295298.501511,-0.0214843712747097,-0.12060546875,0.9794921278953552,0.9871231361438388,0.0705718994140625,-0.0438690185546875,0.0095367431640625,0.08364109782898216
1782295298.512071,-0.01416015625,-0.1328125,0.9853515028953552,0.9943627378574731,0.00762939453125,-0.4119873046875,-0.1125335693359375,0.42714816060949
1782295298.522631,-0.0195312462747097,-0.14013671875,0.9965819716453552,1.006576075481433,0.1316070556640625,0.0171661376953125,-0.2956390380859375,0.32406408968646383
1782295298.533373,-0.02880859375,-0.125,0.9941405653953552,1.0023823615958378,-0.0514984130859375,-0.1659393310546875,-0.1735687255859375,0.2455891908101281
1782295298.544115,-0.0195312462747097,-0.12646484375,0.9936522841453552,1.0018581177357586,0.1926422119140625,0.0171661376953125,-0.2346038818359375,0.3040471665169855
1782295298.554857,-0.0161132775247097,-0.12841796875,0.9814452528953552,0.9899422189407279,0.1316070556640625,-0.1049041748046875,-0.1735687255859375,0.24176725480002983
1782295298.562791,-0.00927734375,-0.1259765625,0.9794921278953552,0.9876036614023578,0.0705718994140625,-0.1049041748046875,-0.4177093505859375,0.4364245415249773
1782295298.570727,-0.0195312462747097,-0.13134765625,0.9873046278953552,0.9961948125979162,0.1316070556640625,-0.2880096435546875,-0.2346038818359375,0.39409256939652176
1782295298.578663,-0.02294921875,-0.1240234375,0.9882811903953552,0.9962972402751159,0.19073486328125,-0.2288818359375,-0.4177093505859375,0.5130767822265625
1782295298.586599,-0.0234374962747097,-0.11767578125,0.9926757216453552,0.999900992132997,-0.11444091796875,-0.0457763671875,-0.7228851318359375,0.7333178801364901
1782295298.597238,-0.009277340024709702,-0.126953125,0.9833983778953552,0.9916025083834831,-0.17547607421875,-0.0457763671875,-0.5397796630859375,0.5694290237573751
1782295298.607877,-0.0166015587747097,-0.12890625,0.9892577528953552,0.9977591566637614,-0.1125335693359375,0.0171661376953125,-0.4787445068359375,0.4920922508396629
1782295298.618516,-0.0288085900247097,-0.126953125,0.9926757216453552,1.0011753688293596,-0.0514984130859375,-0.3490447998046875,-0.4787445068359375,0.5947105696443012
1782295298.626531,-0.0053710900247097015,-0.1240234375,0.9882811903953552,0.9960473748505291,0.25177001953125,-0.4119873046875,-0.6618499755859375,0.8192478697815107
1782295298.634545,-0.02294921875,-0.1142578125,0.9863280653953552,0.9931890892197037,-0.0514984130859375,-0.2880096435546875,-0.6618499755859375,0.7236345980631206
1782295298.642559,-0.0229492150247097,-0.11572265625,0.9907225966453552,0.9977222374706907,0.00762939453125,-0.2288818359375,-0.1735687255859375,0.28735205756103543
1782295298.650573,-0.011718746274709702,-0.12451171875,0.9936522841453552,1.0014915670676472,-0.0514984130859375,-0.0438690185546875,-0.3566741943359375,0.36303313656539876
1782295298.661208,-0.0161132775247097,-0.11279296875,0.9902343153953552,0.9967677216375612,0.06866455078125,-0.2288818359375,-0.3566741943359375,0.4293229510069333
1782295298.671843,-0.0263671837747097,-0.1171875,0.9873046278953552,0.9945846202310014,0.31280517578125,-0.1678466796875,0.0705718994140625,0.3619391922195847
1782295298.682478,-0.0273437462747097,-0.126953125,0.9921874403953552,1.0006501353049866,0.00762939453125,-0.3509521484375,-0.1735687255859375,0.39160148193710526
1782295298.69317,-0.0234375,-0.1206054612994194,0.9907225966453552,0.9983117034299512,-0.1125335693359375,-0.2880096435546875,0.0705718994140625,0.3171651809308408
1782295298.703864,-0.0073242150247097015,-0.11669921875,0.9926757216453552,0.999538613624664,0.06866455078125,-0.2288818359375,0.2536773681640625,0.3485023995251063
1782295298.714558,-0.0258789025247097,-0.13525390625,0.9887694716453552,0.9983127790475298,0.133514404296875,0.0762939453125,0.0705718994140625,0.16919590784946512
1782295298.725229,-0.02197265625,-0.1201171875,0.9892577528953552,0.9967656886245425,0.1316070556640625,-0.0438690185546875,-0.0514984130859375,0.14797633067448665
1782295298.7359,-0.0209960900247097,-0.11572265625,0.9804686903953552,0.9874975553445509,0.0095367431640625,-0.2880096435546875,-0.0514984130859375,0.2927329684218115
1782295298.746571,-0.0214843712747097,-0.125,0.9951171278953552,1.0031673222547524,0.00762939453125,-0.0457763671875,-0.1125335693359375,0.12172710331427651
1782295298.754567,-0.0229492150247097,-0.11865234375,0.9877929091453552,0.9951582168205528,-0.049591064453125,0.0762939453125,-0.1735687255859375,0.19597485110714388
1782295298.762564,-0.011230465024709702,-0.1123046875,0.9843749403953552,0.9908241465858122,0.1316070556640625,0.3833770751953125,-0.0514984130859375,0.4085957481866959
1782295298.770561,-0.0180664025247097,-0.12646484375,0.9877929091453552,0.9960193687688712,0.133514404296875,0.0762939453125,-0.1735687255859375,0.23188998414684195
1782295298.778558,-0.0297851525247097,-0.12841796875,0.9877929091453552,0.9965506316121826,0.0095367431640625,0.2002716064453125,-0.1125335693359375,0.2299205733418601
1782295298.78924,-0.0214843712747097,-0.12451171875,0.9907225966453552,0.9987472201807942,0.1316070556640625,0.5054473876953125,-0.6008148193359375,0.7961004496684162
1782295298.799922,-0.0068359337747097015,-0.109375,0.9873046278953552,0.9933680329460769,-0.17547607421875,0.2593994140625,-0.5397796630859375,0.6240528770227414
1782295298.810604,-0.015624996274709702,-0.10107421875,0.9848632216453552,0.9901594334015991,-0.1125335693359375,0.6275177001953125,-0.2346038818359375,0.6793241123781717
1782295298.821278,-0.0200195275247097,-0.1337890625,1.00146484375,1.0105603039869286,-0.17547607421875,0.2593994140625,-0.4787445068359375,0.572080598748793
1782295298.831954,-0.0244140587747097,-0.12060546875,0.9790038466453552,0.9867067736185176,0.31280517578125,0.1373291015625,-0.2956390380859375,0.4517840202706162
1782295298.842628,-0.024414055049419403,-0.134765625,0.9829100966453552,0.9924062060733891,0.2536773681640625,-0.1659393310546875,-0.2346038818359375,0.38331064436304535
1782295298.853427,-0.0312499962747097,-0.12158203125,0.9907225966453552,0.9986440887992881,0.3757476806640625,-0.2880096435546875,-0.1125335693359375,0.486620672117828
1782295298.864226,-0.0224609337747097,-0.13525390625,1.0048828125,1.0141930681876237,0.4367828369140625,-0.2880096435546875,0.1316070556640625,0.5394897760882575
1782295298.875026,-0.02294921875,-0.1201171875,0.9926757216453552,1.0001799306716128,0.80108642578125,-0.3509521484375,0.3147125244140625,0.9294895615804123
1782295298.882921,-0.02392578125,-0.130859375,0.9819335341453552,0.9909036706527032,0.6809234619140625,-0.5931854248046875,0.4367828369140625,1.003147524449144
1782295298.890818,-0.02783203125,-0.12939453125,0.9868163466453552,0.9956525843322027,0.6198883056640625,-0.4711151123046875,0.6198883056640625,0.995224834919217
1782295298.898715,-0.0170898400247097,-0.11767578125,0.9746093153953552,0.9818365290516905,0.49591064453125,-0.102996826171875,0.6809234619140625,0.8486415465589173
1782295298.906612,-0.0180664025247097,-0.1162109375,0.9980468153953552,1.0049521494158933,0.00762939453125,0.3204345703125,0.7419586181640625,0.8082320907884041
1782295298.917232,-0.0161132775247097,-0.1171875,0.9838866591453552,0.9909720005696663,0.00762939453125,0.4425048828125,0.3757476806640625,0.5805644654112411
1782295298.927852,-0.014648433774709702,-0.11865234375,0.9902343153953552,0.9974251624437435,-0.17547607421875,0.568389892578125,0.3147125244140625,0.6729806056873174
1782295298.938472,-0.0195312462747097,-0.123046875,0.9799804091453552,0.9878682125349549,-0.2346038818359375,0.7495880126953125,-0.1125335693359375,0.7934639086792069
1782295298.946503,-0.014648433774709702,-0.11865234375,0.9848632216453552,0.9920929999950047,-0.1735687255859375,0.2002716064453125,-0.4787445068359375,0.5472029985985983
1782295298.954533,-0.012695308774709702,-0.12353515625,0.9760741591453552,0.9839425134863873,-0.5397796630859375,0.0171661376953125,-0.3566741943359375,0.6472041732480815
1782295298.962563,-0.010253902524709702,-0.12841796875,0.9868163466453552,0.9951898407948848,-0.2956390380859375,-0.1049041748046875,-0.6618499755859375,0.7324293255427017
1782295298.970593,-0.0244140587747097,-0.12353515625,0.9916991591453552,0.9996620445656479,-0.3566741943359375,-0.1659393310546875,-0.6008148193359375,0.7181439894824314
1782295298.981225,-0.0205078087747097,-0.12451171875,0.9887694716453552,0.9967892487304696,-0.29754638671875,-0.2288818359375,-0.6008148193359375,0.7084484414586426
1782295298.991857,-0.0297851525247097,-0.1240234375,0.9941405653953552,1.0022895949399222,-0.5397796630859375,-0.1659393310546875,-0.3566741943359375,0.6679179793786326
1782295299.002489,-0.015136715024709702,-0.1240234375,0.9863280653953552,0.9942102321831132,-0.4787445068359375,-0.1049041748046875,-0.0514984130859375,0.4928014562350717
1782295299.013168,-0.0200195275247097,-0.1142578125,0.9941405653953552,1.0008851547326467,-0.4177093505859375,-0.0438690185546875,0.0705718994140625,0.42589433588953224
1782295299.023848,-0.0195312462747097,-0.1220703125,0.9912108778953552,0.998890201790453,-0.11444091796875,-0.2288818359375,0.1926422119140625,0.3203039811472742
1782295299.034528,-0.0278320275247097,-0.12841796875,0.9858397841453552,0.9945581312612012,-0.17547607421875,-0.286102294921875,0.3757476806640625,0.5038181172875883
1782295299.042535,-0.0200195275247097,-0.1279296875,0.9833983778953552,0.9918866649337393,0.3757476806640625,0.0171661376953125,0.5588531494140625,0.6736451873336684
1782295299.050541,-0.029296867549419403,-0.11865234375,0.9887694716453552,0.9962940094085737,0.37384033203125,-0.2288818359375,0.4978179931640625,0.6632995122817825
1782295299.058547,-0.0195312462747097,-0.13134765625,0.9829100966453552,0.9918396717568788,0.1926422119140625,-0.2880096435546875,0.4367828369140625,0.5575301096930436
1782295299.066553,-0.015136715024709702,-0.12353515625,0.9892577528953552,0.9970561451768997,0.49591064453125,-0.1678466796875,0.4978179931640625,0.7224421288652902
1782295299.077195,-0.0205078087747097,-0.12744140625,0.9970702528953552,1.0053909545328747,0.4367828369140625,-0.0438690185546875,0.2536773681640625,0.5070068486029488
1782295299.087837,-0.0175781212747097,-0.123046875,0.9755858778953552,0.983472078375215,0.55694580078125,0.0762939453125,-0.1125335693359375,0.5733002662887057
1782295299.098479,-0.010253898799419403,-0.11962890625,0.9799804091453552,0.9873083712598905,0.1316070556640625,-0.1659393310546875,0.4978179931640625,0.5409981820758138
1782295299.109173,-0.0200195275247097,-0.11572265625,0.9833983778953552,0.9903862298614032,0.31280517578125,0.0152587890625,0.2536773681640625,0.4030286785798721
1782295299.119866,-0.0224609337747097,-0.12109375,0.9838866591453552,0.9915649993214276,0.1926422119140625,0.0171661376953125,0.0705718994140625,0.20587882620955839
1782295299.130559,-0.0288085900247097,-0.12744140625,0.9809569716453552,0.9896200417866524,-0.0514984130859375,0.1392364501953125,0.3757476806640625,0.40401137996074304
1782295299.138721,-0.0312499962747097,-0.12939453125,1.001953125,1.01075693006867,0.37384033203125,-0.2288818359375,0.3757476806640625,0.577347216326344
1782295299.146883,-0.0214843712747097,-0.12548828125,0.9985350966453552,1.0066187094290955,0.31280517578125,-0.4119873046875,0.4367828369140625,0.6770227941819287
1782295299.155045,-0.0258789025247097,-0.11376953125,0.9799804091453552,0.9869016294167449,-0.2346038818359375,-0.4100799560546875,0.4978179931640625,0.6863142910126523
1782295299.163208,-0.013671871274709702,-0.123046875,0.9960936903953552,1.0037579855507281,-0.23651123046875,0.0762939453125,0.5588531494140625,0.6116168497018418
1782295299.173667,-0.0180664025247097,-0.12353515625,0.9902343153953552,0.998073809453191,0.0705718994140625,0.5054473876953125,0.5588531494140625,0.7568185365891487
1782295299.184127,-0.0268554650247097,-0.109375,0.9916991591453552,0.998073809332906,-0.2346038818359375,0.3223419189453125,0.1316070556640625,0.4198377200566912
1782295299.194587,-0.02734375,-0.11474609375,0.9858397841453552,0.9928718077872424,-0.1125335693359375,0.6275177001953125,0.1926422119140625,0.6659979655352131
1782295299.205294,-0.0273437462747097,-0.13037109375,0.9858397841453552,0.9947986643284497,0.00762939453125,0.4425048828125,0.1926422119140625,0.48267981186803366
1782295299.216001,-0.0253906212747097,-0.12255859375,0.9848632216453552,0.9927843964831243,0.0705718994140625,0.2002716064453125,0.0705718994140625,0.2237621556966308
1782295299.226708,-0.0180664025247097,-0.1123046875,0.9912108778953552,0.9977162633698713,0.19073486328125,0.1373291015625,0.1316070556640625,0.26936868286317955
1782295299.23469,-0.015624996274709702,-0.1337890625,0.9804686903953552,0.9896779812640052,-0.17547607421875,-0.102996826171875,0.1316070556640625,0.2423233705717782
1782295299.242673,-0.01318359375,-0.10888671875,0.9960936903953552,1.0021141475449513,0.1316070556640625,-0.3490447998046875,0.1316070556640625,0.3955668166970299
1782295299.250656,-0.011718746274709702,-0.12548828125,0.9838866591453552,0.9919262048103874,0.1926422119140625,-0.1049041748046875,0.1316070556640625,0.25580524780222674
1782295299.258639,-0.025390617549419403,-0.115234375,0.9975585341453552,1.0045131525706428,-0.0514984130859375,-0.3490447998046875,0.0705718994140625,0.35981210625543547
1782295299.269325,-0.0185546875,-0.12548828125,0.9829100966453552,0.9910619775002385,0.00762939453125,-0.102996826171875,0.0095367431640625,0.10371838473756809
1782295299.280011,-0.009277340024709702,-0.13671875,0.9799804091453552,0.9895148750515044,0.1316070556640625,-0.0438690185546875,0.0705718994140625,0.15564479071406057
1782295299.290697,-0.0288085900247097,-0.1171875,0.9873046278953552,0.9946523378945267,0.2536773681640625,-0.1049041748046875,-0.0514984130859375,0.2793012344413601
1782295299.298649,-0.017578125,-0.11962890625,0.9780272841453552,0.9854732031982536,0.4367828369140625,-0.2269744873046875,0.1926422119140625,0.5285902820910207
1782295299.306602,-0.0209960900247097,-0.12353515625,0.9877929091453552,0.9957090950593359,0.2536773681640625,-0.1049041748046875,-0.2346038818359375,0.3611039661684544
1782295299.314555,-0.0278320275247097,-0.13134765625,0.9916991591453552,1.0007467465888205,0.3757476806640625,0.1392364501953125,0.1316070556640625,0.4217742591576419
1782295299.322508,-0.010253898799419403,-0.115234375,0.9892577528953552,0.9959995006453553,0.2536773681640625,-0.1659393310546875,-0.0514984130859375,0.3074738285771528
1782295299.333183,-0.014648433774709702,-0.12158203125,0.9785155653953552,0.9861488116181654,0.4367828369140625,0.0171661376953125,-0.1125335693359375,0.4513731573028653
1782295299.343858,-0.0249023400247097,-0.11572265625,0.9760741591453552,0.9832256220520161,0.2536773681640625,-0.0438690185546875,-0.1125335693359375,0.28096352456339074
1782295299.354533,-0.0166015587747097,-0.1201171875,0.9809569716453552,0.9884231536676418,0.1316070556640625,-0.2880096435546875,-0.1125335693359375,0.3360562097455544
1782295299.36525,-0.0214843712747097,-0.12060546875,0.9843749403953552,0.9919683868853059,0.1926422119140625,0.2002716064453125,0.0095367431640625,0.2780479951905893
1782295299.375967,-0.0175781212747097,-0.1259765625,0.9936522841453552,1.001760423671322,0.19073486328125,-0.2288818359375,-0.2346038818359375,0.37921717295703833
1782295299.386684,-0.008789058774709702,-0.12646484375,0.9897460341453552,0.9978315571103752,0.06866455078125,0.2593994140625,-0.1735687255859375,0.31957624919803673
1782295299.394748,-0.0166015587747097,-0.119140625,0.9848632216453552,0.9921822743976073,0.06866455078125,0.0762939453125,-0.3566741943359375,0.371149656514091
1782295299.402815,-0.0283203125,-0.1201171875,1.0048828125,1.012432538834523,0.1316070556640625,0.1392364501953125,-0.4787445068359375,0.5156583258216049
1782295299.410882,-0.0258789025247097,-0.11474609375,0.9848632216453552,0.991862868029868,0.133514404296875,0.0762939453125,-0.0514984130859375,0.16216950637054425
1782295299.418949,-0.0195312462747097,-0.13623046875,0.9882811903953552,0.9978175792629375,0.19073486328125,0.1373291015625,-0.2956390380859375,0.3776791112138173
1782295299.4269,-0.0234375,-0.125,0.9868163466453552,0.9949777979496507,0.31280517578125,0.2593994140625,-0.5397796630859375,0.6756457790089976
1782295299.434851,-0.009765621274709702,-0.10888671875,0.9946288466453552,1.0006189221967032,0.2536773681640625,0.2002716064453125,-0.4177093505859375,0.5281496237182766
1782295299.442802,-0.0214843712747097,-0.13134765625,0.9804686903953552,0.9894607813637794,0.1926422119140625,0.0171661376953125,-0.4787445068359375,0.5163351633581641
1782295299.450753,-0.0229492150247097,-0.1259765625,0.9887694716453552,0.997026493543377,0.31280517578125,-0.2288818359375,-0.3566741943359375,0.5267356582982108
1782295299.461333,-0.0219726525247097,-0.1240234375,0.9873046278953552,0.9953065049379883,0.4978179931640625,-0.2880096435546875,-0.1125335693359375,0.5860342253878001
1782295299.471913,-0.0234374962747097,-0.13330078125,0.9960936903953552,1.005246763018377,0.37384033203125,-0.2288818359375,-0.1735687255859375,0.47145476047748464
1782295299.482493,-0.02392578125,-0.1108398362994194,0.9829100966453552,0.9894292144497687,0.19073486328125,-0.3509521484375,0.0705718994140625,0.40562000881455873
1782295299.490508,-0.0244140587747097,-0.12255859375,0.9956054091453552,1.0034175531090348,0.7419586181640625,-0.2880096435546875,0.0705718994140625,0.7990197361988826
1782295299.498523,-0.013671875,-0.125,0.9956054091453552,1.0035148483632446,0.67901611328125,-0.2288818359375,0.3757476806640625,0.8090958512080743
1782295299.506538,-0.0185546875,-0.13330078125,0.9936522841453552,1.0027254043342897,0.7419586181640625,-0.5321502685546875,0.4978179931640625,1.0399563710601738
1782295299.514553,-0.00927734375,-0.11962890625,0.9863280653953552,0.9935996159943759,0.86212158203125,-0.2288818359375,0.3147125244140625,0.9458776295320964
1782295299.525225,-0.012207027524709702,-0.12744140625,0.9926757216453552,1.0008973033693782,0.8640289306640625,-0.2880096435546875,0.4367828369140625,1.0100865281883913
1782295299.535897,-0.0209960900247097,-0.1181640625,0.9882811903953552,0.9955417081931274,0.9860992431640625,-0.2880096435546875,0.3757476806640625,1.0938590364730079
1782295299.546569,-0.024414055049419403,-0.10888671875,0.9882811903953552,0.9945612474319306,0.80108642578125,0.202178955078125,0.2536773681640625,0.8642731041552236
1782295299.554544,-0.015624992549419403,-0.115234375,0.9936522841453552,1.0004338875513423,0.9250640869140625,-0.0438690185546875,0.4367828369140625,1.0239371574026388
1782295299.562519,-0.0249023400247097,-0.1337890625,0.9936522841453552,1.0029279642978437,0.80108642578125,0.1373291015625,0.6198883056640625,1.0221840613147926
1782295299.570494,-0.015136711299419403,-0.1201171875,0.9960936903953552,1.0034240872170201,1.04522705078125,0.2593994140625,0.3147125244140625,1.1219766560512343
1782295299.578469,-0.0219726525247097,-0.1142578125,0.9838866591453552,0.9907424504988495,0.80108642578125,0.3204345703125,0.3147125244140625,0.9184017358680278
1782295299.58931,-0.014648430049419403,-0.13916015625,0.9750975966453552,0.9850865183190688,0.8640289306640625,0.5664825439453125,0.4367828369140625,1.1217074985226463
1782295299.600151,-0.0258789025247097,-0.1181640625,0.9951171278953552,1.002442298335963,0.86212158203125,0.7476806640625,0.1926422119140625,1.15732062084288
1782295299.610992,-0.011718746274709702,-0.11767578125,0.9829100966453552,0.9899985740365641,0.98419189453125,0.6256103515625,0.4367828369140625,1.2453117055042333
1782295299.618889,-0.017578125,-0.11474609375,0.9912108778953552,0.9979853009776648,1.0471343994140625,0.6885528564453125,0.3757476806640625,1.3083507962621
1782295299.626788,-0.0166015587747097,-0.119140625,0.9838866591453552,0.9912129227988047,1.0471343994140625,0.6885528564453125,0.0705718994140625,1.2552194547337756
1782295299.634687,-0.017578125,-0.11962890625,0.9873046278953552,0.9946811016364354,0.5588531494140625,0.6885528564453125,0.3757476806640625,0.9631241863090335
1782295299.642586,-0.010253898799419403,-0.115234375,0.9814452528953552,0.9882402987396623,0.86212158203125,0.4425048828125,0.1316070556640625,0.9779491861122097
1782295299.653232,-0.0307617150247097,-0.12841796875,0.9775390028953552,0.9864177411172118,0.80108642578125,0.690460205078125,0.0705718994140625,1.0599316720215568
1782295299.663878,-0.0078125,-0.115234375,0.9902343153953552,0.9969473384910551,0.4978179931640625,0.5054473876953125,-0.3566741943359375,0.7940505632206933
1782295299.674524,-0.0283203125,-0.115234375,0.9755858778953552,0.9827760713563336,0.4367828369140625,0.4444122314453125,-0.1735687255859375,0.6468443248436404
1782295299.682563,-0.02734375,-0.1103515625,0.9882811903953552,0.9947989039496948,0.49591064453125,0.7476806640625,-0.2956390380859375,0.9446460626143102
1782295299.690602,-0.0185546837747097,-0.11279296875,0.9819335341453552,0.9885646137550167,0.00762939453125,0.6256103515625,-0.2956390380859375,0.6919891332119651
1782295299.698641,-0.0268554650247097,-0.12158203125,0.9882811903953552,0.9960939301159453,0.37384033203125,0.0762939453125,-0.3566741943359375,0.5222966981034555
1782295299.70668,-0.00927734375,-0.1108398362994194,0.9882811903953552,0.9945206130127209,-0.29754638671875,-0.2288818359375,-0.3566741943359375,0.5178196867411423
1782295299.717286,-0.02880859375,-0.10888671875,0.9824218153953552,0.988857358752363,-0.1125335693359375,-0.3490447998046875,-0.4177093505859375,0.555857156169736
1782295299.727892,-0.0292968712747097,-0.12548828125,0.9926757216453552,1.0010048470120876,-0.2346038818359375,-0.4711151123046875,-0.2346038818359375,0.5762181980698279
1782295299.738498,-0.0229492150247097,-0.1181640625,0.9814452528953552,0.9887993712414981,-0.2346038818359375,-0.4100799560546875,-0.6618499755859375,0.8131727626485107
1782295299.746506,-0.0278320275247097,-0.11865234375,0.9824218153953552,0.9899523341041273,-0.1125335693359375,-0.8373260498046875,-0.2956390380859375,0.8950872352734043
1782295299.754514,-0.0317382775247097,-0.1142578125,0.9838866591453552,0.9910071261205587,-0.0514984130859375,-0.7152557373046875,-0.2346038818359375,0.7545076790001096
1782295299.762522,-0.0263671837747097,-0.111328125,0.9819335341453552,0.9885760695441764,0.1316070556640625,-0.7762908935546875,-0.1735687255859375,0.8062717104165477
1782295299.77053,-0.0253906212747097,-0.11767578125,0.9995116591453552,1.0067352332709005,-0.0514984130859375,-0.8373260498046875,0.1316070556640625,0.8491686624766929
1782295299.781189,-0.0229492150247097,-0.11767578125,0.9877929091453552,0.9950422540379339,-0.48065185546875,-0.591278076171875,0.0705718994140625,0.7652557497425121
1782295299.791848,-0.011718746274709702,-0.119140625,0.9990233778953552,1.0061707246392568,-0.4177093505859375,-0.0438690185546875,0.1316070556640625,0.4401431692715915
1782295299.802507,-0.012695308774709702,-0.1220703125,0.9853515028953552,0.9929652140517653,-0.5397796630859375,0.3833770751953125,-0.3566741943359375,0.752034937600422
1782295299.813174,-0.0166015587747097,-0.10888671875,0.9882811903953552,0.9944001410715668,-0.9059906005859375,0.4444122314453125,-0.6008148193359375,1.1744358845598788
1782295299.823842,-0.00732421875,-0.11474609375,0.9887694716453552,0.995432256996435,-1.0280609130859375,-0.1659393310546875,-0.5397796630859375,1.1729480752732138
1782295299.83451,-0.014648433774709702,-0.11279296875,0.9858397841453552,0.9923794185770134,-1.026153564453125,-0.4119873046875,-1.1501312255859375,1.5954706243398327
1782295299.845178,-0.0229492150247097,-0.1123046875,0.9780272841453552,0.984721472213063,-1.0280609130859375,-0.1659393310546875,-1.1501312255859375,1.5515305149025524
1782295299.855845,-0.0278320275247097,-0.12109375,0.9912108778953552,0.998968128872628,-1.026153564453125,-0.4119873046875,-1.3942718505859375,1.7795276537328268
1782295299.866512,-0.0249023400247097,-0.1337890625,0.9921874403953552,1.0014766880270463,-1.09100341796875,-0.7171630859375,-1.2722015380859375,1.8229394129699203
1782295299.874533,-0.0170898400247097,-0.126953125,0.9951171278953552,1.0033280903124544,-0.66375732421875,-0.4119873046875,-1.2722015380859375,1.4929179743662848
1782295299.882552,-0.0253906212747097,-0.140625,0.9916991591453552,1.0019417630398089,-0.7228851318359375,-0.5931854248046875,-1.2111663818359375,1.530148968734657
1782295299.890571,-0.0224609337747097,-0.123046875,0.9838866591453552,0.9918054169228488,-0.8449554443359375,-0.1659393310546875,-0.7228851318359375,1.1242991053688869
1782295299.89859,-0.0258789025247097,-0.123046875,0.9936522841453552,1.0015763140322513,-0.7228851318359375,-0.2880096435546875,-0.7839202880859375,1.1045557870396125
1782295299.909315,-0.0200195275247097,-0.12109375,0.9931640028953552,1.0007193484781336,-0.4177093505859375,-0.4711151123046875,-0.2346038818359375,0.671914824945301
1782295299.920043,-0.0278320275247097,-0.11767578125,0.9931640028953552,1.000498349771782,-0.8449554443359375,-0.3490447998046875,-0.2346038818359375,0.9438331190184663
1782295299.930771,-0.0224609337747097,-0.12109375,0.9804686903953552,0.9881735893458584,-0.7228851318359375,-0.0438690185546875,0.0095367431640625,0.7242778155435865
1782295299.941372,-0.0161132775247097,-0.11669921875,0.9814452528953552,0.988490328632646,-1.0280609130859375,-0.1659393310546875,-0.1735687255859375,1.0557325443063197
1782295299.951974,-0.02392578125,-0.1181640625,1.0009765625,1.008210924037844,-1.2111663818359375,-0.1659393310546875,-0.4177093505859375,1.2918749814310047
1782295299.962576,-0.0126953125,-0.1103515625,0.9931640028953552,0.9993564804176682,-1.2111663818359375,0.2002716064453125,-0.5397796630859375,1.341042432408054
1782295299.973249,-0.0302734337747097,-0.13037109375,0.9897460341453552,0.9987543817098085,-0.9670257568359375,0.2002716064453125,-0.6008148193359375,1.1559524115922675
1782295299.983923,-0.0205078087747097,-0.11572265625,0.9960936903953552,1.0030029628250026,-1.0890960693359375,-0.0438690185546875,-1.0280609130859375,1.498320386314967
1782295299.994597,-0.015136715024709702,-0.13818359375,0.9716796278953552,0.981572781300633,-1.209259033203125,0.0762939453125,-0.9670257568359375,1.5502473963399588
1782295300.005253,-0.0209960900247097,-0.11865234375,0.9965819716453552,1.0038400473592581,-1.09100341796875,0.2593994140625,-1.3942718505859375,1.7892932983085243
1782295300.01591,-0.011230465024709702,-0.1220703125,1.00341796875,1.0108782837458201,-0.9059906005859375,0.0171661376953125,-1.6384124755859375,1.8723004793005535
1782295300.026567,-0.0214843712747097,-0.1298828125,1.01123046875,1.0197637883943147,-0.66375732421875,-0.0457763671875,-1.4553070068359375,1.6001836598942931
1782295300.034605,-0.0219726525247097,-0.11767578125,1.00146484375,1.0085941801433227,-0.78582763671875,-0.2288818359375,-1.5773773193359375,1.7770850224478638
1782295300.042641,-0.0278320275247097,-0.1279296875,0.9770507216453552,0.9857833125832944,-0.60272216796875,-0.2288818359375,-1.2111663818359375,1.3720732163673435
1782295300.050677,-0.0214843712747097,-0.1181640625,0.9897460341453552,0.9970062868317492,-1.0280609130859375,-0.1659393310546875,-0.9059906005859375,1.3803130336833151
1782295300.058713,-0.0283203087747097,-0.13330078125,0.9916991591453552,1.0010186613747816,-0.6008148193359375,0.1392364501953125,-0.6618499755859375,0.9046605033822207
1782295300.066699,-0.0273437462747097,-0.1279296875,1.00244140625,1.0109413723696645,-0.537872314453125,0.0762939453125,-0.9059906005859375,1.0563836240195017
1782295300.074685,-0.0239257775247097,-0.12255859375,0.9868163466453552,0.9946856557418656,-0.1125335693359375,0.3223419189453125,-0.4787445068359375,0.5880173634871828
1782295300.082671,-0.0283203087747097,-0.13330078125,0.9750975966453552,0.9845742537536227,-0.2346038818359375,0.5054473876953125,-0.4177093505859375,0.6964173638468757
1782295300.090657,-0.0200195275247097,-0.13037109375,0.9941405653953552,1.002852365671279,-0.0514984130859375,0.3223419189453125,-0.2346038818359375,0.4019892792503387
1782295300.101693,-0.014648433774709702,-0.1259765625,0.9990233778953552,1.007041399592298,-0.0514984130859375,-0.1049041748046875,-0.2956390380859375,0.3178984323368089
1782295300.112729,-0.0224609337747097,-0.11767578125,0.9936522841453552,1.0008481127654243,0.06866455078125,-0.2288818359375,0.0705718994140625,0.2491628149283518
1782295300.123765,-0.020019523799419403,-0.13916015625,0.9843749403953552,0.9943642962712604,0.5588531494140625,-0.1659393310546875,0.0095367431640625,0.5830468709041075
1782295300.134007,-0.0224609337747097,-0.134765625,0.9858397841453552,0.9952619490523251,0.0705718994140625,-0.0438690185546875,-0.2956390380859375,0.30709497654022033
1782295300.144251,-0.0209960900247097,-0.1171875,0.9985350966453552,1.0056073215649957,0.2536773681640625,-0.2269744873046875,0.0095367431640625,0.34052984373773815
1782295300.154495,-0.0244140587747097,-0.13134765625,1.0009765625,1.0098526287248746,-0.0514984130859375,-0.2269744873046875,-0.1125335693359375,0.25852138918294915
1782295300.165428,-0.0307617150247097,-0.119140625,0.9775390028953552,0.9852528984064434,-0.29754638671875,-0.2288818359375,-0.4177093505859375,0.5616064891349015
1782295300.176359,-0.0039062462747097015,-0.12255859375,0.9941405653953552,1.0016742641330727,-0.23651123046875,0.0762939453125,-0.3566741943359375,0.4347123291722689
1782295300.18729,-0.0400390587747097,-0.126953125,0.9926757216453552,1.0015614362179472,-0.0514984130859375,-0.1049041748046875,-0.2346038818359375,0.26209912974733973
1782295300.195164,-0.0214843712747097,-0.12353515625,0.9916991591453552,0.9995947855448157,-0.17547607421875,0.0762939453125,-0.0514984130859375,0.1981532368268075
1782295300.203041,-0.0219726525247097,-0.13916015625,0.9985350966453552,1.0084248538086737,0.00762939453125,0.3204345703125,0.1316070556640625,0.34649233557588777
1782295300.210918,-0.009765621274709702,-0.11669921875,0.9887694716453552,0.9956802413795186,0.1926422119140625,0.3833770751953125,0.3147125244140625,0.5321024117775889
1782295300.218795,-0.013183590024709702,-0.13037109375,0.9868163466453552,0.9954782424232067,0.4367828369140625,0.3223419189453125,0.3147125244140625,0.6274771169971977
1782295300.229369,-0.015624996274709702,-0.1162109375,0.9868163466453552,0.993758333051703,0.31280517578125,0.4425048828125,0.1926422119140625,0.575124917839234
1782295300.239944,-0.014648430049419403,-0.10498046875,0.9868163466453552,0.9924928097111678,0.2536773681640625,0.5054473876953125,0.0705718994140625,0.5699207504851612
1782295300.250517,-0.01904296875,-0.1206054612994194,0.9858397841453552,0.9933722323267445,0.31280517578125,0.1373291015625,0.0705718994140625,0.34883628411965795
1782295300.258521,-0.0200195275247097,-0.1259765625,0.9829100966453552,0.991152427161943,0.1316070556640625,0.1392364501953125,0.2536773681640625,0.3178984323368089
1782295300.266528,-0.0126953125,-0.125,0.9770507216453552,0.9850960783736691,-0.0514984130859375,0.2613067626953125,0.3757476806640625,0.4605644692169561
1782295300.274535,-0.0205078087747097,-0.119140625,0.9765624403953552,0.984016899619647,0.49591064453125,0.2593994140625,0.1926422119140625,0.5918838105460485
1782295300.282542,-0.0175781212747097,-0.10693359375,0.9916991591453552,0.9976026293416849,0.1316070556640625,0.3833770751953125,0.0705718994140625,0.41143503967550515
1782295300.293189,-0.0297851525247097,-0.13134765625,0.9829100966453552,0.9920945621263478,0.31280517578125,0.5035400390625,0.4367828369140625,0.736327980968603
1782295300.303836,-0.0263671837747097,-0.11962890625,0.9965819716453552,1.0040826309618767,0.2536773681640625,-0.0438690185546875,0.2536773681640625,0.361426209655916
1782295300.314483,-0.0185546875,-0.1240234375,0.9838866591453552,0.9918462822039247,0.31280517578125,0.4425048828125,0.3147125244140625,0.6266590957861499
1782295300.325178,-0.0229492150247097,-0.12353515625,0.9946288466453552,1.0025338617119284,-0.11444091796875,0.0762939453125,0.3757476806640625,0.4001297406108414
1782295300.335875,-0.0161132775247097,-0.1279296875,0.9873046278953552,0.9956887419871844,0.00762939453125,-0.2288818359375,0.4367828369140625,0.49317780678547435
1782295300.346572,-0.0278320275247097,-0.13134765625,0.9916991591453552,1.0007467465888205,-0.2346038818359375,-0.1659393310546875,0.4367828369140625,0.5228327548901888
1782295300.357476,-0.0180664025247097,-0.123046875,0.9902343153953552,0.9980134907574939,0.1316070556640625,-0.3490447998046875,0.5588531494140625,0.671914824945301
1782295300.368381,-0.0185546875,-0.1337890625,1.00390625,1.0129518983949406,0.1316070556640625,-0.4711151123046875,0.6198883056640625,0.7896400304198643
1782295300.379286,-0.0317382775247097,-0.12744140625,0.9824218153953552,0.991161567884832,-0.2346038818359375,-0.4100799560546875,0.6198883056640625,0.7794010926534342
1782295300.390072,-0.0244140587747097,-0.12060546875,0.9902343153953552,0.9978505523096983,0.06866455078125,-0.2288818359375,0.8029937744140625,0.837795152232247
1782295300.40086,-0.0317382775247097,-0.12939453125,0.9882811903953552,0.9972211260632734,0.0095367431640625,-0.2880096435546875,0.9860992431640625,1.0273423098555867
1782295300.411648,-0.025878898799419403,-0.115234375,0.9790038466453552,0.9861020283576712,-0.17547607421875,-0.102996826171875,0.8029937744140625,0.82837141462779
1782295300.419379,-0.010253902524709702,-0.13330078125,0.9853515028953552,0.9943801210085517,0.06866455078125,-0.2288818359375,0.5588531494140625,0.6077981227069791
1782295300.427112,-0.015136711299419403,-0.1201171875,0.9897460341453552,0.9971230971491588,0.2536773681640625,-0.2269744873046875,0.6198883056640625,0.7071995026192632
1782295300.434845,-0.0219726525247097,-0.12646484375,0.9946288466453552,1.002877209204972,0.1926422119140625,-0.2880096435546875,0.9250640869140625,0.9878279918537382
1782295300.442578,-0.0209960900247097,-0.13427734375,0.9814452528953552,0.9908107918627598,0.2536773681640625,-0.2269744873046875,0.8029937744140625,0.8721631881440614
1782295300.45323,-0.0263671837747097,-0.1259765625,0.9936522841453552,1.0019531847680347,0.2536773681640625,-0.1049041748046875,1.0471343994140625,1.082519073017352
1782295300.463882,-0.01416015625,-0.12841796875,0.9785155653953552,0.9870077995861493,0.49591064453125,-0.1678466796875,0.8640289306640625,1.0102701956734155
1782295300.474535,-0.0219726525247097,-0.1337890625,0.9824218153953552,0.9917332978519506,0.2536773681640625,-0.2269744873046875,0.9250640869140625,0.985704413048871
1782295300.485331,-0.0175781212747097,-0.11669921875,0.9897460341453552,0.9967571971703376,0.4978179931640625,0.0171661376953125,0.5588531494140625,0.7486215821169501
1782295300.49613,-0.0234375,-0.12939453125,0.9892577528953552,0.9979594995726154,0.37384033203125,-0.0457763671875,0.8029937744140625,0.8869335214061211
1782295300.506929,-0.012695308774709702,-0.123046875,0.9887694716453552,0.996477181058345,0.4367828369140625,0.1392364501953125,0.8029937744140625,0.924643194661287
1782295300.514824,-0.0170898400247097,-0.12158203125,0.9853515028953552,0.9929712167092667,0.31280517578125,0.1373291015625,0.6198883056640625,0.7077908388998577
1782295300.522718,-0.01416015625,-0.1210937425494194,0.9897460341453552,0.9972268631640987,0.4978179931640625,0.2002716064453125,0.3757476806640625,0.6550708283769802
1782295300.530612,-0.020507805049419403,-0.125,0.9970702528953552,1.0050844040560736,0.6198883056640625,0.2002716064453125,0.5588531494140625,0.8583047654867499
1782295300.538506,-0.015624996274709702,-0.123046875,0.9853515028953552,0.9931275135721422,0.3757476806640625,0.6275177001953125,0.3147125244140625,0.7962466681914018
1782295300.549191,-0.0263671837747097,-0.11572265625,0.9819335341453552,0.9890805968317002,0.0705718994140625,0.6275177001953125,0.0705718994140625,0.635404792264137
1782295300.559876,-0.01904296875,-0.1201171875,0.9877929091453552,0.9952515283834371,0.0705718994140625,0.1392364501953125,0.0705718994140625,0.17131133948693777
1782295300.570561,-0.0244140587747097,-0.12548828125,0.9848632216453552,0.9931258330879336,0.1316070556640625,0.1392364501953125,-0.0514984130859375,0.19839176574123546
1782295300.578553,-0.014648430049419403,-0.12451171875,0.9848632216453552,0.9928108127728363,0.4367828369140625,0.1392364501953125,-0.2346038818359375,0.5149805987201642
1782295300.586545,-0.0312499962747097,-0.1162109375,0.9882811903953552,0.9955808633913463,0.5588531494140625,0.2002716064453125,-0.2956390380859375,0.6631952953682505
1782295300.594537,-0.0258789025247097,-0.1259765625,0.9750975966453552,0.9835421368089664,-0.1125335693359375,-0.1049041748046875,-0.1125335693359375,0.19061084530116573
1782295300.602529,-0.0249023400247097,-0.1171875,0.9941405653953552,1.0013333613035935,0.00762939453125,0.568389892578125,-0.4177093505859375,0.7054122051770947
1782295300.613185,-0.01904296875,-0.1181640625,0.9868163466453552,0.99404822937914,0.00762939453125,0.4425048828125,0.0705718994140625,0.4481619929899527
1782295300.623841,-0.015136715024709702,-0.12548828125,0.9790038466453552,0.9871296574509453,0.133514404296875,0.0762939453125,-0.4177093505859375,0.4451156746431446
1782295300.634497,-0.017578125,-0.1201171875,0.9848632216453552,0.9923168317433166,-0.1125335693359375,-0.3490447998046875,-0.0514984130859375,0.37033520363118394
1782295300.645212,-0.0258789025247097,-0.1162109375,0.9775390028953552,0.9847625103405174,0.0705718994140625,-0.3490447998046875,-0.2956390380859375,0.46283377804345843
1782295300.655927,-0.0249023400247097,-0.12109375,0.9877929091453552,0.9954991984856707,0.0705718994140625,-0.2880096435546875,-0.2346038818359375,0.3781123234435731
1782295300.666642,-0.0180664025247097,-0.1181640625,0.9790038466453552,0.9862746434503378,0.133514404296875,-0.4119873046875,0.3147125244140625,0.5353537226932229
1782295300.677267,-0.0268554650247097,-0.13232421875,0.9819335341453552,0.9911732342777819,0.49591064453125,-0.6561279296875,-0.1735687255859375,0.8405696461191846
1782295300.687893,-0.0268554650247097,-0.12548828125,0.9951171278953552,1.003357674492737,0.7419586181640625,-0.7152557373046875,0.3757476806640625,1.0969410560005581
1782295300.698519,-0.014648433774709702,-0.1171875,0.9916991591453552,0.9987065179610608,0.438690185546875,-0.4119873046875,0.0095367431640625,0.6018916576835069
1782295300.70653,-0.0170898400247097,-0.11083984375,0.9819335341453552,0.988317256286554,0.133514404296875,-0.2288818359375,0.4367828369140625,0.510873993857161
1782295300.714542,-0.011718746274709702,-0.107421875,0.9799804091453552,0.9859200731050486,0.0705718994140625,0.3833770751953125,0.1316070556640625,0.41143503967550515
1782295300.722554,-0.00830078125,-0.11474609375,0.9936522841453552,1.0002901732934928,-0.2956390380859375,0.5664825439453125,0.0095367431640625,0.6390585754884357
1782295300.730567,-0.0205078087747097,-0.1025390625,0.9868163466453552,0.99234133823277,0.0705718994140625,0.8106231689453125,-0.7228851318359375,1.0884177639341017
1782295300.741241,-0.0200195275247097,-0.11181640625,0.9921874403953552,0.9986689176435122,-0.3566741943359375,0.8106231689453125,-0.8449554443359375,1.224040892229125
1782295300.751916,-0.02685546875,-0.125,0.9916991591453552,0.9999067148746361,0.1316070556640625,0.4444122314453125,-0.9059906005859375,1.0176647861200825
1782295300.762591,-0.0205078087747097,-0.10791015625,0.9941405653953552,1.0001902997966117,-0.0514984130859375,0.7495880126953125,-1.2111663818359375,1.4252923488942308
1782295300.773229,-0.0200195275247097,-0.11279296875,0.9858397841453552,0.9924732315208867,-0.48065185546875,0.0762939453125,-1.4553070068359375,1.5345245049860476
1782295300.783867,-0.0249023400247097,-0.13525390625,0.9824218153953552,0.9920011940815875,-0.1125335693359375,-0.2880096435546875,-1.1501312255859375,1.1909723737668287
1782295300.794505,-0.03271484375,-0.134765625,0.9882811903953552,0.9979637999308832,-0.4787445068359375,-0.2880096435546875,-1.1501312255859375,1.2786507316988067
1782295300.80289,-0.0346679650247097,-0.13232421875,0.9726561903953552,0.982227891775202,-0.41961669921875,-0.4119873046875,-1.1501312255859375,1.291748253164958
1782295300.811277,-0.0336914025247097,-0.13134765625,0.9868163466453552,0.9960892627736412,-0.17547607421875,-0.5340576171875,-0.5397796630859375,0.7793404107194639
1782295300.819664,-0.0341796800494194,-0.1298828125,0.9902343153953552,0.9993006529056702,-0.1125335693359375,-0.6542205810546875,-0.2346038818359375,0.70406487930837
1782295300.828051,-0.0161132775247097,-0.1396484375,0.9780272841453552,0.9880782824966446,0.0095367431640625,-0.7762908935546875,0.3757476806640625,0.8624991712520858
1782295300.838266,-0.012695308774709702,-0.1220703125,0.9892577528953552,0.9968416292081208,-0.17547607421875,-0.591278076171875,0.6198883056640625,0.8744501858218111
1782295300.848481,-0.0244140587747097,-0.12255859375,0.9824218153953552,0.9903379617749377,0.2536773681640625,-0.5931854248046875,0.6809234619140625,0.9380180788792903
1782295300.858696,-0.013671875,-0.12353515625,0.9863280653953552,0.9941282148607752,0.2536773681640625,-0.6542205810546875,1.2302398681640625,1.4162792482467954
1782295300.866741,-0.013183590024709702,-0.11669921875,0.9926757216453552,0.9995987210110499,0.31280517578125,-0.1678466796875,0.8640289306640625,0.9341121875353839
1782295300.874789,-0.014160152524709702,-0.126953125,0.9882811903953552,0.9965025424734495,0.5588531494140625,-0.1659393310546875,0.5588531494140625,0.8075701497770396
1782295300.882837,-0.008300777524709702,-0.1162109375,0.9843749403953552,0.9912456346337687,0.3757476806640625,0.2002716064453125,0.6809234619140625,0.8030889096841272
1782295300.890885,-0.0175781212747097,-0.11865234375,0.9873046278953552,0.9945641242717849,0.49591064453125,-0.0457763671875,0.3757476806640625,0.623866301924304
1782295300.901462,-0.0175781212747097,-0.12158203125,0.9843749403953552,0.9920106874166142,0.4367828369140625,0.2002716064453125,0.4367828369140625,0.649359076007704
1782295300.91204,-0.0258789025247097,-0.11474609375,0.9863280653953552,0.9933173894648736,0.31280517578125,0.0152587890625,0.3757476806640625,0.489148472514854
1782295300.922616,-0.0200195275247097,-0.12353515625,0.9858397841453552,0.9937513755038456,0.0705718994140625,0.4444122314453125,0.1926422119140625,0.48948303980449936
1782295300.93323,-0.0234374962747097,-0.12109375,0.9941405653953552,1.0017626846141185,-0.0514984130859375,0.4444122314453125,0.4367828369140625,0.6252468029756477
1782295300.943844,-0.0258789025247097,-0.12841796875,0.9999999403953552,1.0085438875351302,-0.2346038818359375,0.0171661376953125,0.4978179931640625,0.5505964147846947
1782295300.954458,-0.0209960900247097,-0.1201171875,0.9873046278953552,0.9948062136882849,-0.0514984130859375,-0.0438690185546875,0.8029937744140625,0.8058384323715665
1782295300.962479,-0.0380859375,-0.11962890625,0.9785155653953552,0.986536530274889,-0.3566741943359375,-0.5321502685546875,0.9860992431640625,1.1759218114299748
1782295300.970498,-0.0200195275247097,-0.126953125,0.9887694716453552,0.9970872306310081,-0.7228851318359375,-0.1659393310546875,1.2302398681640625,1.4365197209369134
1782295300.978517,-0.0268554650247097,-0.1220703125,0.9907225966453552,0.9985758061856177,-0.29754638671875,0.0762939453125,1.2302398681640625,1.2680081827658134
1782295300.986536,-0.0356445275247097,-0.11328125,0.9892577528953552,0.9963604145125347,-0.3566741943359375,0.5664825439453125,1.7185211181640625,1.8442976405872786
1782295300.997188,-0.0190429650247097,-0.11181640625,0.9931640028953552,0.9996200677611081,-0.48065185546875,0.3204345703125,1.4743804931640625,1.583509506962182
1782295301.00784,-0.0209960900247097,-0.12158203125,0.9863280653953552,0.9940151300185254,-0.4177093505859375,0.5664825439453125,1.2912750244140625,1.470637536185316
1782295301.018492,-0.0166015587747097,-0.11474609375,0.9956054091453552,1.002333481683678,-0.4177093505859375,0.3833770751953125,1.1692047119140625,1.2994224646797068
1782295301.029162,-0.0312499962747097,-0.126953125,0.9897460341453552,0.998344064098592,-0.2346038818359375,0.3223419189453125,1.4133453369140625,1.468498667162678
1782295301.03983,-0.0273437462747097,-0.12548828125,0.9907225966453552,0.9990126389066006,-0.41961669921875,0.0762939453125,1.1081695556640625,1.1874083983429085
1782295301.050498,-0.0214843712747097,-0.12158203125,0.9824218153953552,0.9901496815616571,-0.48065185546875,-0.2288818359375,0.8640289306640625,1.0148690033753893
1782295301.058513,-0.0229492150247097,-0.12158203125,0.9912108778953552,0.998903329282272,-0.2346038818359375,-0.4100799560546875,0.7419586181640625,0.8796062430418682
1782295301.06653,-0.0185546837747097,-0.11083984375,0.9794921278953552,0.9859181385193574,-0.4177093505859375,-0.5931854248046875,0.3757476806640625,0.8170289892605191
1782295301.074547,-0.0234374962747097,-0.11328125,0.9848632216453552,0.9916337646444163,-0.4787445068359375,-0.1659393310546875,0.6809234619140625,0.8487572829740514
1782295301.082564,-0.0351562462747097,-0.12890625,0.9863280653953552,0.9953370461947725,-0.29754638671875,-0.2288818359375,0.6198883056640625,0.7246945967582253
1782295301.093212,-0.0239257775247097,-0.1171875,0.9877929091453552,0.9950076302944897,-0.3566741943359375,-0.4711151123046875,0.5588531494140625,0.8133159119045101
1782295301.10386,-0.0253906212747097,-0.11865234375,0.9848632216453552,0.9923097438178021,-0.1125335693359375,-0.1049041748046875,0.4978179931640625,0.5210484089188194
1782295301.114508,-0.0307617150247097,-0.1279296875,0.9736327528953552,0.9824830917454493,-0.049591064453125,-0.4119873046875,0.1926422119140625,0.45749736032944227
1782295301.125192,-0.0161132775247097,-0.13037109375,0.9960936903953552,1.0047183186563273,-0.4787445068359375,-0.2880096435546875,0.7419586181640625,0.9287886996911667
1782295301.135878,-0.014648433774709702,-0.13134765625,0.9877929091453552,0.9965950104090749,-0.3566741943359375,-0.2880096435546875,0.4367828369140625,0.6332024023236051
1782295301.146564,-0.01806640625,-0.125,0.9838866591453552,0.9919598545702333,-0.049591064453125,-0.4119873046875,0.1926422119140625,0.45749736032944227
1782295301.154563,-0.0322265625,-0.125,0.9912108778953552,0.9995811901934966,0.0705718994140625,-0.1659393310546875,0.3757476806640625,0.41677640780424224
1782295301.162562,-0.0405273400247097,-0.1337890625,0.9877929091453552,0.9976356097754085,0.0095367431640625,0.0171661376953125,-0.0514984130859375,0.05511544523925739
1782295301.170561,-0.0166015587747097,-0.109375,0.9882811903953552,0.9944537262577935,0.1316070556640625,-0.2880096435546875,0.0095367431640625,0.3167979187924679
1782295301.17856,-0.02392578125,-0.13330078125,0.9882811903953552,0.9975175449983542,0.06866455078125,-0.2288818359375,-0.0514984130859375,0.24444590793564408
1782295301.189213,-0.0322265587747097,-0.111328125,0.9838866591453552,0.9906893865135953,0.00762939453125,-0.1678466796875,-0.4177093505859375,0.45023529083131336
1782295301.199866,-0.0166015587747097,-0.11279296875,0.9877929091453552,0.9943503894055821,0.1926422119140625,-0.4711151123046875,0.0095367431640625,0.5090691704701613
1782295301.210519,-0.0224609337747097,-0.11572265625,0.9902343153953552,0.9972262662515942,0.19073486328125,-0.4119873046875,-0.1735687255859375,0.4860446788065008
1782295301.221201,-0.0209960900247097,-0.11669921875,0.9814452528953552,0.9885819783326084,0.0095367431640625,-0.2880096435546875,-0.6008148193359375,0.6663474704569311
1782295301.231886,-0.0229492150247097,-0.12548828125,0.9912108778953552,0.999386301516791,0.0705718994140625,-0.1049041748046875,-0.1735687255859375,0.2147356080855885
1782295301.242571,-0.024902336299419403,-0.12939453125,0.9833983778953552,0.9921872004404171,0.0705718994140625,-0.1659393310546875,-0.4177093505859375,0.45496962112289585
1782295301.253369,-0.0224609337747097,-0.12841796875,0.9902343153953552,0.9987790885027659,-0.0514984130859375,-0.0438690185546875,-0.6618499755859375,0.6652984048698956
1782295301.264167,-0.0200195275247097,-0.11279296875,0.9877929091453552,0.994413327867037,0.2536773681640625,-0.0438690185546875,-0.6008148193359375,0.6536475694449357
1782295301.274965,-0.0317382775247097,-0.12353515625,0.9897460341453552,0.9979305913721686,-0.11444091796875,-0.0457763671875,-0.4177093505859375,0.43551498374377506
1782295301.285519,-0.0244140587747097,-0.123046875,0.9824218153953552,0.9903985072069859,-0.0514984130859375,-0.4711151123046875,-0.3566741943359375,0.5931424925744389
1782295301.296075,-0.03271484375,-0.134765625,0.9902343153953552,0.9998980118340747,0.00762939453125,-0.0457763671875,-0.4787445068359375,0.48098855108971494
1782295301.306631,-0.0273437462747097,-0.11279296875,0.9838866591453552,0.9907082781040959,0.2536773681640625,-0.2269744873046875,-0.4177093505859375,0.5388420237628063
1782295301.314606,-0.0195312462747097,-0.12109375,0.9931640028953552,1.0007096994219806,0.1926422119140625,-0.4711151123046875,-0.2346038818359375,0.5604457620729159
1782295301.322583,-0.0126953125,-0.115234375,0.9853515028953552,0.9921480314949219,0.3757476806640625,-0.2880096435546875,-0.3566741943359375,0.5927498251455757
1782295301.33056,-0.0249023400247097,-0.119140625,0.9887694716453552,0.9962327454575722,0.2536773681640625,-0.2880096435546875,-0.5397796630859375,0.6623170287561023
1782295301.338537,-0.02392578125,-0.1298828125,0.9755858778953552,0.9844845316916787,-0.1125335693359375,-0.5321502685546875,0.0705718994140625,0.5484779900207672
1782295301.349196,-0.0200195275247097,-0.11181640625,0.9902343153953552,0.9967284934100588,0.1316070556640625,0.0171661376953125,-0.1125335693359375,0.17400832627039525
1782295301.359855,-0.013671875,-0.12939453125,0.9965819716453552,1.0050400445215935,0.1926422119140625,0.0171661376953125,-0.1125335693359375,0.2237621556966308
1782295301.370514,-0.0224609337747097,-0.10693359375,0.9814452528953552,0.9875090234773299,0.0705718994140625,-0.0438690185546875,-0.0514984130859375,0.09775975821487044
1782295301.378533,-0.015136715024709702,-0.1279296875,0.9970702528953552,1.0053577543811927,0.1316070556640625,0.1392364501953125,0.3147125244140625,0.3684442687661558
1782295301.386555,-0.0039062462747097015,-0.142578125,0.9887694716453552,0.9990039281936329,0.0095367431640625,0.2002716064453125,0.2536773681640625,0.3233448204889151
1782295301.394578,-0.02783203125,-0.1201171875,0.9868163466453552,0.9944894482612155,0.0705718994140625,-0.1049041748046875,0.3147125244140625,0.33915962598964056
1782295301.402599,-0.0258789025247097,-0.12255859375,0.9868163466453552,0.994734551779693,0.1316070556640625,-0.0438690185546875,0.1316070556640625,0.19122061863219356
1782295301.413224,-0.0175781212747097,-0.11376953125,0.9941405653953552,1.0007836731047273,0.1316070556640625,0.0171661376953125,0.4367828369140625,0.4565022891581537
1782295301.423847,-0.0249023400247097,-0.12890625,1.001953125,1.0105181901010167,-0.1125335693359375,0.2002716064453125,0.4367828369140625,0.4935096424573373
1782295301.434471,-0.0229492150247097,-0.12841796875,0.9863280653953552,0.9949175311324404,0.1316070556640625,0.1392364501953125,0.2536773681640625,0.3178984323368089
1782295301.445158,-0.0317382775247097,-0.1171875,0.9931640028953552,1.0005573272249875,0.19073486328125,0.4425048828125,0.1926422119140625,0.5189425605931393
1782295301.455846,-0.0297851525247097,-0.1318359375,0.9995116591453552,1.0086086587447705,-0.4177093505859375,0.3223419189453125,0.2536773681640625,0.5854379739946132
1782295301.466534,-0.010253902524709702,-0.13427734375,0.9882811903953552,0.9974142864681668,-0.17547607421875,0.0762939453125,0.3147125244140625,0.3683158858067934
1782295301.474578,-0.0258789025247097,-0.1240234375,0.9912108778953552,0.9992750047425787,0.0095367431640625,0.0171661376953125,0.1926422119140625,0.1936405111661666
1782295301.482625,-0.01806640625,-0.13427734375,0.9941405653953552,1.0033305855220114,-0.0514984130859375,0.2613067626953125,0.2536773681640625,0.3678117968463213
1782295301.490672,-0.0273437462747097,-0.12548828125,0.9970702528953552,1.0053079520227732,-0.29754638671875,0.1373291015625,0.4367828369140625,0.5460516285188095
1782295301.498719,-0.010253902524709702,-0.11865234375,0.9941405653953552,1.0012487128376,0.00762939453125,-0.1678466796875,0.2536773681640625,0.30427441999234345
1782295301.509327,-0.0278320275247097,-0.10888671875,0.9975585341453552,1.003869497655202,-0.29754638671875,0.0762939453125,-0.0514984130859375,0.31145899391589343
1782295301.519935,-0.0253906212747097,-0.130859375,0.9785155653953552,0.9875533258488364,-0.2956390380859375,0.0171661376953125,0.1316070556640625,0.32406408968646383
1782295301.530543,-0.0263671837747097,-0.12548828125,0.9853515028953552,0.9936599626478988,-0.48065185546875,0.3204345703125,0.0095367431640625,0.577750352217189
1782295301.5412,-0.015136715024709702,-0.12353515625,0.9980468153953552,1.0057770631170018,-0.0514984130859375,-0.4711151123046875,0.3757476806640625,0.6048039807380987
1782295301.551858,-0.0283203087747097,-0.1318359375,0.9780272841453552,0.9872791514249343,-0.1125335693359375,-0.7762908935546875,0.4978179931640625,0.9290393479079968
1782295301.562516,-0.0205078087747097,-0.126953125,0.9912108778953552,0.9995182192567009,0.31280517578125,-0.591278076171875,0.6198883056640625,0.911985938957457
1782295301.573236,-0.0180664025247097,-0.1279296875,0.9912108778953552,0.999595620389622,0.31280517578125,-0.4730224609375,0.8029937744140625,0.983054590699138
1782295301.583957,-0.015624996274709702,-0.12939453125,0.9863280653953552,0.9949020744839846,0.1316070556640625,-0.5321502685546875,0.8029937744140625,0.972267106905881
1782295301.594678,-0.0341796837747097,-0.12158203125,0.9921874403953552,1.000193160336593,0.4367828369140625,-0.7152557373046875,1.1081695556640625,1.3893918743359104
1782295301.602724,-0.0229492150247097,-0.1123046875,0.9775390028953552,0.9842365119656801,0.6809234619140625,-0.6542205810546875,1.1692047119140625,1.502897530779331
1782295301.610768,-0.0205078087747097,-0.13232421875,0.9838866591453552,0.9929568103058392,0.4367828369140625,-0.2880096435546875,1.1081695556640625,1.2254666725390293
1782295301.618812,-0.0258789025247097,-0.11572265625,0.9863280653953552,0.993430673651656,0.06866455078125,0.0762939453125,1.1081695556640625,1.1129130023169032
1782295301.626856,-0.00390625,-0.1240234375,0.9965819716453552,1.00427720179586,0.1926422119140625,0.5054473876953125,0.6809234619140625,0.8696233923510739
1782295301.635193,-0.014648433774709702,-0.12060546875,0.9887694716453552,0.996205462624199,0.0095367431640625,0.8716583251953125,0.1316070556640625,0.8815892481496347
1782295301.64353,-0.014648433774709702,-0.11376953125,0.9819335341453552,0.9886109185782262,-0.1125335693359375,0.3833770751953125,-0.0514984130859375,0.4028571366665464
1782295301.651867,-0.0205078087747097,-0.12451171875,0.9873046278953552,0.9953362078164367,-0.2346038818359375,0.2613067626953125,-0.2346038818359375,0.422325925057041
1782295301.660204,-0.0209960900247097,-0.11669921875,0.9921874403953552,0.9992474469977257,-0.17547607421875,0.4425048828125,-0.7839202880859375,0.9171332738532977
1782295301.670648,-0.013671875,-0.1201171875,0.9863280653953552,0.9937092690950758,-0.354766845703125,0.2593994140625,-0.7228851318359375,0.8459967403338939
1782295301.681092,-0.01904296875,-0.1337890625,0.9965819716453552,1.0057026270781966,-0.0514984130859375,-0.2269744873046875,-0.9670257568359375,0.9946397935040169
1782295301.691536,-0.0229492150247097,-0.1171875,0.9848632216453552,0.992076177506631,-0.29754638671875,-0.4119873046875,-0.8449554443359375,0.9860106968922784
1782295301.699289,-0.015624996274709702,-0.1240234375,0.9838866591453552,0.9917958013634205,-0.4177093505859375,-0.3490447998046875,-0.5397796630859375,0.7665999338108426
1782295301.707044,-0.0341796800494194,-0.11962890625,0.9980468153953552,1.0057717293002733,-0.41961669921875,-0.4119873046875,-0.3566741943359375,0.6877704518166653
1782295301.714799,-0.0312499962747097,-0.12548828125,0.9848632216453552,0.9933173895326289,-0.4177093505859375,-0.0438690185546875,0.0705718994140625,0.42589433588953224
1782295301.722554,-0.0419921837747097,-0.12060546875,0.9941405653953552,1.00230957610669,-0.3566741943359375,-0.1049041748046875,0.1316070556640625,0.39438785972340246
1782295301.733238,-0.0361328087747097,-0.1142578125,0.9829100966453552,0.9901882071983167,-0.4177093505859375,0.2002716064453125,0.4978179931640625,0.6800092442261402
1782295301.743922,-0.0273437462747097,-0.1328125,0.9892577528953552,0.9985077577466053,-0.2346038818359375,-0.1049041748046875,0.4978179931640625,0.5602380044069105
1782295301.754606,-0.0268554650247097,-0.13818359375,1.00341796875,1.0132440681265962,-0.0514984130859375,-0.5321502685546875,0.4978179931640625,0.7305195063727529
1782295301.76529,-0.0327148400247097,-0.1328125,0.9941405653953552,1.003506295286028,0.4367828369140625,-0.0438690185546875,0.3147125244140625,0.5401367516052948
1782295301.775976,-0.0185546875,-0.13525390625,0.9746093153953552,0.9841245923354976,0.1926422119140625,-0.4711151123046875,0.4367828369140625,0.6707009150699718
1782295301.786662,-0.0166015587747097,-0.13330078125,0.9819335341453552,0.9910792982979707,0.1926422119140625,-0.1659393310546875,0.0095367431640625,0.2544363041552778
1782295301.794899,-0.0263671837747097,-0.1328125,0.9833983778953552,0.9926765627250778,0.06866455078125,0.0762939453125,0.0705718994140625,0.12456315511517102
1782295301.803136,-0.0063476525247097015,-0.11572265625,0.9863280653953552,0.993113829552622,0.5588531494140625,-0.2880096435546875,-0.1735687255859375,0.6522212047243183
1782295301.811373,-0.0273437462747097,-0.1162109375,0.9960936903953552,1.0032224591287828,0.31280517578125,-0.102996826171875,-0.4787445068359375,0.5810780730870879
1782295301.81961,-0.0283203087747097,-0.123046875,0.9824218153953552,0.9905024970695763,0.301361083984375,-0.179290771484375,-0.5817413330078125,0.6792544900178478
1782295301.830041,-0.014648433774709702,-0.107421875,0.9692382216453552,0.975282915947377,0.240325927734375,0.186920166015625,-0.6999969482421875,0.7633422741818198
1782295301.840472,-0.0200195275247097,-0.1162109375,0.9858397841453552,0.9928674853577903,-0.125885009765625,0.125885009765625,-0.4558563232421875,0.4893864105257406
1782295301.850903,-0.00927734375,-0.11865234375,0.9829100966453552,0.9900892413675675,0.1201629638671875,0.2460479736328125,-0.4558563232421875,0.5317741349991046
1782295301.861465,-0.014648433774709702,-0.1181640625,0.9887694716453552,0.9959128427409654,-0.0057220458984375,-0.2422332763671875,-0.5817413330078125,0.6301846400211232
1782295301.872027,-0.0185546837747097,-0.12109375,0.9804686903953552,0.9880925186563376,-0.1888275146484375,-0.2422332763671875,-0.4558563232421875,0.5496706085536809
1782295301.882589,-0.0336913987994194,-0.1157226487994194,0.9868163466453552,0.9941495580669446,-0.370025634765625,-0.423431396484375,-0.4558563232421875,0.7238909485221496
1782295301.890596,-0.0214843712747097,-0.130859375,0.9946288466453552,1.0034302650476163,-0.6771087646484375,0.0019073486328125,0.0934600830078125,0.6835310558111953
1782295301.898605,-0.0068359337747097015,-0.11083984375,0.9819335341453552,0.9881931321519514,-0.370025634765625,0.064849853515625,0.0934600830078125,0.38711659871481735
1782295301.906614,-0.0185546837747097,-0.11767578125,0.9946288466453552,1.001737694390027,-0.1888275146484375,0.3719329833984375,-0.0934600830078125,0.4274631698097457
1782295301.914623,-0.00732421875,-0.125,0.9912108778953552,0.9990884088199495,-0.247955322265625,0.675201416015625,-0.1506805419921875,0.7349036806033934
1782295301.922608,-0.015624996274709702,-0.1328125,0.9985350966453552,1.007450068190669,0.118255615234375,0.431060791015625,-0.2117156982421875,0.4945920874495
1782295301.930593,-0.0161132775247097,-0.11865234375,0.9833983778953552,0.9906615900685624,0.057220458984375,0.186920166015625,-0.4558563232421875,0.496002335508188
1782295301.938578,-0.0068359337747097015,-0.1328125,0.9853515028953552,0.9942854089269124,0.118255615234375,-0.301361083984375,-0.4558563232421875,0.5591134776720946
1782295301.946563,-0.00927734375,-0.1210937425494194,0.9887694716453552,0.996200196571711,-0.125885009765625,-0.301361083984375,-0.6999969482421875,0.7724385193478538
1782295301.95721,-0.010253902524709702,-0.1220703125,0.9882811903953552,0.9958443728816738,-0.1277923583984375,-0.0591278076171875,-0.7648468017578125,0.7777002087294335
1782295301.967857,-0.015624996274709702,-0.12548828125,0.9912108778953552,0.9992449417924238,-0.125885009765625,-0.301361083984375,-0.5168914794921875,0.6114264797958554
1782295301.978504,-0.02880859375,-0.123046875,0.9921874403953552,1.0002031720602593,0.179290771484375,-0.118255615234375,-0.6999969482421875,0.7322057762830737
1782295301.986497,-0.009765621274709702,-0.12646484375,0.9873046278953552,0.9954190837668218,-0.247955322265625,0.003814697265625,-0.6389617919921875,0.6853966482125119
1782295301.994493,-0.0205078087747097,-0.11865234375,0.9882811903953552,0.9955896042985627,0.057220458984375,0.064849853515625,-0.4558563232421875,0.463987792799839
1782295302.002489,-0.010253902524709702,-0.12744140625,0.9799804091453552,0.988285412647916,0.057220458984375,0.064849853515625,-0.2765655517578125,0.2897726502734235
1782295302.010485,-0.0239257775247097,-0.1318359375,0.9907225966453552,0.9997421771388767,-0.125885009765625,0.186920166015625,-0.0286102294921875,0.22716674355766944
1782295302.02125,-0.0205078087747097,-0.1259765625,0.9921874403953552,1.0003632247330683,0.0553131103515625,-0.2422332763671875,0.0324249267578125,0.25057509100386627
1782295302.032015,-0.0312499962747097,-0.13525390625,0.9873046278953552,0.9970158522744956,0.118255615234375,0.186920166015625,0.0934600830078125,0.24012148199108832
1782295302.04278,-0.0258789025247097,-0.1357421875,0.9804686903953552,0.9901588316572001,-0.0057220458984375,0.0667572021484375,-0.0286102294921875,0.07285472585595809
1782295302.050751,-0.0244140587747097,-0.12646484375,0.9912108778953552,0.9995440997918239,-0.247955322265625,-0.118255615234375,0.0934600830078125,0.29017411926313774
1782295302.058722,-0.030761711299419403,-0.1201171875,0.9897460341453552,0.9974826483310061,0.1773834228515625,0.0667572021484375,-0.1506805419921875,0.24212812409194218
1782295302.066693,-0.0253906212747097,-0.12548828125,0.9824218153953552,0.9907293352598884,0.118255615234375,0.064849853515625,0.0324249267578125,0.1387129046293389
1782295302.074664,-0.0063476525247097015,-0.126953125,0.9868163466453552,0.994969291308192,-0.0057220458984375,0.0667572021484375,0.0324249267578125,0.07443548698840277
1782295302.085341,-0.019531242549419403,-0.1240234375,0.9868163466453552,0.9947712221869541,-0.0057220458984375,0.1239776611328125,-0.1506805419921875,0.1952122639699814
1782295302.096018,-0.0185546837747097,-0.10302734375,0.9843749403953552,0.9899257210157332,-0.064849853515625,0.003814697265625,0.0934600830078125,0.11381934164303355
1782295302.106695,-0.0273437462747097,-0.12060546875,0.9824218153953552,0.9901747234288746,-0.064849853515625,0.064849853515625,-0.0286102294921875,0.0960705586201708
1782295302.117316,-0.03173828125,-0.1201171875,0.9809569716453552,0.9887932227969812,-0.0057220458984375,-0.0591278076171875,-0.3948211669921875,0.3992650665259256
1782295302.127937,-0.0209960900247097,-0.12744140625,0.9887694716453552,0.9971696023651835,-0.1277923583984375,0.6122589111328125,-0.2765655517578125,0.6838716001894473
1782295302.138558,-0.0200195275247097,-0.11865234375,0.9887694716453552,0.996064369515101,-0.125885009765625,0.553131103515625,-0.5168914794921875,0.7674489265949409
1782295302.149207,-0.02734375,-0.12451171875,0.9863280653953552,0.9945320011727555,0.1201629638671875,0.2460479736328125,-0.3337860107421875,0.43173121752004906
1782295302.159855,-0.017578125,-0.13427734375,0.9887694716453552,0.9980002322549361,-0.1277923583984375,-0.0591278076171875,-0.3948211669921875,0.4191786473613877
1782295302.170503,-0.0292968712747097,-0.1328125,0.9912108778953552,1.0004981115828344,0.118255615234375,0.125885009765625,0.0324249267578125,0.17573503376789032
1782295302.178683,-0.0219726525247097,-0.1259765625,0.9931640028953552,1.0013628854742986,-0.1888275146484375,-0.2422332763671875,-0.2765655517578125,0.41330532888772603
1782295302.186864,-0.0263671837747097,-0.10595703125,0.9819335341453552,0.987985620508067,-0.064849853515625,0.064849853515625,-0.2117156982421875,0.2307261231074042
1782295302.195045,-0.0229492150247097,-0.1162109375,0.9965819716453552,1.0035971675295934,-0.125885009765625,-0.362396240234375,-0.2765655517578125,0.47293400706526234
1782295302.203226,-0.0205078087747097,-0.1337890625,0.9843749403953552,0.9936368082673508,-0.064849853515625,-0.545501708984375,0.1544952392578125,0.5706543585737346
1782295302.213771,-0.0214843712747097,-0.11376953125,0.9858397841453552,0.9926153154438404,-0.1888275146484375,-0.3643035888671875,0.0934600830078125,0.42084168313707454
1782295302.224316,-0.019531242549419403,-0.12939453125,0.9843749403953552,0.9930349628443556,-0.064849853515625,-0.057220458984375,0.0934600830078125,0.12733605751399626
1782295302.234861,-0.014648433774709702,-0.11767578125,0.9926757216453552,0.9997335917378073,0.118255615234375,-0.057220458984375,0.3948211669921875,0.4161037435134607
1782295302.245407,-0.02880859375,-0.1240234375,0.9790038466453552,0.9872488439444086,0.179290771484375,-0.179290771484375,0.5207061767578125,0.5791591180260076
1782295302.255955,-0.01416015625,-0.1181640625,0.9999999403953552,1.0070566699457595,0.057220458984375,-0.301361083984375,0.0934600830078125,0.3206672277961177
1782295302.266503,-0.0205078087747097,-0.1357421875,0.9858397841453552,0.9953524962001079,0.1201629638671875,-0.2422332763671875,0.3948211669921875,0.4785392898916473
1782295302.277188,-0.0190429650247097,-0.13134765625,0.9892577528953552,0.9981211063707992,-0.125885009765625,-0.179290771484375,0.1544952392578125,0.26806901233914116
1782295302.287871,-0.01416015625,-0.12841796875,0.9892577528953552,0.9976585520038748,-0.064849853515625,-0.118255615234375,0.0934600830078125,0.16408741923525327
1782295302.298554,-0.01708984375,-0.1201171875,0.9926757216453552,1.000062642956148,-0.064849853515625,-0.057220458984375,0.2765655517578125,0.2897726502734235
1782295302.306531,-0.0234375,-0.12451171875,0.9765624403953552,0.984747015483297,0.057220458984375,-0.118255615234375,-0.0286102294921875,0.13445116843091667
1782295302.314507,-0.0297851525247097,-0.126953125,0.9819335341453552,0.9905542472461432,0.118255615234375,0.125885009765625,0.2117156982421875,0.27323060425276124
1782295302.322483,-0.0219726525247097,-0.1181640625,0.9853515028953552,0.9926545861394137,-0.0057220458984375,-0.1163482666015625,-0.0286102294921875,0.11995084902595615
1782295302.330459,-0.0239257775247097,-0.12255859375,0.9819335341453552,0.9898416626972856,0.1773834228515625,0.4291534423828125,0.0324249267578125,0.4654985839793755
1782295302.338481,-0.0371093712747097,-0.12451171875,0.9892577528953552,0.9977530632406252,-0.0057220458984375,0.4291534423828125,0.0934600830078125,0.43924959423328896
1782295302.346503,-0.0200195275247097,-0.12890625,0.9887694716453552,0.9973377917381904,-0.0057220458984375,0.4901885986328125,0.1544952392578125,0.5139906448489049
1782295302.354525,-0.013183590024709702,-0.11279296875,0.9809569716453552,0.9875082992385453,-0.3108978271484375,0.1239776611328125,0.0934600830078125,0.3475092898059121
1782295302.362547,-0.015624996274709702,-0.13330078125,0.9858397841453552,0.9949338263393227,0.057220458984375,0.125885009765625,0.1544952392578125,0.20734028929130674
1782295302.373214,-0.033203125,-0.115234375,0.9990233778953552,1.0061953678450581,0.057220458984375,0.370025634765625,0.0324249267578125,0.3758251284644705
1782295302.383881,-0.0229492150247097,-0.1220703125,0.9946288466453552,1.0023544134901425,0.240325927734375,0.370025634765625,0.2117156982421875,0.4893864105257406
1782295302.394548,-0.0327148400247097,-0.1220703125,0.9916991591453552,0.9997192826995459,-0.1888275146484375,0.3719329833984375,0.3948211669921875,0.5743463487592143
1782295302.405223,-0.010742183774709702,-0.12353515625,0.9863280653953552,0.9940922401510364,0.1773834228515625,0.7343292236328125,0.1544952392578125,0.7710856413765167
1782295302.4159,-0.0180664025247097,-0.11767578125,0.9794921278953552,0.986700974460831,0.179290771484375,-0.118255615234375,-0.2117156982421875,0.3015843300904407
1782295302.426577,-0.0385742112994194,-0.1259765625,0.9755858778953552,0.9844419074915185,0.240325927734375,0.003814697265625,-0.0934600830078125,0.2578873602417218
1782295302.437379,-0.0346679650247097,-0.13037109375,0.9848632216453552,0.9940593821468584,-0.064849853515625,-0.118255615234375,0.0934600830078125,0.16408741923525327
1782295302.448182,-0.0209960900247097,-0.12255859375,0.9951171278953552,1.0028556939704756,0.240325927734375,-0.301361083984375,-0.0286102294921875,0.38651468240316716
1782295302.458985,-0.0219726525247097,-0.109375,0.9907225966453552,0.996983927447021,0.179290771484375,-0.118255615234375,-0.2117156982421875,0.3015843300904407
1782295302.466887,-0.0268554650247097,-0.1142578125,0.9863280653953552,0.9932870261437641,-0.0057220458984375,0.2460479736328125,-0.0286102294921875,0.24777185548337136
1782295302.474789,-0.0195312462747097,-0.1171875,0.9926757216453552,0.9997597051699074,-0.125885009765625,0.370025634765625,-0.5817413330078125,0.7008487601452269
1782295302.482691,-0.014648430049419403,-0.125,0.9921874403953552,1.0001377372048308,-0.064849853515625,0.186920166015625,-0.3337860107421875,0.3880177224451102
1782295302.490593,-0.0219726525247097,-0.11474609375,0.9916991591453552,0.9985573021812318,0.0553131103515625,-0.2422332763671875,-0.3337860107421875,0.41611248638262477
1782295302.501329,-0.0224609337747097,-0.1171875,0.9985350966453552,1.0056389724622006,-0.247955322265625,-0.301361083984375,-0.1506805419921875,0.4183359541267602
1782295302.512065,-0.0209960900247097,-0.12939453125,0.9799804091453552,0.9887089474776846,0.1201629638671875,-0.7305145263671875,-0.4558563232421875,0.8694225661660209
1782295302.522801,-0.0317382775247097,-0.12646484375,0.9912108778953552,0.9997498084135992,0.118255615234375,-0.423431396484375,0.0934600830078125,0.4494589249074889
1782295302.530759,-0.0283203125,-0.12451171875,0.9912108778953552,0.9994019274867633,0.057220458984375,-0.362396240234375,0.2117156982421875,0.4235903123828145
1782295302.538717,-0.013671875,-0.134765625,0.9877929091453552,0.9970373740264205,0.179290771484375,-0.667572021484375,0.2765655517578125,0.7445039214317817
1782295302.546675,-0.0068359337747097015,-0.11181640625,0.9799804091453552,0.9863626315944533,0.3032684326171875,-0.5474090576171875,0.4596710205078125,0.776483010553429
1782295302.554633,-0.0166015587747097,-0.12841796875,0.9931640028953552,1.0015695298374203,0.301361083984375,-0.362396240234375,0.6427764892578125,0.7970640833827899
1782295302.56532,-0.014648430049419403,-0.11962890625,0.9995116591453552,1.0067518107661813,0.179290771484375,0.186920166015625,0.4596710205078125,0.5276189688567546
1782295302.576005,-0.01904296875,-0.1206054612994194,0.9824218153953552,0.9899802701664132,0.057220458984375,0.308990478515625,0.3376007080078125,0.4612196166546624
1782295302.586691,-0.00927734375,-0.10986328125,0.9868163466453552,0.9929564500422756,0.057220458984375,0.797271728515625,-0.1506805419921875,0.8134008948555038
1782295302.594652,-0.0073242150247097015,-0.1123046875,0.9946288466453552,1.0009757886878534,-0.1277923583984375,0.7343292236328125,-0.5817413330078125,0.945512175530231
1782295302.602615,-0.011230465024709702,-0.12109375,0.9863280653953552,0.9937971987383935,-0.247955322265625,0.614166259765625,-0.5817413330078125,0.8815356005312852
1782295302.610578,-0.009765617549419403,-0.11474609375,0.9824218153953552,0.9891484502751398,-0.492095947265625,0.186920166015625,-1.2531280517578125,1.3592010461594313
1782295302.618541,-0.0405273400247097,-0.13037109375,0.9858397841453552,0.9952482943360468,-0.1888275146484375,0.2460479736328125,-1.1882781982421875,1.2280881532018857
1782295302.629254,-0.01318359375,-0.12451171875,0.9916991591453552,0.9995720071609893,-0.553131103515625,0.186920166015625,-1.1882781982421875,1.3239706350812397
1782295302.639967,-0.0312499962747097,-0.11767578125,0.9931640028953552,1.0005992646444892,-0.919342041015625,0.125885009765625,-1.0700225830078125,1.4163280524684871
1782295302.65068,-0.029785148799419403,-0.11962890625,0.9814452528953552,0.9891577299553406,-0.4940032958984375,0.1239776611328125,-0.6389617919921875,0.8171180382566212
1782295302.658691,-0.0263671837747097,-0.123046875,1.00390625,1.0117625811506064,-0.370025634765625,-0.484466552734375,-0.2765655517578125,0.6694141584408981
1782295302.666702,-0.0292968712747097,-0.11181640625,0.9848632216453552,0.9916233058590445,-0.1888275146484375,-0.4863739013671875,-0.0934600830078125,0.5300473463147153
1782295302.674713,-0.0170898400247097,-0.1181640625,0.9975585341453552,1.0046779769382843,-0.431060791015625,-0.179290771484375,0.2117156982421875,0.5126227883860175
1782295302.682724,-0.0195312462747097,-0.12548828125,0.9843749403953552,0.9925335266833466,-0.3108978271484375,-0.3643035888671875,0.3376007080078125,0.5859597271438617
1782295302.690687,-0.0268554650247097,-0.11328125,0.9980468153953552,1.004814064055667,-0.0057220458984375,-0.2422332763671875,0.5207061767578125,0.5743210117195646
1782295302.69865,-0.0214843712747097,-0.12744140625,0.9916991591453552,1.0000850526258513,-0.064849853515625,-0.423431396484375,0.5207061767578125,0.6742659516418164
1782295302.706613,-0.0219726525247097,-0.12451171875,0.9863280653953552,0.9943988224809978,0.179290771484375,-0.484466552734375,0.5817413330078125,0.777994858586802
1782295302.714576,-0.012207027524709702,-0.13134765625,0.9843749403953552,0.9931743258873118,0.3032684326171875,-0.5474090576171875,0.8258819580078125,1.036199511265201
1782295302.725222,-0.0180664025247097,-0.11669921875,0.9848632216453552,0.9919176719399213,-0.0057220458984375,-0.4215240478515625,0.5817413330078125,0.7184276186618501
1782295302.735868,-0.0317382775247097,-0.11767578125,0.9916991591453552,0.9991607127998168,0.118255615234375,-0.362396240234375,0.3376007080078125,0.5092049327312607
1782295302.746514,-0.0166015587747097,-0.1181640625,0.9790038466453552,0.9862488981827338,0.301361083984375,-0.301361083984375,0.3948211669921875,0.5809653688349659
1782295302.754524,-0.0219726525247097,-0.1162109375,0.9873046278953552,0.994363217198417,0.240325927734375,-0.057220458984375,0.3948211669921875,0.46574079311656114
1782295302.762535,-0.024414055049419403,-0.1201171875,0.9790038466453552,0.9866472097782816,0.240325927734375,0.186920166015625,0.1544952392578125,0.3414154052734375
1782295302.770546,-0.0219726525247097,-0.11962890625,0.9931640028953552,1.0005841340520387,0.1201629638671875,0.2460479736328125,0.2117156982421875,0.3461246597634112
1782295302.778557,-0.0288085900247097,-0.1279296875,0.9814452528953552,0.9901670183529075,0.1201629638671875,0.2460479736328125,-0.2765655517578125,0.389187933565859
1782295302.789237,-0.013671875,-0.13037109375,0.9960936903953552,1.0046821299779471,-0.064849853515625,0.247955322265625,-0.2117156982421875,0.3324317707786441
1782295302.799917,-0.0302734337747097,-0.103515625,0.9819335341453552,0.9878387676593989,-0.064849853515625,0.431060791015625,-0.0934600830078125,0.445818007899907
1782295302.810597,-0.0166015587747097,-0.12646484375,0.9936522841453552,1.0018052855948325,-0.247955322265625,0.064849853515625,-0.2765655517578125,0.3770621298406288
1782295302.818591,-0.0195312462747097,-0.12255859375,0.9882811903953552,0.9960430662236855,0.118255615234375,0.003814697265625,0.0934600830078125,0.15077708567788448
1782295302.826585,-0.015624996274709702,-0.1279296875,0.9907225966453552,0.9990702722812583,-0.247955322265625,-0.118255615234375,0.3376007080078125,0.4352475966868591
1782295302.834579,-0.0224609375,-0.1201171875,0.9863280653953552,0.9938690482316235,-0.064849853515625,-0.179290771484375,0.2765655517578125,0.3359154486765437
1782295302.842573,-0.0307617150247097,-0.13134765625,0.9936522841453552,1.0027678453664692,-0.431060791015625,-0.118255615234375,0.5207061767578125,0.6862453778344996
1782295302.853239,-0.0195312462747097,-0.13330078125,0.9858397841453552,0.9950028381199042,-0.064849853515625,0.614166259765625,0.2765655517578125,0.6766788030924261
1782295302.863905,-0.0244140587747097,-0.1259765625,0.9692382216453552,0.9776956944077345,0.118255615234375,0.553131103515625,0.3948211669921875,0.689798638818566
1782295302.874571,-0.012695308774709702,-0.1171875,0.9877929091453552,0.9948009410826767,-0.0057220458984375,0.6122589111328125,0.5817413330078125,0.844580780387825
1782295302.885241,-0.0209960900247097,-0.115234375,0.9907225966453552,0.9976227044738314,0.118255615234375,0.186920166015625,0.5817413330078125,0.6223716876011279
1782295302.895912,-0.0209960900247097,-0.1201171875,0.9946288466453552,1.002075604487159,-0.0057220458984375,0.0667572021484375,0.1544952392578125,0.16839847030564115
1782295302.906583,-0.011230465024709702,-0.125,0.9902343153953552,0.9981558609411554,0.118255615234375,-0.057220458984375,0.1544952392578125,0.2027987929307564
1782295302.91724,-0.02880859375,-0.1259765625,0.9951171278953552,1.0034730328234385,-0.0057220458984375,-0.0591278076171875,0.3376007080078125,0.34278721897155856
1782295302.927897,-0.013183590024709702,-0.1318359375,0.9921874403953552,1.0009947244320172,0.057220458984375,-0.301361083984375,-0.0934600830078125,0.3206672277961177
1782295302.938554,-0.0346679650247097,-0.13525390625,0.9882811903953552,0.9980957861067737,-0.0057220458984375,-0.1811981201171875,0.1544952392578125,0.23818958729674827
1782295302.946559,-0.0283203125,-0.11865234375,0.9931640028953552,1.000627380908893,-0.1888275146484375,-0.1163482666015625,0.2765655517578125,0.35451551989806795
1782295302.954563,-0.0224609375,-0.12939453125,0.9887694716453552,0.9974530096644257,-0.4940032958984375,0.1239776611328125,-0.0934600830078125,0.5178267122641598
1782295302.962567,-0.0249023400247097,-0.1162109375,0.9858397841453552,0.9929779396024343,-0.3108978271484375,0.2460479736328125,-0.0934600830078125,0.4073473350474508
1782295302.970571,-0.0195312462747097,-0.12646484375,0.9936522841453552,1.0018581177357586,-0.797271728515625,0.003814697265625,0.0934600830078125,0.8027400252393971
1782295302.981296,-0.0229492150247097,-0.1220703125,0.9794921278953552,0.9873361414802301,-0.308990478515625,0.064849853515625,0.0934600830078125,0.3292649486813623
1782295302.992021,-0.0185546875,-0.134765625,0.9892577528953552,0.9985674497866586,-0.431060791015625,0.003814697265625,-0.0934600830078125,0.44109267119514906
1782295303.002746,-0.0327148400247097,-0.12060546875,0.9853515028953552,0.99324393988002,-0.064849853515625,0.247955322265625,0.0934600830078125,0.2728042016844227
1782295303.010693,-0.015624996274709702,-0.1220703125,0.9765624403953552,0.9842862905137733,-0.186920166015625,0.186920166015625,-0.1506805419921875,0.30427441999234345
1782295303.01864,-0.0200195275247097,-0.12841796875,0.9985350966453552,1.0069579412332659,-0.0057220458984375,0.1239776611328125,-0.2765655517578125,0.3031364489604138
1782295303.026587,-0.0209960900247097,-0.11279296875,0.9951171278953552,1.0017091333448374,0.118255615234375,0.125885009765625,-0.1506805419921875,0.2292074430580548
1782295303.034534,-0.02294921875,-0.12451171875,0.9951171278953552,1.0031390397038764,-0.0057220458984375,0.3070831298828125,-0.4558563232421875,0.5496706085536809
1782295303.045192,-0.0195312462747097,-0.12109375,0.9887694716453552,0.9963484500554717,-0.247955322265625,0.064849853515625,-0.5168914794921875,0.5769437987468714
1782295303.05585,-0.0161132775247097,-0.1181640625,0.9916991591453552,0.9988441348021706,0.057220458984375,-0.057220458984375,-0.1506805419921875,0.17103504783471854
1782295303.066508,-0.01904296875,-0.12451171875,0.9863280653953552,0.9943384008230984,-0.247955322265625,0.003814697265625,-0.8220672607421875,0.8586564941460828
1782295303.077195,-0.0161132775247097,-0.1279296875,0.9819335341453552,0.9903631193333198,0.057220458984375,-0.118255615234375,-0.3337860107421875,0.3587083389440881
1782295303.087884,-0.0258789025247097,-0.1201171875,0.9907225966453552,0.9983131371631392,0.3604888916015625,-0.0591278076171875,-0.7648468017578125,0.8476077918240799
1782295303.098573,-0.0249023400247097,-0.11669921875,0.9960936903953552,1.0032155671843437,-0.125885009765625,0.186920166015625,-0.6389617919921875,0.6775384533536586
1782295303.10922,-0.0234374962747097,-0.1259765625,0.9848632216453552,0.993164123335419,0.1773834228515625,-0.0591278076171875,-0.5168914794921875,0.5496706085536809
1782295303.119869,-0.0297851525247097,-0.12060546875,0.9853515028953552,0.9931517601361147,-0.003814697265625,0.003814697265625,-0.8220672607421875,0.8220849621630483
1782295303.130516,-0.0175781212747097,-0.126953125,0.9926757216453552,1.0009151685527304,0.118255615234375,-0.118255615234375,-0.9479522705078125,0.9625914440871777
1782295303.138522,-0.0195312462747097,-0.12744140625,0.9882811903953552,0.9966556541239714,-0.1888275146484375,-0.2422332763671875,-0.7648468017578125,0.8242107865267493
1782295303.146527,-0.015136715024709702,-0.1171875,0.9907225966453552,0.9977441023637796,0.057220458984375,-0.423431396484375,-0.8220672607421875,0.9264787691249348
1782295303.154532,-0.0205078087747097,-0.11962890625,0.9858397841453552,0.9932833057265545,-0.064849853515625,-0.301361083984375,-0.6999969482421875,0.7648658274427034
1782295303.162537,-0.0263671837747097,-0.126953125,0.9746093153953552,0.9831966446153475,-0.247955322265625,-0.179290771484375,-0.3948211669921875,0.4995105369102689
1782295303.173206,-0.0166015587747097,-0.10986328125,0.9902343153953552,0.996448469168012,-0.0057220458984375,-0.1811981201171875,-0.5817413330078125,0.6093344558392978
1782295303.183875,-0.017578125,-0.1201171875,0.9863280653953552,0.9937706887395955,-0.0057220458984375,-0.0591278076171875,-0.0934600830078125,0.1107412595138152
1782295303.194544,-0.013671871274709702,-0.1357421875,0.9775390028953552,0.9870133553873943,-0.064849853515625,-0.606536865234375,-0.4558563232421875,0.7615099866904085
1782295303.202566,-0.0195312462747097,-0.1279296875,0.9975585341453552,1.005917741950663,-0.247955322265625,0.003814697265625,-0.0286102294921875,0.2496296035863414
1782295303.210588,-0.0307617150247097,-0.13623046875,0.9863280653953552,0.9961666910279877,-0.125885009765625,-0.301361083984375,-0.3337860107421875,0.46698890735338966
1782295303.21861,-0.0292968712747097,-0.130859375,0.9877929091453552,0.9968537074464445,-0.064849853515625,-0.057220458984375,-0.1506805419921875,0.1737363236702099
1782295303.226632,-0.0161132775247097,-0.11962890625,0.9902343153953552,0.9975643900569363,-0.125885009765625,-0.179290771484375,-0.3337860107421875,0.39925595473372416
1782295303.237399,-0.0307617150247097,-0.119140625,0.9951171278953552,1.0026958012614557,-0.064849853515625,-0.179290771484375,-0.0934600830078125,0.21233339670501106
1782295303.248166,-0.0170898400247097,-0.13134765625,0.9858397841453552,0.9946981197520175,-0.064849853515625,-0.118255615234375,-0.4558563232421875,0.47538918948093917
1782295303.258933,-0.010253902524709702,-0.1240234375,0.9936522841453552,1.0014149076948997,-0.1888275146484375,-0.0591278076171875,-0.2765655517578125,0.34005945412681043
1782295303.266905,-0.011718746274709702,-0.1142578125,0.9897460341453552,0.9963881717674066,-0.0057220458984375,0.0667572021484375,-0.2117156982421875,0.22206486153853375
1782295303.274878,-0.019531242549419403,-0.12890625,0.9892577528953552,0.9978122029661465,-0.064849853515625,0.125885009765625,-0.2765655517578125,0.31071054633499773
1782295303.282851,-0.0209960900247097,-0.134765625,0.9946288466453552,1.003936826726182,-0.0057220458984375,0.3070831298828125,-0.0934600830078125,0.3210413954363445
1782295303.290824,-0.008789058774709702,-0.13134765625,0.9848632216453552,0.9936221715049346,0.1201629638671875,0.2460479736328125,0.0934600830078125,0.28933290571586806
1782295303.301394,-0.015624996274709702,-0.11865234375,0.9750975966453552,0.9824142925311605,0.179290771484375,0.370025634765625,0.0934600830078125,0.4216621138292997
1782295303.311962,-0.017578125,-0.115234375,0.9990233778953552,1.0058010047924997,0.1773834228515625,-0.0591278076171875,0.3948211669921875,0.4368577917826626
1782295303.322531,-0.0273437462747097,-0.11572265625,0.9858397841453552,0.9929851427053942,0.1773834228515625,0.4291534423828125,0.2117156982421875,0.5103538896625862
1782295303.333219,-0.0312499962747097,-0.1181640625,0.9912108778953552,0.9987183348631155,0.0553131103515625,0.2460479736328125,0.2765655517578125,0.3742828474892759
1782295303.343905,-0.0229492150247097,-0.13525390625,0.9912108778953552,1.0006594276197147,-0.1277923583984375,0.2460479736328125,0.2117156982421875,0.3488467128640098
1782295303.354591,-0.02294921875,-0.1201171875,0.9902343153953552,0.9977568866014673,-0.247955322265625,0.247955322265625,0.5817413330078125,0.6792544900178478
1782295303.365261,-0.0170898400247097,-0.1220703125,0.9902343153953552,0.9978763566757285,-0.1888275146484375,0.1239776611328125,0.5207061767578125,0.5675924711111016
1782295303.375932,-0.005371086299419403,-0.12451171875,0.9829100966453552,0.9907796297671326,-0.064849853515625,0.003814697265625,0.3376007080078125,0.3437939694985976
1782295303.386601,-0.0161132775247097,-0.11083984375,0.9916991591453552,0.9980041738012508,0.057220458984375,0.064849853515625,0.5817413330078125,0.5881349020055578
1782295303.394866,-0.0297851525247097,-0.14208984375,0.9829100966453552,0.9935738206571272,0.240325927734375,0.064849853515625,0.2117156982421875,0.326780648026414
1782295303.403131,-0.015624996274709702,-0.10400390625,0.9902343153953552,0.9958036716192361,-0.064849853515625,0.003814697265625,0.0934600830078125,0.11381934164303355
1782295303.411397,-0.0175781212747097,-0.11279296875,0.9907225966453552,0.9972775479527763,-0.064849853515625,0.003814697265625,0.1544952392578125,0.16759723854990904
1782295303.419663,-0.0219726525247097,-0.1376953125,0.9916991591453552,1.0014539524077224,0.301361083984375,0.003814697265625,0.2765655517578125,0.40904958046008205
1782295303.429957,-0.0205078087747097,-0.126953125,0.9921874403953552,1.0004866730977942,0.057220458984375,0.125885009765625,0.2765655517578125,0.30920821630282935
1782295303.440251,-0.0336913987994194,-0.12841796875,0.9916991591453552,1.0005466042621614,0.179290771484375,-0.118255615234375,-0.0934600830078125,0.23423142058603094
1782295303.450545,-0.01416015625,-0.13037109375,0.9799804091453552,0.9887156994906542,0.301361083984375,0.064849853515625,-0.1506805419921875,0.3431160622534231
1782295303.461248,-0.0283203125,-0.11865234375,0.9853515028953552,0.9928736087919756,-0.064849853515625,0.247955322265625,0.0934600830078125,0.2728042016844227
1782295303.471951,-0.0356445275247097,-0.1298828125,0.9995116591453552,1.0085453059198037,-0.125885009765625,0.186920166015625,-0.5168914794921875,0.5638820672078717
1782295303.482654,-0.01904296875,-0.11962890625,0.9951171278953552,1.0024628711828112,-0.0057220458984375,-0.1811981201171875,-0.2117156982421875,0.2787275325931106
1782295303.490628,-0.0273437462747097,-0.12255859375,0.9775390028953552,0.9855713021105873,0.1773834228515625,-0.5474090576171875,-0.0286102294921875,0.5761424305633713
1782295303.498603,-0.0239257775247097,-0.1220703125,0.9877929091453552,0.995594513535432,0.240325927734375,-0.545501708984375,0.2765655517578125,0.6571279711482118
1782295303.506578,-0.0224609375,-0.1201171875,0.9873046278953552,0.9948382083082027,0.057220458984375,-0.545501708984375,0.3948211669921875,0.6758180593446206
1782295303.514553,-0.0166015587747097,-0.12841796875,0.9902343153953552,0.998664501140465,0.3604888916015625,-0.5474090576171875,0.2765655517578125,0.7114052443920861
1782295303.526541,-0.011230465024709702,-0.13525390625,0.9887694716453552,0.9980404854305209,0.606536865234375,-0.545501708984375,0.7648468017578125,1.1182350886787495
1782295303.538533,-0.0234374962747097,-0.1220703125,0.9829100966453552,0.9907384798789518,0.301361083984375,-0.484466552734375,0.5817413330078125,0.8148308549559676
1782295303.550525,-0.015624996274709702,-0.12890625,0.9863280653953552,0.9948386876193503,0.362396240234375,0.064849853515625,0.7648468017578125,0.8488387176585216
1782295303.562517,-0.0073242150247097015,-0.11083984375,0.9882811903953552,0.9945043118948821,0.301361083984375,0.553131103515625,0.3948211669921875,0.7434085515527269
1782295303.570524,-0.015136715024709702,-0.12890625,0.9921874403953552,1.000640723890992,0.057220458984375,1.102447509765625,0.2765655517578125,1.1380479766397873
1782295303.57853,-0.0175781212747097,-0.1259765625,0.9897460341453552,0.9978859136962118,-0.1888275146484375,1.1615753173828125,-0.0934600830078125,1.1805286253865743
1782295303.586536,-0.0219726525247097,-0.1240234375,0.9931640028953552,1.0011190474441154,-0.1888275146484375,1.1005401611328125,-0.3948211669921875,1.184368283288444
1782295303.594542,-0.0185546837747097,-0.1171875,0.9863280653953552,0.9934385934886835,-0.1888275146484375,0.6732940673828125,-0.7648468017578125,1.0363258954693508
1782295303.605312,-0.02197265625,-0.125,0.9941405653953552,1.0022091904324553,-0.431060791015625,0.553131103515625,-0.8220672607421875,1.0805378310876455
1782295303.616082,-0.024414055049419403,-0.11474609375,0.9916991591453552,0.9986140066934994,-0.6160736083984375,0.2460479736328125,-1.2531280517578125,1.4178914663669484
1782295303.626852,-0.0312499962747097,-0.11962890625,0.9936522841453552,1.001315384514301,-0.4940032958984375,-0.0591278076171875,-1.1882781982421875,1.2882315127374557
1782295303.634921,-0.0166015587747097,-0.1357421875,0.9882811903953552,0.997697982613123,-0.6771087646484375,0.0019073486328125,-1.2531280517578125,1.4243629562877824
1782295303.642989,-0.0214843712747097,-0.12255859375,0.9951171278953552,1.0028660355908698,-0.553131103515625,-0.179290771484375,-0.6999969482421875,0.9099972120639992
1782295303.651057,-0.0258789025247097,-0.10986328125,0.9892577528953552,0.9956759311274265,-0.3108978271484375,-0.2422332763671875,-0.4558563232421875,0.6026104932251741
1782295303.659125,-0.0166015587747097,-0.13232421875,0.9946288466453552,1.0035296972190795,-0.4940032958984375,-0.0591278076171875,-0.4558563232421875,0.6747891088569969
1782295303.669716,-0.0366210900247097,-0.12646484375,0.9863280653953552,0.9950766370113681,-0.1888275146484375,-0.1811981201171875,-0.2117156982421875,0.33661866541308366
1782295303.680307,-0.0234375,-0.13037109375,0.9912108778953552,1.0000224712224732,-0.1888275146484375,-0.2422332763671875,-0.0286102294921875,0.30846610137822883
1782295303.690898,-0.0258789025247097,-0.11865234375,0.9975585341453552,1.0049234425166333,-0.0057220458984375,-0.0591278076171875,-0.1506805419921875,0.16196748185342125
1782295303.701437,-0.013671875,-0.11865234375,0.9921874403953552,0.9993503968687211,0.240325927734375,-0.484466552734375,0.0324249267578125,0.5417709554184005
1782295303.711976,-0.0317382775247097,-0.13037109375,0.9868163466453552,0.9958968030635968,0.118255615234375,-0.484466552734375,0.0934600830078125,0.5073726622204006
1782295303.722516,-0.009765621274709702,-0.12158203125,0.9829100966453552,0.9904492999488357,0.179290771484375,-0.301361083984375,0.0934600830078125,0.3629028393324129
1782295303.730529,-0.024902336299419403,-0.109375,0.9892577528953552,0.9955972672932248,0.1201629638671875,-0.2422332763671875,-0.2117156982421875,0.3434234047747856
1782295303.738544,-0.0258789025247097,-0.12451171875,0.9819335341453552,0.9901345116604865,0.179290771484375,-0.118255615234375,-0.5168914794921875,0.5597377715015714
1782295303.746559,-0.0200195275247097,-0.1220703125,0.9926757216453552,1.0003534530456157,0.179290771484375,-0.118255615234375,-0.5168914794921875,0.5597377715015714
1782295303.754574,-0.0209960900247097,-0.12255859375,0.9873046278953552,0.9951039508322179,0.118255615234375,0.064849853515625,-0.3337860107421875,0.36000415970185995
1782295303.765222,-0.0185546837747097,-0.12646484375,0.9765624403953552,0.9848917874495772,0.0553131103515625,0.2460479736328125,-0.5168914794921875,0.5751312433498982
1782295303.77587,-0.012207027524709702,-0.12353515625,0.9746093153953552,0.9824832130912486,-0.0057220458984375,0.5550384521484375,-0.5817413330078125,0.8040667905729622
1782295303.786518,-0.0239257775247097,-0.12646484375,0.9833983778953552,0.9917853443069673,-0.064849853515625,0.125885009765625,-0.3337860107421875,0.3625819081971317
1782295303.797271,-0.02392578125,-0.1259765625,0.9794921278953552,0.9878498701304314,-0.064849853515625,0.247955322265625,-0.5817413330078125,0.6356967231868941
1782295303.808022,-0.0234374962747097,-0.1162109375,0.9814452528953552,0.988579325424664,-0.0057220458984375,-0.0591278076171875,-0.4558563232421875,0.4597105903530663
1782295303.818773,-0.0322265587747097,-0.126953125,0.9765624403953552,0.9853069811123116,-0.125885009765625,-0.118255615234375,-0.2765655517578125,0.32606737131650465
1782295303.826716,-0.0336914025247097,-0.12255859375,0.9809569716453552,0.9891573685342924,-0.370025634765625,-0.057220458984375,0.2117156982421875,0.43013566254411323
1782295303.834658,-0.02734375,-0.1201171875,0.9868163466453552,0.9944759028772183,-0.1888275146484375,0.4901885986328125,0.4596710205078125,0.6980244548814892
1782295303.8426,-0.02392578125,-0.1181640625,0.9882811903953552,0.9956078042905183,-0.186920166015625,0.186920166015625,0.4596710205078125,0.5302600720602216
1782295303.850542,-0.019531242549419403,-0.1240234375,0.9809569716453552,0.9889589792829968,-0.1277923583984375,0.6122589111328125,0.5817413330078125,0.8541749467505345
1782295303.861216,-0.0302734337747097,-0.1220703125,0.9877929091453552,0.995767278707331,-0.125885009765625,0.675201416015625,0.3948211669921875,0.7922296016801376
1782295303.87189,-0.024902336299419403,-0.125,0.9887694716453552,0.9969504473197273,0.057220458984375,0.308990478515625,0.6999969482421875,0.7672972203051912
1782295303.882564,-0.0253906212747097,-0.1259765625,0.9897460341453552,0.9980541017672794,0.118255615234375,0.064849853515625,0.1544952392578125,0.20508211279579527
1782295303.893224,-0.0307617150247097,-0.1279296875,0.9765624403953552,0.9853864663400045,0.118255615234375,-0.057220458984375,0.4596710205078125,0.4780753272817338
1782295303.903885,-0.0219726525247097,-0.1337890625,0.9780272841453552,0.9873802100692215,-0.064849853515625,-0.423431396484375,-0.0286102294921875,0.4293229510069333
1782295303.914547,-0.015624996274709702,-0.1240234375,0.9853515028953552,0.9932489807777486,-0.0057220458984375,0.2460479736328125,0.0324249267578125,0.24824125969170904
1782295303.922557,-0.0229492150247097,-0.13037109375,0.9868163466453552,0.9956554577575053,-0.003814697265625,-0.484466552734375,0.2765655517578125,0.5578627941103983
1782295303.930566,-0.0258789025247097,-0.1259765625,0.9951171278953552,1.0033931981660533,-0.0057220458984375,0.0667572021484375,0.0324249267578125,0.07443548698840277
1782295303.938575,-0.0283203087747097,-0.12646484375,0.9868163466453552,0.9952898565746024,0.118255615234375,0.003814697265625,0.2117156982421875,0.2425334602315027
1782295303.946584,-0.0214843712747097,-0.12744140625,0.9814452528953552,0.9899180141137319,0.240325927734375,0.125885009765625,0.2117156982421875,0.3441324223424124
1782295303.957241,-0.0288085900247097,-0.12646484375,0.9814452528953552,0.9899788260335427,-0.1888275146484375,0.0019073486328125,-0.0934600830078125,0.2106994432430712
1782295303.967898,-0.0234375,-0.1044921875,0.9902343153953552,0.996007998482589,-0.1888275146484375,0.0667572021484375,0.2117156982421875,0.29143762833438347
1782295303.978555,-0.0317382775247097,-0.1220703125,0.9873046278953552,0.9953285426017225,0.118255615234375,0.003814697265625,0.5207061767578125,0.5339792739081052
1782295303.989222,-0.02392578125,-0.1108398362994194,0.9853515028953552,0.9918545743088752,0.118255615234375,0.003814697265625,0.5207061767578125,0.5339792739081052
1782295303.999889,-0.015136715024709702,-0.130859375,0.9760741591453552,0.9849233778921292,-0.0057220458984375,-0.1163482666015625,0.1544952392578125,0.1934901545396582
1782295304.010556,-0.02392578125,-0.11962890625,0.9833983778953552,0.9909368738048908,0.301361083984375,0.125885009765625,0.2765655517578125,0.4279650021240432
1782295304.021217,-0.0214843712747097,-0.1064453125,0.9926757216453552,0.9985976522636226,0.118255615234375,0.186920166015625,-0.2117156982421875,0.3061814427426103
1782295304.031879,-0.0268554650247097,-0.13037109375,0.9970702528953552,1.005915964331053,-0.003814697265625,0.186920166015625,-0.2765655517578125,0.3338296044356169
1782295304.042541,-0.0283203125,-0.12548828125,0.9804686903953552,0.9888721867242296,0.118255615234375,0.125885009765625,-0.3948211669921875,0.4309468414122847
1782295304.050658,-0.0258789025247097,-0.1357421875,0.9799804091453552,0.9896753312939888,-0.125885009765625,0.064849853515625,-0.4558563232421875,0.47734424331353914
1782295304.058776,-0.0209960900247097,-0.11328125,0.9902343153953552,0.9969139766220534,0.1506805419921875,-0.0705718994140625,-0.4329681396484375,0.46383879599770095
1782295304.066894,-0.024902336299419403,-0.125,0.9819335341453552,0.9901709912092743,0.274658203125,-0.25177001953125,-0.2498626708984375,0.44861634565307656
1782295304.075012,-0.0161132775247097,-0.1201171875,0.9995116591453552,1.006832326265401,0.274658203125,0.05340576171875,-0.2498626708984375,0.37512752263345667
1782295304.085558,-0.008789058774709702,-0.13134765625,0.9873046278953552,0.9960421088589073,0.1506805419921875,-0.0705718994140625,-0.6122589111328125,0.6344651235359633
1782295304.096104,-0.0195312462747097,-0.12158203125,0.9912108778953552,0.9988306484895225,0.152587890625,-0.19073486328125,-0.4329681396484375,0.49711594461144876
1782295304.10665,-0.0336913987994194,-0.12890625,0.9892577528953552,0.9981897782013657,0.274658203125,0.11444091796875,-0.4329681396484375,0.5253525123191216
1782295304.117294,-0.0341796837747097,-0.1162109375,0.9838866591453552,0.9913153841345228,0.091552734375,-0.06866455078125,-0.4901885986328125,0.5033702275017173
1782295304.127939,-0.0302734337747097,-0.1240234375,0.9726561903953552,0.9809986536974623,0.4558563232421875,-0.1316070556640625,-0.4329681396484375,0.6423292103672993
1782295304.138584,-0.0224609337747097,-0.1279296875,0.9921874403953552,1.0006529944831855,0.4558563232421875,-0.1316070556640625,-0.0019073486328125,0.47447765228644484
1782295304.14658,-0.0161132775247097,-0.11865234375,0.9858397841453552,0.9930851405562954,0.274658203125,-0.31280517578125,-0.0629425048828125,0.4210058971799746
1782295304.154578,-0.0224609337747097,-0.1279296875,0.9887694716453552,0.997264040536765,0.4558563232421875,-0.3108978271484375,-0.1850128173828125,0.5819726702873868
1782295304.162576,-0.019531242549419403,-0.12890625,0.9799804091453552,0.9886151389864938,0.579833984375,-0.25177001953125,-0.0629425048828125,0.635261639871224
1782295304.170574,-0.012207027524709702,-0.1259765625,0.9848632216453552,0.9929625728948567,0.396728515625,0.05340576171875,-0.0019073486328125,0.4003115392710818
1782295304.18122,-0.013671875,-0.11865234375,0.9951171278953552,1.0022591466652149,0.213623046875,0.05340576171875,-0.0629425048828125,0.22901689994810695
1782295304.191866,-0.0200195275247097,-0.12841796875,0.9829100966453552,0.991465689909424,0.030517578125,-0.06866455078125,0.0553131103515625,0.0933042511645127
1782295304.202513,-0.02783203125,-0.1201171875,0.9887694716453552,0.996427533117309,0.4558563232421875,-0.1316070556640625,0.0553131103515625,0.4776870782397338
1782295304.213192,-0.0180664025247097,-0.12646484375,0.9892577528953552,0.9974721315748448,0.335693359375,0.17547607421875,-0.1239776611328125,0.3985628490108676
1782295304.22387,-0.011718746274709702,-0.12060546875,0.9926757216453552,1.000044047255312,0.091552734375,-0.00762939453125,-0.1239776611328125,0.15430674415726378
1782295304.234549,-0.015624996274709702,-0.14404296875,0.9897460341453552,1.0002948212708875,0.274658203125,0.17547607421875,0.1201629638671875,0.3473731697359844
1782295304.245265,-0.0253906212747097,-0.1181640625,0.9877929091453552,0.9951594147035256,0.213623046875,0.23651123046875,-0.0019073486328125,0.3187099092792813
1782295304.255982,-0.0229492150247097,-0.11669921875,0.9819335341453552,0.9891101251156507,0.1506805419921875,0.1773834228515625,0.1201629638671875,0.26193251482575164
1782295304.266699,-0.02783203125,-0.1240234375,0.9897460341453552,0.9978745648222908,0.396728515625,0.17547607421875,-0.1239776611328125,0.45117161722918986
1782295304.274646,-0.01904296875,-0.1328125,0.9785155653953552,0.9876712542825448,0.152587890625,0.29754638671875,0.1201629638671875,0.3553252798494893
1782295304.282595,-0.0341796800494194,-0.11474609375,0.9843749403953552,0.9916294367542361,0.1506805419921875,0.3566741943359375,0.0553131103515625,0.39112740484017944
1782295304.290544,-0.0229492150247097,-0.12548828125,0.9863280653953552,0.9945436278956663,0.030517578125,0.29754638671875,0.0553131103515625,0.3041787550121861
1782295304.298493,-0.0356445275247097,-0.1171875,0.9853515028953552,0.9929355602237463,-0.030517578125,0.29754638671875,-0.1239776611328125,0.32378331532671956
1782295304.309172,-0.0224609337747097,-0.1240234375,0.9863280653953552,0.9943487110575909,0.274658203125,0.29754638671875,0.3032684326171875,0.5059078206702514
1782295304.319851,-0.02734375,-0.115234375,0.9907225966453552,0.9977764806555717,0.396728515625,0.05340576171875,0.6694793701171875,0.780030972146159
1782295304.33053,-0.0263671837747097,-0.1298828125,0.9873046278953552,0.9961602288922727,0.213623046875,0.23651123046875,0.3032684326171875,0.43993648463850576
1782295304.338623,-0.0195312462747097,-0.1220703125,0.9838866591453552,0.991622704872725,-0.213623046875,0.11444091796875,0.2384185791015625,0.33996315788993464
1782295304.346719,-0.0229492150247097,-0.130859375,0.9824218153953552,0.991364446538379,-0.152587890625,-0.00762939453125,0.1811981201171875,0.23701061318072475
1782295304.354815,-0.0224609337747097,-0.11279296875,0.9887694716453552,0.9954354903273769,0.213623046875,0.29754638671875,0.2384185791015625,0.43704928471094695
1782295304.362911,-0.0249023400247097,-0.11083984375,0.9946288466453552,1.0010954700128756,0.030517578125,0.11444091796875,0.1811981201171875,0.21647356654831637
1782295304.373446,-0.0273437462747097,-0.1328125,0.9848632216453552,0.9941541158020992,0.0286102294921875,0.0514984130859375,0.5435943603515625,0.546777340777752
1782295304.383981,-0.02880859375,-0.1206054612994194,0.9926757216453552,1.000390274199637,0.3337860107421875,-0.2536773681640625,0.3032684326171875,0.5174331360745218
1782295304.394516,-0.0209960900247097,-0.123046875,0.9897460341453552,0.997586377889178,0.1506805419921875,0.2346038818359375,-0.0629425048828125,0.2858415050836263
1782295304.40518,-0.0263671837747097,-0.1328125,0.9902343153953552,0.9994490421842261,0.335693359375,-0.00762939453125,0.3032684326171875,0.45245992243675237
1782295304.415846,-0.0229492150247097,-0.11572265625,0.9882811903953552,0.9952980010675528,0.030517578125,-0.00762939453125,-0.0019073486328125,0.03151457146045362
1782295304.426512,-0.011230465024709702,-0.13427734375,0.9814452528953552,0.9906519635169834,-0.152587890625,-0.00762939453125,-0.0019073486328125,0.15279041201956203
1782295304.434543,-0.024414055049419403,-0.12939453125,0.9848632216453552,0.9936269703218765,-0.152587890625,0.11444091796875,-0.3070831298828125,0.36149666212780085
1782295304.442574,-0.014648433774709702,-0.1171875,0.9897460341453552,0.9967671236927714,-0.213623046875,0.17547607421875,-0.0629425048828125,0.2835285130287703
1782295304.450605,-0.0205078087747097,-0.12890625,0.9804686903953552,0.9891189232622059,-0.640869140625,0.41961669921875,-0.0629425048828125,0.7686047024248471
1782295304.458636,-0.0302734337747097,-0.12451171875,0.9848632216453552,0.9931642433395691,-0.396728515625,0.05340576171875,-0.0019073486328125,0.4003115392710818
1782295304.46925,-0.0200195275247097,-0.126953125,0.9970702528953552,1.0053193356532968,-0.701904296875,-0.06866455078125,-0.0629425048828125,0.7080580635982489
1782295304.479864,-0.0244140587747097,-0.11669921875,0.9965819716453552,1.0036883879627476,-0.2117156982421875,-0.1316070556640625,-0.0629425048828125,0.2571103127135579
1782295304.490478,-0.0234374962747097,-0.123046875,0.9902343153953552,0.9981251670333738,-0.0324249267578125,-0.0705718994140625,0.3032684326171875,0.3130551246733451
1782295304.501154,-0.0312499962747097,-0.13330078125,0.9902343153953552,0.9996547703760221,-0.091552734375,-0.37384033203125,-0.3070831298828125,0.4923804887314269
1782295304.511832,-0.019531242549419403,-0.12451171875,0.9780272841453552,0.9861146008828501,-0.091552734375,-0.31280517578125,-0.0629425048828125,0.33194990599185425
1782295304.52251,-0.01416015625,-0.1259765625,0.9770507216453552,0.9852404361332568,-0.1544952392578125,0.2346038818359375,-0.0019073486328125,0.2809117268905418
1782295304.530529,-0.013671871274709702,-0.12744140625,0.9965819716453552,1.0047904549206632,-0.274658203125,0.29754638671875,-0.0019073486328125,0.40493779617620873
1782295304.538548,-0.013183590024709702,-0.1181640625,0.9946288466453552,1.001710085449634,-0.213623046875,0.48065185546875,-0.1850128173828125,0.5575757840129326
1782295304.546567,-0.00830078125,-0.11376953125,0.9887694716453552,0.9953278240198251,-0.1544952392578125,0.8449554443359375,-0.3070831298828125,0.9122053116074772
1782295304.554586,-0.0209960900247097,-0.11767578125,0.9824218153953552,0.98966714033246,-0.213623046875,1.15203857421875,-0.6732940673828125,1.3513521316877477
1782295304.565283,-0.02880859375,-0.12451171875,0.9819335341453552,0.990215415280493,-0.396728515625,0.72479248046875,-0.5512237548828125,0.9932599271092971
1782295304.57598,-0.013183590024709702,-0.12255859375,0.9775390028953552,0.9852801216555435,-0.2765655517578125,0.8449554443359375,-1.2264251708984375,1.514779491261123
1782295304.586677,-0.0229492150247097,-0.12744140625,0.9707030653953552,0.9793020063622698,-0.0324249267578125,0.4825592041015625,-1.1615753173828125,1.258241621983379
1782295304.594857,-0.0209960900247097,-0.1298828125,0.9863280653953552,0.9950645372867932,-0.3376007080078125,-0.1316070556640625,-1.1615753173828125,1.216779303366441
1782295304.603036,-0.02783203125,-0.13916015625,0.9833983778953552,0.9935856987186568,-0.396728515625,-0.06866455078125,-0.9212493896484375,1.0053898614824128
1782295304.611215,-0.0205078087747097,-0.12744140625,0.9848632216453552,0.9932861861504899,-0.396728515625,-0.31280517578125,-0.9212493896484375,1.0506859811728588
1782295304.619394,-0.0288085900247097,-0.13134765625,0.9848632216453552,0.9940008586571986,-0.335693359375,-0.19073486328125,-0.9784698486328125,1.0518902339516747
1782295304.629784,-0.0292968712747097,-0.1259765625,0.9956054091453552,1.0039713799134382,-0.335693359375,0.29754638671875,-0.6732940673828125,0.8090418931988307
1782295304.640174,-0.0185546875,-0.1298828125,0.9829100966453552,0.9916279945113058,-0.213623046875,0.17547607421875,-0.4329681396484375,0.5137003686294294
1782295304.650564,-0.0249023400247097,-0.12646484375,0.9824218153953552,0.9908411106772486,-0.091552734375,-0.00762939453125,-0.1850128173828125,0.206566825575596
1782295304.661207,-0.0278320275247097,-0.12060546875,0.9809569716453552,0.9887349903124546,0.091552734375,-0.25177001953125,-0.2498626708984375,0.3663350927972997
1782295304.671849,-0.0249023400247097,-0.11865234375,0.9985350966453552,1.00586820431338,0.091552734375,-0.25177001953125,-0.2498626708984375,0.3663350927972997
1782295304.682491,-0.0229492150247097,-0.1337890625,0.9746093153953552,0.9840170208742745,0.030517578125,-0.19073486328125,-0.2498626708984375,0.3158203048476039
1782295304.693171,-0.0170898400247097,-0.12939453125,0.9877929091453552,0.9963783612199341,0.396728515625,-0.25177001953125,-0.0019073486328125,0.46987795843558033
1782295304.70385,-0.0063476525247097015,-0.12255859375,0.9838866591453552,0.9915108973878,0.213623046875,0.17547607421875,-0.3070831298828125,0.4131908849890169
1782295304.714529,-0.0170898400247097,-0.1279296875,0.9931640028953552,1.0015152541140064,-0.091552734375,-0.37384033203125,-0.2498626708984375,0.4588789070476823
1782295304.722545,-0.0219726525247097,-0.11865234375,0.9804686903953552,0.987866402395548,0.213623046875,0.17547607421875,-0.0629425048828125,0.2835285130287703
1782295304.730563,-0.015624996274709702,-0.12109375,0.9819335341453552,0.9894954786540637,0.030517578125,0.11444091796875,-0.4329681396484375,0.4488757692622476
1782295304.738581,-0.0170898400247097,-0.1298828125,0.9912108778953552,0.9998302916360662,0.274658203125,0.11444091796875,0.0553131103515625,0.3026440027923039
1782295304.746599,-0.0170898400247097,-0.11669921875,0.9873046278953552,0.9943244935897518,0.396728515625,0.11444091796875,-0.1850128173828125,0.45245992243675237
1782295304.757222,-0.0249023400247097,-0.1181640625,0.9790038466453552,0.9864235418681025,0.0286102294921875,-0.1316070556640625,-0.1850128173828125,0.2288420960577079
1782295304.767845,-0.0229492150247097,-0.13671875,0.9936522841453552,1.0032764050146374,0.091552734375,-0.06866455078125,0.0553131103515625,0.1271072927974406
1782295304.778468,-0.0209960900247097,-0.12548828125,0.9873046278953552,0.9954690215124681,0.213623046875,-0.55694580078125,0.1201629638671875,0.6084920451816714
1782295304.789162,-0.0166015587747097,-0.1337890625,0.9921874403953552,1.0013046698566155,-0.213623046875,-0.74005126953125,0.3643035888671875,0.8520726451145384
1782295304.799859,-0.0214843712747097,-0.1025390625,0.9790038466453552,0.9845935045966181,-0.213623046875,-0.25177001953125,0.4863739013671875,0.5878626717372546
1782295304.810556,-0.0253906212747097,-0.12890625,0.9873046278953552,0.9960079985629453,0.1506805419921875,0.2346038818359375,0.7266998291015625,0.778354834714727
1782295304.818546,-0.0283203087747097,-0.13623046875,0.9750975966453552,0.9849751791230515,0.335693359375,0.17547607421875,0.6084442138671875,0.7167190841188457
1782295304.826536,-0.0327148400247097,-0.13525390625,0.9809569716453552,0.9907777047013888,0.030517578125,0.48065185546875,0.7915496826171875,0.926557299248966
1782295304.834526,-0.0297851525247097,-0.130859375,0.9887694716453552,0.9978358579416485,0.1506805419921875,0.6656646728515625,0.9136199951171875,1.140401498550211
1782295304.842516,-0.014648430049419403,-0.1201171875,1.00830078125,1.015535908131851,0.030517578125,0.29754638671875,0.6694793701171875,0.7332583459030695
1782295304.853214,-0.0200195275247097,-0.10888671875,0.9907225966453552,0.9968893431600969,0.030517578125,-0.19073486328125,0.8525848388671875,0.8741922089058679
1782295304.863912,-0.0322265587747097,-0.10888671875,0.9799804091453552,0.9865376175895673,0.091552734375,-0.25177001953125,0.5435943603515625,0.6060238233867788
1782295304.87461,-0.0161132775247097,-0.11376953125,0.9863280653953552,0.9929985883877062,-0.0324249267578125,-0.1316070556640625,0.5435943603515625,0.5602380044069105
1782295304.885338,-0.015136715024709702,-0.13818359375,0.9926757216453552,1.0023616682951972,-0.152587890625,-0.19073486328125,0.6084442138671875,0.6556425961030627
1782295304.896068,-0.0263671837747097,-0.1396484375,0.9775390028953552,0.9878154770290077,-0.091552734375,-0.31280517578125,0.5435943603515625,0.633816858227282
1782295304.906798,-0.0180664025247097,-0.12353515625,0.9970702528953552,1.0048564170759444,-0.1544952392578125,0.0514984130859375,0.4863739013671875,0.5129136744471112
1782295304.917372,-0.0302734337747097,-0.12646484375,0.9775390028953552,0.9861502622211632,-0.091552734375,0.17547607421875,0.5435943603515625,0.5785054748235214
1782295304.927946,-0.012695308774709702,-0.123046875,0.9882811903953552,0.9959926784878548,0.091552734375,-0.25177001953125,0.4253387451171875,0.5026759333846899
1782295304.93852,-0.0244140587747097,-0.107421875,0.9931640028953552,0.9992548434415996,0.091552734375,-0.00762939453125,0.9136199951171875,0.9182274262460158
1782295304.946529,-0.0224609337747097,-0.11767578125,0.9814452528953552,0.988729926455985,0.030517578125,0.17547607421875,0.6084442138671875,0.6339775521154511
1782295304.954536,-0.0292968712747097,-0.12255859375,0.9863280653953552,0.9943449945340945,-0.0324249267578125,0.1125335693359375,0.8525848388671875,0.8605905458282259
1782295304.962543,-0.013671871274709702,-0.1162109375,0.9873046278953552,0.9942144287438032,-0.1544952392578125,0.2346038818359375,0.6084442138671875,0.6701582810905786
1782295304.97055,-0.0200195275247097,-0.1181640625,0.9819335341453552,0.989220396386975,-0.152587890625,0.48065185546875,0.3643035888671875,0.6221144391448022
1782295304.981293,-0.01416015625,-0.1298828125,0.9843749403953552,0.9930075922601467,-0.0324249267578125,0.1125335693359375,0.6084442138671875,0.6196124123120804
1782295304.992036,-0.0170898400247097,-0.12841796875,0.9833983778953552,0.9918949576326931,-0.2117156982421875,0.3566741943359375,0.5435943603515625,0.6837651982906058
1782295305.002779,-0.0288085900247097,-0.12109375,0.9931640028953552,1.000933747955078,0.213623046875,0.23651123046875,0.4863739013671875,0.5814911351217138
1782295305.013394,-0.0185546875,-0.138671875,0.9946288466453552,1.0044205831838113,0.1506805419921875,0.2346038818359375,0.3643035888671875,0.4587599720649816
1782295305.024012,-0.0205078087747097,-0.130859375,0.9960936903953552,1.0048618742352446,-0.152587890625,-0.00762939453125,0.1811981201171875,0.23701061318072475
1782295305.03463,-0.0278320275247097,-0.11865234375,0.9931640028953552,1.0006136802385972,0.152587890625,0.11444091796875,0.0553131103515625,0.19859337412834613
1782295305.042603,-0.0268554650247097,-0.111328125,0.9799804091453552,0.9866492637844548,0.091552734375,-0.00762939453125,-0.3070831298828125,0.32053105854359426
1782295305.050575,-0.020019523799419403,-0.12939453125,0.9931640028953552,1.001757686617721,-0.091552734375,-0.00762939453125,-0.4901885986328125,0.4987233432094926
1782295305.058547,-0.0346679650247097,-0.1279296875,0.9863280653953552,0.9951939134306169,-0.213623046875,0.11444091796875,-0.4901885986328125,0.5468239132401665
1782295305.066519,-0.0317382775247097,-0.13427734375,0.9887694716453552,0.998350034488218,-0.0324249267578125,-0.0705718994140625,-0.6732940673828125,0.6777585632325491
1782295305.077203,-0.0239257775247097,-0.1328125,0.9907225966453552,0.9998714249792956,-0.030517578125,-0.19073486328125,-0.7953643798828125,0.8184837245980542
1782295305.087887,-0.011230465024709702,-0.12646484375,0.9858397841453552,0.9939816698778422,-0.0324249267578125,-0.4940032958984375,-0.1850128173828125,0.5285076866325547
1782295305.098571,-0.0351562425494194,-0.1201171875,0.9951171278953552,1.0029567280565022,0.091552734375,-0.49591064453125,-0.7381439208984375,0.8939606918037604
1782295305.106646,-0.0253906212747097,-0.1298828125,0.9848632216453552,0.9937151473039414,0.1506805419921875,-0.2536773681640625,-0.5512237548828125,0.6252235286685968
1782295305.114722,-0.012695308774709702,-0.1337890625,0.9760741591453552,0.9852824205580989,0.030517578125,-0.37384033203125,-0.4329681396484375,0.5728431952798947
1782295305.122798,-0.0234375,-0.1298828125,0.9790038466453552,0.9878600068509518,0.335693359375,-0.55694580078125,-0.4329681396484375,0.7812426425170157
1782295305.130874,-0.0195312462747097,-0.1181640625,0.9765624403953552,0.983879268629276,0.213623046875,-0.49591064453125,-0.2498626708984375,0.5949735522055237
1782295305.141479,-0.0258789025247097,-0.1328125,0.9790038466453552,0.9883103811548959,0.4558563232421875,-0.1888275146484375,-0.1850128173828125,0.5269635284572525
1782295305.152084,-0.0224609337747097,-0.1240234375,0.9877929091453552,0.9958017563517311,0.1506805419921875,-0.5588531494140625,-0.1239776611328125,0.5919391259285353
1782295305.162689,-0.0209960900247097,-0.130859375,0.9931640028953552,1.0019679378447404,0.4558563232421875,-0.3108978271484375,-0.2498626708984375,0.6057175915177025
1782295305.173404,-0.0185546837747097,-0.11669921875,0.9882811903953552,0.9953203982819302,0.030517578125,-0.19073486328125,-0.3681182861328125,0.4157188752400976
1782295305.184119,-0.0209960900247097,-0.11962890625,0.9824218153953552,0.9899012750631259,0.152587890625,-0.37384033203125,-0.1239776611328125,0.4223862198019541
1782295305.194835,-0.0219726525247097,-0.119140625,0.9980468153953552,1.0053729316553,0.4558563232421875,-0.3757476806640625,-0.2498626708984375,0.6414223735361972
1782295305.205447,-0.02392578125,-0.12890625,0.9951171278953552,1.0037167740593889,0.396728515625,-0.37384033203125,-0.1850128173828125,0.5756560184339056
1782295305.216061,-0.010253902524709702,-0.1181640625,0.9721679091453552,0.9793765015332673,0.1506805419921875,0.0514984130859375,-0.2498626708984375,0.2962905104689148
1782295305.226675,-0.024414055049419403,-0.14501953125,0.9809569716453552,0.9919189940451549,0.030517578125,-0.06866455078125,-0.3070831298828125,0.3161426762827674
1782295305.234706,-0.01904296875,-0.1328125,0.9882811903953552,0.9973472344696825,0.1506805419921875,0.3566741943359375,-0.4901885986328125,0.6246646851470395
1782295305.242737,-0.0253906212747097,-0.119140625,0.9814452528953552,0.9889762164000376,-0.030517578125,0.29754638671875,-0.2498626708984375,0.38973905261405395
1782295305.250768,-0.00927734375,-0.1279296875,0.9887694716453552,0.9970542322806409,0.091552734375,0.11444091796875,-0.1850128173828125,0.23602620505570013
1782295305.258799,-0.0268554650247097,-0.13134765625,0.9868163466453552,0.9958814813071621,-0.091552734375,0.17547607421875,-0.1850128173828125,0.27093080000378233
