timestamp,accel_x,accel_y,accel_z,accel_rms,gyro_x,gyro_y,gyro_z,gyro_rms
1781790295.838552,0.048828125,-0.14990234375,0.9824218153953552,0.9949912169549359,-0.244140625,-0.5950927734375,0.2384185791015625,0.6859908692058039
1781790295.846536,0.0498046875,-0.169921875,0.9716796278953552,0.9876817553075202,0.244140625,-0.2288818359375,0.2994537353515625,0.4490702386192108
1781790295.85452,0.0532226525247097,-0.15771484375,0.9731444716453552,0.9872774611905056,-0.2460479736328125,-0.3528594970703125,-0.0667572021484375,0.4353228158966796
1781790295.862504,0.0634765625,-0.14697265625,0.9726561903953552,0.9857435266774023,-0.064849853515625,-0.0457763671875,-0.0667572021484375,0.10371838473756809
1781790295.873142,0.05126953125,-0.17333984375,0.9799804091453552,0.9965123524445479,-0.0019073486328125,0.8068084716796875,-0.1277923583984375,0.8168686766047251
1781790295.883782,0.06591796875,-0.158203125,0.9711913466453552,0.9861977687881422,-0.1239776611328125,0.6237030029296875,-0.2498626708984375,0.6832329402421792
1781790295.89442,0.0566406287252903,-0.16650390625,0.9736327528953552,0.9893899378553902,0.118255615234375,0.8087158203125,-0.4940032958984375,0.9550104318365844
1781790295.905095,0.0566406287252903,-0.15283203125,0.9843749403953552,0.9977774370453344,0.0591278076171875,0.6237030029296875,-0.3719329833984375,0.7285847086213019
1781790295.915771,0.0532226525247097,-0.16064453125,0.9765624403953552,0.9911173069587828,-0.1239776611328125,0.2613067626953125,-0.2498626708984375,0.38220810954082035
1781790295.926447,0.05712890625,-0.15869140625,0.9790038466453552,0.9934259942710005,-0.064849853515625,0.2593994140625,-0.4940032958984375,0.5617230775706883
1781790295.934443,0.0566406287252903,-0.17578125,0.9833983778953552,1.0005896153374643,-0.064849853515625,0.0152587890625,-0.0057220458984375,0.06686610467131845
1781790295.942437,0.0585937462747097,-0.162109375,0.9843749403953552,0.9993531407084059,0.1811981201171875,-0.3528594970703125,-0.0057220458984375,0.3967055900992327
1781790295.950431,0.0561523474752903,-0.16162109375,0.9697265028953552,0.9847050088679287,-0.1239776611328125,-0.2918243408203125,0.1773834228515625,0.36331361804604656
1781790295.958425,0.0610351599752903,-0.1513671875,0.9819335341453552,0.9954048330624364,-0.1239776611328125,0.1964569091796875,0.1163482666015625,0.259812811011287
1781790295.96675,0.05517578125,-0.154296875,0.9755858778953552,0.9892520900256742,0.179290771484375,-0.1068115234375,0.2384185791015625,0.3168553315620711
1781790295.975075,0.0634765625,-0.15771484375,0.9873046278953552,1.0018351532011087,-0.064849853515625,0.0762939453125,0.2384185791015625,0.2585917408834876
1781790295.9834,0.06787109375,-0.16357421875,0.9833983778953552,0.9992173837827832,-0.125885009765625,0.0762939453125,0.1163482666015625,0.18762921125514148
1781790295.991724,0.0556640662252903,-0.15283203125,0.9863280653953552,0.9996495238988906,0.0591278076171875,-0.3528594970703125,0.1163482666015625,0.3762217982088721
1781790296.001125,0.0478515662252903,-0.15234375,0.9746093153953552,0.9876040239942722,-0.186920166015625,-0.0457763671875,-0.0057220458984375,0.1925288707323072
1781790296.010525,0.0502929724752903,-0.15625,0.9702147841453552,0.9840021204014849,0.06103515625,0.0762939453125,-0.0057220458984375,0.09787133492025374
1781790296.019924,0.072265625,-0.1669921875,0.9819335341453552,0.9986501773503389,-0.125885009765625,0.0762939453125,0.0553131103515625,0.15724929873230714
1781790296.029325,0.0571289099752903,-0.1708984375,0.9833983778953552,0.9997711527855373,-0.1239776611328125,0.1354217529296875,-0.3108978271484375,0.3610636655108508
1781790296.038725,0.0610351599752903,-0.16796875,0.9794921278953552,0.9956624027946133,0.06103515625,0.0762939453125,-0.3719329833984375,0.3845519477645004
1781790296.04929,0.0522460974752903,-0.17041015625,0.9843749403953552,1.0003815768660007,-0.4291534423828125,0.1354217529296875,-0.3719329833984375,0.5838200685273072
1781790296.059855,0.0546875,-0.1533203125,0.9648436903953552,0.9784790175456374,-0.370025634765625,0.0762939453125,-0.3719329833984375,0.5301640129381783
1781790296.07042,0.0522460974752903,-0.14599609375,0.9702147841453552,0.9825279850802594,-0.4291534423828125,-0.0438690185546875,-0.1888275146484375,0.47090657054905843
1781790296.08117,0.0551757849752903,-0.1611328125,0.9799804091453552,0.9946706755607594,-0.6122589111328125,-0.0438690185546875,-0.3719329833984375,0.7177183355538237
1781790296.091921,0.05419921875,-0.1650390625,0.9721679091453552,0.9875656388494087,-0.4291534423828125,-0.1087188720703125,-0.0057220458984375,0.4427473456301266
1781790296.102672,0.0556640662252903,-0.15234375,0.9868163466453552,1.000056802606373,-0.4901885986328125,0.1354217529296875,0.1163482666015625,0.5216903607862984
1781790296.110626,0.04150390625,-0.16845703125,0.9780272841453552,0.9932963878643231,-0.186920166015625,0.0152587890625,0.1163482666015625,0.2207009248919246
1781790296.11858,0.06494140625,-0.15185546875,0.9775390028953552,0.9913929452122681,0.118255615234375,0.0762939453125,-0.0667572021484375,0.15576161486224593
1781790296.126534,0.05859375,-0.1640625,0.9941405653953552,1.009289450658189,0.362396240234375,0.0762939453125,0.0553131103515625,0.37444804873856896
1781790296.134488,0.06884765625,-0.15966796875,0.9780272841453552,0.9933635933275432,0.3032684326171875,0.1354217529296875,0.1163482666015625,0.3519200371246616
1781790296.145309,0.0561523474752903,-0.15283203125,0.9746093153953552,0.9881164068865519,0.911712646484375,0.0152587890625,-0.0057220458984375,0.9118582796753345
1781790296.15613,0.05419921875,-0.1484375,0.9667968153953552,0.9796261169333742,0.5474090576171875,0.1354217529296875,-0.1888275146484375,0.5946861002379259
1781790296.166951,0.0512695349752903,-0.1533203125,0.9829100966453552,0.9961164297054144,0.301361083984375,-0.1068115234375,0.1773834228515625,0.36563928014070557
1781790296.174818,0.05908203125,-0.15283203125,0.9902343153953552,1.0036993153226392,0.3643035888671875,-0.0438690185546875,-0.0057220458984375,0.36698002324340234
1781790296.182688,0.05419921875,-0.1640625,0.9702147841453552,0.9854799777740685,0.118255615234375,-0.0457763671875,0.1773834228515625,0.21804757515249187
1781790296.190558,0.064453125,-0.16162109375,0.9799804091453552,0.9953075834011864,-0.003814697265625,-0.4119873046875,0.1163482666015625,0.4281179864010476
1781790296.198428,0.05810546875,-0.154296875,0.9785155653953552,0.9923086630955181,-0.064849853515625,-0.1678466796875,-0.1888275146484375,0.26083297657969196
1781790296.209194,0.0595703125,-0.16064453125,0.9868163466453552,1.0015796471366447,0.423431396484375,-0.4119873046875,-0.0667572021484375,0.5945453816077174
1781790296.219959,0.05126953125,-0.1591796875,0.9780272841453552,0.9922218029654114,0.362396240234375,0.0762939453125,-0.1888275146484375,0.4157013727613411
1781790296.230726,0.06640625,-0.1767578125,0.9785155653953552,0.9965670203452648,0.3643035888671875,0.3185272216796875,-0.0667572021484375,0.4885009926818787
1781790296.23894,0.0527343787252903,-0.154296875,0.9804686903953552,0.993935256030236,0.1811981201171875,0.0133514404296875,-0.2498626708984375,0.30893749206603444
1781790296.247153,0.06396484375,-0.1484375,0.9746093153953552,0.9879213077455182,-0.2460479736328125,0.1964569091796875,0.1163482666015625,0.3356662652612524
1781790296.255366,0.0527343787252903,-0.15576171875,0.9716796278953552,0.9854967919756779,-0.2460479736328125,0.3185272216796875,0.2384185791015625,0.4678061726191757
1781790296.263579,0.060546875,-0.1455078125,0.9731444716453552,0.9858238231371356,-0.3070831298828125,0.1354217529296875,-0.1888275146484375,0.38509080762007225
1781790296.273843,0.06884765625,-0.1552734375,0.9829100966453552,0.9974778685522633,-0.4291534423828125,-0.0438690185546875,-0.3108978271484375,0.531746769452894
1781790296.284106,0.05517578125,-0.15478515625,0.9833983778953552,0.9970331895574494,-0.553131103515625,0.1983642578125,-0.3108978271484375,0.6648006132514747
1781790296.294371,0.0561523474752903,-0.166015625,0.9897460341453552,1.0051425202316262,-0.553131103515625,-0.1068115234375,-0.3108978271484375,0.6434439976727364
1781790296.302387,0.0546875,-0.1689453125,0.9853515028953552,1.0012246628654868,-0.3070831298828125,0.0133514404296875,-0.1277923583984375,0.3328801533363118
1781790296.310403,0.0590820275247097,-0.17138671875,0.9794921278953552,0.9961269607581621,-0.3070831298828125,0.1964569091796875,0.2384185791015625,0.4355901567802793
1781790296.318419,0.06494140625,-0.166015625,0.9716796278953552,0.9878966915911421,0.2422332763671875,0.1964569091796875,-0.1277923583984375,0.33705068492595136
1781790296.326435,0.048828125,-0.16357421875,0.9838866591453552,0.9985858345054254,0.423431396484375,0.1983642578125,-0.1277923583984375,0.4847405627459359
1781790296.337108,0.0498046875,-0.1591796875,0.9809569716453552,0.995035305920949,0.2422332763671875,0.1354217529296875,0.1773834228515625,0.32936437276771113
1781790296.347783,0.05029296875,-0.1640625,0.9824218153953552,0.997295598093486,0.3643035888671875,0.1964569091796875,0.1773834228515625,0.45030800651163755
1781790296.358457,0.0429687537252903,-0.14990234375,0.9746093153953552,0.9870057467481387,0.1811981201171875,0.4444122314453125,0.2384185791015625,0.5358902957257322
1781790296.366521,0.04833984375,-0.1552734375,0.9814452528953552,0.9948273042682677,0.244140625,0.0762939453125,-0.1277923583984375,0.2859305820155865
1781790296.374585,0.03857421875,-0.15478515625,0.9672850966453552,0.9803503828426468,-0.064849853515625,0.0762939453125,-0.0057220458984375,0.1002946229944985
1781790296.382648,0.068359375,-0.177734375,0.9970702528953552,1.0150919177177202,-0.186920166015625,-0.2288818359375,0.1163482666015625,0.31758929835027144
1781790296.398645,0.0532226525247097,-0.166015625,0.9790038466453552,0.994405536103007,-0.1850128173828125,-0.1697540283203125,0.1773834228515625,0.3074264976046073
1781790296.406579,0.05517578125,-0.150390625,0.9765624403953552,0.9896140191586669,-0.4291534423828125,-0.2918243408203125,0.1773834228515625,0.5484514579311136
1781790296.414512,0.06396484375,-0.166015625,0.9711913466453552,0.9873526830767824,-0.186920166015625,-0.1068115234375,0.2994537353515625,0.3688094218134239
1781790296.422445,0.0498046875,-0.169921875,0.9794921278953552,0.9953686649224293,-0.1850128173828125,-0.1697540283203125,0.3604888916015625,0.43931584730694895
1781790296.433131,0.06396484375,-0.15234375,0.9853515028953552,0.9991084544023034,0.0591278076171875,-0.0438690185546875,-0.1277923583984375,0.14748381364611288
1781790296.443817,0.060546875,-0.1533203125,0.9814452528953552,0.9951923566467897,-0.003814697265625,0.0762939453125,0.1163482666015625,0.139184184258713
1781790296.454503,0.05419921875,-0.16259765625,0.9804686903953552,0.9953363280704098,0.1811981201171875,0.3185272216796875,0.1773834228515625,0.4071329369966519
1781790296.462702,0.05908203125,-0.1552734375,0.9770507216453552,0.9910744873506743,0.06103515625,0.0762939453125,0.4215240478515625,0.432699178768547
1781790296.470902,0.0634765625,-0.16552734375,0.9658202528953552,0.9819558729487772,0.3032684326171875,0.1354217529296875,0.2384185791015625,0.40884497336942144
1781790296.479104,0.05322265625,-0.150390625,0.9814452528953552,0.994326292349259,-0.0019073486328125,0.1354217529296875,0.1773834228515625,0.22317609156872661
1781790296.487305,0.0620117224752903,-0.16650390625,0.9663085341453552,0.9825076018448948,0.3643035888671875,0.3185272216796875,-0.0057220458984375,0.4839518959790915
1781790296.495068,0.064453125,-0.1640625,0.9780272841453552,0.9937847240530794,0.2422332763671875,0.0133514404296875,-0.1277923583984375,0.2742008534015976
1781790296.502831,0.0561523474752903,-0.16162109375,0.9672850966453552,0.9823008308375526,0.244140625,0.0762939453125,0.1773834228515625,0.31127205073580505
1781790296.510594,0.0571289099752903,-0.16259765625,0.9790038466453552,0.9940574640931782,0.3643035888671875,0.2613067626953125,-0.1888275146484375,0.48647112903041123
1781790296.518357,0.0620117224752903,-0.1572265625,0.9946288466453552,1.0088866082266075,0.2422332763671875,0.0133514404296875,-0.3719329833984375,0.44406009197043605
1781790296.528177,0.0507812537252903,-0.146484375,0.9755858778953552,0.9878280280483561,0.2422332763671875,-0.0438690185546875,-0.3719329833984375,0.4460219670691076
1781790296.537997,0.0571289099752903,-0.16552734375,0.9794921278953552,0.9950215286579815,0.06103515625,0.0762939453125,-0.4940032958984375,0.503572549637416
1781790296.547817,0.04443359375,-0.1552734375,0.9755858778953552,0.98886398953317,0.244140625,-0.1068115234375,-0.1888275146484375,0.32660247488764704
1781790296.557636,0.04541015625,-0.17041015625,0.9731444716453552,0.9889953823642031,0.118255615234375,-0.2899169921875,-0.3108978271484375,0.44124110395466015
1781790296.567456,0.0478515662252903,-0.1611328125,0.9833983778953552,0.9976602253781541,0.423431396484375,-0.2899169921875,-0.0667572021484375,0.5174964095783102
1781790296.576849,0.0576171912252903,-0.16015625,0.9770507216453552,0.9917650315505501,0.3643035888671875,-0.1087188720703125,0.1773834228515625,0.4195256567938247
1781790296.586241,0.0483398400247097,-0.15185546875,0.9697265028953552,0.9827341013420426,-0.003814697265625,-0.2899169921875,0.1773834228515625,0.3398989452422757
1781790296.595633,0.0498046875,-0.154296875,0.9775390028953552,0.9908938059718526,-0.125885009765625,-0.4119873046875,0.2994537353515625,0.5246457038072132
1781790296.605025,0.0654296875,-0.1630859375,0.9775390028953552,0.9932072136257604,0.118255615234375,-0.1068115234375,0.4215240478515625,0.45063911835377374
1781790296.614417,0.05712890625,-0.16845703125,0.9746093153953552,0.9907092413833071,0.0591278076171875,-0.2269744873046875,0.6046295166015625,0.6485293885913576
1781790296.624022,0.0571289099752903,-0.1591796875,0.9833983778953552,0.9978347833758745,0.5474090576171875,0.0133514404296875,0.1773834228515625,0.5755864974314643
1781790296.633629,0.0561523474752903,-0.16650390625,0.9814452528953552,0.9970513634484044,0.423431396484375,-0.0457763671875,-0.0057220458984375,0.42593704362365176
1781790296.643234,0.068359375,-0.15966796875,0.9877929091453552,1.0029465069249635,0.5474090576171875,0.2613067626953125,0.0553131103515625,0.6090955924716627
1781790296.652841,0.06005859375,-0.17041015625,0.9892577528953552,1.0056229699544181,0.3032684326171875,0.6237030029296875,-0.1888275146484375,0.7187718750576578
1781790296.662446,0.0620117224752903,-0.16552734375,0.9863280653953552,1.002041819406669,0.244140625,1.0528564453125,-0.4329681396484375,1.1642906635209667
1781790296.672138,0.0415039099752903,-0.142578125,0.9785155653953552,0.9897190550821704,-0.2460479736328125,1.2950897216796875,-0.6771087646484375,1.4819828850877181
1781790296.681833,0.048828125,-0.158203125,0.9819335341453552,0.99579409519738,-0.492095947265625,1.0528564453125,-0.9212493896484375,1.4830258101863718
1781790296.691528,0.06982421875,-0.1572265625,0.9697265028953552,0.9848680642082317,-0.675201416015625,0.5035400390625,-0.9822845458984375,1.2939599886547763
1781790296.701223,0.0512695349752903,-0.15234375,0.9619140028953552,0.9752516251444088,-0.675201416015625,0.5645751953125,-0.6771087646484375,1.110458636111848
1781790296.710918,0.060546875,-0.15380859375,0.9790038466453552,0.9928602818775764,-0.675201416015625,0.4425048828125,-0.5550384521484375,0.979681176131165
1781790296.719025,0.0576171912252903,-0.15576171875,0.9663085341453552,0.9804762296531165,-0.553131103515625,0.1983642578125,-0.3108978271484375,0.6648006132514747
1781790296.727129,0.0439453125,-0.16552734375,0.9716796278953552,0.9866568761664357,-0.6122589111328125,0.1964569091796875,-0.1277923583984375,0.6555815573145785
1781790296.735233,0.04541015625,-0.16455078125,0.9780272841453552,0.9928123742346154,-0.2460479736328125,0.0133514404296875,0.0553131103515625,0.25254189051942416
1781790296.743337,0.0517578162252903,-0.15966796875,0.9882811903953552,1.0024332611572813,-0.1239776611328125,0.2613067626953125,-0.0057220458984375,0.2892826066315268
1781790296.752773,0.06787109375,-0.16064453125,0.9741210341453552,0.9896084781123138,0.484466552734375,-0.1068115234375,0.2994537353515625,0.5794731071183306
1781790296.762208,0.0424804724752903,-0.173828125,0.9770507216453552,0.9933020287155608,0.244140625,-0.2288818359375,0.4215240478515625,0.5382137702759728
1781790296.771643,0.0527343787252903,-0.15771484375,0.9731444716453552,0.9872512594737709,0.606536865234375,-0.2288818359375,0.6656646728515625,0.9291842230650716
1781790296.781077,0.04638671875,-0.17431640625,0.9658202528953552,0.9825205840424691,0.606536865234375,-0.2899169921875,0.5435943603515625,0.8645424569409034
1781790296.790513,0.0566406287252903,-0.162109375,0.9853515028953552,1.0002025767530405,0.484466552734375,-0.5950927734375,0.2384185791015625,0.8035463076740958
1781790296.798572,0.06591796875,-0.16650390625,0.9824218153953552,0.9986097099294299,0.8525848388671875,-0.1697540283203125,0.3604888916015625,0.9411001958161972
1781790296.806631,0.0517578162252903,-0.15576171875,0.9707030653953552,0.984482110419638,0.911712646484375,-0.3509521484375,0.2384185791015625,1.0055997111740078
1781790296.81469,0.05419921875,-0.1552734375,0.9814452528953552,0.995129227857872,0.6694793701171875,-0.2918243408203125,0.2384185791015625,0.7682496285508533
1781790296.822749,0.0615234412252903,-0.1611328125,0.9824218153953552,0.9974475126286432,0.301361083984375,-0.2899169921875,-0.0057220458984375,0.41821418807657434
1781790296.830807,0.0551757849752903,-0.14697265625,0.9799804091453552,0.9924751539668476,-0.064849853515625,-0.2288818359375,0.1773834228515625,0.2967444641870424
1781790296.838867,0.04931640625,-0.166015625,0.9838866591453552,0.999012639416421,-0.6122589111328125,-0.2918243408203125,0.1163482666015625,0.6881564787880263
1781790296.848389,0.0478515662252903,-0.1572265625,0.9663085341453552,0.9801847517217991,-0.9174346923828125,-0.1697540283203125,0.1163482666015625,0.9402338879553893
1781790296.857911,0.0561523474752903,-0.16796875,0.9692382216453552,0.985286413892833,-0.827789306640625,-0.072479248046875,0.0705718994140625,0.8339477025407023
1781790296.867433,0.0541992150247097,-0.15673828125,0.9877929091453552,1.0016183280453403,-1.0738372802734375,-0.1926422119140625,0.1926422119140625,1.107857638926292
1781790296.876955,0.0624999962747097,-0.16552734375,0.9755858778953552,0.9915005578476093,-0.278472900390625,0.110626220703125,0.0095367431640625,0.29979370645362247
1781790296.886477,0.05029296875,-0.1689453125,0.9873046278953552,1.0029169106087488,-0.034332275390625,0.232696533203125,0.2536773681640625,0.3459459333723929
1781790296.894481,0.0585937462747097,-0.1611328125,0.9833983778953552,0.9982331290905352,0.2689361572265625,0.1735687255859375,-0.0553131103515625,0.3248265680976249
1781790296.902484,0.06005859375,-0.158203125,0.9643554091453552,0.9790896887368893,0.4520416259765625,0.4787445068359375,-0.1125335693359375,0.6679833371189776
1781790296.910489,0.0634765625,-0.17626953125,0.9868163466453552,1.0044434895206384,0.8792877197265625,0.9059906005859375,0.1926422119140625,1.2771362042566754
1781790296.918493,0.07275390625,-0.1689453125,0.9707030653953552,0.9879777784233286,0.8792877197265625,0.7839202880859375,0.0705718994140625,1.1801094462470783
1781790296.926497,0.0600585974752903,-0.1572265625,0.9794921278953552,0.9938470987507265,0.5741119384765625,0.4787445068359375,0.1926422119140625,0.7719532644778723
1781790296.934501,0.0556640625,-0.1591796875,0.9858397841453552,1.0001583578465774,0.331878662109375,0.720977783203125,-0.1735687255859375,0.812452160276239
1781790296.944115,0.0556640625,-0.150390625,0.9799804091453552,0.9930143152294394,0.0858306884765625,0.1735687255859375,-0.2956390380859375,0.3534055042387789
1781790296.953728,0.0532226525247097,-0.16796875,0.9736327528953552,0.9894477698337171,-0.2193450927734375,0.5397796630859375,0.0705718994140625,0.5869026728443691
1781790296.963343,0.0371093787252903,-0.1728515625,0.9750975966453552,0.9909944962670661,-0.156402587890625,0.415802001953125,0.0705718994140625,0.4498149256238834
1781790296.972957,0.05419921875,-0.14892578125,0.9907225966453552,1.0033183478526386,-0.400543212890625,0.415802001953125,0.1926422119140625,0.6086355165713826
1781790296.98257,0.0483398400247097,-0.16064453125,0.9790038466453552,0.9932733447045425,-0.2193450927734375,0.0514984130859375,-0.0553131103515625,0.23199977683377607
1781790296.993217,0.0576171912252903,-0.14501953125,0.9736327528953552,0.9860583870538545,-0.2193450927734375,0.1735687255859375,-0.1735687255859375,0.3291875980756882
1781790297.003865,0.0537109375,-0.15576171875,0.9838866591453552,0.9975868563084076,-0.034332275390625,-0.072479248046875,-0.2956390380859375,0.3063239908517068
1781790297.014512,0.0419921912252903,-0.1650390625,0.9716796278953552,0.9864900078265548,-0.522613525390625,-0.072479248046875,-0.1735687255859375,0.5554315806831516
1781790297.022638,0.0517578125,-0.16943359375,0.9755858778953552,0.9915414358435436,-0.461578369140625,0.293731689453125,0.1926422119140625,0.5800378591597696
1781790297.030765,0.0561523474752903,-0.158203125,0.9785155653953552,0.9928111736920284,-0.461578369140625,-0.011444091796875,-0.0553131103515625,0.465021610543358
1781790297.038892,0.0537109375,-0.16357421875,0.9794921278953552,0.9945080283515929,-0.156402587890625,0.110626220703125,0.0705718994140625,0.2041575940121987
1781790297.047019,0.0473632849752903,-0.166015625,0.9824218153953552,0.9974753590302352,-0.278472900390625,0.232696533203125,-0.0553131103515625,0.3670890532193573
1781790297.05794,0.05810546875,-0.1640625,0.9726561903953552,0.9881056695107627,-0.0972747802734375,-0.0095367431640625,-0.4787445068359375,0.4886201338187036
1781790297.068863,0.0517578125,-0.1494140625,0.9897460341453552,1.0022976829934298,-0.4024505615234375,-0.1316070556640625,-0.2346038818359375,0.48407215675308607
1781790297.079785,0.05322265625,-0.14013671875,0.9799804091453552,0.9913791168816398,-0.156402587890625,-0.12969970703125,-0.0553131103515625,0.21057854515510568
1781790297.090015,0.0571289099752903,-0.16650390625,0.9741210341453552,0.989898506068117,0.026702880859375,-0.560760498046875,-0.3604888916015625,0.6671713580363686
1781790297.100245,0.06396484375,-0.16943359375,0.9829100966453552,0.9994556028230486,0.0286102294921875,-0.3147125244140625,-0.3604888916015625,0.4793899865691717
1781790297.110476,0.05419921875,-0.162109375,0.9780272841453552,0.9928516371083549,0.026702880859375,-0.194549560546875,0.1926422119140625,0.27508834429381906
1781790297.118471,0.05908203125,-0.15576171875,0.9809569716453552,0.9950019998292498,0.4520416259765625,-0.4367828369140625,0.0095367431640625,0.6286587529879849
1781790297.126465,0.06494140625,-0.15234375,0.9785155653953552,0.9924307109973883,-0.034332275390625,-0.255584716796875,0.2536773681640625,0.36173810928941647
1781790297.134459,0.0522460974752903,-0.15380859375,0.9790038466453552,0.9923886687982447,0.148773193359375,-0.072479248046875,0.0705718994140625,0.17990858080340408
1781790297.142452,0.06591796875,-0.15576171875,0.9785155653953552,0.9930254797098974,0.3910064697265625,-0.1926422119140625,0.5588531494140625,0.7087410837458121
1781790297.150756,0.0537109337747097,-0.14599609375,0.9799804091453552,0.9922506367374666,0.026702880859375,-0.560760498046875,0.6160736083984375,0.8334938937874954
1781790297.159059,0.0556640625,-0.1650390625,0.9716796278953552,0.9871664901483127,-0.156402587890625,0.110626220703125,0.3757476806640625,0.4217656336525814
1781790297.167361,0.0576171912252903,-0.15283203125,0.9853515028953552,0.998796753478318,-0.278472900390625,-0.194549560546875,0.2536773681640625,0.4239680352097248
1781790297.175665,0.0556640662252903,-0.15771484375,0.9716796278953552,0.9859684373623105,-0.156402587890625,-0.194549560546875,0.3147125244140625,0.401690520215425
1781790297.185942,0.0566406287252903,-0.16650390625,0.9858397841453552,1.0014049089267865,-0.156402587890625,-0.12969970703125,0.1277923583984375,0.2400305613206607
1781790297.196221,0.064453125,-0.16455078125,0.9799804091453552,0.995787511089062,0.5741119384765625,-0.1316070556640625,0.1926422119140625,0.619706347242807
1781790297.206499,0.0444335900247097,-0.16162109375,0.9775390028953552,0.9918055374160176,0.514984130859375,-0.072479248046875,0.1277923583984375,0.53553037570194
1781790297.214551,0.0566406287252903,-0.15087890625,0.9760741591453552,0.9892893253871209,0.3910064697265625,0.1735687255859375,-0.0553131103515625,0.4313602926166476
1781790297.222605,0.0595703125,-0.15478515625,0.9746093153953552,0.9886204450556784,0.2689361572265625,-0.1316070556640625,-0.1125335693359375,0.3198607165499387
1781790297.230658,0.0615234412252903,-0.15576171875,0.9833983778953552,0.9975566232025989,0.209808349609375,0.110626220703125,-0.0553131103515625,0.24355131789754367
1781790297.238711,0.05859375,-0.16015625,0.9755858778953552,0.9903792491273108,-0.0972747802734375,0.2956390380859375,0.1926422119140625,0.3660271103740357
1781790297.250657,0.0620117224752903,-0.15673828125,0.9838866591453552,0.9982210679893332,-0.0972747802734375,0.0514984130859375,-0.2956390380859375,0.3154630093497395
1781790297.262607,0.05908203125,-0.16552734375,0.9804686903953552,0.9960968029218543,-0.705718994140625,0.110626220703125,-0.3604888916015625,0.8001435498496724
1781790297.274557,0.0532226525247097,-0.15771484375,0.9868163466453552,1.000756276366698,-0.4024505615234375,0.4787445068359375,-0.1125335693359375,0.6354734939583251
1781790297.286506,0.06591796875,-0.1689453125,0.9750975966453552,0.9918180378493812,-0.217437744140625,0.415802001953125,0.3757476806640625,0.6011296007764155
1781790297.297209,0.0571289099752903,-0.1591796875,0.9873046278953552,1.0016847375951918,-0.2193450927734375,0.6618499755859375,-0.3604888916015625,0.7849266850318042
1781790297.307912,0.0615234412252903,-0.158203125,0.9731444716453552,0.9878378031204743,0.026702880859375,0.232696533203125,0.1277923583984375,0.26681755428752757
1781790297.318614,0.0703125,-0.1572265625,0.9794921278953552,0.9945194157083045,0.0286102294921875,0.3566741943359375,-0.1125335693359375,0.375098427568381
1781790297.326554,0.06005859375,-0.16552734375,0.9770507216453552,0.9927912413392191,0.2689361572265625,0.1735687255859375,0.0705718994140625,0.32776996835009975
1781790297.334493,0.0517578162252903,-0.15576171875,0.9926757216453552,1.006153901206218,0.209808349609375,0.293731689453125,-0.4177093505859375,0.5520678857909799
1781790297.342432,0.0532226525247097,-0.15625,0.9858397841453552,0.9995633012698728,-0.0972747802734375,0.3566741943359375,-0.0553131103515625,0.3738160028131484
1781790297.350371,0.04931640625,-0.15771484375,0.9760741591453552,0.9899630518437615,0.1468658447265625,0.3566741943359375,-0.3604888916015625,0.5279567200259506
1781790297.358385,0.0527343787252903,-0.17236328125,0.9775390028953552,0.9940183688465994,-0.095367431640625,0.232696533203125,-0.3604888916015625,0.4395393777019363
1781790297.366399,0.03369140625,-0.1552734375,0.9770507216453552,0.9898853791807809,-0.2193450927734375,0.0514984130859375,-0.5435943603515625,0.5884379193085556
1781790297.374413,0.0605468787252903,-0.1474609375,0.9790038466453552,0.9918967609374254,-0.2193450927734375,0.2956390380859375,-0.1735687255859375,0.40698994221687196
1781790297.382427,0.0620117224752903,-0.16943359375,0.9824218153953552,0.9988522512264253,-0.217437744140625,0.110626220703125,-0.3604888916015625,0.43528102905151234
1781790297.393078,0.0571289099752903,-0.1708984375,0.9760741591453552,0.9925677571058907,-0.2193450927734375,-0.0095367431640625,-0.4177093505859375,0.4718943957718621
1781790297.403729,0.04931640625,-0.16552734375,0.9799804091453552,0.9950844244399786,-0.339508056640625,-0.194549560546875,0.0095367431640625,0.3914156377855301
1781790297.41438,0.0537109375,-0.177734375,0.9794921278953552,0.9969349033275645,-0.0362396240234375,-0.3147125244140625,0.2536773681640625,0.4058441702070849
1781790297.4251,0.0507812537252903,-0.1611328125,0.9785155653953552,0.9929930668011052,-0.0362396240234375,-0.3147125244140625,0.3147125244140625,0.4465436780377748
1781790297.435821,0.07080078125,-0.1708984375,0.9780272841453552,0.9953674673698609,0.2117156982421875,-0.1316070556640625,0.1277923583984375,0.2801336124919238
1781790297.446542,0.0571289099752903,-0.14453125,0.9790038466453552,0.9912625920148149,0.148773193359375,-0.255584716796875,0.3757476806640625,0.47816663418405414
1781790297.457376,0.0488281212747097,-0.1669921875,0.9755858778953552,0.990978496871705,0.0858306884765625,-0.3147125244140625,0.7419586181640625,0.8105019871507766
1781790297.468214,0.064453125,-0.162109375,0.9716796278953552,0.9872157586120738,-0.0972747802734375,-0.1926422119140625,0.2536773681640625,0.3330549681464509
1781790297.47905,0.0473632849752903,-0.1689453125,0.9848632216453552,1.000370613687268,-0.2193450927734375,-0.1316070556640625,0.3757476806640625,0.4545536341827814
1781790297.486904,0.0595703125,-0.16943359375,0.9741210341453552,0.9905393248058373,0.026702880859375,-0.43487548828125,0.3147125244140625,0.5374697267540912
1781790297.494758,0.06640625,-0.16064453125,0.9746093153953552,0.9899897843488071,-0.0362396240234375,-0.3147125244140625,0.3147125244140625,0.4465436780377748
1781790297.502612,0.0512695349752903,-0.15576171875,0.9799804091453552,0.9936054954322839,0.026702880859375,-0.377655029296875,0.2536773681640625,0.4557286167425289
1781790297.510466,0.0546875,-0.1728515625,0.9780272841453552,0.9946887723542881,-0.0972747802734375,-0.1926422119140625,0.0095367431640625,0.21601933746441637
1781790297.520103,0.0732421875,-0.14892578125,0.9848632216453552,0.998748652915425,0.026702880859375,-0.011444091796875,0.0705718994140625,0.07631778344628355
1781790297.52974,0.0581054650247097,-0.16748046875,0.9750975966453552,0.991080862221648,0.2117156982421875,-0.0095367431640625,0.0095367431640625,0.21214484632564512
1781790297.539377,0.0581054650247097,-0.15234375,0.9765624403953552,0.9900803317007827,0.026702880859375,-0.255584716796875,0.0095367431640625,0.257152757668484
1781790297.549014,0.07080078125,-0.16748046875,0.9775390028953552,0.9943062708340803,0.209808349609375,-0.072479248046875,0.0705718994140625,0.23292311596352716
1781790297.558651,0.0624999962747097,-0.1748046875,0.9755858778953552,0.9930915030626142,-0.034332275390625,-0.072479248046875,-0.2346038818359375,0.2479333134200176
1781790297.568266,0.0654296875,-0.15234375,0.9770507216453552,0.9910185542350454,-0.278472900390625,-0.072479248046875,-0.0553131103515625,0.2930186646378888
1781790297.577878,0.05517578125,-0.16552734375,0.9790038466453552,0.9944305908970624,0.026702880859375,0.05340576171875,-0.0553131103515625,0.08139262502041576
1781790297.587492,0.0517578162252903,-0.16064453125,0.9858397841453552,1.0001827917759352,-0.0972747802734375,0.3566741943359375,-0.3604888916015625,0.5163633456690732
1781790297.597105,0.05078125,-0.16357421875,0.9760741591453552,0.9909873987809066,0.2117156982421875,-0.0095367431640625,-0.4787445068359375,0.5235559083593072
1781790297.606718,0.048828125,-0.16064453125,0.9765624403953552,0.9908910390161371,-0.0972747802734375,0.4787445068359375,-0.1735687255859375,0.5184445854711544
1781790297.616261,0.0366210974752903,-0.16552734375,0.9873046278953552,1.001753879240211,-0.0362396240234375,0.3566741943359375,-0.1125335693359375,0.37575736251208236
1781790297.625805,0.06396484375,-0.15771484375,0.9711913466453552,0.9859909254013788,0.026702880859375,0.110626220703125,-0.0553131103515625,0.1265335715532073
1781790297.635349,0.0551757849752903,-0.18115234375,0.9873046278953552,1.005301430993383,-0.0972747802734375,0.1125335693359375,0.0095367431640625,0.14905413974428583
1781790297.644893,0.04443359375,-0.16259765625,0.9838866591453552,0.9982210677579099,-0.0972747802734375,0.1125335693359375,-0.1735687255859375,0.2285875972275361
1781790297.654437,0.0522460974752903,-0.1552734375,0.9775390028953552,0.9911720321296951,-0.0972747802734375,0.2956390380859375,0.2536773681640625,0.4015184065970939
1781790297.664072,0.05419921875,-0.166015625,0.9736327528953552,0.9891711078311167,0.026702880859375,-0.255584716796875,0.4329681396484375,0.5034858501059962
1781790297.673707,0.0576171912252903,-0.17138671875,0.9736327528953552,0.99027970069025,-0.156402587890625,-0.377655029296875,0.1926422119140625,0.45188063961985664
1781790297.683344,0.0527343787252903,-0.15771484375,0.9770507216453552,0.991101911665162,0.148773193359375,-0.194549560546875,0.1277923583984375,0.27624967228281533
1781790297.69298,0.0512695349752903,-0.16796875,0.9750975966453552,0.9907862479751588,-0.156402587890625,0.05340576171875,-0.0553131103515625,0.17427990435046925
1781790297.702615,0.0576171912252903,-0.16796875,0.9692382216453552,0.9853709819146822,0.2117156982421875,0.0514984130859375,0.4329681396484375,0.48470303628425493
1781790297.7122,0.064453125,-0.162109375,0.9765624403953552,0.9920221039755556,0.2117156982421875,-0.3147125244140625,0.3757476806640625,0.5339043261012887
1781790297.721789,0.0478515662252903,-0.16845703125,0.9785155653953552,0.9940625007959855,0.3910064697265625,0.1125335693359375,0.0705718994140625,0.41295309247228557
1781790297.731378,0.06689453125,-0.16552734375,0.9833983778953552,0.9994731359507887,0.7572174072265625,-0.1926422119140625,0.0705718994140625,0.784518716542167
1781790297.740967,0.0463867224752903,-0.169921875,0.9809569716453552,0.9966452487445778,0.5741119384765625,0.1735687255859375,-0.2346038818359375,0.6440260878064904
1781790297.750556,0.06640625,-0.13671875,0.9814452528953552,0.9931447986429032,0.5741119384765625,0.4787445068359375,-0.4177093505859375,0.8563188204715735
1781790297.760223,0.0576171912252903,-0.158203125,0.9848632216453552,0.9991514073623303,0.0858306884765625,1.0890960693359375,-0.4787445068359375,1.192767143307081
1781790297.769892,0.06787109375,-0.16748046875,0.9672850966453552,0.9840206557647838,-0.156402587890625,0.659942626953125,-0.6618499755859375,0.9476452028854376
1781790297.77956,0.05078125,-0.154296875,0.9877929091453552,1.001059984388634,-0.2765655517578125,0.6618499755859375,-0.5435943603515625,0.9000159571964453
1781790297.789227,0.0429687537252903,-0.1689453125,0.9799804091453552,0.9953644733067004,-0.400543212890625,0.415802001953125,-0.0553131103515625,0.5799876812465375
1781790297.798896,0.0551757849752903,-0.16650390625,0.9721679091453552,0.9878655584725079,-0.461578369140625,0.110626220703125,0.0095367431640625,0.4747459331429316
1781790297.8094,0.0429687537252903,-0.16162109375,0.9726561903953552,0.9869284454589686,-0.4024505615234375,0.1735687255859375,0.0095367431640625,0.43838739311507796
1781790297.819902,0.0537109375,-0.16259765625,0.9755858778953552,0.9905002108904233,-0.461578369140625,0.05340576171875,0.1277923583984375,0.481910420211385
1781790297.830404,0.044921875,-0.17578125,0.9750975966453552,0.9918328214415099,-0.522613525390625,-0.072479248046875,0.3757476806640625,0.6477379546105664
1781790297.838873,0.0522460974752903,-0.166015625,0.9614257216453552,0.9770518208809756,-0.0972747802734375,-0.3757476806640625,0.6160736083984375,0.7281451732771008
1781790297.847342,0.0522460974752903,-0.17138671875,0.9667968153953552,0.9832594491404035,-0.156402587890625,-0.12969970703125,0.4329681396484375,0.47827313687212836
1781790297.855811,0.0546875,-0.16943359375,0.9809569716453552,0.9969829715531335,0.148773193359375,-0.072479248046875,0.4978179931640625,0.5246040971796551
1781790297.86428,0.0615234375,-0.16943359375,0.9892577528953552,1.0055465069883263,0.209808349609375,-0.072479248046875,0.5588531494140625,0.6013232305285292
1781790297.874336,0.05908203125,-0.1611328125,0.9760741591453552,0.9910475436789591,0.087738037109375,-0.255584716796875,0.5588531494140625,0.6207562752207676
1781790297.884394,0.0566406287252903,-0.169921875,0.9814452528953552,0.9976554459615502,0.4520416259765625,-0.4978179931640625,0.2536773681640625,0.7186908883880986
1781790297.894451,0.06884765625,-0.1728515625,0.9707030653953552,0.9883734636248329,0.6351470947265625,-0.6198883056640625,-0.0553131103515625,0.8892316254021891
1781790297.905136,0.06298828125,-0.158203125,0.9838866591453552,0.9985132499765855,0.7572174072265625,-0.4367828369140625,-0.0553131103515625,0.8759092353699546
1781790297.915824,0.05859375,-0.15771484375,0.9809569716453552,0.9952807542084674,0.453948974609375,-0.377655029296875,0.0095367431640625,0.5905793275863148
1781790297.926512,0.06494140625,-0.16455078125,0.9775390028953552,0.9934167544577442,0.514984130859375,-0.61798095703125,-0.1125335693359375,0.8122640719111808
1781790297.934496,0.064453125,-0.1513671875,0.9672850966453552,0.981176176313989,0.5741119384765625,-0.4978179931640625,-0.1735687255859375,0.779457102553269
1781790297.942483,0.0556640662252903,-0.15625,0.9770507216453552,0.991030102184814,-0.0362396240234375,-0.3147125244140625,-0.1735687255859375,0.361224841164002
1781790297.950469,0.0522460974752903,-0.16015625,0.9741210341453552,0.9885805320154126,-0.156402587890625,-0.12969970703125,0.1277923583984375,0.2400305613206607
1781790297.958455,0.0556640662252903,-0.1513671875,0.9726561903953552,0.9859363967492016,-0.4024505615234375,-0.6198883056640625,0.1926422119140625,0.7637663175217502
1781790297.969491,0.0581054650247097,-0.1455078125,0.9790038466453552,0.991462203167965,-0.0362396240234375,-0.3147125244140625,-0.0553131103515625,0.32158486212692927
1781790297.980527,0.06005859375,-0.15234375,0.9775390028953552,0.9911600047565152,-0.156402587890625,-0.194549560546875,0.1277923583984375,0.2804321448637826
1781790297.991563,0.05908203125,-0.15771484375,0.9790038466453552,0.9933847140469372,0.026702880859375,-0.194549560546875,0.6160736083984375,0.6466136917203683
1781790298.001917,0.0566406287252903,-0.1513671875,0.9746093153953552,0.9879187739533344,0.0858306884765625,0.2956390380859375,0.3757476806640625,0.48575268136075317
1781790298.012274,0.05859375,-0.1591796875,0.9814452528953552,0.9959950727199849,-0.156402587890625,0.171661376953125,0.0705718994140625,0.2427133923442135
1781790298.022631,0.0595703125,-0.15869140625,0.9902343153953552,1.0046370408936045,-0.095367431640625,0.720977783203125,0.1277923583984375,0.73840016099352
1781790298.033227,0.0527343787252903,-0.16455078125,0.9741210341453552,0.98932788471464,0.3910064697265625,0.7839202880859375,-0.2956390380859375,0.9245645019581635
1781790298.043825,0.0537109375,-0.16015625,0.9804686903953552,0.9949139370150437,-0.156402587890625,0.659942626953125,-0.1125335693359375,0.6874953415086988
1781790298.054421,0.05029296875,-0.16015625,0.9726561903953552,0.9870356993716877,0.270843505859375,0.415802001953125,-0.1735687255859375,0.5257124803501914
1781790298.06515,0.0507812537252903,-0.16064453125,0.9672850966453552,0.9818481854862587,0.0858306884765625,0.4787445068359375,-0.3604888916015625,0.6054051956153571
1781790298.075881,0.05126953125,-0.15380859375,0.9853515028953552,0.9986006371939097,0.0858306884765625,0.2956390380859375,-0.3604888916015625,0.47404808711022367
1781790298.086612,0.0546875,-0.1572265625,0.9765624403953552,0.9906488351594364,-0.3414154052734375,-0.1316070556640625,-0.4177093505859375,0.5553071200925798
1781790298.094619,0.0585937462747097,-0.17236328125,0.9824218153953552,0.9991471118861712,-0.4024505615234375,0.1735687255859375,-0.3604888916015625,0.5674899099897546
1781790298.102623,0.0434570275247097,-0.166015625,0.9931640028953552,1.00788116245545,-0.034332275390625,-0.072479248046875,-0.3604888916015625,0.36930229825856925
1781790298.110629,0.0517578162252903,-0.1748046875,0.9843749403953552,1.0011141661123084,-0.0972747802734375,-0.1926422119140625,-0.2956390380859375,0.3660271103740357
1781790298.118634,0.0712890625,-0.169921875,0.9731444716453552,0.9904371442598274,0.0858306884765625,-0.0095367431640625,-0.2956390380859375,0.30799398921880994
1781790298.129212,0.05419921875,-0.14892578125,0.9785155653953552,0.9912664401436301,0.2117156982421875,0.1735687255859375,-0.0553131103515625,0.2793012344413601
1781790298.13979,0.0527343787252903,-0.16650390625,0.9775390028953552,0.9930191174784584,0.0286102294921875,0.1735687255859375,0.1926422119140625,0.2608748158490288
1781790298.150367,0.0468750037252903,-0.15185546875,0.9780272841453552,0.9908555484510684,0.331878662109375,-0.194549560546875,-0.2346038818359375,0.45059067816032483
1781790298.161063,0.06494140625,-0.16015625,0.9877929091453552,1.002797208820225,0.4520416259765625,0.0514984130859375,0.0705718994140625,0.4604064629789778
1781790298.171757,0.0546875,-0.1630859375,0.9663085341453552,0.9814988175380799,0.514984130859375,-0.12969970703125,0.1277923583984375,0.5462248217593307
1781790298.182452,0.0502929724752903,-0.1513671875,0.9799804091453552,0.9928761306632153,0.5741119384765625,-0.1926422119140625,-0.2346038818359375,0.6494263015038345
1781790298.190446,0.0576171912252903,-0.15771484375,0.9692382216453552,0.983674968148539,0.209808349609375,-0.072479248046875,0.3757476806640625,0.436416205574074
1781790298.19844,0.0532226525247097,-0.16650390625,0.9799804091453552,0.9954485440478441,0.331878662109375,-0.194549560546875,0.3757476806640625,0.5377539375931274
1781790298.206434,0.0498046875,-0.16015625,0.9726561903953552,0.9870109401751536,0.3910064697265625,-0.0705718994140625,0.1277923583984375,0.4173695475474612
1781790298.214428,0.060546875,-0.158203125,0.9775390028953552,0.992107179196722,0.2689361572265625,0.1735687255859375,0.1926422119140625,0.3735823617041621
1781790298.222429,0.0537109337747097,-0.16162109375,0.9770507216453552,0.9917834214280893,0.331878662109375,0.110626220703125,0.0705718994140625,0.3568781305396476
1781790298.23043,0.0546875,-0.15966796875,0.9819335341453552,0.9963322981717437,0.453948974609375,-0.072479248046875,-0.1125335693359375,0.47327234989362066
1781790298.238431,0.07080078125,-0.15869140625,0.9790038466453552,0.9943059110704386,0.2689361572265625,-0.0095367431640625,-0.0553131103515625,0.2747310435876
1781790298.246432,0.0581054650247097,-0.15234375,0.9780272841453552,0.9915252048044667,0.148773193359375,-0.072479248046875,-0.1125335693359375,0.2001262318819616
1781790298.257209,0.0546875,-0.1708984375,0.9619140028953552,0.9785067948473106,0.026702880859375,-0.194549560546875,-0.1125335693359375,0.22633245366641172
1781790298.267986,0.0556640662252903,-0.1572265625,0.9736327528953552,0.9878154775740698,0.026702880859375,-0.255584716796875,0.2536773681640625,0.3610938914257261
1781790298.278763,0.0537109375,-0.1650390625,0.9838866591453552,0.999077431935191,0.0858306884765625,-0.3147125244140625,0.1926422119140625,0.378842845938227
1781790298.289367,0.05859375,-0.1591796875,0.9775390028953552,0.9921461095188074,0.087738037109375,-0.743865966796875,0.3757476806640625,0.8379861927495452
1781790298.299975,0.04541015625,-0.15869140625,0.9809569716453552,0.9947470155410763,0.148773193359375,-0.743865966796875,0.0095367431640625,0.7586573594786864
1781790298.310581,0.0634765625,-0.16455078125,0.9843749403953552,1.0000501271812132,0.3910064697265625,-0.1316070556640625,0.3147125244140625,0.5188934856901412
1781790298.321277,0.068359375,-0.16650390625,0.9858397841453552,1.0021360361501126,0.270843505859375,-0.072479248046875,0.3147125244140625,0.4214895242905921
1781790298.331975,0.0625,-0.15966796875,0.9760741591453552,0.9910201180581871,0.5168914794921875,0.1735687255859375,0.0705718994140625,0.5498029620328154
1781790298.342673,0.0532226525247097,-0.16552734375,0.9809569716453552,0.9962472245834981,0.5168914794921875,-0.3147125244140625,-0.0553131103515625,0.6076843874672596
1781790298.350688,0.0571289099752903,-0.14990234375,0.9858397841453552,0.998806540337251,0.7572174072265625,0.2956390380859375,0.3757476806640625,0.8955260812347782
1781790298.358706,0.0527343787252903,-0.15576171875,0.9726561903953552,0.9864596760344043,0.2117156982421875,0.0514984130859375,0.1277923583984375,0.2525995057350302
1781790298.366724,0.05908203125,-0.1630859375,0.9731444716453552,0.988482610934961,0.3910064697265625,-0.0705718994140625,-0.1735687255859375,0.43358108221699926
1781790298.374742,0.0576171912252903,-0.15673828125,0.9965819716453552,1.0104762519438244,0.331878662109375,-0.011444091796875,0.1277923583984375,0.35581638588687664
1781790298.384285,0.0595703125,-0.15234375,0.9829100966453552,0.9964283709242685,0.331878662109375,-0.255584716796875,-0.1125335693359375,0.43374047315316766
1781790298.393828,0.05322265625,-0.14990234375,0.9790038466453552,0.9918426768124323,0.331878662109375,0.110626220703125,-0.4787445068359375,0.5929400559046001
1781790298.40337,0.0517578162252903,-0.14892578125,0.9873046278953552,0.9998140767787377,0.1468658447265625,0.1735687255859375,0.0095367431640625,0.22756675574202515
1781790298.412914,0.0561523474752903,-0.15185546875,0.9853515028953552,0.9985643463364808,0.514984130859375,-0.011444091796875,-0.0553131103515625,0.518072545548213
1781790298.422457,0.0624999962747097,-0.15771484375,0.9765624403953552,0.9911883884834191,0.331878662109375,-0.072479248046875,-0.1125335693359375,0.3578554065379415
1781790298.432168,0.0546875,-0.16259765625,0.9833983778953552,0.998249012081384,0.3910064697265625,0.1125335693359375,-0.2346038818359375,0.4696688673608312
1781790298.441876,0.0571289099752903,-0.15283203125,0.9726561903953552,0.986246118798635,0.392913818359375,0.232696533203125,-0.0553131103515625,0.4599874839593585
1781790298.451586,0.06005859375,-0.16796875,0.9731444716453552,0.9893587308725322,0.3910064697265625,0.1125335693359375,0.3147125244140625,0.5143868550211868
1781790298.461295,0.0561523474752903,-0.16552734375,0.9760741591453552,0.991601306880557,0.514984130859375,0.232696533203125,0.0705718994140625,0.5695056844217162
1781790298.471004,0.0478515662252903,-0.16015625,0.9750975966453552,0.9893205344011736,0.6999969482421875,0.1735687255859375,0.1926422119140625,0.7464803090913014
1781790298.480922,0.0581054650247097,-0.17236328125,0.9946288466453552,1.0111240716984606,0.514984130859375,0.05340576171875,-0.1125335693359375,0.5298345351609614
1781790298.490841,0.0571289099752903,-0.166015625,0.9833983778953552,0.9989480816070079,0.637054443359375,0.232696533203125,0.1277923583984375,0.6901571757460114
1781790298.50076,0.06689453125,-0.16845703125,0.9819335341453552,0.9985219652906531,0.5741119384765625,-0.0095367431640625,-0.1735687255859375,0.59985128979858
1781790298.510679,0.0673828125,-0.1591796875,0.9755858778953552,0.990780713115601,0.698089599609375,0.110626220703125,0.3147125244140625,0.7736996980824704
1781790298.520597,0.0571289099752903,-0.16064453125,0.9672850966453552,0.9821969435748165,0.759124755859375,-0.072479248046875,0.1277923583984375,0.7732105296884095
1781790298.529828,0.0468750037252903,-0.16015625,0.9746093153953552,0.9887924999936597,0.942230224609375,-0.255584716796875,0.0705718994140625,0.9788267142934344
1781790298.539056,0.0571289099752903,-0.16259765625,0.9736327528953552,0.988768146576105,0.576019287109375,-0.255584716796875,0.1277923583984375,0.6430028409324224
1781790298.548284,0.0615234412252903,-0.15185546875,0.9780272841453552,0.991656485756143,0.6999969482421875,-0.3147125244140625,-0.0553131103515625,0.7694798507746722
1781790298.557512,0.04931640625,-0.14111328125,0.9750975966453552,0.9864889198841031,0.6351470947265625,-0.3147125244140625,0.1277923583984375,0.7202684859326414
1781790298.56674,0.0561523474752903,-0.16650390625,0.9721679091453552,0.9879205841035736,0.3910064697265625,-0.2536773681640625,-0.0553131103515625,0.469358931590141
1781790298.576301,0.0537109375,-0.16064453125,0.9799804091453552,0.9945115044766244,0.1468658447265625,0.1735687255859375,0.0705718994140625,0.23806736827142394
1781790298.585858,0.0507812537252903,-0.14794921875,0.9804686903953552,0.9928678461427939,0.270843505859375,-0.255584716796875,0.0095367431640625,0.37251939761106856
1781790298.595415,0.06005859375,-0.158203125,0.9711913466453552,0.9858234604845899,0.331878662109375,-0.072479248046875,0.0095367431640625,0.33983472046147145
1781790298.604971,0.0546875,-0.16357421875,0.9868163466453552,1.0017752990079205,0.331878662109375,0.05340576171875,-0.1125335693359375,0.35448473306442246
1781790298.614528,0.05859375,-0.16357421875,0.9765624403953552,0.9918991645170728,0.5741119384765625,0.1125335693359375,-0.1735687255859375,0.6102412839445795
1781790298.624115,0.0507812537252903,-0.15234375,0.9873046278953552,1.0002788521995056,0.637054443359375,-0.377655029296875,0.1277923583984375,0.7515268270808311
1781790298.633701,0.0571289099752903,-0.16162109375,0.9838866591453552,0.9987081897852443,0.4520416259765625,-0.1316070556640625,0.2536773681640625,0.534803006568534
1781790298.643286,0.0581054650247097,-0.16162109375,0.9824218153953552,0.9973215361032717,0.759124755859375,-0.072479248046875,0.0095367431640625,0.7626366014204756
1781790298.652873,0.06640625,-0.14599609375,0.9794921278953552,0.9925368900138132,0.759124755859375,-0.560760498046875,0.2536773681640625,0.9772793552751333
1781790298.662459,0.0498046875,-0.16845703125,0.9838866591453552,0.999445464404509,0.4520416259765625,-0.1926422119140625,0.0095367431640625,0.49147085660988515
1781790298.67211,0.0615234412252903,-0.15576171875,0.9741210341453552,0.9884121792109667,0.331878662109375,-0.12969970703125,-0.1735687255859375,0.3963477801994446
1781790298.681762,0.07275390625,-0.1689453125,0.9833983778953552,1.0004539065532065,0.514984130859375,0.05340576171875,-0.1125335693359375,0.5298345351609614
1781790298.691413,0.0581054650247097,-0.15625,0.9887694716453552,1.0027239777843016,0.209808349609375,0.293731689453125,-0.1735687255859375,0.400529588740112
1781790298.701066,0.044921875,-0.166015625,0.9785155653953552,0.9935149089564022,-0.0362396240234375,0.0514984130859375,-0.3604888916015625,0.36594758896302765
1781790298.710718,0.06982421875,-0.1630859375,0.9697265028953552,0.9858204374793399,0.270843505859375,0.110626220703125,-0.0553131103515625,0.29774805717253294
1781790298.718668,0.0532226525247097,-0.16162109375,0.9770507216453552,0.991757097960192,0.026702880859375,-0.072479248046875,-0.1735687255859375,0.1899799666942725
1781790298.726621,0.068359375,-0.150390625,0.9711913466453552,0.9851410944819528,-0.0362396240234375,0.1735687255859375,-0.0553131103515625,0.18573893783386056
1781790298.734573,0.05078125,-0.15869140625,0.9780272841453552,0.9921184739243113,0.2117156982421875,-0.1316070556640625,-0.0553131103515625,0.2553497486967723
1781790298.742525,0.06103515625,-0.1435546875,0.9780272841453552,0.9903891190509031,0.148773193359375,-0.072479248046875,-0.1735687255859375,0.23981827903917768
1781790298.750477,0.0610351599752903,-0.16748046875,0.9824218153953552,0.9984626290105376,-0.0972747802734375,0.4787445068359375,-0.1125335693359375,0.5013207455614787
1781790298.758429,0.0429687537252903,-0.16015625,0.9692382216453552,0.9833204302306638,0.148773193359375,-0.011444091796875,-0.2956390380859375,0.3311598875766503
1781790298.768027,0.0620117224752903,-0.16455078125,0.9804686903953552,0.9961130790125792,0.026702880859375,0.05340576171875,0.0705718994140625,0.09244248059122188
1781790298.777625,0.06396484375,-0.15478515625,0.9765624403953552,0.9908199361247383,0.2689361572265625,-0.1316070556640625,0.0095367431640625,0.29956305385432846
1781790298.787223,0.06591796875,-0.16015625,0.9833983778953552,0.9985327098625284,0.3910064697265625,0.0514984130859375,-0.0553131103515625,0.39824324990533516
1781790298.79682,0.05810546875,-0.1552734375,0.9775390028953552,0.9914981533383554,-0.278472900390625,-0.255584716796875,0.1277923583984375,0.39900074007091824
1781790298.806419,0.0610351599752903,-0.16064453125,0.9785155653953552,0.9934911513922674,-0.156402587890625,-0.072479248046875,0.3757476806640625,0.4134021412870855
1781790298.816036,0.0703125,-0.1484375,0.9877929091453552,1.0013552668360735,-0.2193450927734375,0.0514984130859375,-0.1125335693359375,0.2518494798518433
1781790298.825654,0.06689453125,-0.14794921875,0.9912108778953552,1.0044216515477817,0.2117156982421875,-0.1316070556640625,-0.2956390380859375,0.38671228946481523
1781790298.835272,0.0434570275247097,-0.1572265625,0.9873046278953552,1.0006893291428842,-0.095367431640625,-0.255584716796875,-0.1735687255859375,0.3233335692120361
1781790298.84489,0.0571289099752903,-0.15966796875,0.9824218153953552,0.9969504480988116,-0.0972747802734375,0.4177093505859375,-0.6618499755859375,0.7886627128419837
1781790298.854507,0.05908203125,-0.1572265625,0.9804686903953552,0.99475109008122,-0.0972747802734375,0.1735687255859375,-0.7228851318359375,0.7497675634543234
1781790298.863046,0.05859375,-0.1748046875,0.9848632216453552,1.0019707938162186,-0.4024505615234375,0.3566741943359375,-0.6618499755859375,0.8527768322127579
1781790298.871583,0.06689453125,-0.1611328125,0.9780272841453552,0.9934666728723499,-0.583648681640625,0.232696533203125,-0.4177093505859375,0.7545028573256156
1781790298.880122,0.0419921912252903,-0.1533203125,0.9838866591453552,0.996646085826462,-0.5855560302734375,0.1125335693359375,-0.4177093505859375,0.7280252539465913
1781790298.88866,0.0439453125,-0.16455078125,0.9697265028953552,0.9845697743270222,-0.156402587890625,0.171661376953125,-0.2956390380859375,0.3759412702493648
1781790298.89859,0.0571289099752903,-0.15087890625,0.9770507216453552,0.99028090427609,-0.400543212890625,-0.072479248046875,-0.0553131103515625,0.4107890540982672
1781790298.908521,0.04931640625,-0.1689453125,0.9775390028953552,0.9932558223956117,0.026702880859375,-0.011444091796875,-0.1125335693359375,0.11622312726274203
1781790298.918452,0.0532226525247097,-0.1767578125,0.9809569716453552,0.9981746115991817,0.148773193359375,-0.072479248046875,-0.1125335693359375,0.2001262318819616
1781790298.929125,0.06298828125,-0.16015625,0.9765624403953552,0.9916106836757173,0.1468658447265625,-0.3147125244140625,-0.2956390380859375,0.4560877001309036
1781790298.939797,0.0498046875,-0.16455078125,0.9858397841453552,1.000718515123368,0.1468658447265625,0.1735687255859375,-0.1125335693359375,0.2536917087258854
1781790298.950471,0.0673828125,-0.16650390625,0.9863280653953552,1.002550271459473,0.3910064697265625,0.0514984130859375,-0.1125335693359375,0.41012431060092663
1781790298.958453,0.060546875,-0.17529296875,0.9755858778953552,0.993056571457188,0.514984130859375,0.110626220703125,0.2536773681640625,0.5846358036099805
1781790298.966439,0.0454101599752903,-0.1513671875,0.9887694716453552,1.0013187185599182,0.8792877197265625,-0.3757476806640625,0.0705718994140625,0.9588084305914654
1781790298.974424,0.0566406287252903,-0.16796875,0.9707030653953552,0.9867553409872671,1.125335693359375,-0.194549560546875,-0.0553131103515625,1.143367611240747
1781790298.982409,0.0561523474752903,-0.16064453125,0.9829100966453552,0.9975329616784097,1.3675689697265625,-0.4367828369140625,-0.1735687255859375,1.4460809922280269
1781790298.993106,0.0561523474752903,-0.1611328125,0.9726561903953552,0.987510472909301,1.0051727294921875,-0.8029937744140625,0.4329681396484375,1.3574360492535718
1781790299.003803,0.0620117224752903,-0.14013671875,0.9726561903953552,0.9846541618155963,1.5506744384765625,-0.4978179931640625,0.0095367431640625,1.6286512573085357
1781790299.0145,0.0615234375,-0.15869140625,0.9765624403953552,0.9912831562022784,1.3675689697265625,-0.8029937744140625,0.1277923583984375,1.5910294703655707
1781790299.023059,0.0595703125,-0.15234375,0.9677733778953552,0.9815001534683508,1.3675689697265625,-0.6198883056640625,0.2536773681640625,1.5227798940019792
1781790299.031619,0.06005859375,-0.15576171875,0.9731444716453552,0.9873595649028267,1.308441162109375,-0.92315673828125,0.0095367431640625,1.6013518000759188
1781790299.040179,0.06591796875,-0.15673828125,0.9667968153953552,0.9816354464219039,1.2454986572265625,-0.4978179931640625,-0.1125335693359375,1.3460139166065672
1781790299.048738,0.05859375,-0.1533203125,0.9833983778953552,0.9970018632938336,1.491546630859375,-0.377655029296875,-0.1735687255859375,1.5483735904757296
1781790299.057884,0.0537109375,-0.16357421875,0.9746093153953552,0.9896993015568945,1.491546630859375,-0.12969970703125,0.0095367431640625,1.497205502094526
1781790299.067029,0.048828125,-0.15087890625,0.9819335341453552,0.9946567727720952,1.491546630859375,-0.43487548828125,-0.2956390380859375,1.5815278951622025
1781790299.076174,0.06396484375,-0.158203125,0.9824218153953552,0.9971320641522029,1.308441162109375,-0.377655029296875,-0.1125335693359375,1.3664938346303805
1781790299.085319,0.05029296875,-0.150390625,0.9843749403953552,0.9970660690605905,1.4934539794921875,-0.3147125244140625,-0.0553131103515625,1.5272551529004206
1781790299.094464,0.05517578125,-0.14404296875,0.9814452528953552,0.9934925908700523,1.4286041259765625,-0.1316070556640625,-0.2956390380859375,1.46479780403242
1781790299.104112,0.0624999962747097,-0.150390625,0.9824218153953552,0.9958294095812469,1.7337799072265625,0.1850128173828125,-0.1697540283203125,1.7518672722068436
1781790299.11376,0.06298828125,-0.1435546875,0.9780272841453552,0.9905114034733731,1.3675689697265625,0.6732940673828125,-0.7190704345703125,1.6854174788476002
1781790299.123408,0.0556640625,-0.15380859375,0.9863280653953552,0.9997992918340664,1.3065338134765625,0.7343292236328125,-0.4749298095703125,1.572204928899942
1781790299.133055,0.0468750037252903,-0.16015625,0.9833983778953552,0.9974565955647015,1.5506744384765625,0.6732940673828125,-0.4138946533203125,1.740466862472433
1781790299.142704,0.0478515662252903,-0.140625,0.9819335341453552,0.9931055475096294,1.735687255859375,0.30517578125,-0.6580352783203125,1.8811573392803396
1781790299.152282,0.0605468787252903,-0.15234375,0.9858397841453552,0.9993771173542039,1.5506744384765625,0.3681182861328125,-0.4749298095703125,1.6630275435928459
1781790299.16186,0.0556640625,-0.14306640625,0.9824218153953552,0.9943435562299378,1.1844635009765625,0.3070831298828125,-0.5359649658203125,1.3358563838942599
1781790299.171438,0.0576171912252903,-0.1513671875,0.9931640028953552,1.006283510161762,1.0623931884765625,-0.1811981201171875,-0.4749298095703125,1.1777395169025675
1781790299.181015,0.0439453125,-0.15771484375,0.9853515028953552,0.9988607243694912,1.60980224609375,0.1220703125,-0.2307891845703125,1.630836619786593
1781790299.190593,0.04541015625,-0.15966796875,0.9790038466453552,0.9929775799492164,1.6727447509765625,0.0629425048828125,-0.2918243408203125,1.6991757433343306
1781790299.200168,0.0546875,-0.1396484375,0.9775390028953552,0.9889766988832885,1.91497802734375,-0.1220703125,-0.2918243408203125,1.940928502624045
1781790299.209739,0.06298828125,-0.146484375,0.9814452528953552,0.9943138237622956,2.0389556884765625,-0.1201629638671875,-0.0476837158203125,2.043049968603488
1781790299.219312,0.05419921875,-0.1552734375,0.9750975966453552,0.9888694143767035,1.91497802734375,-0.30517578125,0.0133514404296875,1.9391883259839555
1781790299.228884,0.0600585974752903,-0.1513671875,0.9838866591453552,0.9972722891099338,1.8558502197265625,-0.3032684326171875,-0.0476837158203125,1.881070311560854
1781790299.238456,0.0673828125,-0.1591796875,0.9829100966453552,0.9979934240366464,1.60980224609375,-0.18310546875,0.0743865966796875,1.6218890991619082
1781790299.248058,0.06005859375,-0.158203125,0.9682616591453552,0.9829373856019056,1.5506744384765625,-0.5474090576171875,0.2574920654296875,1.6644969372952256
1781790299.25766,0.048828125,-0.15087890625,0.9731444716453552,0.9859811320893161,1.247406005859375,-0.3662109375,0.1964569091796875,1.3148108272154988
1781790299.267262,0.0517578162252903,-0.15625,0.9775390028953552,0.9912998719973972,1.0623931884765625,-0.4863739013671875,0.2574920654296875,1.196470234737071
1781790299.276864,0.0673828125,-0.1494140625,0.9731444716453552,0.9868511378050296,1.0013580322265625,-0.1201629638671875,0.5626678466796875,1.1548818780624954
1781790299.286466,0.05419921875,-0.1494140625,0.9804686903953552,0.993267824019004,0.6961822509765625,-0.4253387451171875,0.5016326904296875,0.9577150571962331
1781790299.29459,0.07763671875,-0.13671875,0.9868163466453552,0.9992627175604597,0.6961822509765625,-0.4863739013671875,0.4405975341796875,0.9567421207572879
1781790299.302714,0.06005859375,-0.14404296875,0.9882811903953552,1.0005274223222478,0.26702880859375,-0.057220458984375,0.3795623779296875,0.46759615512215136
1781790299.310838,0.0590820275247097,-0.14208984375,0.9741210341453552,0.9862007903250465,0.26702880859375,-0.48828125,0.3795623779296875,0.6736397868744088
1781790299.318962,0.07763671875,-0.16064453125,0.9790038466453552,0.9951294675896203,0.0858306884765625,-0.3032684326171875,0.3795623779296875,0.49336218749118305
1781790299.327085,0.06591796875,-0.142578125,0.9790038466453552,0.9915252049640714,-0.2803802490234375,-0.5474090576171875,0.4405975341796875,0.756568534588244
1781790299.33521,0.0561523474752903,-0.140625,0.9770507216453552,0.988714614749724,-0.4024505615234375,-0.7305145263671875,0.6237030029296875,1.0414525258347191
1781790299.344656,0.068359375,-0.1533203125,0.9726561903953552,0.987036061696782,-0.7686614990234375,-0.2422332763671875,0.1354217529296875,0.817224884243676
1781790299.354101,0.07177734375,-0.1572265625,0.9726561903953552,0.9878928300912896,-1.01470947265625,-0.057220458984375,0.3185272216796875,1.0650676437558735
1781790299.363548,0.03955078125,-0.15625,0.9746093153953552,0.9878469742084998,-1.01470947265625,-0.3662109375,0.2574920654296875,1.1090752582229035
1781790299.372993,0.0634765625,-0.1416015625,0.9755858778953552,0.9878502323925974,-1.1959075927734375,-0.4253387451171875,0.5626678466796875,1.388417489171819
1781790299.38244,0.0517578162252903,-0.1484375,0.9829100966453552,0.9954018389746135,-1.3790130615234375,-0.4863739013671875,0.3185272216796875,1.4965614543794596
1781790299.390469,0.0468750037252903,-0.15380859375,0.9746093153953552,0.9877842209414976,-1.3179779052734375,-0.3032684326171875,0.6847381591796875,1.5158838503156602
1781790299.398498,0.0380859412252903,-0.16015625,0.9697265028953552,0.983600555993506,-1.9283294677734375,-0.2422332763671875,1.1119842529296875,2.239116003075001
1781790299.406527,0.0498046912252903,-0.15185546875,0.9687499403953552,0.9818436930964791,-1.5010833740234375,-0.1201629638671875,1.4171600341796875,2.0678571024447283
1781790299.414556,0.06005859375,-0.15234375,0.9853515028953552,0.9988659755469826,-1.6841888427734375,-0.4253387451171875,1.9664764404296875,2.6238206297278417
1781790299.422585,0.0424804724752903,-0.14013671875,0.9785155653953552,0.9894117455360696,-1.80816650390625,-0.18310546875,2.0885467529296875,2.7685774790870217
1781790299.430614,0.05615234375,-0.14404296875,0.9873046278953552,0.9993357247784738,-1.5010833740234375,-0.1201629638671875,2.5157928466796875,2.9320477624110457
1781790299.441272,0.06884765625,-0.13427734375,0.9858397841453552,0.9973216556454765,-1.4400482177734375,-0.0591278076171875,2.5157928466796875,2.899387627508739
1781790299.45193,0.07421875,-0.15478515625,0.9907225966453552,1.0054840281926982,-1.4400482177734375,0.0629425048828125,2.5157928466796875,2.899467929782646
1781790299.462588,0.0620117224752903,-0.14892578125,0.9858397841453552,0.9989516615177312,-1.5621185302734375,0.4291534423828125,2.1495819091796875,2.6916703668921373
1781790299.473246,0.06396484375,-0.150390625,0.9833983778953552,0.9968857562283997,-1.3179779052734375,0.2460479736328125,1.9664764404296875,2.380049359757647
1781790299.483903,0.06494140625,-0.15478515625,0.9853515028953552,0.9995466047659808,-1.01470947265625,0.0,1.4781951904296875,1.7929574269646742
1781790299.494561,0.0551757849752903,-0.1572265625,0.9868163466453552,1.0007852223178018,-0.7686614990234375,0.1239776611328125,1.1119842529296875,1.357468209316342
1781790299.504134,0.06591796875,-0.15185546875,0.9882811903953552,1.0020503846028246,-0.7686614990234375,0.0629425048828125,0.5016326904296875,0.9200204427672287
1781790299.513709,0.06396484375,-0.1435546875,0.9780272841453552,0.990573984148546,-0.7686614990234375,0.1239776611328125,-0.1697540283203125,0.796886058776218
1781790299.523284,0.0595703125,-0.15625,0.9790038466453552,0.9931823681367636,-0.8296966552734375,-0.3032684326171875,-0.3528594970703125,0.9512508116510224
1781790299.532859,0.0595703125,-0.14501953125,0.9785155653953552,0.9909954582622007,-0.64849853515625,-0.18310546875,-0.6580352783203125,0.9418536989894186
1781790299.542434,0.0498046875,-0.15771484375,0.9672850966453552,0.9813230543650107,-0.6465911865234375,0.0019073486328125,-0.8411407470703125,1.0609437105005135
1781790299.552046,0.05322265625,-0.13427734375,0.9907225966453552,1.0011964441040413,-0.6465911865234375,-0.2422332763671875,-0.7801055908203125,1.0417878169274575
1781790299.561656,0.04833984375,-0.14453125,0.9833983778953552,0.9951373736161017,-0.3414154052734375,-0.3032684326171875,-1.0242462158203125,1.1214350323591382
1781790299.571265,0.06494140625,-0.14599609375,0.9907225966453552,1.0035255398542189,-0.3414154052734375,-0.0591278076171875,-0.6580352783203125,0.7436874371036073
1781790299.580876,0.0541992150247097,-0.15185546875,0.9853515028953552,0.9984564199586841,-0.22125244140625,-0.057220458984375,-0.2307891845703125,0.32479296708709443
1781790299.590486,0.0371093787252903,-0.16015625,0.9780272841453552,0.99174820339448,-0.03814697265625,-0.057220458984375,-0.2918243408203125,0.29981797535242805
1781790299.598612,0.04443359375,-0.1640625,0.9682616591453552,0.9830673876854558,-0.2803802490234375,0.1850128173828125,0.1354217529296875,0.3621903888908706
1781790299.606741,0.0546875,-0.16015625,0.9765624403953552,0.9911180288246422,-0.4024505615234375,0.0019073486328125,0.5016326904296875,0.6431216436702033
1781790299.614872,0.0576171912252903,-0.15966796875,0.9907225966453552,1.0051591239565794,-0.400543212890625,-0.18310546875,0.6237030029296875,0.7635233552042868
1781790299.623002,0.048828125,-0.16357421875,0.9838866591453552,0.9985858345054254,-0.52642822265625,0.0,0.3795623779296875,0.6489948168889003
1781790299.634857,0.0624999962747097,-0.171875,0.9755858778953552,0.99258000700608,-0.34332275390625,-0.3662109375,0.5626678466796875,0.7540398330204823
1781790299.646713,0.06005859375,-0.1650390625,0.9736327528953552,0.98934607915769,-0.4634857177734375,-0.1811981201171875,0.3795623779296875,0.625874882107918
1781790299.658569,0.064453125,-0.140625,0.9697265028953552,0.9819873147678237,-0.64849853515625,-0.18310546875,0.1354217529296875,0.6873259881253644
1781790299.670424,0.05078125,-0.15478515625,0.9858397841453552,0.9992083165940223,-0.4024505615234375,-0.1201629638671875,-0.0476837158203125,0.42270477772354254
1781790299.680074,0.0615234412252903,-0.15673828125,0.9873046278953552,1.0015600086330283,-0.3414154052734375,-0.5474090576171875,-0.2918243408203125,0.7080837529661111
1781790299.689728,0.07568359375,-0.16552734375,0.9931640028953552,1.0097039390529141,-0.34332275390625,0.1220703125,-0.1087188720703125,0.3802518477113032
1781790299.69938,0.06640625,-0.1640625,0.9843749403953552,1.000160145788499,-0.2803802490234375,-0.3643035888671875,-0.2918243408203125,0.5445104542606758
1781790299.709034,0.0595703125,-0.16650390625,0.9838866591453552,0.9996525051096831,-0.16021728515625,0.1220703125,-0.5359649658203125,0.5725636944859982
1781790299.718687,0.0571289099752903,-0.15283203125,0.9897460341453552,1.003104458288081,-0.34332275390625,0.30517578125,-0.5970001220703125,0.753267493366923
1781790299.728349,0.05517578125,-0.16455078125,0.9663085341453552,0.9817705992790161,-0.1583099365234375,0.4291534423828125,-0.6580352783203125,0.8014019844155391
1781790299.738008,0.06298828125,-0.1572265625,0.9814452528953552,0.9959530611234765,-0.0972747802734375,0.1850128173828125,-0.4138946533203125,0.4636819055347245
1781790299.747669,0.0581054650247097,-0.15185546875,0.9794921278953552,0.9928953404382512,-0.34332275390625,0.1220703125,-0.2918243408203125,0.4668330755621639
1781790299.757329,0.0615234412252903,-0.1572265625,0.9799804091453552,0.9944178840328979,-0.64849853515625,0.30517578125,-0.5359649658203125,0.8949531005299208
1781790299.766989,0.0590820275247097,-0.15185546875,0.9755858778953552,0.9890998809597359,-0.4634857177734375,0.1850128173828125,-0.4138946533203125,0.648349857116531
1781790299.77489,0.0532226525247097,-0.15283203125,0.9799804091453552,0.9932531816342018,-0.22125244140625,-0.1220703125,-0.1087188720703125,0.27508834429381906
1781790299.782794,0.05517578125,-0.14990234375,0.9897460341453552,1.0025528871858829,-0.5245208740234375,-0.2422332763671875,0.0743865966796875,0.582522508776682
1781790299.790699,0.04345703125,-0.15966796875,0.9790038466453552,0.9928901779936272,-0.0972747802734375,-0.1201629638671875,0.3185272216796875,0.35406371137631903
1781790299.798603,0.05419921875,-0.16064453125,0.9814452528953552,0.995981428122267,-0.2803802490234375,0.0629425048828125,0.3795623779296875,0.4760697865891162
1781790299.806506,0.05322265625,-0.1533203125,0.9741210341453552,0.9875482563033665,-0.1583099365234375,-0.4253387451171875,0.4405975341796875,0.6325355889000551
1781790299.81441,0.05322265625,-0.15380859375,0.9687499403953552,0.9823269219896513,-0.22125244140625,-0.3662109375,0.3795623779296875,0.5719534004728829
1781790299.824681,0.060546875,-0.14892578125,0.9770507216453552,0.9901883280774915,-0.2803802490234375,-0.3032684326171875,0.3795623779296875,0.5609388781357282
1781790299.834951,0.0517578125,-0.14453125,0.9746093153953552,0.9866263076954469,-0.4024505615234375,0.0629425048828125,0.3795623779296875,0.5567726754530002
1781790299.845221,0.06494140625,-0.16162109375,0.9843749403953552,0.9996663380693745,-0.4024505615234375,-0.2422332763671875,0.4405975341796875,0.6440260878064904
1781790299.85549,0.0634765625,-0.15185546875,0.9799804091453552,0.9937056705507906,-0.0972747802734375,-0.3032684326171875,0.3185272216796875,0.4504372498476474
1781790299.865761,0.0654296875,-0.16455078125,0.9946288466453552,1.010269541357851,0.26702880859375,-0.18310546875,-0.0476837158203125,0.32727012399482347
1781790299.874732,0.06591796875,-0.1591796875,0.9843749403953552,0.9993384685856352,0.5741119384765625,-0.0591278076171875,-0.2918243408203125,0.6467318311558055
1781790299.883703,0.0581054650247097,-0.15283203125,0.9741210341453552,0.9877477734756759,0.26702880859375,0.18310546875,-0.2307891845703125,0.39761243066557234
1781790299.892673,0.06396484375,-0.15283203125,0.9770507216453552,0.9909981047810699,-0.22125244140625,0.48828125,-0.4138946533203125,0.6772591867054519
1781790299.901644,0.0712890625,-0.1572265625,0.9931640028953552,1.0080560793104818,-0.4024505615234375,0.6732940673828125,-0.2918243408203125,0.8369305834647407
1781790299.910615,0.06494140625,-0.14013671875,0.9750975966453552,0.9872542778693298,-0.6465911865234375,1.1005401611328125,-0.7190704345703125,1.4650362106887194
1781790299.918617,0.05810546875,-0.169921875,0.9780272841453552,0.9943777238227495,-0.83160400390625,0.9765625,-0.3528594970703125,1.330319270097171
1781790299.926618,0.0458984375,-0.14892578125,0.9697265028953552,0.9821685422082707,-1.2569427490234375,0.6122589111328125,-0.5970001220703125,1.520254976750973
1781790299.934619,0.0585937462747097,-0.16162109375,0.9663085341453552,0.9814819347342041,-1.0738372802734375,0.9174346923828125,-0.2307891845703125,1.4311102567612421
1781790299.94262,0.0361328162252903,-0.15576171875,0.9746093153953552,0.9876389072387376,-1.3179779052734375,0.8563995361328125,-0.1087188720703125,1.5755334707398938
1781790299.950621,0.0405273474752903,-0.15234375,0.9755858778953552,0.9882402993231435,-0.9517669677734375,0.4291534423828125,0.3185272216796875,1.0915551424479857
1781790299.958622,0.0483398400247097,-0.16064453125,0.9843749403953552,0.9985676886583632,-0.8296966552734375,0.2460479736328125,0.3795623779296875,0.9449887532877741
1781790299.968194,0.0498046875,-0.1591796875,0.9838866591453552,0.9979236633399263,-0.70953369140625,-0.057220458984375,0.5016326904296875,0.8708315544780683
1781790299.977768,0.0571289099752903,-0.15673828125,0.9804686903953552,0.9945599298231111,-0.8907318115234375,-0.1201629638671875,0.6847381591796875,1.1299153262886377
1781790299.98734,0.0424804724752903,-0.16259765625,0.9833983778953552,0.9976547288550949,-0.2803802490234375,-0.1201629638671875,0.2574920654296875,0.39919216636482024
1781790299.996914,0.0556640662252903,-0.16064453125,0.9687499403953552,0.9835555910599411,-0.5245208740234375,-0.4253387451171875,0.4405975341796875,0.8063258538019201
1781790300.006486,0.0605468787252903,-0.15673828125,0.9707030653953552,0.9851381905603489,-0.4024505615234375,-0.3032684326171875,0.6847381591796875,0.8501791242611187
1781790300.014474,0.0624999962747097,-0.15673828125,0.9746093153953552,0.9891089201897564,0.02288818359375,-0.18310546875,0.2574920654296875,0.3167864349899233
1781790300.022461,0.0546875,-0.15380859375,0.9819335341453552,0.9954101022426837,0.0247955322265625,-0.6694793701171875,0.5016326904296875,0.8369305834647407
1781790300.030448,0.0571289099752903,-0.1572265625,0.9736327528953552,0.987899105081647,0.2689361572265625,-0.9136199951171875,0.3795623779296875,1.0252296088590882
1781790300.038435,0.0615234412252903,-0.15185546875,0.9897460341453552,1.003216043191068,0.2079010009765625,-0.8525848388671875,0.3185272216796875,0.9335862705846876
1781790300.046422,0.0566406287252903,-0.1552734375,0.9770507216453552,0.9909319421045887,-0.03814697265625,-1.15966796875,0.4405975341796875,1.2411330212321354
1781790300.054409,0.05029296875,-0.142578125,0.9912108778953552,1.0026748769627596,-0.0972747802734375,-0.9746551513671875,0.1354217529296875,0.9888144912623348
1781790300.064008,0.0595703125,-0.15625,0.9780272841453552,0.9922197605188515,-0.22125244140625,-0.728607177734375,0.1354217529296875,0.7734081157065954
1781790300.073607,0.0546875,-0.1572265625,0.9760741591453552,0.990167500356949,-0.1583099365234375,-0.6084442138671875,0.1964569091796875,0.6586818006859994
1781790300.083206,0.0527343787252903,-0.16015625,0.9765624403953552,0.9910121790899123,-0.4024505615234375,-0.6084442138671875,0.0133514404296875,0.7296225577793888
1781790300.092805,0.04931640625,-0.1513671875,0.9716796278953552,0.9846346696333271,-0.34332275390625,0.0,0.5626678466796875,0.659140060258006
1781790300.102404,0.05810546875,-0.158203125,0.9790038466453552,0.9934047543699522,-0.64849853515625,-0.3662109375,0.2574920654296875,0.7880120332860897
1781790300.11048,0.0566406287252903,-0.1572265625,0.9897460341453552,1.0037557296894606,-0.4024505615234375,-0.1201629638671875,0.3185272216796875,0.5271291903384387
1781790300.118556,0.05908203125,-0.15576171875,0.9780272841453552,0.9921137878173649,-0.34332275390625,0.1220703125,0.1964569091796875,0.41396496434850033
1781790300.126632,0.0561523474752903,-0.15771484375,0.9814452528953552,0.9956213348943967,-0.52642822265625,-0.18310546875,0.5016326904296875,0.7498597484882772
1781790300.134708,0.0566406287252903,-0.1533203125,0.9819335341453552,0.9954439936664852,-0.2803802490234375,-0.2422332763671875,0.1354217529296875,0.39449853661145107
1781790300.144271,0.064453125,-0.15869140625,0.9726561903953552,0.9876220088952421,-0.0972747802734375,0.3070831298828125,0.1354217529296875,0.34943022579968547
1781790300.153834,0.0576171912252903,-0.15966796875,0.9765624403953552,0.9912052264593717,-0.0972747802734375,0.4901885986328125,0.0133514404296875,0.4999255005182208
1781790300.163397,0.06494140625,-0.15576171875,0.9711913466453552,0.9857442523659472,0.45013427734375,0.6103515625,0.1964569091796875,0.7834189266608304
1781790300.17296,0.05908203125,-0.15087890625,0.9755858778953552,0.9889504213643237,0.32806396484375,0.6103515625,-0.1697540283203125,0.7134223328479185
1781790300.182523,0.05419921875,-0.1689453125,0.9716796278953552,0.987745601456007,0.392913818359375,0.6103515625,-0.1697540283203125,0.7454708100488635
1781790300.190932,0.064453125,-0.14794921875,0.9746093153953552,0.9878797974988678,-0.16021728515625,0.48828125,-0.5359649658203125,0.7425271726685633
1781790300.199341,0.0595703125,-0.1572265625,0.9809569716453552,0.9952614703215132,0.3910064697265625,0.3681182861328125,-0.3528594970703125,0.6425783661360709
1781790300.20775,0.06396484375,-0.1611328125,0.9799804091453552,0.995196908560723,-0.03814697265625,0.1220703125,-0.2918243408203125,0.31861857857302395
1781790300.216159,0.0468750037252903,-0.16455078125,0.9931640028953552,1.0077941070632217,-0.0972747802734375,0.0019073486328125,-0.5970001220703125,0.6048761580753705
1781790300.224568,0.0571289099752903,-0.14453125,0.9814452528953552,0.9936738796065614,-0.1583099365234375,0.2460479736328125,-0.8411407470703125,0.8905725112043777
1781790300.232977,0.0473632849752903,-0.16162109375,0.9721679091453552,0.9866484187797843,-0.34332275390625,0.1220703125,-0.4138946533203125,0.5514349087523938
1781790300.242094,0.0537109375,-0.16357421875,0.9658202528953552,0.9810454376580372,-0.4634857177734375,0.4901885986328125,-0.4138946533203125,0.7914623534045702
1781790300.251216,0.04931640625,-0.15576171875,0.9721679091453552,0.9858013311643583,-0.52642822265625,0.0,-0.2918243408203125,0.601903746046017
1781790300.260338,0.0576171912252903,-0.1640625,0.9873046278953552,1.0025002109199417,-0.52642822265625,0.0,-0.1697540283203125,0.5531212378312659
1781790300.26946,0.0576171912252903,-0.15576171875,0.9643554091453552,0.978551382861703,-0.22125244140625,0.0,-0.4138946533203125,0.46932017522728314
1781790300.278582,0.0576171912252903,-0.14306640625,0.9848632216453552,0.9968667426851243,-0.5855560302734375,0.0019073486328125,-0.1087188720703125,0.5955663654981155
1781790300.286589,0.05810546875,-0.158203125,0.9760741591453552,0.9905176618363426,-0.22125244140625,-0.1220703125,-0.4138946533203125,0.48493565353479157
1781790300.294595,0.06298828125,-0.15478515625,0.9819335341453552,0.9960519231693464,-0.3414154052734375,-0.2422332763671875,0.0743865966796875,0.4251762045354776
1781790300.302603,0.05517578125,-0.150390625,0.9750975966453552,0.9881685230303515,-0.1583099365234375,-0.4253387451171875,-0.1697540283203125,0.4845529013749604
1781790300.31061,0.05517578125,-0.15771484375,0.9755858778953552,0.9897909597104257,0.14495849609375,0.0,0.0743865966796875,0.1629304494419267
1781790300.318617,0.0522460974752903,-0.1533203125,0.9697265028953552,0.9831613618039261,-0.34332275390625,-0.48828125,-0.4749298095703125,0.7627892346315772
1781790300.326623,0.0571289099752903,-0.15673828125,0.9946288466453552,1.0085222574357189,-0.2803802490234375,-0.0591278076171875,-0.4749298095703125,0.5546778395560374
1781790300.335742,0.04541015625,-0.16796875,0.9790038466453552,0.9943460740675825,-0.0972747802734375,-0.1201629638671875,-0.1697540283203125,0.22960389999641995
1781790300.344861,0.04931640625,-0.15771484375,0.9785155653953552,0.9923702895519866,-0.22125244140625,-0.240325927734375,-0.1697540283203125,0.3681380508730218
1781790300.35398,0.0498046875,-0.15234375,0.9770507216453552,0.9901097099456931,0.0247955322265625,-0.3032684326171875,-0.3528594970703125,0.4659360313532298
1781790300.363099,0.05322265625,-0.16455078125,0.9848632216453552,0.9999325857766408,0.14495849609375,-0.3662109375,0.1964569091796875,0.4401349037497783
1781790300.372218,0.06005859375,-0.158203125,0.9726561903953552,0.9872665942679306,0.02288818359375,-0.18310546875,0.3185272216796875,0.3681182861328125
1781790300.381337,0.0620117224752903,-0.14892578125,0.9770507216453552,0.9902789782243107,0.3910064697265625,-0.1811981201171875,-0.0476837158203125,0.43358108221699926
1781790300.390455,0.0576171912252903,-0.1630859375,0.9829100966453552,0.9980125359043979,0.2079010009765625,-0.2422332763671875,0.5016326904296875,0.5945882125423995
1781790300.40255,0.04931640625,-0.16845703125,0.9799804091453552,0.9955759547175074,-0.0362396240234375,-0.2422332763671875,0.2574920654296875,0.35537646839399595
1781790300.414645,0.0498046875,-0.16064453125,0.9790038466453552,0.9933457122592855,-0.03814697265625,-0.1220703125,0.4405975341796875,0.45878376152813566
1781790300.42674,0.06396484375,-0.1640625,0.9814452528953552,0.9971172396328526,-0.3414154052734375,0.0629425048828125,0.3185272216796875,0.47115372101887215
1781790300.438836,0.0566406287252903,-0.16748046875,0.9785155653953552,0.9943593816905976,-0.52642822265625,-0.18310546875,0.1354217529296875,0.5735794081569917
1781790300.446793,0.0590820275247097,-0.15673828125,0.9819335341453552,0.9961179851126182,-0.400543212890625,-0.3662109375,0.3795623779296875,0.6622785779994793
1781790300.454749,0.04931640625,-0.16357421875,0.9785155653953552,0.9933183501204835,-0.2803802490234375,-0.0591278076171875,0.2574920654296875,0.3852419310450336
1781790300.462705,0.05419921875,-0.142578125,0.9843749403953552,0.9961225327839869,-0.5245208740234375,-0.2422332763671875,0.0743865966796875,0.582522508776682
1781790300.470661,0.0615234412252903,-0.162109375,0.9721679091453552,0.9875095072226616,-0.095367431640625,-0.3662109375,-0.1697540283203125,0.4147551420939006
1781790300.481268,0.0434570275247097,-0.14794921875,0.9853515028953552,0.9973440072653738,-0.4024505615234375,-0.2422332763671875,-0.1087188720703125,0.4821443848001897
1781790300.491877,0.05908203125,-0.15478515625,0.9726561903953552,0.986665696032029,-0.2803802490234375,-0.3032684326171875,0.0133514404296875,0.4132349056240021
1781790300.502485,0.0634765625,-0.15234375,0.9741210341453552,0.9880028751553789,-0.2803802490234375,-0.1811981201171875,-0.0476837158203125,0.3372233377613119
1781790300.513213,0.0556640662252903,-0.16650390625,0.9755858778953552,0.9912566994548351,0.0858306884765625,-0.0591278076171875,-0.2307891845703125,0.2532324079429914
1781790300.523942,0.06298828125,-0.1552734375,0.9887694716453552,1.002867105864845,-0.22125244140625,-0.057220458984375,-0.3528594970703125,0.4204005809074513
1781790300.534671,0.0532226525247097,-0.16748046875,0.9785155653953552,0.9941705436571119,-0.1583099365234375,0.0629425048828125,0.0743865966796875,0.18589556392922393
1781790300.545304,0.05859375,-0.1494140625,0.9755858778953552,0.9886989404063642,0.0247955322265625,-0.1201629638671875,-0.0476837158203125,0.13163469549544235
1781790300.555935,0.0566406287252903,-0.15478515625,0.9785155653953552,0.9923000136746571,-0.03814697265625,-0.18310546875,-0.1087188720703125,0.21633907957933743
1781790300.566566,0.0556640662252903,-0.16650390625,0.9746093153953552,0.9902955905792196,-0.03814697265625,-0.30517578125,0.2574920654296875,0.4011104744875544
1781790300.574687,0.0595703125,-0.1650390625,0.9755858778953552,0.9912387802296062,-0.03814697265625,0.0,0.0133514404296875,0.04041599292834681
1781790300.582808,0.0581054650247097,-0.15087890625,0.9819335341453552,0.9951553420929425,0.2079010009765625,-0.3032684326171875,0.5626678466796875,0.6721530139159524
1781790300.59093,0.060546875,-0.1494140625,0.9799804091453552,0.9931526007888805,0.1468658447265625,0.0629425048828125,0.0743865966796875,0.1762518114339712
1781790300.599051,0.0527343787252903,-0.15966796875,0.9843749403953552,0.9986334654029237,0.0858306884765625,0.3681182861328125,0.1964569091796875,0.42599682725832116
1781790300.606897,0.05908203125,-0.15478515625,0.9780272841453552,0.9919609365013837,0.2079010009765625,0.3070831298828125,-0.0476837158203125,0.37389385073856624
1781790300.614743,0.0449218787252903,-0.15673828125,0.9819335341453552,0.9953784855403502,0.3910064697265625,0.3070831298828125,0.0133514404296875,0.4973573855772135
1781790300.622589,0.05517578125,-0.15478515625,0.9785155653953552,0.9922174777501536,0.0247955322265625,0.0019073486328125,-0.2307891845703125,0.23212519060161343
1781790300.630435,0.05908203125,-0.16015625,0.9731444716453552,0.9880034784982318,-0.03814697265625,0.18310546875,-0.1697540283203125,0.2525851031632059
1781790300.641183,0.05419921875,-0.14990234375,0.9794921278953552,0.9923774970160419,-0.0972747802734375,0.0019073486328125,-0.0476837158203125,0.10835016202334428
1781790300.651931,0.05908203125,-0.14794921875,0.9692382216453552,0.9822435482321134,-0.16021728515625,0.1220703125,-0.1697540283203125,0.2634144449107912
1781790300.662678,0.05517578125,-0.15283203125,0.9760741591453552,0.9895063217402207,-0.4024505615234375,-0.3032684326171875,-0.2918243408203125,0.5823226275766945
1781790300.670644,0.0625,-0.14453125,0.9794921278953552,0.9920687278790383,-0.5855560302734375,0.0019073486328125,-0.0476837158203125,0.5874974377159667
1781790300.67861,0.0693359375,-0.16748046875,0.9902343153953552,1.0066882233483372,-0.03814697265625,0.1220703125,-0.0476837158203125,0.13649208574535251
1781790300.686576,0.0527343787252903,-0.15869140625,0.9892577528953552,1.0032919708543035,-0.22125244140625,-0.057220458984375,-0.1697540283203125,0.284680968604475
1781790300.694541,0.0473632849752903,-0.1591796875,0.9824218153953552,0.9963604152318345,0.14495849609375,0.30517578125,-0.1697540283203125,0.37810270189762335
1781790300.705274,0.06591796875,-0.15625,0.9775390028953552,0.9921399816990399,0.26702880859375,-0.18310546875,-0.2918243408203125,0.4358823731241775
1781790300.716006,0.0473632849752903,-0.169921875,0.9775390028953552,0.9933273511530887,0.14495849609375,0.0,0.0743865966796875,0.1629304494419267
1781790300.726738,0.0512695349752903,-0.1513671875,0.9741210341453552,0.9871435457078463,0.2079010009765625,-0.1811981201171875,0.1354217529296875,0.3072371007993805
1781790300.734648,0.0517578162252903,-0.158203125,0.9741210341453552,0.9882402994538286,0.2079010009765625,-0.1811981201171875,0.0743865966796875,0.2856377963551845
1781790300.742559,0.0380859412252903,-0.15673828125,0.9785155653953552,0.991720797124479,-0.0972747802734375,-0.6084442138671875,0.2574920654296875,0.6678090355969675
1781790300.750471,0.060546875,-0.158203125,0.9790038466453552,0.9935505445514251,-0.2803802490234375,-0.1201629638671875,0.1964569091796875,0.36283265990291974
1781790300.758382,0.06640625,-0.16357421875,0.9697265028953552,0.9856651589137108,-0.095367431640625,-0.3662109375,0.1964569091796875,0.42638095047362773
1781790300.769068,0.0654296875,-0.14404296875,0.9711913466453552,0.9839929129071406,0.0247955322265625,-0.1201629638671875,0.0133514404296875,0.1234188691622679
1781790300.779754,0.05322265625,-0.1630859375,0.9726561903953552,0.9876688406864748,-0.03814697265625,-0.057220458984375,0.3795623779296875,0.3857421045061819
1781790300.79044,0.0483398400247097,-0.15771484375,0.9833983778953552,0.9971374437458045,-0.4634857177734375,-0.1811981201171875,0.1354217529296875,0.515742979089886
1781790300.80112,0.0439453125,-0.16064453125,0.9746093153953552,0.9887371610122975,-0.400543212890625,0.1220703125,0.0133514404296875,0.4189442535089122
1781790300.8118,0.0654296875,-0.14990234375,0.9794921278953552,0.9930541703638638,-0.64849853515625,-0.18310546875,-0.0476837158203125,0.6755380814879288
1781790300.82248,0.05908203125,-0.15625,0.9736327528953552,0.9878590417803614,-0.95367431640625,-0.3662109375,0.0133514404296875,1.0216571898044395
1781790300.830471,0.06298828125,-0.158203125,0.9707030653953552,0.9855253388434688,-1.01470947265625,-0.18310546875,-0.0476837158203125,1.0321999144249696
1781790300.838462,0.05224609375,-0.16845703125,0.9760741591453552,0.9918811369519079,-1.1348724365234375,-0.3032684326171875,-0.1697540283203125,1.1868966338875946
1781790300.846452,0.0566406287252903,-0.16552734375,0.9594725966453552,0.9752923285173053,-1.3179779052734375,-0.1201629638671875,-0.2918243408203125,1.355236637111584
1781790300.854444,0.07275390625,-0.150390625,0.9731444716453552,0.9873806933784163,-1.4400482177734375,-0.1811981201171875,-0.2307891845703125,1.4696378043453722
1781790300.865108,0.0439453125,-0.15576171875,0.9697265028953552,0.9831390511704498,-2.2335052490234375,0.0019073486328125,-0.4749298095703125,2.2834420639491926
1781790300.875774,0.06298828125,-0.15234375,0.9863280653953552,1.0000095971166656,-2.3555755615234375,-0.4863739013671875,-0.1087188720703125,2.4077199984885778
1781790300.886439,0.05029296875,-0.16943359375,0.9848632216453552,1.0005961676652557,-1.8672943115234375,-0.3032684326171875,0.0743865966796875,1.8932229540747336
1781790300.894429,0.0566406287252903,-0.14697265625,0.9829100966453552,0.9954503405971382,-1.377105712890625,-0.3662109375,0.0133514404296875,1.4250294229180578
1781790300.902419,0.06591796875,-0.16259765625,0.9926757216453552,1.0080616373844637,-0.5855560302734375,-0.3032684326171875,0.1354217529296875,0.673191397730409
1781790300.910409,0.0527343787252903,-0.15771484375,1.00830078125,1.0219223806669417,0.45013427734375,-0.057220458984375,0.4405975341796875,0.6324723200989775
1781790300.918399,0.0712890625,-0.15283203125,1.01025390625,1.024232744693077,2.4662017822265625,-0.1201629638671875,0.3795623779296875,2.4981308947456013
1781790300.92642,0.0610351599752903,-0.17138671875,1.0185546875,1.0346749970620357,4.2972564697265625,0.1850128173828125,0.3795623779296875,4.31795211969081
1781790300.934443,0.0537109375,-0.1552734375,1.01318359375,1.0264188715355735,6.6165924072265625,0.2460479736328125,0.5016326904296875,6.640140815133723
1781790300.942465,0.06103515625,-0.15966796875,1.0185546875,1.0327985292260227,8.32366943359375,0.30517578125,0.6237030029296875,8.35258107012844
1781790300.961159,0.0566406287252903,-0.1533203125,0.9873046278953552,1.000742577944538,9.78851318359375,0.1220703125,0.1964569091796875,9.791245417399512
1781790300.971831,0.0654296875,-0.16259765625,0.9741210341453552,0.9897630175899467,9.546279907226562,0.3681182861328125,0.0743865966796875,9.553664454305926
1781790300.982503,0.06396484375,-0.15869140625,0.9648436903953552,0.9798968366870527,8.996963500976562,0.3681182861328125,-0.1697540283203125,9.006091257622298
1781790300.990491,0.0498046875,-0.1396484375,0.9624022841453552,0.9737557956291512,7.4710845947265625,0.0019073486328125,0.3795623779296875,7.480720303438634
1781790300.998477,0.0581054650247097,-0.14697265625,0.9555663466453552,0.9685474947528746,6.2503814697265625,-0.2422332763671875,-0.1697540283203125,6.257376599455377
1781790301.006463,0.0546875,-0.13232421875,0.9672850966453552,0.9778245648971302,4.6024322509765625,0.0629425048828125,-0.1087188720703125,4.604146411322554
1781790301.014449,0.05615234375,-0.14990234375,0.9428710341453552,0.9563626850733423,2.5272369384765625,0.0629425048828125,-0.1087188720703125,2.5303573058494235
1781790301.025202,0.0478515662252903,-0.1416015625,0.9448241591453552,0.95657381659618,0.93841552734375,0.0,0.0133514404296875,0.9385105022968022
1781790301.035955,0.0654296875,-0.1396484375,0.9482421278953552,0.9607007146963358,-0.7686614990234375,-0.4863739013671875,-0.0476837158203125,0.9108643196253375
1781790301.046708,0.0478515662252903,-0.1337890625,0.9589843153953552,0.96945355887177,-2.1114349365234375,-0.3032684326171875,0.0743865966796875,2.1343998217670945
1781790301.05505,0.0527343787252903,-0.14013671875,0.9663085341453552,0.9778401698660697,-4.2476654052734375,0.0019073486328125,0.5626678466796875,4.284770721849971
1781790301.063392,0.0585937462747097,-0.13720703125,0.9731444716453552,0.9845146820748084,-4.6138763427734375,-0.4253387451171875,0.6237030029296875,4.6752297687242885
1781790301.071736,0.0551757849752903,-0.15185546875,0.9731444716453552,0.9864657182745071,-4.7359466552734375,-0.3032684326171875,0.8678436279296875,4.824346072407732
1781790301.080079,0.05419921875,-0.15087890625,0.9838866591453552,0.9968625570802201,-5.1631927490234375,-0.0591278076171875,0.8678436279296875,5.235953401601277
1781790301.089347,0.06396484375,-0.150390625,0.9780272841453552,0.9915877217153266,-4.4307708740234375,-0.3032684326171875,1.3561248779296875,4.643573727729141
1781790301.098616,0.06298828125,-0.150390625,0.9790038466453552,0.9924884862854187,-4.79888916015625,0.18310546875,1.5392303466796875,5.043024374746863
1781790301.107885,0.0571289099752903,-0.1572265625,0.9726561903953552,0.9869366590743991,-4.79888916015625,0.30517578125,1.3561248779296875,4.996152931352934
1781790301.117154,0.0541992150247097,-0.15673828125,0.9931640028953552,1.0069156768893928,-4.8580169677734375,0.6732940673828125,1.6613006591796875,5.178182464971505
1781790301.126423,0.060546875,-0.1533203125,0.9829100966453552,0.9966369952920395,-4.8580169677734375,0.3681182861328125,1.4781951904296875,5.091257305692715
1781790301.136028,0.072265625,-0.15478515625,0.9931640028953552,1.0077477371838166,-4.0035247802734375,0.7343292236328125,1.4171600341796875,4.309964342940765
1781790301.145633,0.0537109375,-0.16259765625,1.001953125,1.016480657623345,-3.5762786865234375,1.0395050048828125,1.0509490966796875,3.8697330531536758
1781790301.155238,0.0566406287252903,-0.16064453125,0.9941405653953552,1.0086279244634886,-2.9048919677734375,1.2226104736328125,1.2340545654296875,3.3846808394779466
1781790301.164843,0.0673828125,-0.158203125,0.9716796278953552,0.9867775693878695,-3.2100677490234375,1.3446807861328125,0.9899139404296875,3.618374079524143
1781790301.174448,0.0654296875,-0.1533203125,0.9980468153953552,1.011872327891348,-1.9283294677734375,1.4667510986328125,0.5016326904296875,2.4741561546781314
1781790301.184337,0.06494140625,-0.17431640625,0.9501952528953552,0.9682327273742148,-1.2569427490234375,0.8563995361328125,-0.1697540283203125,1.5304057206969877
1781790301.194226,0.0732421875,-0.16259765625,0.9379882216453552,0.9547901967412498,-1.0128021240234375,1.0395050048828125,-0.0476837158203125,1.4521062407266332
1781790301.204115,0.076171875,-0.15625,0.9575194716453552,0.9731699520746702,-1.0738372802734375,0.9174346923828125,0.0133514404296875,1.4124415670229145
1781790301.214004,0.0673828125,-0.13330078125,0.9711913466453552,0.9826098785892033,-1.2569427490234375,0.5512237548828125,-0.1087188720703125,1.3767979137890731
1781790301.223892,0.0595703125,-0.11376953125,0.9809569716453552,0.9893274021231893,-1.0738372802734375,0.2460479736328125,-0.7190704345703125,1.3155715106777754
1781790301.232562,0.04931640625,-0.125,0.9936522841453552,1.0026973470158864,-0.888824462890625,0.30517578125,-0.5359649658203125,1.0818500949212533
1781790301.241236,0.0400390662252903,-0.14208984375,0.9829100966453552,0.9939340564687751,-0.52642822265625,0.18310546875,-0.8411407470703125,1.009045114292309
1781790301.249909,0.03564453125,-0.15283203125,0.9711913466453552,0.9837889988116617,-0.4024505615234375,0.0629425048828125,-1.0852813720703125,1.1592082944640592
1781790301.258584,0.041015625,-0.17822265625,0.9907225966453552,1.0074605998244603,-0.4024505615234375,0.0019073486328125,-0.5970001220703125,0.7199855819398784
1781790301.267258,0.03955078125,-0.177734375,0.9580077528953552,0.975157744655568,-1.31988525390625,0.1220703125,-0.3528594970703125,1.3716807461453002
1781790301.275932,0.0595703125,-0.15478515625,0.9750975966453552,0.9891018095778779,-1.80816650390625,0.1220703125,-0.0476837158203125,1.8129095409856584
1781790301.284468,0.07177734375,-0.12890625,0.9863280653953552,0.9973022916605638,-1.50299072265625,-0.057220458984375,0.0743865966796875,1.5059178792625865
1781790301.293005,0.0556640662252903,-0.166015625,1.00390625,1.019062036777907,-0.70953369140625,0.0,0.0743865966796875,0.7134223328479185
1781790301.301543,0.04345703125,-0.1943359375,0.9814452528953552,1.001443834970237,-1.19781494140625,0.1220703125,0.1354217529296875,1.2116108476802505
1781790301.31008,0.08544921875,-0.11474609375,0.9951171278953552,1.0053488614638055,-1.3790130615234375,0.4901885986328125,0.6847381591796875,1.615805753399409
1781790301.318617,0.05908203125,-0.1748046875,0.9721679091453552,0.9895240314214963,-0.22125244140625,0.3662109375,0.3185272216796875,0.5334066783644875
1781790301.329226,0.0581054650247097,-0.1279296875,0.9985350966453552,1.008372247358154,-1.7452239990234375,0.6122589111328125,0.5016326904296875,1.916325425687564
1781790301.339835,0.04833984375,-0.19873046875,0.9550780653953552,0.9767316165163814,-0.03814697265625,0.431060791015625,0.0743865966796875,0.43909220311847885
1781790301.350444,0.0576171912252903,-0.1337890625,1.00439453125,1.0149027679409628,-0.1583099365234375,0.4291534423828125,0.4405975341796875,0.635106999045274
1781790301.361332,0.068359375,-0.158203125,0.9677733778953552,0.9829987506976509,0.759124755859375,0.1220703125,0.0133514404296875,0.7689927289083759
1781790301.372225,0.0537109375,-0.1455078125,0.9936522841453552,1.0056849656293694,0.4520416259765625,-0.2422332763671875,-0.1087188720703125,0.5242503075243329
1781790301.383116,0.03955078125,-0.1875,0.9619140028953552,0.9808155092899229,1.60980224609375,0.0,-0.1087188720703125,1.6134692636281371
1781790301.393586,0.0581054650247097,-0.1357421875,0.9814452528953552,0.9924902875916977,0.8792877197265625,-0.3032684326171875,-0.3528594970703125,0.9948007141919116
1781790301.404056,0.060546875,-0.16357421875,0.9663085341453552,0.9819239442411432,1.5506744384765625,-0.3032684326171875,-0.0476837158203125,1.5807709173441673
1781790301.414526,0.0498046875,-0.15966796875,0.9707030653953552,0.9850070092693061,1.4896392822265625,-0.4863739013671875,0.0133514404296875,1.5670874334398686
1781790301.422527,0.06494140625,-0.1630859375,0.9682616591453552,0.9840452478554518,1.0013580322265625,-0.4253387451171875,0.2574920654296875,1.1180040789557808
1781790301.430528,0.05859375,-0.15869140625,0.9873046278953552,1.001691877884737,0.63323974609375,-0.3662109375,0.0743865966796875,0.7352798056135449
1781790301.43853,0.0551757849752903,-0.146484375,0.9682616591453552,0.9808326462438413,0.6961822509765625,-0.4863739013671875,0.1964569091796875,0.8716791930924863
1781790301.446533,0.0527343787252903,-0.162109375,0.9750975966453552,0.9898867041969909,0.45013427734375,-0.545501708984375,0.1354217529296875,0.7200916839619821
1781790301.454495,0.0478515662252903,-0.154296875,0.9848632216453552,0.9980244803483765,0.14495849609375,-0.3662109375,0.1964569091796875,0.4401349037497783
1781790301.462456,0.0624999962747097,-0.171875,0.9809569716453552,0.9978596321021134,0.5130767822265625,-0.4253387451171875,0.3185272216796875,0.7386612373130244
1781790301.470419,0.0478515662252903,-0.15380859375,0.9946288466453552,1.007587911043317,0.5741119384765625,-0.4863739013671875,0.3185272216796875,0.8170824198227714
1781790301.47838,0.0620117224752903,-0.16064453125,0.9721679091453552,0.9873006445439688,0.4520416259765625,-0.4253387451171875,0.5016326904296875,0.7980539053354259
1781790301.489212,0.0595703125,-0.15185546875,0.9931640028953552,1.0064707855510537,0.4520416259765625,-0.4253387451171875,0.2574920654296875,0.6719797939466965
1781790301.500042,0.0595703125,-0.15869140625,0.9663085341453552,0.9810625707420987,0.51116943359375,-0.18310546875,0.3185272216796875,0.6295088509923377
1781790301.510874,0.05908203125,-0.16552734375,0.9770507216453552,0.9927326430682463,0.2079010009765625,-0.6694793701171875,0.7457733154296875,1.0235249343453001
1781790301.52146,0.05419921875,-0.15771484375,0.9614257216453552,0.9757822223700785,0.2079010009765625,-0.1811981201171875,0.3795623779296875,0.46917287185076917
1781790301.532046,0.0527343787252903,-0.166015625,0.9780272841453552,0.9934180746173398,-0.22125244140625,-0.240325927734375,0.6237030029296875,0.7040700463967515
1781790301.542632,0.068359375,-0.1748046875,0.9614257216453552,0.9795759802912969,-0.2803802490234375,-0.1201629638671875,0.5626678466796875,0.6400369736311708
1781790301.550591,0.06396484375,-0.16162109375,0.9780272841453552,0.9933530327701464,-0.1583099365234375,-0.2422332763671875,0.3185272216796875,0.43034705428597725
1781790301.558549,0.0600585974752903,-0.1572265625,0.9814452528953552,0.9957720680542778,0.0247955322265625,-0.2422332763671875,0.1964569091796875,0.3128691352025903
1781790301.566508,0.048828125,-0.15869140625,0.9868163466453552,1.0006865894050465,-0.0972747802734375,-0.1811981201171875,0.3795623779296875,0.43169751024402164
1781790301.574466,0.04931640625,-0.16552734375,0.9853515028953552,1.0003744267585417,-0.22125244140625,-0.18310546875,0.2574920654296875,0.38572324181157375
1781790301.585162,0.0561523474752903,-0.1611328125,0.9804686903953552,0.9952063716821395,-0.2803802490234375,-0.4863739013671875,0.0133514404296875,0.5615611426506742
1781790301.595858,0.0624999962747097,-0.140625,0.9858397841453552,0.9977783923111881,-0.22125244140625,-0.057220458984375,0.1354217529296875,0.26564238163583376
1781790301.606554,0.0610351599752903,-0.15234375,0.9775390028953552,0.9912196583497106,-0.6465911865234375,-0.4253387451171875,-0.0476837158203125,0.775414048971311
1781790301.614651,0.06103515625,-0.1591796875,0.9697265028953552,0.9845978639163885,-0.70953369140625,-0.48828125,-0.2307891845703125,0.89169517552624
1781790301.622748,0.05517578125,-0.158203125,0.9799804091453552,0.9942002805798293,-0.7686614990234375,-0.3032684326171875,0.1354217529296875,0.8373477733114199
1781790301.630845,0.0551757849752903,-0.16162109375,0.9863280653953552,1.0010038949869924,-0.8296966552734375,-0.3032684326171875,0.3795623779296875,0.9614758867146144
1781790301.638942,0.0463867224752903,-0.15234375,0.9790038466453552,0.9918714019128005,-0.70953369140625,-0.18310546875,0.7457733154296875,1.0455350352492856
1781790301.646811,0.0624999962747097,-0.14990234375,0.9882811903953552,1.001537155319433,-0.34332275390625,0.1220703125,0.7457733154296875,0.8300298263018067
1781790301.65468,0.0624999962747097,-0.14794921875,0.9716796278953552,0.9848637063725773,-0.3414154052734375,0.0629425048828125,1.0509490966796875,1.1068063252849614
1781790301.662549,0.0517578162252903,-0.16259765625,0.9858397841453552,1.0004983505044698,-0.16021728515625,0.0,1.4171600341796875,1.426187975317073
1781790301.670418,0.0571289099752903,-0.1552734375,0.9731444716453552,0.9871087657608704,0.0247955322265625,0.4901885986328125,1.2950897216796875,1.3849754755404045
1781790301.681073,0.0605468787252903,-0.15234375,0.9809569716453552,0.9945607688357025,0.26702880859375,0.6103515625,1.5392303466796875,1.6772189703806895
1781790301.691728,0.06005859375,-0.1484375,0.9667968153953552,0.9799677588309108,-0.22125244140625,0.48828125,1.6002655029296875,1.6876672959433072
1781790301.702383,0.0498046875,-0.1640625,0.9809569716453552,0.9958280931078661,-0.0972747802734375,0.4901885986328125,1.5392303466796875,1.6183254633251363
1781790301.710387,0.06396484375,-0.15625,0.9765624403953552,0.9910498290837316,-0.22125244140625,0.06103515625,1.0509490966796875,1.0757192649286054
1781790301.718393,0.0512695349752903,-0.1611328125,0.9755858778953552,0.9901313820042236,-0.4634857177734375,0.3681182861328125,1.0509490966796875,1.206160887683384
1781790301.726399,0.06787109375,-0.158203125,0.9711913466453552,0.9863302418183301,-0.22125244140625,0.247955322265625,0.5626678466796875,0.653475011270693
1781790301.734405,0.05419921875,-0.1552734375,0.9794921278953552,0.9932030126389809,-0.3414154052734375,0.2460479736328125,0.1964569091796875,0.46443449640533246
1781790301.746412,0.06640625,-0.1474609375,0.9726561903953552,0.9860094233027629,-0.7686614990234375,0.0019073486328125,-0.0476837158203125,0.7701414641572011
1781790301.75842,0.05908203125,-0.14404296875,0.9682616591453552,0.9806985795002742,-0.16021728515625,0.1220703125,-0.1087188720703125,0.22888978308550112
1781790301.77043,0.0605468787252903,-0.142578125,0.9819335341453552,0.994076411414675,-0.16021728515625,0.0,-0.7190704345703125,0.736703378800435
1781790301.782439,0.06298828125,-0.16455078125,0.9785155653953552,0.9942520781501069,-0.0972747802734375,0.0629425048828125,0.1964569091796875,0.2280777476269976
1781790301.790428,0.0576171912252903,-0.15234375,0.9833983778953552,0.9967952289893697,-0.0972747802734375,-0.1811981201171875,-0.4749298095703125,0.517545616955396
1781790301.798417,0.0429687537252903,-0.1591796875,0.9868163466453552,1.0004953716613527,-0.0972747802734375,-0.3032684326171875,-0.4138946533203125,0.5222479383841289
1781790301.806406,0.044921875,-0.16259765625,0.9882811903953552,1.0025745278834732,-0.4024505615234375,-0.3032684326171875,-0.2307891845703125,0.5542579222773866
1781790301.814395,0.05419921875,-0.1630859375,0.9814452528953552,0.9963781223783429,-0.2803802490234375,-0.4863739013671875,0.1964569091796875,0.5947839718234003
1781790301.822446,0.0507812537252903,-0.1513671875,0.9697265028953552,0.9827818942162233,-0.4024505615234375,-0.3032684326171875,0.5016326904296875,0.7110369560018258
1781790301.830497,0.05908203125,-0.154296875,0.9819335341453552,0.9957367511197822,-0.6465911865234375,-0.4253387451171875,0.4405975341796875,0.8905725112043777
1781790301.838548,0.0566406287252903,-0.1552734375,0.9780272841453552,0.9918948380489748,-0.5245208740234375,-0.1201629638671875,0.5016326904296875,0.7356606835215435
1781790301.846599,0.0507812537252903,-0.15087890625,0.9614257216453552,0.9745165972534283,-0.4634857177734375,-0.1201629638671875,0.5016326904296875,0.6934648546055036
1781790301.857201,0.05517578125,-0.16552734375,0.9726561903953552,0.988182034384295,-0.83160400390625,-0.18310546875,0.5016326904296875,0.9882955975348622
1781790301.867803,0.064453125,-0.17236328125,0.9721679091453552,0.9894310231732093,-0.6465911865234375,0.2460479736328125,0.6237030029296875,0.9314640109430475
1781790301.878405,0.0595703125,-0.158203125,0.9785155653953552,0.9930103537285525,-0.52642822265625,0.0,0.2574920654296875,0.5860280175625264
1781790301.88934,0.0537109337747097,-0.16162109375,0.9877929091453552,1.0023677337732602,-0.5855560302734375,0.0629425048828125,0.3185272216796875,0.6695500089324848
1781790301.900275,0.0527343787252903,-0.1640625,0.9838866591453552,0.9988645436944895,-0.4634857177734375,-0.1811981201171875,-0.0476837158203125,0.4999255005182208
1781790301.91121,0.0532226525247097,-0.16552734375,0.9824218153953552,0.9976896188872579,-0.4634857177734375,-0.4863739013671875,-0.0476837158203125,0.673537169921252
1781790301.919318,0.06787109375,-0.15673828125,0.9741210341453552,0.9889818822104082,-0.4634857177734375,-0.3032684326171875,-0.3528594970703125,0.6567347847303034
1781790301.927429,0.0703125,-0.1474609375,0.9863280653953552,0.9997657867376604,-0.03814697265625,-0.057220458984375,-0.5359649658203125,0.5403589705334667
1781790301.935539,0.0673828125,-0.15869140625,0.9755858778953552,0.9907023826492312,-0.03814697265625,-0.057220458984375,-0.1697540283203125,0.18315513255214194
1781790301.943649,0.048828125,-0.158203125,0.9887694716453552,1.0025355268560892,0.14495849609375,-0.30517578125,0.3185272216796875,0.4643326544647602
1781790301.954169,0.0517578125,-0.1591796875,0.9726561903953552,0.9869534481330862,0.0247955322265625,-0.4253387451171875,0.0743865966796875,0.43250575982505574
1781790301.964689,0.0483398400247097,-0.14697265625,0.9731444716453552,0.985366867979999,-0.3414154052734375,-0.2422332763671875,0.5016326904296875,0.6533580911302274
1781790301.975209,0.0517578162252903,-0.15234375,0.9775390028953552,0.9906916734716804,-0.2803802490234375,-0.1811981201171875,0.8068084716796875,0.8731470395933096
1781790301.983088,0.056640625,-0.16455078125,0.9750975966453552,0.990505145364689,-0.4634857177734375,-0.3032684326171875,0.9288787841796875,1.0814834943267413
1781790301.990966,0.05859375,-0.16455078125,0.9785155653953552,0.9939833493927549,-0.34332275390625,-0.3662109375,0.9288787841796875,1.0558393626842744
1781790301.998844,0.0595703125,-0.15478515625,0.9975585341453552,1.0112517469813906,-0.4024505615234375,0.0019073486328125,1.0509490966796875,1.1253728698796628
1781790302.006721,0.0673828125,-0.1630859375,0.9848632216453552,1.0005463666319179,-0.1583099365234375,0.0629425048828125,1.2340545654296875,1.2457585903299373
1781790302.0146,0.06298828125,-0.16064453125,0.9726561903953552,0.9878432333674038,0.0858306884765625,-0.1201629638671875,0.8678436279296875,0.8803173334132809
1781790302.022478,0.04931640625,-0.15771484375,0.9746093153953552,0.9885187896645693,-0.0362396240234375,0.2460479736328125,0.9899139404296875,1.020677483407567
1781790302.032085,0.0473632849752903,-0.146484375,0.9716796278953552,0.9837999045281755,-0.0972747802734375,0.6732940673828125,0.5016326904296875,0.8452352572851322
1781790302.041694,0.0527343787252903,-0.1513671875,0.9907225966453552,1.0036056016458446,-0.2803802490234375,0.8563995361328125,0.3185272216796875,0.9557681939057828
1781790302.051302,0.0673828125,-0.1640625,0.9775390028953552,0.9934985905920075,-0.4634857177734375,0.6732940673828125,0.1354217529296875,0.8285426741691698
1781790302.06091,0.0517578162252903,-0.15771484375,0.9877929091453552,1.0016424885343782,-0.2803802490234375,0.7343292236328125,-0.1087188720703125,0.7935189259670212
1781790302.070518,0.0522460974752903,-0.14501953125,0.9726561903953552,0.9847945896783616,-1.0738372802734375,0.7343292236328125,-0.0476837158203125,1.301783257666442
1781790302.080105,0.0556640662252903,-0.1767578125,0.9833983778953552,1.0007068412855658,-1.2569427490234375,0.6732940673828125,0.3185272216796875,1.4610576875833714
1781790302.089696,0.0473632849752903,-0.15966796875,0.9794921278953552,0.9935501847503087,-1.1348724365234375,0.4291534423828125,0.3795623779296875,1.271289000593217
1781790302.099288,0.0576171912252903,-0.1630859375,0.9750975966453552,0.9903191842625757,-1.31988525390625,0.6103515625,0.8678436279296875,1.6934517046150206
1781790302.108881,0.0380859412252903,-0.15673828125,0.9848632216453552,0.9979844653489794,-0.8907318115234375,0.1850128173828125,1.2950897216796875,1.5826845200026822
1781790302.118473,0.0375976599752903,-0.154296875,0.9809569716453552,0.993729183374429,-0.8907318115234375,0.0629425048828125,1.4781951904296875,1.7269701618702644
1781790302.128142,0.04541015625,-0.1640625,0.9726561903953552,0.9874404543623402,-0.52642822265625,0.0,2.3937225341796875,2.4509251812833135
1781790302.137811,0.041015625,-0.15478515625,0.9711913466453552,0.9843034887108224,-1.0128021240234375,-0.2422332763671875,2.7599334716796875,2.9498606527603743
1781790302.14748,0.05029296875,-0.1494140625,0.9804686903953552,0.9930623332017107,-0.5245208740234375,-0.4253387451171875,2.9430389404296875,3.0195220483165333
1781790302.157149,0.0615234412252903,-0.16015625,0.9770507216453552,0.9919996325110073,-0.6465911865234375,-0.0591278076171875,2.9430389404296875,3.0138106219550194
1781790302.166817,0.06298828125,-0.146484375,0.9838866591453552,0.9967237098304516,-0.5245208740234375,-0.2422332763671875,2.8820037841796875,2.939344300943993
1781790302.176352,0.0527343787252903,-0.15380859375,0.9746093153953552,0.9880796100852896,-0.5245208740234375,-0.4253387451171875,2.3326873779296875,2.4284698059759062
1781790302.185889,0.064453125,-0.16015625,0.9873046278953552,1.0022847190294353,-0.3414154052734375,-0.5474090576171875,2.4547576904296875,2.5381206578969127
1781790302.195426,0.0615234412252903,-0.15625,0.9760741591453552,0.9904140348720397,-0.2803802490234375,-0.3643035888671875,1.6002655029296875,1.6649864470231472
1781790302.204962,0.06689453125,-0.166015625,0.9882811903953552,1.0043583908867184,0.14495849609375,-0.3662109375,1.3561248779296875,1.4121607914377883
1781790302.214499,0.06787109375,-0.1552734375,0.9897460341453552,1.0041481652955138,-0.03814697265625,-0.545501708984375,0.5016326904296875,0.7420664809405133
1781790302.224087,0.06298828125,-0.15478515625,0.9711913466453552,0.9854636472082492,-0.0972747802734375,-0.2422332763671875,-0.1087188720703125,0.28277046557423346
1781790302.233674,0.064453125,-0.15478515625,0.9711913466453552,0.9855583603807646,0.2079010009765625,-0.3032684326171875,-0.2918243408203125,0.46942093511511834
1781790302.243261,0.0620117224752903,-0.15771484375,0.9638671278953552,0.9786517592589717,0.0247955322265625,-0.4863739013671875,-0.7801055908203125,0.9196407576758687
1781790302.252848,0.0522460974752903,-0.150390625,0.9882811903953552,1.0010228299487223,-0.3414154052734375,-0.5474090576171875,-0.7190704345703125,0.9660659631684065
1781790302.262434,0.0654296875,-0.16259765625,0.9653319716453552,0.9811140898514554,-0.34332275390625,-0.3662109375,-0.7801055908203125,0.9276560229543649
1781790302.272135,0.0566406287252903,-0.14697265625,0.9716796278953552,0.9843629522561446,-0.3414154052734375,-0.6084442138671875,-0.5970001220703125,0.91824723582402
1781790302.281836,0.05517578125,-0.158203125,0.9868163466453552,1.0009391078396324,-0.1583099365234375,-0.2422332763671875,-0.5970001220703125,0.6634366148575198
1781790302.291537,0.0498046875,-0.15869140625,0.9775390028953552,0.9915876015240512,-0.0972747802734375,-0.3032684326171875,-0.7801055908203125,0.8426142996225734
1781790302.301238,0.06005859375,-0.1640625,0.9775390028953552,0.9930287210202547,0.1468658447265625,-0.0591278076171875,-1.1463165283203125,1.157198019822535
1781790302.310939,0.04833984375,-0.15966796875,0.9868163466453552,1.0008182166332762,0.14495849609375,0.1220703125,-1.0242462158203125,1.041630662665918
1781790302.320436,0.0732421875,-0.15869140625,0.9721679091453552,0.9877539288807913,0.3299713134765625,-0.0591278076171875,-1.5125274658203125,1.549230938308385
1781790302.329932,0.0615234412252903,-0.162109375,0.9873046278953552,1.0024145906493371,0.26702880859375,-0.057220458984375,-1.2683868408203125,1.2974527904750572
1781790302.33943,0.0532226525247097,-0.1572265625,0.9858397841453552,0.9997164211420622,0.0858306884765625,0.0629425048828125,-1.2683868408203125,1.272844783927489
1781790302.348927,0.05517578125,-0.1640625,0.9584960341453552,0.9739997526771615,-0.0972747802734375,0.1850128173828125,-1.2073516845703125,1.2253122931350777
1781790302.358423,0.0439453087747097,-0.162109375,0.9804686903953552,0.9947509700783298,-0.0362396240234375,0.0629425048828125,-1.2683868408203125,1.2704645792923217
1781790302.368068,0.0571289099752903,-0.158203125,0.9755858778953552,0.989979669621342,-0.0972747802734375,0.0019073486328125,-0.7801055908203125,0.7861493202217766
1781790302.377713,0.0415039099752903,-0.15576171875,0.9672850966453552,0.9806246711986218,0.087738037109375,-0.18310546875,-0.8411407470703125,0.8652995621309229
1781790302.387358,0.0581054650247097,-0.162109375,0.9775390028953552,0.9925916565790153,-0.5855560302734375,-0.0591278076171875,-0.3528594970703125,0.6862082678720185
1781790302.397002,0.0546875,-0.15576171875,0.9785155653953552,0.9923432608755882,-0.3414154052734375,0.0629425048828125,0.1964569091796875,0.39890043249335344
1781790302.406647,0.0512695349752903,-0.17041015625,0.9746093153953552,0.9907227181331489,0.3299713134765625,-0.0591278076171875,0.1354217529296875,0.3615469769167104
1781790302.416255,0.05517578125,-0.1630859375,0.9633788466453552,0.9786420142271313,-0.16021728515625,0.1220703125,0.2574920654296875,0.326914214154009
1781790302.425866,0.0488281212747097,-0.16650390625,0.9887694716453552,1.0038788792885134,-0.2803802490234375,-0.1201629638671875,0.1964569091796875,0.36283265990291974
1781790302.435476,0.0556640662252903,-0.1474609375,0.9750975966453552,0.9877542909755747,0.02288818359375,-0.18310546875,-0.1697540283203125,0.2507347438337015
1781790302.445086,0.0610351599752903,-0.1552734375,0.9770507216453552,0.9911928388633491,-0.2803802490234375,-0.2422332763671875,0.0743865966796875,0.3779198459827342
1781790302.454696,0.07470703125,-0.15673828125,0.9799804091453552,0.9952435036894691,-0.52642822265625,-0.30517578125,0.2574920654296875,0.660727700970538
1781790302.462841,0.04931640625,-0.1630859375,0.9916991591453552,1.0062287777564671,-0.22125244140625,-0.057220458984375,0.2574920654296875,0.3442803908355152
1781790302.470986,0.0624999962747097,-0.16064453125,0.9843749403953552,0.9993532599802885,-0.03814697265625,0.0,0.2574920654296875,0.2603024304190861
1781790302.479131,0.044921875,-0.1630859375,0.9833983778953552,0.9978413538789548,0.1468658447265625,-0.2422332763671875,0.3185272216796875,0.4262700170992675
1781790302.487276,0.0375976599752903,-0.1650390625,0.9770507216453552,0.9916045526590758,0.0858306884765625,-0.3032684326171875,0.7457733154296875,0.8096397268621609
1781790302.4951,0.0478515662252903,-0.15380859375,0.9760741591453552,0.98927631127652,-0.0972747802734375,-0.4253387451171875,0.6237030029296875,0.7611707212174015
1781790302.502923,0.0620117224752903,-0.15625,0.9746093153953552,0.9890009271379655,0.1468658447265625,-0.2422332763671875,0.7457733154296875,0.7977621039719907
1781790302.510748,0.0473632849752903,-0.15966796875,0.9677733778953552,0.9819992117977425,-0.03814697265625,-0.3662109375,0.9288787841796875,0.9991903912501361
1781790302.518572,0.05419921875,-0.16064453125,0.9750975966453552,0.9897270046417802,0.0247955322265625,-0.2422332763671875,0.3795623779296875,0.45095385278054745
1781790302.529238,0.06494140625,-0.15966796875,0.9716796278953552,0.9868498091185581,-0.0972747802734375,-0.4863739013671875,0.4405975341796875,0.6634366148575198
1781790302.539903,0.0415039099752903,-0.15771484375,0.9770507216453552,0.9905678468181941,-0.0972747802734375,-0.9136199951171875,0.6237030029296875,1.1104815686082705
1781790302.55057,0.0576171912252903,-0.15771484375,0.9858397841453552,1.000036895653125,-0.46539306640625,-0.8544921875,0.8678436279296875,1.3038021963839872
1781790302.561211,0.0468750037252903,-0.1572265625,0.9829100966453552,0.9965087636429466,-0.5855560302734375,-1.0967254638671875,1.0509490966796875,1.6279363044960131
1781790302.571852,0.0473632849752903,-0.14990234375,0.9707030653953552,0.9833506163080049,-0.400543212890625,-0.8544921875,1.2950897216796875,1.6024509824302426
1781790302.582495,0.0527343787252903,-0.16015625,0.9575194716453552,0.9722522706034711,-0.34332275390625,-0.8544921875,0.9899139404296875,1.352019608328717
1781790302.590466,0.0541992150247097,-0.1669921875,0.9697265028953552,0.9854914692745875,-0.4634857177734375,-0.9746551513671875,0.8678436279296875,1.3848914171171383
1781790302.59844,0.05517578125,-0.15869140625,0.9750975966453552,0.9894658418751494,-0.2803802490234375,-0.7915496826171875,1.1119842529296875,1.3934392569672387
1781790302.606413,0.0488281212747097,-0.1611328125,0.9829100966453552,0.9972262665908672,-0.2803802490234375,-0.7915496826171875,1.2340545654296875,1.492666960360438
1781790302.614386,0.0590820275247097,-0.1513671875,0.9873046278953552,1.0005863979145813,-0.0362396240234375,-0.6084442138671875,0.8068084716796875,1.0111664460967507
1781790302.625092,0.06298828125,-0.1474609375,0.9833983778953552,0.9963857793597939,-0.1583099365234375,-0.6084442138671875,0.6847381591796875,0.9295874052649926
1781790302.635798,0.06884765625,-0.16162109375,0.9707030653953552,0.9864713979046751,0.0247955322265625,-0.4863739013671875,0.8678436279296875,0.9951517235515894
1781790302.646504,0.0693359375,-0.1630859375,0.9790038466453552,0.9949135776466517,0.14495849609375,-0.30517578125,1.1730194091796875,1.22070461511521
1781790302.657165,0.0498046875,-0.16357421875,0.9799804091453552,0.994785722779204,0.02288818359375,-0.18310546875,0.7457733154296875,0.768263834656667
1781790302.667827,0.0571289099752903,-0.16162109375,0.9731444716453552,0.9881271441438235,0.0858306884765625,-0.4253387451171875,0.2574920654296875,0.5045613133618857
1781790302.678488,0.068359375,-0.15771484375,0.9814452528953552,0.9963843437751846,-0.0362396240234375,-0.2422332763671875,0.0743865966796875,0.25597585099873943
1781790302.686578,0.05419921875,-0.169921875,0.9814452528953552,0.9975198160174332,-0.22125244140625,0.0,-0.2918243408203125,0.36621590452004676
1781790302.694668,0.0654296875,-0.1533203125,0.9721679091453552,0.9863562266258052,0.0858306884765625,0.0019073486328125,-0.0476837158203125,0.09820530442700195
1781790302.702758,0.0571289099752903,-0.1484375,0.9750975966453552,0.9879841733270643,0.02288818359375,-0.3662109375,-0.1697540283203125,0.4042904275688748
1781790302.710847,0.0561523474752903,-0.158203125,0.9790038466453552,0.9932924275525076,0.1468658447265625,-0.2422332763671875,-0.4749298095703125,0.5529962572615861
1781790302.721403,0.0556640625,-0.1435546875,0.9848632216453552,0.9968259634995944,0.0247955322265625,-0.1201629638671875,-0.5359649658203125,0.549829428905469
1781790302.731957,0.0615234412252903,-0.16162109375,0.9716796278953552,0.9869487377934094,-0.0362396240234375,0.0629425048828125,-0.1697540283203125,0.18463883503005657
