timestamp,accel_x,accel_y,accel_z,accel_rms,gyro_x,gyro_y,gyro_z,gyro_rms
1785504010.132467,-0.0639648362994194,-0.22314453125,0.9667968153953552,0.9942741394445469,0.3452301025390625,0.3719329833984375,-0.5893707275390625,0.777737630771919
1785504010.143073,-0.06494140625,-0.22412109375,0.9677733778953552,0.9955063846467334,0.225067138671875,0.12969970703125,-0.7724761962890625,0.8149826407643019
1785504010.153679,-0.0590820237994194,-0.20458984375,0.9682616591453552,0.9914022040891378,0.225067138671875,0.12969970703125,-1.0776519775390625,1.1085174854767916
1785504010.161677,-0.0605468712747097,-0.21142578125,0.9628905653953552,0.9876867041353325,0.28228759765625,-0.35858154296875,-0.7724761962890625,0.8972103903664985
1785504010.169675,-0.0590820237994194,-0.228515625,0.9628905653953552,0.9913971541883518,0.3452301025390625,-0.2994537353515625,-1.0776519775390625,1.1705512154574815
1785504010.177673,-0.0581054650247097,-0.220703125,0.9624022841453552,0.9890926503511693,0.1621246337890625,-0.5397796630859375,-0.8945465087890625,1.0572889566949548
1785504010.185671,-0.0532226487994194,-0.23046875,0.9589843153953552,0.9877243604599852,0.1621246337890625,-0.4215240478515625,-0.7114410400390625,0.8426833766310255
1785504010.196375,-0.07080078125,-0.2216796725988388,0.9589843153953552,0.9868158617713018,0.09918212890625,-0.35858154296875,-0.9555816650390625,1.0254531370136095
1785504010.207079,-0.0561523400247097,-0.2221679538488388,0.9648436903953552,0.9916829291176482,-0.08392333984375,-0.54168701171875,-0.8945465087890625,1.049133643546912
1785504010.217783,-0.0546874962747097,-0.2255859375,0.9702147841453552,0.9975953412184564,0.2841949462890625,-0.4825592041015625,-1.0166168212890625,1.1606635663650575
1785504010.228415,-0.0502929650247097,-0.2197265625,0.9643554091453552,0.9903486758444969,0.225067138671875,-0.23651123046875,-0.7114410400390625,0.7827778308687914
1785504010.239047,-0.0512695275247097,-0.2070312350988388,0.9599608778953552,0.9833694035553368,0.28228759765625,-0.23651123046875,-0.5283355712890625,0.64402043897513
1785504010.249679,-0.0532226487994194,-0.23046875,0.9482421278953552,0.9772981265649188,0.3452301025390625,-0.3566741943359375,-0.4673004150390625,0.6817404069732128
1785504010.257665,-0.0502929612994194,-0.2177734375,0.9536132216453552,0.9794553734263061,0.5283355712890625,-0.1773834228515625,-0.3452301025390625,0.6555815573145785
1785504010.265651,-0.0478515625,-0.23095703125,0.9628905653953552,0.9913572329109682,0.4062652587890625,-0.1773834228515625,-0.1010894775390625,0.45468167070006327
1785504010.273637,-0.0458984337747097,-0.2216796725988388,0.9682616591453552,0.9943737647572043,0.225067138671875,0.06866455078125,-0.0400543212890625,0.2386930792835505
1785504010.281623,-0.0498046800494194,-0.22265625,0.9687499403953552,0.9952551224861351,-0.02288818359375,0.25177001953125,-0.1010894775390625,0.2722702593969966
1785504010.292299,-0.0458984337747097,-0.2211913913488388,0.9575194716453552,0.9838068084790869,0.3452301025390625,0.1888275146484375,0.0820159912109375,0.4019530778607748
1785504010.302975,-0.052734375,-0.22705078125,0.9672850966453552,0.9949740849716088,0.1621246337890625,0.3108978271484375,0.0820159912109375,0.360095096635833
1785504010.313651,-0.0551757775247097,-0.2236328125,0.9594725966453552,0.9867338369416024,0.28228759765625,0.61798095703125,-0.1621246337890625,0.698477736169904
1785504010.324464,-0.0468749962747097,-0.220703125,0.9604491591453552,0.986595014159072,0.40435791015625,0.25177001953125,-0.2231597900390625,0.5260168762796251
1785504010.335277,-0.0610351525247097,-0.2270507663488388,0.9682616591453552,0.9963975014592448,0.28228759765625,0.43487548828125,-0.1621246337890625,0.5432194537934278
1785504010.34609,-0.0576171837747097,-0.224609375,0.9594725966453552,0.9870951194881878,0.5283355712890625,0.6771087646484375,-0.1010894775390625,0.8647738649625079
1785504010.354,-0.0610351525247097,-0.2275390475988388,0.9643554091453552,0.9927137871379679,0.5283355712890625,0.3108978271484375,0.0209808349609375,0.6133809014394056
1785504010.361913,-0.0454101525247097,-0.2216796725988388,0.9653319716453552,0.9914987517271793,0.5283355712890625,0.6198883056640625,0.2651214599609375,0.8565566974346889
1785504010.369826,-0.0556640587747097,-0.2309570163488388,0.9624022841453552,0.9912909700830675,0.7114410400390625,0.3108978271484375,0.2040863037109375,0.8027808117661231
1785504010.377739,-0.0600585900247097,-0.2211913913488388,0.9584960341453552,0.9855188041407253,0.8335113525390625,0.2498626708984375,0.0820159912109375,0.8740132447133229
1785504010.385819,-0.0712890625,-0.2265624850988388,0.9536132216453552,0.9827465932696606,0.3452301025390625,0.3719329833984375,-0.1010894775390625,0.5174331360745218
1785504010.393899,-0.05224609375,-0.22265625,0.9667968153953552,0.9934795127403467,0.530242919921875,0.43487548828125,0.2651214599609375,0.7352303264739224
1785504010.401979,-0.0483398362994194,-0.22509765625,0.9609374403953552,0.9881328144415985,0.3452301025390625,0.4940032958984375,0.1430511474609375,0.6194244997152936
1785504010.410059,-0.0561523400247097,-0.2167968600988388,0.9624022841453552,0.9881154387859564,-0.1430511474609375,0.3719329833984375,-0.2841949462890625,0.48945330975057916
1785504010.420612,-0.05224609375,-0.20751953125,0.9565429091453552,0.9801879142279876,-0.08392333984375,0.19073486328125,-0.1621246337890625,0.26402142322676075
1785504010.431165,-0.0624999962747097,-0.2109375,0.9599608778953552,0.9848480926164247,0.09918212890625,-0.23651123046875,-0.1010894775390625,0.27566961983747645
1785504010.441718,-0.0615234337747097,-0.224609375,0.9516600966453552,0.9797404981873356,-0.2040863037109375,0.0057220458984375,-0.1621246337890625,0.26070741848458107
1785504010.449709,-0.0600585862994194,-0.21728515625,0.9604491591453552,0.9865507894771012,-0.2651214599609375,-0.1773834228515625,0.0820159912109375,0.32936437276771113
1785504010.4577,-0.0600585900247097,-0.2255859375,0.9697265028953552,0.9974294661033257,-0.08392333984375,-0.35858154296875,-0.0400543212890625,0.3704432461016215
1785504010.465691,-0.0634765625,-0.2255859375,0.9765624403953552,1.0042870551667495,0.1621246337890625,-0.4215240478515625,0.5092620849609375,0.6806723080728091
1785504010.473682,-0.0532226487994194,-0.2275390625,0.9643554091453552,0.9922640931004763,0.3452301025390625,-0.4825592041015625,0.0820159912109375,0.5989773217548204
1785504010.481677,-0.0546874925494194,-0.2216796875,0.9619140028953552,0.988641064622346,0.28228759765625,-0.35858154296875,0.3261566162109375,0.5609323925809199
1785504010.489672,-0.0507812462747097,-0.224609375,0.9550780653953552,0.9824470557289272,0.2231597900390625,-0.2994537353515625,0.2040863037109375,0.4255867136890849
1785504010.497667,-0.0493163987994194,-0.2177734375,0.9702147841453552,0.9955772720614547,0.1621246337890625,0.0057220458984375,0.0209808349609375,0.1635766918792514
1785504010.505662,-0.0615234337747097,-0.2255859375,0.9550780653953552,0.9832844243150195,0.28228759765625,-0.11444091796875,0.2040863037109375,0.366652738784889
1785504010.51633,-0.0483398362994194,-0.21240234375,0.9667968153953552,0.9910335905823517,0.09918212890625,0.06866455078125,0.3261566162109375,0.3477499870978224
1785504010.526998,-0.0576171837747097,-0.2099609375,0.9614257216453552,0.9857701321217334,0.2231597900390625,-0.1773834228515625,0.2040863037109375,0.3505943381676431
1785504010.537666,-0.0595703087747097,-0.22021484375,0.9467772841453552,0.9738739265782845,0.225067138671875,-0.05340576171875,0.4482269287109375,0.5043954519187746
1785504010.548345,-0.0449218712747097,-0.21630859375,0.9707030653953552,0.9955259029361634,0.492095947265625,0.019073486328125,0.1697540283203125,0.5209017655248784
1785504010.559025,-0.0595703050494194,-0.22314453125,0.9658202528953552,0.9930512896992335,0.370025634765625,0.202178955078125,0.2918243408203125,0.5127930831781919
1785504010.569705,-0.0566406212747097,-0.2236328125,0.9653319716453552,0.9925147909657337,0.4329681396484375,0.2651214599609375,0.5970001220703125,0.7836835740491285
1785504010.580344,-0.05712890625,-0.22265625,0.9677733778953552,0.9946983605879572,0.4901885986328125,-0.0400543212890625,0.1087188720703125,0.5036953484277664
1785504010.590982,-0.0581054612994194,-0.224609375,0.9663085341453552,0.9937694899386145,0.064849853515625,0.14495849609375,0.4138946533203125,0.44331394421775344
1785504010.60162,-0.0493163987994194,-0.22265625,0.9677733778953552,0.9942802541625736,0.247955322265625,-0.03814697265625,0.2918243408203125,0.38483565226976635
1785504010.609672,-0.0688476487994194,-0.21923828125,0.9663085341453552,0.9932560625905121,0.186920166015625,0.019073486328125,0.4749298095703125,0.5107457981839021
1785504010.617723,-0.064453125,-0.2211913913488388,0.9604491591453552,0.9876955119023882,0.1239776611328125,0.0209808349609375,0.4138946533203125,0.43257304578852607
1785504010.625774,-0.0561523400247097,-0.23291015625,0.9677733778953552,0.9969882331991868,-0.118255615234375,-0.164031982421875,0.2918243408203125,0.35503848761355544
1785504010.633825,-0.052734375,-0.22314453125,0.9663085341453552,0.9931397581889309,0.2498626708984375,-0.2231597900390625,0.5970001220703125,0.6845734379529689
1785504010.644418,-0.0581054612994194,-0.21923828125,0.9604491591453552,0.9868658753352921,0.3070831298828125,-0.0400543212890625,0.5359649658203125,0.6190014878005711
1785504010.655011,-0.056640625,-0.21337890625,0.9580077528953552,0.9831162559130252,0.431060791015625,0.14495849609375,0.1697540283203125,0.48543053187016527
1785504010.665604,-0.0585937425494194,-0.23095703125,0.9521483778953552,0.9815095060561142,0.1239776611328125,0.2651214599609375,0.3528594970703125,0.4584426612614661
1785504010.67628,-0.0644531175494194,-0.21337890625,0.9604491591453552,0.9859753289496169,0.3070831298828125,0.3871917724609375,-0.1354217529296875,0.5124027405143498
1785504010.686956,-0.0507812462747097,-0.2158203125,0.9731444716453552,0.9980818127562129,0.003814697265625,0.019073486328125,-0.3185272216796875,0.3191205739950314
1785504010.697632,-0.0517578087747097,-0.2211913913488388,0.9609374403953552,0.9874235498151598,0.431060791015625,0.14495849609375,-0.0743865966796875,0.4608250610658719
1785504010.708326,-0.0581054612994194,-0.21533203125,0.9614257216453552,0.9869567095655013,-0.057220458984375,0.019073486328125,-0.1964569091796875,0.20550741098930642
1785504010.71902,-0.0595703050494194,-0.2216796875,0.9565429091453552,0.9836995690402827,0.064849853515625,-0.102996826171875,-0.1964569091796875,0.23110423377107014
1785504010.729714,-0.0576171875,-0.212890625,0.9570311903953552,0.9821155013020879,0.0019073486328125,-0.3452301025390625,-0.0133514404296875,0.34549344804132853
1785504010.737739,-0.0517578125,-0.22802734375,0.9545897841453552,0.9828107633960577,-0.240325927734375,-0.03814697265625,-0.1354217529296875,0.2784794323298833
1785504010.745766,-0.0566406212747097,-0.21630859375,0.9589843153953552,0.9847073092461464,0.064849853515625,-0.102996826171875,0.3528594970703125,0.37326086638595174
1785504010.753793,-0.0551757775247097,-0.220703125,0.9565429091453552,0.9832235619870392,-0.118255615234375,-0.34332275390625,0.1697540283203125,0.40083828910822067
1785504010.76182,-0.0517578087747097,-0.21484375,0.9628905653953552,0.9879245662552424,-0.1811981201171875,-0.2841949462890625,0.1087188720703125,0.3541459012532643
1785504010.769792,-0.0483398362994194,-0.21728515625,0.9697265028953552,0.9949467670773633,0.003814697265625,-0.164031982421875,0.1697540283203125,0.2360878508171315
1785504010.777764,-0.0468749962747097,-0.21630859375,0.9628905653953552,0.9880004625167154,0.370025634765625,-0.164031982421875,0.1697540283203125,0.43890989026442256
1785504010.785736,-0.0581054612994194,-0.23046875,0.9750975966453552,1.0036470556639563,-0.0553131103515625,0.0820159912109375,0.1697540283203125,0.19647542625491404
1785504010.801893,-0.056640625,-0.21826171875,0.9667968153953552,0.9927448919690774,0.0019073486328125,-0.2231597900390625,-0.2574920654296875,0.34074344253166783
1785504010.810076,-0.0507812462747097,-0.2211913913488388,0.9482421278953552,0.975021794472082,0.3070831298828125,0.0820159912109375,-0.1964569091796875,0.3736602583060886
1785504010.818259,-0.06201171875,-0.2333984375,0.9584960341453552,0.9884507733631172,0.1850128173828125,0.0820159912109375,-0.3795623779296875,0.430144120208422
1785504010.826442,-0.0551757737994194,-0.23291015625,0.9462890028953552,0.9760913809164845,0.1850128173828125,0.0820159912109375,-0.3795623779296875,0.430144120208422
1785504010.836847,-0.0483398362994194,-0.22265625,0.9565429091453552,0.9833040640990844,0.064849853515625,0.080108642578125,-0.5626678466796875,0.5720297228325326
1785504010.847252,-0.0615234337747097,-0.21923828125,0.9550780653953552,0.9818475787352229,0.0019073486328125,0.2651214599609375,-0.4405975341796875,0.5142170880434128
1785504010.857657,-0.06396484375,-0.21533203125,0.9565429091453552,0.9825648690821752,0.064849853515625,0.202178955078125,-0.5016326904296875,0.5447175318320563
1785504010.865653,-0.0517578087747097,-0.220703125,0.9560546278953552,0.98256256374546,-0.179290771484375,0.324249267578125,-0.3185272216796875,0.488612688348751
1785504010.87365,-0.0537109300494194,-0.2314453125,0.9687499403953552,0.9974608983318597,-0.1201629638671875,0.2651214599609375,-0.4405975341796875,0.5280669593360172
1785504010.881647,-0.04736328125,-0.22265625,0.9594725966453552,0.9861068652981834,-0.057220458984375,0.019073486328125,-0.3185272216796875,0.3241875533669862
1785504010.889644,-0.0556640587747097,-0.220703125,0.9443358778953552,0.9713797440262131,-0.3032684326171875,0.0820159912109375,-0.4405975341796875,0.541132656713323
1785504010.899246,-0.0541992112994194,-0.21728515625,0.9702147841453552,0.9957244202118798,-0.118255615234375,0.14495849609375,-0.1964569091796875,0.27127969568078303
1785504010.908848,-0.0537109300494194,-0.2138671875,0.9702147841453552,0.9949576700896134,0.247955322265625,-0.03814697265625,-0.1964569091796875,0.31864141370374727
1785504010.91845,-0.0537109300494194,-0.22900390625,0.9609374403953552,0.989307039011706,-0.057220458984375,0.14495849609375,-0.3185272216796875,0.35460786436164254
1785504010.928052,-0.0581054612994194,-0.21923828125,0.9516600966453552,0.9783141663828236,0.1239776611328125,0.0820159912109375,-0.1964569091796875,0.24635827657846418
1785504010.937654,-0.0537109337747097,-0.21142578125,0.9775390028953552,1.0015828610583197,0.0629425048828125,-0.2231597900390625,-0.3795623779296875,0.44478045095399626
1785504010.945657,-0.0605468712747097,-0.21826171875,0.9580077528953552,0.9844201115887812,-0.118255615234375,0.019073486328125,-0.5016326904296875,0.5157359251815763
1785504010.95366,-0.0541992150247097,-0.21630859375,0.9589843153953552,0.9845698958498048,0.2498626708984375,-0.2231597900390625,-0.6237030029296875,0.7079809899017693
1785504010.961663,-0.0444335900247097,-0.22998046875,0.9663085341453552,0.994292483674245,0.186920166015625,-0.164031982421875,-0.3795623779296875,0.4537766393945352
1785504010.969666,-0.0532226487994194,-0.21533203125,0.9565429091453552,0.9819240658338794,0.064849853515625,-0.102996826171875,-0.3185272216796875,0.34098891573401363
1785504010.977669,-0.0566406212747097,-0.21630859375,0.9428710341453552,0.9690218546239394,0.064849853515625,-0.164031982421875,-0.3795623779296875,0.4185446135095843
1785504010.985672,-0.0532226487994194,-0.2265625,0.9746093153953552,1.0020112446509166,0.0019073486328125,-0.3452301025390625,-0.5626678466796875,0.6601382941210842
1785504010.995495,-0.0561523400247097,-0.2255859375,0.9726561903953552,1.0000510812965555,0.064849853515625,-0.34332275390625,-0.2574920654296875,0.43402555294592504
1785504011.005318,-0.0546874962747097,-0.21484375,0.9653319716453552,0.9904616977165588,0.064849853515625,-0.408172607421875,-0.5626678466796875,0.6981443164831512
1785504011.015141,-0.0463867150247097,-0.2309570163488388,0.9594725966453552,0.9879678812820394,0.0019073486328125,-0.3452301025390625,-0.1964569091796875,0.39721880474415444
1785504011.024964,-0.0610351525247097,-0.220703125,0.9682616591453552,0.9949702507107417,-0.118255615234375,-0.286102294921875,-0.1964569091796875,0.366652738784889
1785504011.034787,-0.0454101525247097,-0.228515625,0.9555663466453552,0.9835591063391205,0.0019073486328125,-0.4062652587890625,-0.0743865966796875,0.41302356378702837
1785504011.045087,-0.0502929612994194,-0.21240234375,0.9604491591453552,0.9849399600431378,-0.179290771484375,-0.164031982421875,-0.2574920654296875,0.3540534363001709
1785504011.055387,-0.0561523400247097,-0.2255859375,0.9672850966453552,0.994827904051861,-0.2384185791015625,-0.2231597900390625,-0.1964569091796875,0.3811023850824375
1785504011.065687,-0.052734375,-0.21923828125,0.9555663466453552,0.9818112757109921,-0.3032684326171875,-0.0400543212890625,-0.3185272216796875,0.44162844318158884
1785504011.073691,-0.0566406212747097,-0.2353515625,0.9692382216453552,0.9990101342067693,0.0019073486328125,-0.2231597900390625,-0.0743865966796875,0.2352388055459219
1785504011.081694,-0.0625,-0.21337890625,0.9609374403953552,0.9863252871066539,-0.240325927734375,0.14495849609375,-0.1354217529296875,0.3116224772023018
1785504011.089697,-0.0541992150247097,-0.220703125,0.9663085341453552,0.9926729609776854,0.0019073486328125,-0.0400543212890625,-0.2574920654296875,0.26059576050270084
1785504011.0977,-0.0395507775247097,-0.224609375,0.9570311903953552,0.9838304400303186,-0.0553131103515625,-0.0400543212890625,-0.0133514404296875,0.06958555735380058
1785504011.108448,-0.0576171837747097,-0.2197265625,0.9628905653953552,0.9893218601959536,-0.0553131103515625,0.2651214599609375,0.1087188720703125,0.2918368068849851
1785504011.119196,-0.0507812462747097,-0.21337890625,0.9653319716453552,0.9899369212663844,0.1239776611328125,-0.1010894775390625,0.2918243408203125,0.33279271149514833
1785504011.129944,-0.0522460900247097,-0.21484375,0.9663085341453552,0.9912818337884931,0.0019073486328125,0.1430511474609375,0.2918243408203125,0.3250057148173058
1785504011.13786,-0.05712890625,-0.2177734375,0.9702147841453552,0.9959948340147683,0.186920166015625,0.324249267578125,0.7190704345703125,0.8106411202630899
1785504011.145777,-0.0581054612994194,-0.23291015625,0.9609374403953552,0.990466632386369,0.2498626708984375,0.2651214599609375,0.4749298095703125,0.598564171045021
1785504011.153694,-0.0449218675494194,-0.22265625,0.9653319716453552,0.9916953137576576,0.370025634765625,0.507354736328125,0.5359649658203125,0.8255823662391619
1785504011.161611,-0.056640625,-0.22265625,0.9658202528953552,0.9927702286870316,0.3681182861328125,0.7534027099609375,0.1697540283203125,0.8555367590541141
1785504011.170537,-0.0556640587747097,-0.2221679538488388,0.9614257216453552,0.9883301601175318,0.431060791015625,0.690460205078125,-0.0743865966796875,0.8173628729720535
1785504011.179463,-0.0502929650247097,-0.2119140475988388,0.9594725966453552,0.9838824165590521,0.247955322265625,0.507354736328125,-0.0133514404296875,0.5648618691998768
1785504011.188389,-0.05712890625,-0.23291015625,0.9565429091453552,0.9861466370930745,0.0019073486328125,0.4482269287109375,0.1087188720703125,0.46122750432372084
1785504011.197315,-0.056640625,-0.22802734375,0.9550780653953552,0.983554137247872,-0.0553131103515625,0.2651214599609375,-0.1354217529296875,0.30280023096941727
1785504011.206813,-0.0571289025247097,-0.2255859375,0.9580077528953552,0.9858659043242339,-0.118255615234375,0.019073486328125,-0.0133514404296875,0.12052572080978072
1785504011.216311,-0.0722656175494194,-0.2353515625,0.9726561903953552,1.0033308238888088,-0.240325927734375,-0.03814697265625,0.1697540283203125,0.29669542159460127
1785504011.225809,-0.0595703087747097,-0.2211913913488388,0.9580077528953552,0.9850142678672007,0.064849853515625,-0.102996826171875,0.1087188720703125,0.16319817047601493
1785504011.23437,-0.0561523400247097,-0.22021484375,0.9638671278953552,0.9902966742018922,0.064849853515625,0.202178955078125,0.2918243408203125,0.3608923375089729
1785504011.242931,-0.0600585900247097,-0.21142578125,0.9663085341453552,0.9909894441289847,0.247955322265625,-0.03814697265625,0.7190704345703125,0.7615768662688125
1785504011.251492,-0.0483398362994194,-0.22900390625,0.9584960341453552,0.986658084811343,0.1850128173828125,-0.1010894775390625,0.4138946533203125,0.4644971572702983
1785504011.260053,-0.0585937425494194,-0.216796875,0.9687499403953552,0.9944398215536813,0.247955322265625,-0.102996826171875,0.1087188720703125,0.28967219608649075
1785504011.269926,-0.0507812462747097,-0.2172851413488388,0.9687499403953552,0.9941167007148617,0.4901885986328125,-0.2231597900390625,0.4138946533203125,0.6792598458373796
1785504011.279799,-0.0546874962747097,-0.22412109375,0.9711913466453552,0.9982152166298164,0.492095947265625,-0.164031982421875,0.2307891845703125,0.5677398702637793
1785504011.289672,-0.0615234337747097,-0.2309570163488388,0.9692382216453552,0.9982730120575432,0.5512237548828125,-0.2231597900390625,0.5359649658203125,0.8005662773463258
1785504011.300328,-0.0634765550494194,-0.2177734375,0.9584960341453552,0.9849716699448174,0.492095947265625,-0.469207763671875,0.3528594970703125,0.7660444970613187
1785504011.310986,-0.04736328125,-0.21337890625,0.9487304091453552,0.9735826761402064,0.1239776611328125,-0.7724761962890625,0.2918243408203125,0.835015796370578
1785504011.321644,-0.0605468712747097,-0.2216796725988388,0.9721679091453552,0.998958579940498,0.4329681396484375,-0.5283355712890625,0.2307891845703125,0.7210156264288581
1785504011.329666,-0.0512695275247097,-0.2167968600988388,0.9555663466453552,0.9811913604605748,0.3681182861328125,-0.4062652587890625,0.2918243408203125,0.6210668071789966
1785504011.337688,-0.0610351525247097,-0.21826171875,0.9619140028953552,0.9882520005957914,0.1850128173828125,-0.4062652587890625,0.2307891845703125,0.5025384072978897
1785504011.34571,-0.05224609375,-0.212890625,0.9648436903953552,0.9894318669927468,0.247955322265625,-0.652313232421875,0.5970001220703125,0.9183700456703132
1785504011.353732,-0.0581054612994194,-0.21826171875,0.9624022841453552,0.9885507468171371,0.1850128173828125,-0.4062652587890625,0.3528594970703125,0.569026385827216
1785504011.364455,-0.0478515625,-0.21923828125,0.9506835341453552,0.9768082606603244,0.370025634765625,-0.469207763671875,0.4138946533203125,0.7269000480952024
1785504011.375178,-0.0610351525247097,-0.22314453125,0.9702147841453552,0.9974144068764572,0.6122589111328125,0.0820159912109375,0.6580352783203125,0.9025508432160156
1785504011.385901,-0.0605468712747097,-0.2158203125,0.9731444716453552,0.9986263032799965,0.431060791015625,0.019073486328125,0.3528594970703125,0.557393064277301
1785504011.396484,-0.0556640587747097,-0.21630859375,0.9497069716453552,0.9756183819307468,0.4329681396484375,-0.0400543212890625,0.6580352783203125,0.7887180650388625
1785504011.407068,-0.0537109300494194,-0.2216796875,0.9550780653953552,0.9819372988415328,0.4901885986328125,0.0820159912109375,0.4138946533203125,0.6467768309788584
1785504011.417652,-0.05224609375,-0.22216796875,0.9555663466453552,0.9824435370502398,0.492095947265625,0.019073486328125,0.2307891845703125,0.543861992522544
1785504011.428349,-0.05224609375,-0.212890625,0.9643554091453552,0.9889557258406111,0.308990478515625,0.324249267578125,0.4138946533203125,0.6098536606313084
1785504011.439045,-0.0400390587747097,-0.22412109375,0.9672850966453552,0.9937171876763907,-0.057220458984375,0.324249267578125,0.3528594970703125,0.48261951175231915
1785504011.449741,-0.0502929650247097,-0.220703125,0.9580077528953552,0.9843871729778636,0.0629425048828125,0.2651214599609375,0.0476837158203125,0.2766313145816543
1785504011.457704,-0.0551757775247097,-0.22509765625,0.9619140028953552,0.9894401802235772,-0.4863739013671875,0.1430511474609375,-0.1964569091796875,0.5437081201209575
1785504011.465668,-0.0561523400247097,-0.2260742038488388,0.9511718153953552,0.9792805794758889,-0.3643035888671875,0.0209808349609375,-0.1354217529296875,0.38922532222829515
1785504011.473632,-0.0581054612994194,-0.20947265625,0.9628905653953552,0.9871237406103835,-0.301361083984375,-0.164031982421875,-0.1964569091796875,0.39537363513760476
1785504011.481596,-0.0600585862994194,-0.21728515625,0.9624022841453552,0.9884523405015887,0.064849853515625,-0.286102294921875,-0.1354217529296875,0.3231084613981981
1785504011.492286,-0.0595703050494194,-0.2265625,0.9648436903953552,0.9928758908069321,-0.118255615234375,-0.164031982421875,-0.0133514404296875,0.20265523125065968
1785504011.502976,-0.0625,-0.20703125,0.9633788466453552,0.9873535287020031,-0.1811981201171875,0.0209808349609375,-0.1354217529296875,0.22718275756802084
1785504011.513666,-0.06982421875,-0.224609375,0.9584960341453552,0.9869343647549782,-0.423431396484375,-0.34332275390625,-0.0743865966796875,0.5501799947690447
1785504011.521681,-0.06591796875,-0.22021484375,0.9614257216453552,0.9885237347951009,-0.240325927734375,-0.164031982421875,-0.1964569091796875,0.3510816998407555
1785504011.529697,-0.068359375,-0.2158203125,0.9599608778953552,0.9862942251314307,-0.423431396484375,-0.03814697265625,-0.3185272216796875,0.5312334044490477
1785504011.537713,-0.0532226487994194,-0.212890625,0.9731444716453552,0.997579686667704,-0.606536865234375,-0.164031982421875,-0.1964569091796875,0.6583226999808138
1785504011.545729,-0.0507812462747097,-0.2270507663488388,0.9565429091453552,0.9844313701366221,-0.4863739013671875,-0.5283355712890625,-0.2574920654296875,0.7628893835804278
1785504011.556359,-0.0624999962747097,-0.2260742038488388,0.9541015028953552,0.9825097826522647,-0.423431396484375,0.019073486328125,-0.1354217529296875,0.4449685343661577
1785504011.566989,-0.0595703050494194,-0.2177734375,0.9628905653953552,0.9890056280181797,-0.2384185791015625,-0.2231597900390625,0.1087188720703125,0.3441852755353248
1785504011.577619,-0.0585937425494194,-0.21337890625,0.9628905653953552,0.9879888791002562,-0.1811981201171875,-0.2841949462890625,-0.1354217529296875,0.3632335025803583
1785504011.58563,-0.0517578087747097,-0.2255859375,0.9677733778953552,0.9950644184824917,-0.6694793701171875,0.1430511474609375,-0.4405975341796875,0.8141206574750562
1785504011.593642,-0.0507812462747097,-0.228515625,0.9594725966453552,0.9876162157213367,-0.545501708984375,-0.164031982421875,-0.5016326904296875,0.7590217137011633
1785504011.601654,-0.0541992112994194,-0.2275390625,0.9726561903953552,1.0003857476909912,-0.3643035888671875,0.0820159912109375,-0.4405975341796875,0.57755511840953
1785504011.609666,-0.0581054612994194,-0.22314453125,0.9619140028953552,0.9891654439100498,-0.484466552734375,0.019073486328125,-0.5016326904296875,0.6976438881741636
1785504011.620385,-0.0556640587747097,-0.2319335788488388,0.9570311903953552,0.9863064289694433,-0.301361083984375,-0.286102294921875,-0.4405975341796875,0.6056395076487514
1785504011.631104,-0.0502929612994194,-0.22802734375,0.9667968153953552,0.9945963672327313,-0.1201629638671875,0.0820159912109375,-0.8068084716796875,0.8198205112546115
1785504011.641823,-0.0507812462747097,-0.2236328125,0.9536132216453552,0.9807999522311909,-0.667572021484375,0.324249267578125,-0.5626678466796875,0.9313351153483056
1785504011.649804,-0.052734375,-0.2216796875,0.9453124403953552,0.9723879925847296,-0.240325927734375,0.202178955078125,-0.4405975341796875,0.5410721472623512
1785504011.657785,-0.0585937425494194,-0.22265625,0.9516600966453552,0.9791148920719452,-0.240325927734375,-0.102996826171875,-0.6847381591796875,0.732960602201547
1785504011.665766,-0.0571289025247097,-0.220703125,0.9726561903953552,0.9990163390069499,-0.0553131103515625,0.2651214599609375,-0.7457733154296875,0.7934272283679022
1785504011.673747,-0.0600585900247097,-0.22021484375,0.9511718153953552,0.9781765863309594,0.0019073486328125,0.2651214599609375,-0.6847381591796875,0.7342747259353363
1785504011.684382,-0.0595703087747097,-0.21533203125,0.9565429091453552,0.982288573895688,0.1239776611328125,-0.0400543212890625,-0.7457733154296875,0.7570684560334542
1785504011.695017,-0.0458984337747097,-0.2363281100988388,0.9545897841453552,0.9844792013245055,-0.240325927734375,0.324249267578125,-0.8068084716796875,0.9021275126280385
1785504011.705652,-0.0517578087747097,-0.2314452975988388,0.9565429091453552,0.9855050144905574,-0.240325927734375,0.324249267578125,-0.4405975341796875,0.5975117791236918
1785504011.713641,-0.0595703050494194,-0.21337890625,0.9511718153953552,0.9766304322918792,-0.240325927734375,0.019073486328125,-0.4405975341796875,0.5022415121705076
1785504011.721629,-0.0556640587747097,-0.2265624850988388,0.9580077528953552,0.9860060353268858,-0.0553131103515625,0.2651214599609375,-0.8678436279296875,0.9091212742240415
1785504011.729617,-0.0571289025247097,-0.2309570163488388,0.9609374403953552,0.989952331810988,-0.240325927734375,-0.164031982421875,-0.5626678466796875,0.6334494048349834
1785504011.737605,-0.0507812462747097,-0.23046875,0.9633788466453552,0.991863590350765,-0.3643035888671875,-0.0400543212890625,-0.5016326904296875,0.6212542230224009
1785504011.748313,-0.0551757775247097,-0.22021484375,0.9599608778953552,0.9864399783681287,0.064849853515625,0.202178955078125,-0.6237030029296875,0.6588529951673516
1785504011.759021,-0.0488281212747097,-0.2255859375,0.9624022841453552,0.9896925568847977,-0.118255615234375,-0.164031982421875,-0.4405975341796875,0.4847855906655351
1785504011.769729,-0.0620117150247097,-0.224609375,0.9643554091453552,0.9921069394405534,0.003814697265625,0.324249267578125,-0.3185272216796875,0.4545456307029688
1785504011.777705,-0.0639648362994194,-0.22705078125,0.9687499403953552,0.997055667736286,0.1239776611328125,-0.1010894775390625,-0.2574920654296875,0.3031364489604138
1785504011.785681,-0.0517578087747097,-0.2138671875,0.9594725966453552,0.9843808756633279,-0.0553131103515625,-0.0400543212890625,-0.2574920654296875,0.2663945430933938
1785504011.793657,-0.0498046837747097,-0.2294921875,0.9667968153953552,0.9949086656110874,-0.1811981201171875,-0.2231597900390625,-0.3795623779296875,0.4761309162025924
1785504011.801633,-0.0537109300494194,-0.22607421875,0.9609374403953552,0.9886329858667338,-0.0553131103515625,-0.2231597900390625,-0.2574920654296875,0.3451984875782179
1785504011.812347,-0.0678710862994194,-0.21923828125,0.9565429091453552,0.9836901165291723,-0.0553131103515625,-0.0400543212890625,-0.3185272216796875,0.32576598929549466
1785504011.823061,-0.0498046800494194,-0.20751953125,0.9643554091453552,0.9876873073766567,-0.0553131103515625,-0.0400543212890625,-0.1354217529296875,0.1516672014551627
1785504011.833775,-0.0468749962747097,-0.21630859375,0.9633788466453552,0.9884763402174032,-0.3643035888671875,0.1430511474609375,-0.2574920654296875,0.4684900206094577
1785504011.841746,-0.0566406212747097,-0.2109375,0.9741210341453552,0.9983058539591217,0.1239776611328125,0.1430511474609375,0.1697540283203125,0.2542646679757666
1785504011.849716,-0.0576171875,-0.22802734375,0.9682616591453552,0.9964170062599328,-0.423431396484375,0.080108642578125,0.0476837158203125,0.4335726915972108
1785504011.857686,-0.0522460900247097,-0.2060546875,0.9648436903953552,0.9879835702375424,-0.0553131103515625,0.2651214599609375,-0.0743865966796875,0.28085991966489204
1785504011.865656,-0.0561523400247097,-0.21337890625,0.9672850966453552,0.9921310906905957,-0.1201629638671875,-0.0400543212890625,0.1697540283203125,0.21180159742137902
1785504011.873666,-0.0527343712747097,-0.21484375,0.9697265028953552,0.994639754506855,-0.057220458984375,-0.164031982421875,0.0476837158203125,0.18015107254208945
1785504011.881676,-0.0522460900247097,-0.2294921875,0.9707030653953552,0.9988296948000417,-0.301361083984375,-0.164031982421875,0.0476837158203125,0.3464083297958064
1785504011.889686,-0.0541992150247097,-0.21484375,0.9633788466453552,0.9885313318186187,-0.1811981201171875,0.0820159912109375,-0.0133514404296875,0.1993430272416439
1785504011.897696,-0.0468749962747097,-0.22509765625,0.9702147841453552,0.9970872316398478,-0.240325927734375,0.080108642578125,0.2918243408203125,0.38643937694327646
1785504011.908365,-0.0595703050494194,-0.2119140625,0.9697265028953552,0.9943971447799869,0.1239776611328125,0.0820159912109375,-0.0133514404296875,0.14924926879493433
1785504011.919034,-0.0478515587747097,-0.2158203125,0.9692382216453552,0.994128215706112,0.1850128173828125,-0.0400543212890625,0.2918243408203125,0.34784412765643075
1785504011.929703,-0.0576171837747097,-0.21142578125,0.9633788466453552,0.9879875520506503,0.4329681396484375,-0.2231597900390625,0.2307891845703125,0.5390040348230587
1785504011.940394,-0.0498046800494194,-0.20751953125,0.9672850966453552,0.9905479898506983,0.370025634765625,0.14495849609375,0.1697540283203125,0.432143918277741
1785504011.951085,-0.0600585900247097,-0.21875,0.9609374403953552,0.9873496650575889,-0.057220458984375,0.507354736328125,0.3528594970703125,0.6206390529717556
1785504011.961776,-0.05224609375,-0.2216796875,0.9633788466453552,0.9899345131502216,-0.1811981201171875,0.6313323974609375,0.1087188720703125,0.6657575744683787
1785504011.969842,-0.064453125,-0.2260742038488388,0.9555663466453552,0.9840583284588892,-0.8525848388671875,0.0209808349609375,0.1697540283203125,0.8695731901529736
1785504011.977909,-0.0502929612994194,-0.21728515625,0.9702147841453552,0.9955194365039137,-1.033782958984375,0.019073486328125,-0.0133514404296875,1.0340450982083647
1785504011.985976,-0.0649413987994194,-0.212890625,0.9711913466453552,0.9963696278438712,-1.0318756103515625,-0.1010894775390625,0.5359649658203125,1.1671524331869847
1785504011.994043,-0.0507812462747097,-0.22900390625,0.9780272841453552,1.0057628411229513,-0.7915496826171875,-0.0400543212890625,-0.1964569091796875,0.8165479568707117
1785504012.004683,-0.0605468712747097,-0.2353515625,0.9628905653953552,0.993083341175218,-0.606536865234375,-0.03814697265625,-0.0133514404296875,0.6078819140036382
1785504012.015323,-0.0512695275247097,-0.21533203125,0.9653319716453552,0.9903849067991529,-0.3643035888671875,-0.4673004150390625,0.1697540283203125,0.6163628905832719
1785504012.025963,-0.0595703050494194,-0.216796875,0.9663085341453552,0.9921197958994628,-0.3032684326171875,0.1430511474609375,-0.0133514404296875,0.3355795493970453
1785504012.033876,-0.0654296875,-0.2197265625,0.9628905653953552,0.9898075808973181,-0.1811981201171875,0.0209808349609375,-0.0133514404296875,0.1828967335170541
1785504012.041789,-0.0620117150247097,-0.20654296875,0.9589843153953552,0.982932534772691,0.1239776611328125,0.0209808349609375,-0.1354217529296875,0.18479639353128596
1785504012.049702,-0.0654296875,-0.2211913913488388,0.9628905653953552,0.9901337871927054,0.1239776611328125,0.0820159912109375,0.1697540283203125,0.2256402300239222
1785504012.057615,-0.06201171875,-0.22216796875,0.9687499403953552,0.9958315653848467,-0.301361083984375,0.019073486328125,0.3528594970703125,0.46442666320277154
1785504012.068387,-0.0507812462747097,-0.2294921875,0.9521483778953552,0.9807303057545963,-0.240325927734375,0.019073486328125,0.4749298095703125,0.5326149391826993
1785504012.079156,-0.0507812462747097,-0.2216796725988388,0.9497069716453552,0.9765571894203291,-0.423431396484375,-0.22125244140625,0.8411407470703125,0.9673492372142222
1785504012.089925,-0.0512695275247097,-0.228515625,0.9545897841453552,0.9828985763121358,-0.423431396484375,0.14495849609375,0.5970001220703125,0.7461342096904804
1785504012.097864,-0.0468749962747097,-0.2368163913488388,0.9663085341453552,0.9960077568218962,-0.423431396484375,0.080108642578125,1.0852813720703125,1.1677102374764203
1785504012.105803,-0.0473632775247097,-0.2294921875,0.9492186903953552,0.9777147162527989,-0.423431396484375,-0.03814697265625,0.5970001220703125,0.7329109664915054
1785504012.113742,-0.0527343712747097,-0.224609375,0.9643554091453552,0.9915702901960783,-0.3032684326171875,-0.1010894775390625,0.6580352783203125,0.7315745021563405
1785504012.121681,-0.0532226487994194,-0.20703125,0.9663085341453552,0.989670031871196,0.1239776611328125,-0.1010894775390625,0.7801055908203125,0.7963380411346628
1785504012.132372,-0.0556640587747097,-0.228515625,0.9604491591453552,0.9888278240479658,-0.1811981201171875,-0.1010894775390625,0.4749298095703125,0.5182761476487382
1785504012.143063,-0.0507812462747097,-0.21337890625,0.9560546278953552,0.9808923203521297,0.186920166015625,-0.164031982421875,0.3528594970703125,0.4316890830137739
1785504012.153754,-0.0478515625,-0.23193359375,0.9526366591453552,0.9816310754510094,0.370025634765625,0.019073486328125,0.0476837158203125,0.37357262348684656
1785504012.161741,-0.06494140625,-0.21923828125,0.9614257216453552,0.9882419888126964,-0.1201629638671875,-0.2231597900390625,0.3528594970703125,0.4344528218901787
1785504012.169729,-0.0566406212747097,-0.21875,0.9687499403953552,0.9947543262003887,0.186920166015625,-0.469207763671875,0.0476837158203125,0.5073152971355223
1785504012.177717,-0.0590820237994194,-0.22314453125,0.9638671278953552,0.9911225996819255,0.370025634765625,-0.164031982421875,0.2307891845703125,0.46592822339453077
1785504012.185705,-0.0625,-0.2119140625,0.9643554091453552,0.9893407780098622,0.492095947265625,0.019073486328125,0.5359649658203125,0.7278603326069711
1785504012.196969,-0.0556640550494194,-0.22265625,0.9711913466453552,0.997941343209823,0.3070831298828125,0.0820159912109375,0.4138946533203125,0.5218576966186075
1785504012.208233,-0.0532226487994194,-0.20361328125,0.9658202528953552,0.9884835757611078,0.4901885986328125,0.1430511474609375,0.6580352783203125,0.8329219174289884
1785504012.219497,-0.0683593675494194,-0.2236328125,0.9584960341453552,0.986609996620139,0.370025634765625,0.385284423828125,0.0476837158203125,0.5363178109877634
1785504012.229554,-0.0493163987994194,-0.22705078125,0.9589843153953552,0.9867294875654,0.308990478515625,0.324249267578125,0.7190704345703125,0.8471570062340295
1785504012.23961,-0.0595703050494194,-0.21875,0.9663085341453552,0.992548420433898,0.1850128173828125,0.1430511474609375,0.2307891845703125,0.328568137682957
1785504012.249666,-0.0649413987994194,-0.21826171875,0.9677733778953552,0.9942036381510154,-0.1201629638671875,-0.0400543212890625,0.3528594970703125,0.3749044027642091
1785504012.257663,-0.0581054650247097,-0.21142578125,0.9580077528953552,0.982779711151242,-0.3032684326171875,-0.0400543212890625,0.0476837158203125,0.30959623323038893
1785504012.265661,-0.0532226487994194,-0.22509765625,0.9619140028953552,0.9893331866265453,-0.1201629638671875,-0.2231597900390625,0.1697540283203125,0.30505058581585925
1785504012.273659,-0.0488281175494194,-0.21240234375,0.9589843153953552,0.9834377752904406,0.003814697265625,0.019073486328125,0.0476837158203125,0.0514984130859375
1785504012.281657,-0.0502929650247097,-0.21923828125,0.9716796278953552,0.9973746064359603,-0.057220458984375,0.019073486328125,0.2307891845703125,0.23854061818005226
1785504012.292335,-0.0439453050494194,-0.23193359375,0.9658202528953552,0.994250040306021,0.064849853515625,-0.102996826171875,0.1697540283203125,0.20887862464467472
1785504012.303013,-0.0458984337747097,-0.2172851413488388,0.9619140028953552,0.9872173255368454,0.3070831298828125,0.1430511474609375,-0.0133514404296875,0.3390308841537341
1785504012.313691,-0.0590820237994194,-0.20751953125,0.9536132216453552,0.9777183735019447,0.3070831298828125,0.0209808349609375,0.1697540283203125,0.3515062932939549
1785504012.321753,-0.0576171837747097,-0.2294921875,0.9594725966453552,0.988217621631513,0.1239776611328125,0.0820159912109375,0.0476837158203125,0.15611156276428528
1785504012.329815,-0.0478515587747097,-0.22998046875,0.9531249403953552,0.9816455264948181,0.370025634765625,-0.164031982421875,-0.1354217529296875,0.42680734858657643
1785504012.337877,-0.0532226487994194,-0.22509765625,0.9599608778953552,0.9874342977049615,0.553131103515625,-0.164031982421875,-0.0133514404296875,0.5770951133870489
1785504012.345939,-0.0541992112994194,-0.21240234375,0.9619140028953552,0.9865753185145762,0.370025634765625,-0.102996826171875,-0.1354217529296875,0.40726694900486643
1785504012.356505,-0.0395507775247097,-0.21630859375,0.9531249403953552,0.9781619619145702,0.247955322265625,-0.102996826171875,-0.2574920654296875,0.3720112253690416
1785504012.367071,-0.06982421875,-0.220703125,0.9604491591453552,0.9879513541727818,0.0629425048828125,-0.2231597900390625,-0.0133514404296875,0.2322505366468479
1785504012.377637,-0.0537109300494194,-0.2265625,0.9580077528953552,0.9858977051503018,0.186920166015625,-0.164031982421875,-0.1354217529296875,0.2831690147016591
1785504012.388346,-0.0571289025247097,-0.22412109375,0.9624022841453552,0.9898040880374112,0.0629425048828125,-0.2231597900390625,-0.0743865966796875,0.24350650212425096
1785504012.399056,-0.0444335862994194,-0.21240234375,0.9726561903953552,0.9965686950413035,-0.118255615234375,-0.164031982421875,0.0476837158203125,0.20776096492397983
1785504012.409766,-0.07080078125,-0.2216796725988388,0.9594725966453552,0.9872903785525914,-0.423431396484375,-0.102996826171875,-0.0743865966796875,0.44208128154873727
1785504012.417738,-0.0468749962747097,-0.21923828125,0.9633788466453552,0.9891215756442395,-0.118255615234375,-0.286102294921875,-0.1354217529296875,0.33790230076247396
1785504012.425711,-0.0478515625,-0.2265625,0.9531249403953552,0.9808503914683374,0.064849853515625,0.019073486328125,-0.2574920654296875,0.26621695126522965
1785504012.433684,-0.0458984337747097,-0.2260742038488388,0.9536132216453552,0.9811189471036074,0.0019073486328125,-0.2231597900390625,-0.5016326904296875,0.5490348677240929
1785504012.441657,-0.0532226487994194,-0.216796875,0.9584960341453552,0.9841484556850993,0.3070831298828125,-0.1010894775390625,-0.4405975341796875,0.5464845087035549
1785504012.453137,-0.0561523400247097,-0.20849609375,0.9472655653953552,0.9715635634290951,-0.0553131103515625,-0.2231597900390625,-0.3795623779296875,0.44376506262512544
1785504012.464617,-0.04736328125,-0.23388671875,0.9658202528953552,0.9948643317162678,0.0019073486328125,-0.2231597900390625,-0.4405975341796875,0.4938928193386764
1785504012.476097,-0.0571289025247097,-0.2197265625,0.9604491591453552,0.9869174540328913,0.064849853515625,-0.34332275390625,-0.6847381591796875,0.768727756418068
1785504012.485968,-0.0478515625,-0.21435546875,0.9614257216453552,0.9861934177726069,0.4901885986328125,0.1430511474609375,-0.4405975341796875,0.6744439785072681
1785504012.495838,-0.0590820237994194,-0.216796875,0.9541015028953552,0.9802046971797147,0.247955322265625,-0.34332275390625,-0.5016326904296875,0.6564965432485903
1785504012.505708,-0.0532226487994194,-0.22607421875,0.9619140028953552,0.9895558355620033,-0.057220458984375,0.14495849609375,-0.3795623779296875,0.4103105473367498
1785504012.513685,-0.0546874962747097,-0.220703125,0.9648436903953552,0.9912738968263464,0.186920166015625,0.019073486328125,-0.4405975341796875,0.4789876130645122
1785504012.521665,-0.0571289025247097,-0.21044921875,0.9565429091453552,0.9810845642514321,0.4329681396484375,-0.0400543212890625,-0.4405975341796875,0.6190249960460217
1785504012.529645,-0.0615234337747097,-0.224609375,0.9653319716453552,0.9930258404100221,0.1239776611328125,-0.2841949462890625,-0.5016326904296875,0.5897224635910797
1785504012.537625,-0.0463867150247097,-0.2265624850988388,0.9604491591453552,0.9878992227388201,0.370025634765625,-0.286102294921875,-0.3185272216796875,0.5658914069803923
1785504012.548411,-0.0517578087747097,-0.2158203125,0.9541015028953552,0.9795748852864351,0.064849853515625,-0.164031982421875,-0.4405975341796875,0.4745926483664377
1785504012.559197,-0.05224609375,-0.2080078125,0.9702147841453552,0.9936365692482273,0.064849853515625,-0.286102294921875,-0.1964569091796875,0.3530656367093767
1785504012.569983,-0.0468749962747097,-0.22998046875,0.9487304091453552,0.9773319142028142,0.1850128173828125,-0.1010894775390625,-0.3795623779296875,0.434184780715176
1785504012.580545,-0.0610351525247097,-0.22021484375,0.9643554091453552,0.991060655257516,0.064849853515625,-0.102996826171875,-0.1964569091796875,0.23110423377107014
1785504012.59111,-0.0488281175494194,-0.22412109375,0.9672850966453552,0.9941101085490129,0.2498626708984375,-0.2231597900390625,0.0476837158203125,0.33838644026203485
1785504012.601675,-0.0551757775247097,-0.21484375,0.9609374403953552,0.9862063514767564,0.1850128173828125,-0.3452301025390625,-0.1354217529296875,0.4144304736160299
1785504012.609662,-0.0551757737994194,-0.21337890625,0.9545897841453552,0.9797022913321611,0.3681182861328125,-0.2231597900390625,-0.0133514404296875,0.4306850652590419
1785504012.617649,-0.0551757775247097,-0.2167968600988388,0.9589843153953552,0.9847315177998873,0.247955322265625,-0.286102294921875,0.1697540283203125,0.4149129970612959
1785504012.625636,-0.0502929650247097,-0.21875,0.9726561903953552,0.9982189186472986,0.3070831298828125,-0.4062652587890625,0.1697540283203125,0.5368127599904288
1785504012.633623,-0.0581054612994194,-0.2275390625,0.9628905653953552,0.9911147817097594,0.370025634765625,-0.286102294921875,0.2307891845703125,0.5215717987563141
1785504012.644323,-0.0468749962747097,-0.23046875,0.9658202528953552,0.9940431936818261,0.247955322265625,-0.03814697265625,0.0476837158203125,0.25536399534217613
1785504012.655023,-0.0454101525247097,-0.2167968600988388,0.9731444716453552,0.9980346302583646,0.4901885986328125,-0.0400543212890625,0.1697540283203125,0.520293802590903
1785504012.665723,-0.0415039025247097,-0.2333984375,0.9663085341453552,0.9949621036574042,0.7953643798828125,0.1430511474609375,0.2307891845703125,0.8404354676540559
1785504012.676517,-0.0517578087747097,-0.2109375,0.9667968153953552,0.9908933252040857,0.4901885986328125,0.0820159912109375,0.4749298095703125,0.6874371309890137
1785504012.687311,-0.0473632775247097,-0.220703125,0.9599608778953552,0.9861430101827369,0.6122589111328125,0.5092620849609375,0.7801055908203125,1.1147975503513663
1785504012.698105,-0.0537109337747097,-0.2255859375,0.9604491591453552,0.9880467938856565,0.4329681396484375,0.9365081787109375,0.0476837158203125,1.0328517393593035
1785504012.706003,-0.0537109300494194,-0.2275390625,0.9648436903953552,0.9927649449219491,-0.057220458984375,0.812530517578125,0.2307891845703125,0.8466071524838353
1785504012.713903,-0.0541992150247097,-0.21142578125,0.9555663466453552,0.9801762386059043,0.0019073486328125,0.3871917724609375,0.1697540283203125,0.42277362355192283
1785504012.721803,-0.0502929612994194,-0.2275390625,0.9648436903953552,0.9925858924120229,-0.3032684326171875,0.5702972412109375,0.1697540283203125,0.6678526152422144
1785504012.729703,-0.0683593675494194,-0.21826171875,0.9560546278953552,0.9830318573289407,-0.3643035888671875,0.3871917724609375,0.3528594970703125,0.6380786771203604
1785504012.740466,-0.0625,-0.2119140625,0.9677733778953552,0.9926727209147233,0.0019073486328125,0.2651214599609375,0.2307891845703125,0.3515062932939549
1785504012.751229,-0.0595703087747097,-0.21142578125,0.9560546278953552,0.9809637782226279,0.0019073486328125,0.1430511474609375,0.5970001220703125,0.6139026099640447
1785504012.761992,-0.0600585862994194,-0.2119140625,0.9653319716453552,0.9901416157066865,0.1239776611328125,0.0209808349609375,0.5359649658203125,0.5505171209711732
1785504012.769944,-0.0615234337747097,-0.224609375,0.9619140028953552,0.9897035178312176,0.064849853515625,-0.102996826171875,0.5359649658203125,0.5496110390896877
1785504012.777899,-0.0615234337747097,-0.2221679538488388,0.9545897841453552,0.9820312564350927,0.308990478515625,-0.164031982421875,0.7801055908203125,0.8549539987038333
1785504012.785854,-0.0610351525247097,-0.2216796725988388,0.9692382216453552,0.9961374891978987,0.400543212890625,0.095367431640625,0.6618499755859375,0.7794711043993741
1785504012.793809,-0.0463867150247097,-0.2138671875,0.9609374403953552,0.9855413058687701,0.091552734375,-0.026702880859375,0.8487701416015625,0.8541110585234603
1785504012.804571,-0.0595703050494194,-0.228515625,0.9584960341453552,0.9871588826451371,0.2155303955078125,-0.0896453857421875,0.5435943603515625,0.5915948572956361
1785504012.815333,-0.0541992112994194,-0.21240234375,0.9604491591453552,0.9851471450697059,0.2155303955078125,-0.0247955322265625,0.6046295166015625,0.6423745186042109
1785504012.826095,-0.06494140625,-0.2314452975988388,0.9604491591453552,0.9900741888006992,0.152587890625,-0.026702880859375,0.4215240478515625,0.44908644059773534
1785504012.836608,-0.0727538987994194,-0.22314453125,0.9731444716453552,1.0010478381731893,-0.0286102294921875,0.0324249267578125,0.4787445068359375,0.48069348230700004
1785504012.84712,-0.0507812462747097,-0.21044921875,0.9624022841453552,0.9864510961897174,0.152587890625,-0.392913818359375,0.6046295166015625,0.7370489708078901
1785504012.857632,-0.064453125,-0.22509765625,0.9458007216453552,0.9743521772112912,0.3986358642578125,-0.1506805419921875,0.2994537353515625,0.5208528752187475
1785504012.865716,-0.0605468675494194,-0.22314453125,0.9550780653953552,0.9826665334670575,0.091552734375,-0.270843505859375,0.3604888916015625,0.4600981947431001
1785504012.873801,-0.0576171875,-0.2265625,0.9560546278953552,0.9842208889379387,0.335693359375,0.095367431640625,0.5435943603515625,0.6459719863525248
1785504012.881886,-0.0595703050494194,-0.2333984375,0.9663085341453552,0.9958793275458967,0.5207061767578125,-0.0247955322265625,0.4787445068359375,0.7077754190120774
1785504012.889971,-0.0512695275247097,-0.2119140475988388,0.9511718153953552,0.9758401254431105,0.2155303955078125,0.0324249267578125,1.0318756103515625,1.0546430687684878
1785504012.900534,-0.0629882737994194,-0.21875,0.9624022841453552,0.9889576541310693,0.217437744140625,0.095367431640625,0.8487701416015625,0.8813539997464297
1785504012.911097,-0.0532226487994194,-0.2138671875,0.9619140028953552,0.9868385750468777,0.1544952392578125,-0.1506805419921875,0.4787445068359375,0.5251377985957335
1785504012.92166,-0.0698242112994194,-0.21337890625,0.9531249403953552,0.979210462627765,-0.030517578125,-0.026702880859375,0.9098052978515625,0.9107085408733003
1785504012.932312,-0.0576171875,-0.20849609375,0.9580077528953552,0.982124847466974,0.091552734375,-0.148773193359375,0.4787445068359375,0.5096191411823837
1785504012.942964,-0.0590820275247097,-0.21630859375,0.9624022841453552,0.9881792601723283,-0.213623046875,-0.026702880859375,0.9098052978515625,0.9349296925443745
1785504012.953616,-0.0576171837747097,-0.2109375,0.9619140028953552,0.9864547215856104,0.2155303955078125,0.3986358642578125,0.4215240478515625,0.6189074458895236
1785504012.964298,-0.046875,-0.2177734375,0.9653319716453552,0.990700939328451,-0.030517578125,0.278472900390625,0.3604888916015625,0.4565421336467265
1785504012.97498,-0.0507812462747097,-0.2236328125,0.9653319716453552,0.9921976543414027,0.0324249267578125,0.3376007080078125,0.2384185791015625,0.4145709019979982
1785504012.985662,-0.052734375,-0.21435546875,0.9575194716453552,0.9826355987189112,0.091552734375,0.522613525390625,0.0553131103515625,0.5334475984288625
1785504012.993661,-0.06591796875,-0.2226562350988388,0.9677733778953552,0.9952418241791797,0.3376007080078125,0.0324249267578125,0.0553131103515625,0.3436352049767164
1785504013.001662,-0.0546874925494194,-0.22705078125,0.9516600966453552,0.9798978103121901,-0.030517578125,0.278472900390625,-0.0095367431640625,0.2803023872477003
1785504013.009663,-0.0639648362994194,-0.22216796875,0.9677733778953552,0.9950052349532129,0.091552734375,0.095367431640625,0.2384185791015625,0.2726174408398637
1785504013.017664,-0.0624999962747097,-0.2158203125,0.9570311903953552,0.9830530790407439,0.152587890625,0.095367431640625,0.2384185791015625,0.2986995651887097
1785504013.02833,-0.0561523400247097,-0.2314452975988388,0.9677733778953552,0.9966470398460288,0.152587890625,-0.026702880859375,0.2384185791015625,0.28432292744762067
1785504013.038996,-0.0541992150247097,-0.22509765625,0.9614257216453552,0.9889114864333561,0.091552734375,0.095367431640625,0.2994537353515625,0.32733681400855635
1785504013.049662,-0.0556640587747097,-0.22509765625,0.9633788466453552,0.9908916411254323,0.0324249267578125,0.2155303955078125,0.2384185791015625,0.32302963660291545
1785504013.060332,-0.0449218675494194,-0.2236328125,0.9633788466453552,0.9900143489740553,0.152587890625,0.400543212890625,0.0553131103515625,0.43217759073660406
1785504013.071002,-0.0595703087747097,-0.22021484375,0.9653319716453552,0.991921879270772,0.091552734375,0.339508056640625,0.1163482666015625,0.3703843177520093
1785504013.081672,-0.0493163987994194,-0.21435546875,0.9638671278953552,0.9886456465340939,0.2765655517578125,0.1544952392578125,-0.1926422119140625,0.37076718460993086
1785504013.089659,-0.0546874925494194,-0.2177734375,0.9624022841453552,0.9882480197046216,-0.0896453857421875,0.5207061767578125,-0.2498626708984375,0.584467768150738
1785504013.097644,-0.0595703087747097,-0.21044921875,0.9565429091453552,0.9812297551523083,-0.2117156982421875,0.1544952392578125,-0.4329681396484375,0.5061163164591067
1785504013.105629,-0.0507812462747097,-0.2255859375,0.9575194716453552,0.9850438004225837,0.0324249267578125,0.2803802490234375,-0.3719329833984375,0.46690320630442955
1785504013.113614,-0.0590820237994194,-0.2119140625,0.9682616591453552,0.9929395228272491,-0.396728515625,0.278472900390625,-0.3719329833984375,0.6109622046425173
1785504013.124309,-0.0600585900247097,-0.2138671875,0.9584960341453552,0.9839008362621156,-0.2727508544921875,0.2155303955078125,-0.6160736083984375,0.7073846697370844
1785504013.135004,-0.0449218712747097,-0.21435546875,0.9633788466453552,0.987960041532849,-0.1506805419921875,0.3376007080078125,-0.3147125244140625,0.4855129625514725
1785504013.145699,-0.0517578087747097,-0.2319335788488388,0.9599608778953552,0.9889372795361752,0.0324249267578125,0.0934600830078125,-0.4329681396484375,0.44412562743181755
1785504013.156465,-0.0566406212747097,-0.2197265625,0.9594725966453552,0.9859389362226405,0.091552734375,0.339508056640625,-0.3719329833984375,0.5118415456321376
1785504013.16723,-0.05224609375,-0.2177734375,0.9624022841453552,0.9881159248392353,0.0324249267578125,0.0934600830078125,-0.6160736083984375,0.6239654268917053
1785504013.177995,-0.0566406212747097,-0.21435546875,0.9638671278953552,0.9890380514412266,0.152587890625,0.095367431640625,-0.5550384521484375,0.5834772444118533
1785504013.185925,-0.0449218675494194,-0.2236328125,0.9682616591453552,0.9947664296616084,-0.087738037109375,-0.026702880859375,-0.4978179931640625,0.5061953786038457
1785504013.193855,-0.0571289025247097,-0.21484375,0.9648436903953552,0.9901236767765269,0.091552734375,-0.026702880859375,-0.9860992431640625,0.9907000880117384
1785504013.201785,-0.0488281175494194,-0.21826171875,0.9609374403953552,0.986622079262724,0.2155303955078125,-0.1506805419921875,-0.8602142333984375,0.8995145938027215
1785504013.209715,-0.0483398362994194,-0.22802734375,0.9667968153953552,0.9944995181143809,0.152587890625,-0.209808349609375,-0.8029937744140625,0.8438611317503247
1785504013.220368,-0.046875,-0.22216796875,0.9497069716453552,0.9764728383090298,-0.0286102294921875,-0.3337860107421875,-0.9860992431640625,1.0414525258347191
1785504013.231021,-0.0566406212747097,-0.2216796725988388,0.9643554091453552,0.9911263251320787,-0.087738037109375,-0.392913818359375,-0.9212493896484375,1.0053753874753293
1785504013.241674,-0.0488281175494194,-0.2138671875,0.9550780653953552,0.9799476873547457,-0.087738037109375,-0.026702880859375,-0.7381439208984375,0.7438195042893906
1785504013.249703,-0.0620117150247097,-0.2265624850988388,0.9521483778953552,0.9806949301302743,0.152587890625,-0.209808349609375,-0.6160736083984375,0.6684678742439819
1785504013.257735,-0.0581054650247097,-0.21142578125,0.9580077528953552,0.982779711151242,0.2155303955078125,-0.0896453857421875,-0.6160736083984375,0.6588143422373947
1785504013.265767,-0.0532226487994194,-0.22412109375,0.9707030653953552,0.9976609424934214,0.091552734375,-0.087738037109375,-0.6809234619140625,0.6926302240823577
1785504013.273799,-0.0498046837747097,-0.2158203125,0.9609374403953552,0.9861337019730506,0.2155303955078125,-0.2727508544921875,-0.5550384521484375,0.6549153100800942
1785504013.284435,-0.0610351525247097,-0.20654296875,0.9658202528953552,0.9895423430488591,0.0324249267578125,-0.4558563232421875,-0.5550384521484375,0.7189743018206344
1785504013.295071,-0.06494140625,-0.21435546875,0.9609374403953552,0.9866946931966021,0.2155303955078125,-0.1506805419921875,-0.1277923583984375,0.29238478754519387
1785504013.305707,-0.06689453125,-0.21923828125,0.9550780653953552,0.9821987646479432,-0.0896453857421875,-0.6389617919921875,-0.3719329833984375,0.7447433188356881
1785504013.316352,-0.0566406212747097,-0.21923828125,0.9672850966453552,0.9934354745709725,0.217437744140625,-0.209808349609375,-0.0667572021484375,0.3094434361583082
1785504013.326998,-0.0468749962747097,-0.2265624850988388,0.9570311903953552,0.9845996771883821,0.0324249267578125,0.0324249267578125,0.0553131103515625,0.07184909134612032
1785504013.337644,-0.0585937425494194,-0.234375,0.9531249403953552,0.9832659962058065,-0.1506805419921875,-0.4558563232421875,-0.0667572021484375,0.4847330576860139
1785504013.348313,-0.0556640587747097,-0.21484375,0.9594725966453552,0.984806573935571,0.0324249267578125,-0.1506805419921875,0.1735687255859375,0.23212519060161343
1785504013.358983,-0.0585937425494194,-0.22802734375,0.9511718153953552,0.97987627717285,-0.0896453857421875,-0.2727508544921875,-0.0095367431640625,0.28726342141188344
1785504013.369653,-0.0576171875,-0.2119140625,0.9521483778953552,0.9771457637985339,-0.030517578125,-0.209808349609375,-0.0667572021484375,0.2222777320810894
1785504013.377667,-0.0634765550494194,-0.2294921875,0.9584960341453552,0.9876287686356909,0.1544952392578125,-0.2727508544921875,-0.0095367431640625,0.3136124312742154
1785504013.385682,-0.052734375,-0.21728515625,0.9633788466453552,0.9889856195096886,-0.030517578125,-0.209808349609375,0.2384185791015625,0.3190521665828853
1785504013.393697,-0.0502929612994194,-0.22802734375,0.9604491591453552,0.9884272551669978,0.1544952392578125,0.0324249267578125,0.1735687255859375,0.2346193882229359
1785504013.401712,-0.0463867150247097,-0.2138671875,0.9458007216453552,0.9707882911762062,0.2765655517578125,0.1544952392578125,0.2384185791015625,0.39648543760551913
1785504013.412339,-0.0541992112994194,-0.22802734375,0.9609374403953552,0.989108077187087,0.0324249267578125,0.3986358642578125,0.1163482666015625,0.41653192829483177
1785504013.422966,-0.0581054612994194,-0.2216796875,0.9570311903953552,0.9840867989524433,-0.152587890625,-0.209808349609375,0.1735687255859375,0.3121357243775905
1785504013.433593,-0.052734375,-0.2138671875,0.9638671278953552,0.9887163033110367,-0.2727508544921875,-0.0247955322265625,-0.0667572021484375,0.2818942551442017
1785504013.441713,-0.0581054612994194,-0.23193359375,0.9570311903953552,0.9864472291674599,0.2155303955078125,0.2155303955078125,0.7266998291015625,0.7880351162173855
1785504013.449833,-0.0590820237994194,-0.21923828125,0.9506835341453552,0.9774227803754074,0.3376007080078125,-0.0247955322265625,0.4215240478515625,0.5406214751403621
1785504013.457953,-0.07421875,-0.21630859375,0.9628905653953552,0.9896747301558487,0.400543212890625,0.095367431640625,0.7877349853515625,0.8888510671407782
1785504013.466073,-0.0498046837747097,-0.220703125,0.9731444716453552,0.9990998641800438,0.3986358642578125,0.3376007080078125,0.7266998291015625,0.8949734252681414
1785504013.476596,-0.0532226487994194,-0.22119140625,0.9692382216453552,0.995580744511629,0.5207061767578125,0.2803802490234375,0.3604888916015625,0.6926039615280194
1785504013.487119,-0.0483398362994194,-0.2314453125,0.9614257216453552,0.9900722653892338,0.3986358642578125,0.8258819580078125,0.5435943603515625,1.0660611565203075
1785504013.497642,-0.046875,-0.21728515625,0.9555663466453552,0.9810795827009846,0.274658203125,0.522613525390625,0.2994537353515625,0.6619928738899497
1785504013.505653,-0.0605468712747097,-0.2333984375,0.9677733778953552,0.9973595466087362,0.091552734375,0.522613525390625,0.1735687255859375,0.5582409001446268
1785504013.513665,-0.0629882737994194,-0.2041015625,0.9497069716453552,0.9734312006726328,-0.087738037109375,0.095367431640625,-0.2498626708984375,0.2814680523292763
1785504013.521677,-0.0439453050494194,-0.22216796875,0.9589843153953552,0.985363239292336,-0.087738037109375,0.095367431640625,-0.5550384521484375,0.5699654318788716
1785504013.529689,-0.05224609375,-0.2236328125,0.9697265028953552,0.9965494365842817,-0.2727508544921875,0.1544952392578125,0.1163482666015625,0.3343631659150503
1785504013.539285,-0.0581054612994194,-0.22265625,0.9633788466453552,0.9904801120974694,0.0324249267578125,-0.2727508544921875,0.0553131103515625,0.2801855540141784
1785504013.548881,-0.0502929612994194,-0.2177734375,0.9467772841453552,0.972801047393806,0.152587890625,-0.392913818359375,-0.0095367431640625,0.4216103443860316
1785504013.558477,-0.0629882737994194,-0.22412109375,0.9580077528953552,0.9858887573694787,-0.087738037109375,-0.209808349609375,0.2384185791015625,0.32948585035236916
1785504013.568073,-0.0502929650247097,-0.2158203125,0.9624022841453552,0.9875859183619273,0.1544952392578125,0.0324249267578125,-0.1926422119140625,0.24906058829072253
1785504013.577669,-0.0512695275247097,-0.2324218600988388,0.9628905653953552,0.9918703173458706,0.091552734375,-0.209808349609375,-0.1277923583984375,0.26216852137963426
1785504013.587414,-0.0644531175494194,-0.21826171875,0.9638671278953552,0.9903697402842963,-0.0286102294921875,-0.1506805419921875,-0.0095367431640625,0.15366886619231726
1785504013.597159,-0.0463867150247097,-0.23388671875,0.9702147841453552,0.9990853076252515,0.1544952392578125,-0.1506805419921875,0.0553131103515625,0.22278452564115003
1785504013.606904,-0.0507812462747097,-0.2211913913488388,0.9570311903953552,0.9835715866014016,0.2155303955078125,-0.4558563232421875,0.1735687255859375,0.5332770774458305
1785504013.616649,-0.0576171875,-0.22119140625,0.9726561903953552,0.9991523623595493,0.217437744140625,-0.209808349609375,0.2994537353515625,0.42540716467729744
1785504013.626394,-0.0454101525247097,-0.22021484375,0.9609374403953552,0.9868928126771069,0.152587890625,-0.698089599609375,-0.0095367431640625,0.7146349438128126
1785504013.635856,-0.0502929612994194,-0.22314453125,0.9653319716453552,0.992062840380465,0.0324249267578125,-0.4558563232421875,0.2994537353515625,0.5463779854012595
1785504013.645318,-0.0410156212747097,-0.2211913913488388,0.9560546278953552,0.9821651410610701,0.457763671875,-0.026702880859375,-0.0095367431640625,0.45864100624001114
1785504013.65478,-0.0483398362994194,-0.228515625,0.9545897841453552,0.9827501140357456,0.2155303955078125,-0.2727508544921875,0.0553131103515625,0.35200272753309264
1785504013.664242,-0.0493163987994194,-0.21337890625,0.9614257216453552,0.9860537931899465,0.2155303955078125,-0.0247955322265625,0.1163482666015625,0.24618100850256674
1785504013.673704,-0.0498046837747097,-0.21142578125,0.9658202528953552,0.9899445077406711,0.274658203125,0.034332275390625,0.3604888916015625,0.45449760686440865
1785504013.684408,-0.0458984337747097,-0.2138671875,0.9653319716453552,0.9898038470287133,0.0324249267578125,0.0934600830078125,0.1163482666015625,0.15271896454685965
1785504013.695112,-0.0537109337747097,-0.220703125,0.9697265028953552,0.9959740077980812,0.217437744140625,0.095367431640625,0.4215240478515625,0.4837940083463824
1785504013.705816,-0.0419921875,-0.22802734375,0.9677733778953552,0.9951608534662635,0.0324249267578125,0.2155303955078125,0.2384185791015625,0.32302963660291545
1785504013.713778,-0.0517578125,-0.21337890625,0.9663085341453552,0.990939762018548,-0.087738037109375,0.095367431640625,0.1163482666015625,0.17415461324559742
1785504013.72174,-0.04248046875,-0.21875,0.9599608778953552,0.9854851799062434,0.0324249267578125,0.0324249267578125,0.0553131103515625,0.07184909134612032
1785504013.729702,-0.0527343712747097,-0.21533203125,0.9677733778953552,0.9928414317296473,0.2155303955078125,0.1544952392578125,0.1163482666015625,0.2895842700877779
1785504013.737664,-0.0517578087747097,-0.22509765625,0.9521483778953552,0.9797623993332051,0.1544952392578125,0.2155303955078125,-0.2498626708984375,0.3643535160384536
1785504013.748317,-0.0468749962747097,-0.2211913913488388,0.9624022841453552,0.9886056106510757,-0.1506805419921875,0.2155303955078125,-0.0667572021484375,0.2713199240039345
1785504013.75897,-0.05126953125,-0.2177734375,0.9462890028953552,0.9723768363735568,0.0324249267578125,0.2803802490234375,-0.1277923583984375,0.3098311585085158
1785504013.769623,-0.0512695275247097,-0.2197265625,0.9589843153953552,0.985169652341652,-0.335693359375,0.095367431640625,-0.0667572021484375,0.35530480236677003
1785504013.780306,-0.0654296875,-0.2211913913488388,0.9663085341453552,0.9934580307065457,-0.2727508544921875,-0.1506805419921875,-0.3719329833984375,0.48521314749390315
1785504013.790988,-0.0678710862994194,-0.22314453125,0.9575194716453552,0.9855168718810681,-0.3337860107421875,0.2155303955078125,0.0553131103515625,0.4011558207625834
1785504013.80167,-0.0551757737994194,-0.22216796875,0.9580077528953552,0.9849780845077081,-0.335693359375,-0.087738037109375,-0.1277923583984375,0.36975516433082267
1785504013.812315,-0.0590820237994194,-0.21875,0.9531249403953552,0.9796884198763832,-0.0896453857421875,0.2155303955078125,0.3604888916015625,0.42946698073395906
1785504013.822959,-0.0625,-0.2216796875,0.9584960341453552,0.9857802905934322,-0.576019287109375,-0.209808349609375,0.4787445068359375,0.7778265009071029
1785504013.833603,-0.0488281175494194,-0.2216796875,0.9682616591453552,0.9945133028192401,-0.6389617919921875,-0.3337860107421875,0.2994537353515625,0.7806137407252417
1785504013.84162,-0.05712890625,-0.21728515625,0.9702147841453552,0.9958881857066718,-0.576019287109375,-0.209808349609375,0.2994537353515625,0.6822684972236414
1785504013.849638,-0.0532226487994194,-0.2265625,0.9565429091453552,0.9844478420859765,-0.5168914794921875,-0.1506805419921875,0.2384185791015625,0.588833462166927
1785504013.857656,-0.0488281175494194,-0.22900390625,0.9682616591453552,0.9961714785678693,-0.6389617919921875,-0.3337860107421875,0.1163482666015625,0.7302206459243942
1785504013.865674,-0.0458984337747097,-0.2324218600988388,0.9672850966453552,0.9958750149827988,-0.213623046875,-0.087738037109375,0.0553131103515625,0.2374706497416652
1785504013.876334,-0.06591796875,-0.21923828125,0.9531249403953552,0.9802335204293054,-0.2727508544921875,-0.0247955322265625,-0.1926422119140625,0.3348415578385686
1785504013.886994,-0.0541992112994194,-0.21923828125,0.9716796278953552,0.9975792087537656,-0.1506805419921875,-0.2727508544921875,-0.4978179931640625,0.5872992496838153
1785504013.897654,-0.0356445275247097,-0.22412109375,0.9541015028953552,0.9807193659928061,-0.2727508544921875,-0.1506805419921875,-0.4329681396484375,0.5334407786361169
1785504013.905645,-0.0561523400247097,-0.2211913913488388,0.9682616591453552,0.9947911124793998,-0.4558563232421875,-0.3337860107421875,-0.2498626708984375,0.6177778263385392
1785504013.913639,-0.0449218675494194,-0.2275390625,0.9594725966453552,0.9871067130056845,-0.518798828125,-0.270843505859375,-0.0095367431640625,0.5853198939043913
1785504013.921633,-0.05224609375,-0.22705078125,0.9687499403953552,0.9963724999187671,-0.1506805419921875,-0.0896453857421875,-0.0667572021484375,0.1876098210611916
1785504013.929627,-0.05224609375,-0.22705078125,0.9667968153953552,0.9944736265165456,-0.030517578125,-0.209808349609375,0.1163482666015625,0.24184248030818215
1785504013.940499,-0.0600585900247097,-0.2158203125,0.9697265028953552,0.995266261831983,0.0324249267578125,0.0324249267578125,-0.1926422119140625,0.19802467917318178
1785504013.951371,-0.0595703087747097,-0.220703125,0.9653319716453552,0.9920303959823957,0.091552734375,-0.209808349609375,-0.0095367431640625,0.22911219131143223
1785504013.962243,-0.0517578087747097,-0.2265624850988388,0.9594725966453552,0.987216842510652,-0.2727508544921875,0.2155303955078125,-0.0095367431640625,0.3477604484183758
1785504013.972699,-0.0463867150247097,-0.21923828125,0.9575194716453552,0.9833924394036381,-0.152587890625,0.278472900390625,-0.1926422119140625,0.37140441896737914
1785504013.983156,-0.0493163987994194,-0.23876953125,0.9614257216453552,0.9918580616626455,-0.3337860107421875,0.1544952392578125,-0.1926422119140625,0.41520224196366645
1785504013.993613,-0.0507812462747097,-0.224609375,0.9677733778953552,0.9947931530092522,-0.152587890625,0.095367431640625,-0.1926422119140625,0.26360772597603965
1785504014.001696,-0.06494140625,-0.2197265625,0.9516600966453552,0.9788534558660151,-0.396728515625,0.034332275390625,-0.1926422119140625,0.442360986135369
1785504014.009777,-0.0634765550494194,-0.22265625,0.9619140028953552,0.9893854798162189,-0.518798828125,0.095367431640625,-0.1277923583984375,0.5427504564223206
1785504014.017858,-0.0581054612994194,-0.22705078125,0.9492186903953552,0.9777241042824539,-0.3337860107421875,-0.1506805419921875,-0.3147125244140625,0.48286820119502066
1785504014.025939,-0.0620117150247097,-0.22021484375,0.9589843153953552,0.9858960124589412,-0.4558563232421875,-0.2079010009765625,-0.3147125244140625,0.5916686460089078
1785504014.033868,-0.0629882737994194,-0.2294921875,0.9599608778953552,0.9890192484726407,-0.701904296875,0.034332275390625,-0.3147125244140625,0.7699950130540831
1785504014.041797,-0.0512695275247097,-0.20556640625,0.9570311903953552,0.980201413598602,-0.3337860107421875,-0.1506805419921875,-0.3147125244140625,0.48286820119502066
1785504014.049726,-0.0473632775247097,-0.220703125,0.9497069716453552,0.976164167255918,-0.2727508544921875,-0.3337860107421875,-0.2498626708984375,0.49823436644003494
1785504014.057655,-0.0649413987994194,-0.2177734375,0.9624022841453552,0.9888684502434025,-0.2727508544921875,-0.3337860107421875,-0.0095367431640625,0.4311578354426363
1785504014.0684,-0.0463867150247097,-0.21923828125,0.9599608778953552,0.9857697694623521,-0.213623046875,-0.209808349609375,-0.0667572021484375,0.3067749562149028
1785504014.079145,-0.0493163987994194,-0.22119140625,0.9531249403953552,0.9796963291719762,-0.213623046875,-0.026702880859375,-0.1277923583984375,0.25035721852461756
1785504014.08989,-0.0551757775247097,-0.2197265625,0.9648436903953552,0.9910839901790618,-0.518798828125,-0.026702880859375,-0.2498626708984375,0.5764517518566182
1785504014.100523,-0.0419921837747097,-0.22412109375,0.9492186903953552,0.9762221726419342,-0.518798828125,-0.026702880859375,-0.0667572021484375,0.5237573788967088
1785504014.111157,-0.0498046800494194,-0.21826171875,0.9501952528953552,0.9762119148276143,-0.270843505859375,0.095367431640625,0.1163482666015625,0.3098194164753314
1785504014.121791,-0.0522460900247097,-0.2158203125,0.9599608778953552,0.9853085548700411,-0.5779266357421875,0.0324249267578125,0.0553131103515625,0.5814723659403744
1785504014.129802,-0.0561523400247097,-0.22412109375,0.9633788466453552,0.9906978106959163,-0.087738037109375,-0.087738037109375,-0.1926422119140625,0.22914394629305548
1785504014.137814,-0.0541992112994194,-0.21435546875,0.9628905653953552,0.9879494230049928,-0.5168914794921875,0.0324249267578125,-0.0667572021484375,0.522192207415583
1785504014.145826,-0.0522460900247097,-0.22900390625,0.9663085341453552,0.9944468945915483,-0.5168914794921875,0.0324249267578125,0.2384185791015625,0.5701505032074251
1785504014.153838,-0.0488281175494194,-0.2119140625,0.9619140028953552,0.9861897910214034,-0.3337860107421875,0.1544952392578125,0.2384185791015625,0.43832099970377925
1785504014.164503,-0.0522460900247097,-0.2255859375,0.9624022841453552,0.98986707473722,-0.396728515625,0.217437744140625,0.1735687255859375,0.4845604092252134
1785504014.175168,-0.06591796875,-0.2309570163488388,0.9589843153953552,0.9886036815525127,-0.270843505859375,0.095367431640625,0.6618499755859375,0.7214544627812851
1785504014.185833,-0.0566406212747097,-0.21923828125,0.9692382216453552,0.9953372866732613,-0.3337860107421875,0.1544952392578125,0.5435943603515625,0.6563358199325532
1785504014.196452,-0.0556640550494194,-0.2177734375,0.9541015028953552,0.9802211153266831,-0.1506805419921875,0.4634857177734375,0.6046295166015625,0.7765954472316053
1785504014.207073,-0.0590820275247097,-0.23046875,0.9643554091453552,0.9932713052589904,-0.087738037109375,0.278472900390625,0.5435943603515625,0.6170412855018677
1785504014.217694,-0.0585937425494194,-0.22802734375,0.9716796278953552,0.9997954768003725,-0.213623046875,0.095367431640625,0.4215240478515625,0.4820915640114999
1785504014.225683,-0.0458984337747097,-0.22021484375,0.9477538466453552,0.9740834653467206,-0.087738037109375,-0.087738037109375,0.4787445068359375,0.4945626645200759
1785504014.233672,-0.0566406212747097,-0.2294921875,0.9521483778953552,0.9810511493447609,-0.213623046875,0.217437744140625,0.4787445068359375,0.5675476029010319
1785504014.241661,-0.04638671875,-0.2275390625,0.9667968153953552,0.9942946418936246,0.1544952392578125,0.2155303955078125,0.7266998291015625,0.7735727321702355
1785504014.24965,-0.0566406212747097,-0.2211913913488388,0.9506835341453552,0.9777182486178332,-0.3337860107421875,0.1544952392578125,0.4787445068359375,0.6037202851868549
1785504014.260312,-0.0493164025247097,-0.21484375,0.9677733778953552,0.9925599505496017,-0.213623046875,0.400543212890625,0.6618499755859375,0.8025677926082064
1785504014.270974,-0.0502929650247097,-0.22509765625,0.9570311903953552,0.9844323423017808,0.0324249267578125,0.3376007080078125,0.4787445068359375,0.5867042839013626
1785504014.281636,-0.0576171875,-0.22314453125,0.9702147841453552,0.9972110857267936,-0.030517578125,0.217437744140625,0.9098052978515625,0.9359253042579572
1785504014.292409,-0.056640625,-0.232421875,0.9682616591453552,0.997375921581137,-0.0896453857421875,0.5207061767578125,1.0318756103515625,1.159283611950507
1785504014.303181,-0.0541992112994194,-0.2177734375,0.9614257216453552,0.9872700961881391,0.457763671875,0.095367431640625,0.9670257568359375,1.0741421417532828
1785504014.313953,-0.0585937462747097,-0.220703125,0.9584960341453552,0.9853211374773427,0.400543212890625,0.461578369140625,0.8487701416015625,1.0458968445910908
1785504014.32191,-0.0478515625,-0.21337890625,0.9702147841453552,0.9945536974142501,0.091552734375,0.827789306640625,0.4215240478515625,0.9334342838557369
1785504014.329868,-0.0493163987994194,-0.22265625,0.9609374403953552,0.9876278029744721,-0.030517578125,0.949859619140625,0.4787445068359375,1.0641244858916525
1785504014.337826,-0.0415039025247097,-0.220703125,0.9672850966453552,0.993012034922921,-0.335693359375,0.461578369140625,0.4215240478515625,0.7095260004426606
1785504014.345784,-0.0625,-0.2138671875,0.9560546278953552,0.9816750355434767,0.0324249267578125,0.1544952392578125,-0.0095367431640625,0.1581489939859104
1785504014.356428,-0.0581054612994194,-0.21875,0.9594725966453552,0.9858070150116598,-0.1506805419921875,0.3376007080078125,0.0553131103515625,0.3738160028131484
1785504014.367072,-0.0615234375,-0.2177734375,0.9594725966453552,0.9857981878436191,-0.270843505859375,0.095367431640625,-0.0095367431640625,0.28730141168136275
1785504014.377716,-0.0634765550494194,-0.21923828125,0.9648436903953552,0.9914726642233381,-0.2727508544921875,0.4634857177734375,0.4215240478515625,0.6832968330991614
1785504014.388355,-0.0551757775247097,-0.21484375,0.9785155653953552,1.0033418734711068,0.091552734375,0.095367431640625,0.4215240478515625,0.4417684609684523
1785504014.398993,-0.0688476487994194,-0.2216796875,0.9550780653953552,0.982881474845589,-0.152587890625,0.095367431640625,-0.0095367431640625,0.18019145610514817
1785504014.409631,-0.05712890625,-0.2216796875,0.9667968153953552,0.9935299079735946,-0.0286102294921875,-0.1506805419921875,0.3604888916015625,0.39175938014906303
1785504014.417658,-0.0610351525247097,-0.21533203125,0.9643554091453552,0.9899871356102922,-0.213623046875,-0.453948974609375,0.3604888916015625,0.6177837151246256
1785504014.425684,-0.0551757775247097,-0.21630859375,0.9658202528953552,0.9912832768983882,0.2155303955078125,-0.3337860107421875,0.1735687255859375,0.43358108221699926
1785504014.43371,-0.0556640587747097,-0.2197265625,0.9570311903953552,0.9835074728220886,0.152587890625,-0.514984130859375,0.1163482666015625,0.5495713225265316
1785504014.441736,-0.0629882737994194,-0.21484375,0.9599608778953552,0.985723209952933,0.3376007080078125,-0.4558563232421875,0.4215240478515625,0.7067260773485214
1785504014.452421,-0.0634765625,-0.220703125,0.9682616591453552,0.9951229994038416,0.0934600830078125,-0.3337860107421875,0.3604888916015625,0.5001001190273143
1785504014.463106,-0.0595703087747097,-0.224609375,0.9589843153953552,0.9867364948149546,0.274658203125,-0.270843505859375,0.1735687255859375,0.4229886945434565
1785504014.473791,-0.0488281175494194,-0.20751953125,0.9677733778953552,0.9909762115594025,0.5817413330078125,-0.3337860107421875,-0.0667572021484375,0.6740123170503471
1785504014.48451,-0.0522460900247097,-0.22509765625,0.9589843153953552,0.9864327275320965,0.3986358642578125,-0.4558563232421875,0.1163482666015625,0.6166461374675488
1785504014.495229,-0.0595703050494194,-0.22412109375,0.9663085341453552,0.9937459781400487,0.457763671875,-0.392913818359375,-0.1277923583984375,0.616652037060822
1785504014.505948,-0.07080078125,-0.21875,0.9624022841453552,0.9894859623328708,0.274658203125,-0.270843505859375,-0.0095367431640625,0.38585526130950754
1785504014.513881,-0.0576171875,-0.21826171875,0.9614257216453552,0.9875714335724816,0.091552734375,-0.209808349609375,0.0553131103515625,0.2355015645682915
1785504014.521815,-0.0595703087747097,-0.2197265625,0.9628905653953552,0.9894375295504854,-0.0896453857421875,0.0324249267578125,0.0553131103515625,0.11021438761286673
1785504014.529749,-0.0644531175494194,-0.22265625,0.9672850966453552,0.9946710351760103,0.3376007080078125,-0.0247955322265625,0.1735687255859375,0.38041445683267777
1785504014.537683,-0.0600585900247097,-0.2197265625,0.9653319716453552,0.9918430379775479,0.091552734375,-0.148773193359375,0.2384185791015625,0.29556519601382925
1785504014.548326,-0.0566406212747097,-0.2211913913488388,0.9599608778953552,0.9867414446930064,0.0324249267578125,-0.2079010009765625,0.2384185791015625,0.31798996987816164
1785504014.558969,-0.0605468712747097,-0.2167968600988388,0.9624022841453552,0.9883749079666424,0.274658203125,-0.270843505859375,0.4215240478515625,0.571380657816851
1785504014.569612,-0.0556640587747097,-0.2060546875,0.9731444716453552,0.9962766605586596,0.091552734375,-0.209808349609375,0.6046295166015625,0.6465124121648309
1785504014.577633,-0.0537109300494194,-0.2314453125,0.9667968153953552,0.9955641008712582,0.091552734375,0.034332275390625,0.5435943603515625,0.5523182387999345
1785504014.585654,-0.0541992112994194,-0.22900390625,0.9628905653953552,0.9912308431998192,0.0324249267578125,0.1544952392578125,0.4787445068359375,0.5040996505197789
1785504014.593675,-0.0556640587747097,-0.2158203125,0.9594725966453552,0.9850200802218463,0.091552734375,0.583648681640625,0.1163482666015625,0.602133378823635
1785504014.601696,-0.0488281212747097,-0.21533203125,0.9697265028953552,0.9945459061939393,0.0324249267578125,0.2803802490234375,0.1163482666015625,0.3052890090699018
1785504014.612499,-0.056640625,-0.21337890625,0.9624022841453552,0.9873990452502139,-0.030517578125,0.095367431640625,-0.0095367431640625,0.10058438776729743
1785504014.623302,-0.0585937425494194,-0.21337890625,0.9604491591453552,0.9856096446369698,-0.0286102294921875,0.0324249267578125,0.0553131103515625,0.07021012237284073
1785504014.634105,-0.0590820237994194,-0.22265625,0.9550780653953552,0.9824665908821694,-0.1506805419921875,-0.0247955322265625,0.0553131103515625,0.16241608396406437
1785504014.644631,-0.06103515625,-0.2177734375,0.9536132216453552,0.9800656798785792,-0.335693359375,-0.392913818359375,0.1163482666015625,0.5297246636955892
1785504014.655158,-0.0678710862994194,-0.224609375,0.9506835341453552,0.979211436712448,0.091552734375,-0.209808349609375,0.3604888916015625,0.4270289073417303
1785504014.665685,-0.0541992112994194,-0.2294921875,0.9487304091453552,0.9775958305282032,-0.030517578125,-0.087738037109375,0.4787445068359375,0.48767364964288007
1785504014.67369,-0.0629882737994194,-0.23486328125,0.9555663466453552,0.9860199421699839,0.1544952392578125,-0.1506805419921875,0.6618499755859375,0.6961456707266764
1785504014.681695,-0.0605468675494194,-0.23291015625,0.9702147841453552,0.9996148215331065,0.0324249267578125,-0.1506805419921875,0.3604888916015625,0.39205642779889727
1785504014.6897,-0.0537109300494194,-0.2119140625,0.9599608778953552,0.9845391414167588,-0.030517578125,-0.087738037109375,0.5435943603515625,0.551474491102214
1785504014.697705,-0.046875,-0.21728515625,0.9555663466453552,0.9810795827009846,0.0934600830078125,0.1544952392578125,0.1735687255859375,0.2504589159336964
1785504014.708609,-0.0483398362994194,-0.224609375,0.9482421278953552,0.9756788632674465,-0.030517578125,0.278472900390625,0.7877349853515625,0.8360651206535342
1785504014.719513,-0.0454101525247097,-0.23046875,0.9653319716453552,0.9935007509607573,0.152587890625,0.095367431640625,0.4215240478515625,0.458323613072993
1785504014.730417,-0.0517578125,-0.21337890625,0.9575194716453552,0.9823710945295732,0.0934600830078125,0.1544952392578125,0.4215240478515625,0.45856961193075396
1785504014.740848,-0.0532226487994194,-0.2275390625,0.9624022841453552,0.9903660090273708,0.091552734375,0.339508056640625,0.1735687255859375,0.39213993190818963
1785504014.751279,-0.0624999962747097,-0.2099609375,0.9575194716453552,0.9822593259370042,0.152587890625,0.278472900390625,0.3604888916015625,0.4803982322880435
1785504014.76171,-0.0493164025247097,-0.2099609375,0.9653319716453552,0.9891316991758817,0.091552734375,0.339508056640625,-0.0095367431640625,0.3517649402166316
1785504014.769718,-0.0688476487994194,-0.22705078125,0.9619140028953552,0.9907424513856308,0.1544952392578125,0.1544952392578125,0.1735687255859375,0.27904060709542605
1785504014.777727,-0.0605468712747097,-0.23046875,0.9594725966453552,0.9886199634142026,0.2155303955078125,0.3376007080078125,0.1163482666015625,0.41709052803476443
1785504014.785736,-0.0512695275247097,-0.2236328125,0.9604491591453552,0.9874729295440392,-0.0286102294921875,0.3376007080078125,-0.0095367431640625,0.3389450290963849
1785504014.793745,-0.0556640587747097,-0.2197265625,0.9604491591453552,0.9868337433480681,0.0324249267578125,0.2803802490234375,-0.0667572021484375,0.2900361769786343
1785504014.804525,-0.06494140625,-0.2260742038488388,0.9555663466453552,0.9840904301601378,0.274658203125,0.461578369140625,-0.0095367431640625,0.537198909969622
1785504014.815305,-0.0585937425494194,-0.2236328125,0.9667968153953552,0.9940527872055932,0.2155303955078125,0.3986358642578125,0.0553131103515625,0.45653416502720945
1785504014.826085,-0.04638671875,-0.22265625,0.9682616591453552,0.9946145856116178,0.0324249267578125,0.0934600830078125,-0.1926422119140625,0.21655757849177035
1785504014.834016,-0.0576171875,-0.22314453125,0.9677733778953552,0.994835932747294,0.3986358642578125,0.0324249267578125,-0.2498626708984375,0.4715859226655557
1785504014.841946,-0.0546874925494194,-0.21826171875,0.9658202528953552,0.9916842544963063,-0.0286102294921875,-0.1506805419921875,-0.2498626708984375,0.29318002195776555
1785504014.849876,-0.0678710862994194,-0.23095703125,0.9604491591453552,0.9901566653526584,0.274658203125,-0.270843505859375,-0.3147125244140625,0.49783260864784956
1785504014.857806,-0.0517578087747097,-0.21435546875,0.9560546278953552,0.9811562512017735,0.1544952392578125,-0.1506805419921875,-0.3147125244140625,0.38159845087665123
1785504014.868426,-0.0605468712747097,-0.2138671875,0.9516600966453552,0.9772727546889677,0.274658203125,0.095367431640625,-0.2498626708984375,0.38335809613217237
1785504014.879046,-0.0576171837747097,-0.21044921875,0.9638671278953552,0.9882552573985403,0.2155303955078125,0.0324249267578125,-0.1926422119140625,0.2908878634012532
1785504014.889666,-0.0595703050494194,-0.228515625,0.9555663466453552,0.9843145101815642,0.2155303955078125,-0.1506805419921875,-0.3147125244140625,0.41012431060092663
1785504014.900357,-0.0576171875,-0.21923828125,0.9711913466453552,0.9972952401669642,0.1544952392578125,-0.2727508544921875,-0.1926422119140625,0.36793046814675423
1785504014.911049,-0.0517578125,-0.22314453125,0.9594725966453552,0.9864380450362547,0.1544952392578125,-0.4558563232421875,-0.2498626708984375,0.5423145956930492
1785504014.921741,-0.0415039025247097,-0.2211913913488388,0.9575194716453552,0.9836115819324293,0.091552734375,-0.392913818359375,-0.3719329833984375,0.5487233510330553
1785504014.932391,-0.0561523400247097,-0.2167968600988388,0.9726561903953552,0.9981052191795069,0.0324249267578125,-0.1506805419921875,-0.0095367431640625,0.15442458055790917
1785504014.94304,-0.0615234337747097,-0.2041015625,0.9667968153953552,0.9900195265634779,-0.0286102294921875,0.0324249267578125,-0.5550384521484375,0.5567204006233097
1785504014.953689,-0.05712890625,-0.22216796875,0.9536132216453552,0.9808162390400434,0.1544952392578125,0.0324249267578125,-0.4978179931640625,0.5222479383841289
1785504014.96168,-0.0561523400247097,-0.2373046725988388,0.9560546278953552,0.9866646058553123,0.1544952392578125,-0.3337860107421875,-0.3147125244140625,0.48407215675308607
1785504014.969671,-0.06396484375,-0.23486328125,0.9555663466453552,0.9860828083668378,0.091552734375,0.034332275390625,-0.3719329833984375,0.3845708679095433
1785504014.977662,-0.0634765550494194,-0.22998046875,0.9594725966453552,0.9886900185400843,-0.030517578125,-0.026702880859375,-0.1277923583984375,0.13407182137138346
1785504014.985653,-0.0517578125,-0.2177734375,0.9604491591453552,0.9861879782974295,0.274658203125,-0.209808349609375,-0.0095367431640625,0.34575659296655614
1785504014.99394,-0.0541992150247097,-0.220703125,0.9633788466453552,0.989821310367581,-0.1506805419921875,-0.0896453857421875,-0.3147125244140625,0.36025670561836437
1785504015.002227,-0.0590820275247097,-0.21484375,0.9619140028953552,0.9873839536151368,0.0324249267578125,0.1544952392578125,-0.1926422119140625,0.24906058829072253
1785504015.010514,-0.0600585862994194,-0.228515625,0.9589843153953552,0.9876625647617325,-0.0286102294921875,0.1544952392578125,-0.0667572021484375,0.17071569413387777
1785504015.018801,-0.0610351525247097,-0.2158203125,0.9750975966453552,1.0005593536191943,0.0400543212890625,0.2574920654296875,0.0247955322265625,0.26176579385315496
1785504015.029069,-0.0610351525247097,-0.2172851413488388,0.9580077528953552,0.9842342084597078,0.0400543212890625,-0.0476837158203125,0.0247955322265625,0.06702912670442802
1785504015.039337,-0.037109375,-0.22314453125,0.9599608778953552,0.9862532507572758,0.2231597900390625,0.0743865966796875,0.2079010009765625,0.3139370699087981
1785504015.049605,-0.0458984337747097,-0.22998046875,0.9658202528953552,0.9938845220307483,-0.38909912109375,-0.110626220703125,-0.0362396240234375,0.40613987380254274
1785504015.057617,-0.0644531175494194,-0.23388671875,0.9570311903953552,0.9873023351329782,0.09918212890625,-0.110626220703125,0.2689361572265625,0.3072489415201017
1785504015.065629,-0.07080078125,-0.21484375,0.9663085341453552,0.9924327537429516,0.0400543212890625,-0.0476837158203125,0.6351470947265625,0.6381926960941755
1785504015.073641,-0.0610351525247097,-0.2226562350988388,0.9721679091453552,0.9992054505676776,-0.3261566162109375,0.0743865966796875,0.6961822509765625,0.7723867105527831
1785504015.081653,-0.0498046800494194,-0.21337890625,0.9628905653953552,0.9875066099599831,-0.0209808349609375,-0.1697540283203125,0.8182525634765625,0.8359389231293142
1785504015.092342,-0.0463867150247097,-0.234375,0.9682616591453552,0.997303368352228,0.28228759765625,0.011444091796875,0.8792877197265625,0.9235605822519334
1785504015.103031,-0.0532226487994194,-0.2138671875,0.9648436903953552,0.9896944837322852,0.3452301025390625,0.2574920654296875,0.6961822509765625,0.8186303891459024
1785504015.11372,-0.05224609375,-0.2265625,0.9628905653953552,0.9905647185549113,0.1010894775390625,0.3185272216796875,0.5741119384765625,0.6642914957467224
1785504015.121706,-0.0434570237994194,-0.2216796875,0.9560546278953552,0.9823801953865555,0.2231597900390625,0.5626678466796875,0.2689361572265625,0.6623609697447648
1785504015.129692,-0.0600585862994194,-0.2236328125,0.9721679091453552,0.9993643540706245,0.225067138671875,0.682830810546875,0.1468658447265625,0.7338138109147947
1785504015.137678,-0.0610351525247097,-0.2041015625,0.9609374403953552,0.9842680031435711,-0.2651214599609375,0.6237030029296875,0.3910064697265625,0.7824198896777599
1785504015.145664,-0.0624999962747097,-0.2260742038488388,0.9638671278953552,0.9919957839716186,-0.2040863037109375,0.4405975341796875,0.2079010009765625,0.5282047261192109
1785504015.156412,-0.0585937425494194,-0.22509765625,0.9492186903953552,0.9773015418544391,-0.446319580078125,0.682830810546875,0.2689361572265625,0.8589445500479099
1785504015.16716,-0.0600585900247097,-0.2255859375,0.9746093153953552,1.0021773131980753,-0.263214111328125,0.377655029296875,0.3910064697265625,0.6039793447821766
1785504015.177908,-0.0610351525247097,-0.2119140475988388,0.9672850966453552,0.9921054941918483,-0.38909912109375,0.377655029296875,0.3299713134765625,0.6347460239391816
1785504015.185841,-0.0620117150247097,-0.20654296875,0.9565429091453552,0.9805507573688517,-0.1430511474609375,0.3795623779296875,0.3299713134765625,0.5228884175873258
1785504015.193774,-0.0610351525247097,-0.228515625,0.9619140028953552,0.990567125276738,-0.3261566162109375,0.1354217529296875,0.2689361572265625,0.44389621098687976
1785504015.201707,-0.06396484375,-0.23046875,0.9609374403953552,0.9902565881205241,-0.02288818359375,0.011444091796875,0.2689361572265625,0.27015087053175835
1785504015.20964,-0.05712890625,-0.2177734375,0.9594725966453552,0.9855336857374629,-0.0209808349609375,-0.0476837158203125,0.2689361572265625,0.2739353734987155
1785504015.220325,-0.0649413987994194,-0.23193359375,0.9580077528953552,0.9878205463521313,-0.0209808349609375,-0.2307891845703125,-0.1583099365234375,0.280652595128466
1785504015.23101,-0.0532226487994194,-0.2197265625,0.9746093153953552,1.0004877461861768,-0.08392333984375,0.011444091796875,0.0858306884765625,0.12058607420405383
1785504015.241695,-0.0673828050494194,-0.22900390625,0.9604491591453552,0.9896695503030831,0.0400543212890625,-0.2918243408203125,0.2079010009765625,0.36053934702913354
1785504015.249766,-0.0610351525247097,-0.2138671875,0.9609374403953552,0.9863393067735117,-0.0209808349609375,-0.4138946533203125,0.0247955322265625,0.4151671927081887
1785504015.25784,-0.0585937425494194,-0.22314453125,0.9599608778953552,0.9872950904275535,-0.1430511474609375,-0.4749298095703125,0.0247955322265625,0.4966253852017461
1785504015.265914,-0.0649413987994194,-0.21240234375,0.9633788466453552,0.9886510724579493,0.1621246337890625,-0.3528594970703125,0.3299713134765625,0.5095834468184768
1785504015.273988,-0.0532226487994194,-0.212890625,0.9672850966453552,0.9918646715910044,0.225067138671875,-0.476837158203125,0.2689361572265625,0.5919083957986805
1785504015.283539,-0.0537109300494194,-0.20849609375,0.9716796278953552,0.9952470971485615,0.1010894775390625,-0.1697540283203125,0.2689361572265625,0.33370970807557343
1785504015.293088,-0.0468749962747097,-0.19970703125,0.9746093153953552,0.9959635943456194,0.1010894775390625,-0.0476837158203125,0.4520416259765625,0.4656548623595456
1785504015.302637,-0.0551757737994194,-0.203125,0.9560546278953552,0.9789507562484902,-0.02288818359375,-0.293731689453125,0.3299713134765625,0.442360986135369
1785504015.312186,-0.0590820237994194,-0.21435546875,0.9570311903953552,0.9825210694477844,0.09918212890625,0.011444091796875,0.3299713134765625,0.34474502120970385
1785504015.321735,-0.0507812462747097,-0.21484375,0.9624022841453552,0.9873979584825321,-0.02288818359375,0.194549560546875,0.1468658447265625,0.24483254849886718
1785504015.331317,-0.0380859375,-0.22265625,0.9531249403953552,0.9795271799715237,-0.08392333984375,0.255584716796875,0.1468658447265625,0.3064902131845569
1785504015.340899,-0.0712890625,-0.2119140475988388,0.9716796278953552,0.9970712077222508,0.1010894775390625,0.2574920654296875,0.2689361572265625,0.38580811667480175
1785504015.350481,-0.0537109300494194,-0.22705078125,0.9555663466453552,0.9836381266066094,0.225067138671875,0.194549560546875,0.1468658447265625,0.3317745089155795
1785504015.360063,-0.0605468712747097,-0.2172851413488388,0.9570311903953552,0.983253505288281,0.1621246337890625,0.2574920654296875,0.2689361572265625,0.4060950840680966
1785504015.369645,-0.0566406212747097,-0.21533203125,0.9667968153953552,0.9921048966310149,0.2841949462890625,0.1354217529296875,0.1468658447265625,0.34738364240424335
1785504015.377661,-0.0654296875,-0.224609375,0.9492186903953552,0.9776229015014488,0.1010894775390625,0.2574920654296875,0.0858306884765625,0.28963451678404595
1785504015.385677,-0.0488281212747097,-0.220703125,0.9609374403953552,0.9871650415029699,0.3452301025390625,0.3795623779296875,0.2079010009765625,0.5536011638768719
1785504015.393693,-0.0610351525247097,-0.220703125,0.9672850966453552,0.9940199280802646,0.1621246337890625,0.1354217529296875,0.1468658447265625,0.2572800505189505
1785504015.401709,-0.0541992112994194,-0.22119140625,0.9702147841453552,0.996584125941483,0.1010894775390625,0.3185272216796875,-0.0362396240234375,0.3361428026441463
1785504015.409725,-0.0576171837747097,-0.22021484375,0.9570311903953552,0.9837291378542755,-0.2040863037109375,0.2574920654296875,0.2079010009765625,0.3888138491986829
1785504015.417741,-0.0776367112994194,-0.21875,0.9663085341453552,0.9937963597254391,-0.02288818359375,0.011444091796875,0.3910064697265625,0.3918429475610168
1785504015.427388,-0.0532226487994194,-0.23681640625,0.9599608778953552,0.9901714738892514,0.3452301025390625,0.0743865966796875,0.0858306884765625,0.36343375813080275
1785504015.437035,-0.05224609375,-0.22216796875,0.9521483778953552,0.9791193973052474,-0.1430511474609375,0.0743865966796875,0.3299713134765625,0.36725749042453204
1785504015.446682,-0.0600585862994194,-0.2421875,0.9545897841453552,0.9866627969773719,-0.1430511474609375,0.0743865966796875,0.6351470947265625,0.6552929333474231
1785504015.456329,-0.0581054612994194,-0.21435546875,0.9658202528953552,0.9910263732710136,-0.1430511474609375,0.0133514404296875,0.4520416259765625,0.47432428081110584
1785504015.465976,-0.0722656175494194,-0.2216796875,0.9658202528953552,0.9935657825392058,-0.0209808349609375,-0.1087188720703125,0.2079010009765625,0.23554790338051348
1785504015.475522,-0.07080078125,-0.21484375,0.9599608778953552,0.9862532507572758,0.225067138671875,0.011444091796875,0.4520416259765625,0.5051017875265685
1785504015.485066,-0.0537109300494194,-0.22314453125,0.9619140028953552,0.9889170313022834,0.28228759765625,-0.110626220703125,0.5130767822265625,0.5959632815514365
1785504015.49461,-0.0693359300494194,-0.21826171875,0.9702147841453552,0.9968763094996993,0.0400543212890625,0.1354217529296875,0.0858306884765625,0.16525830358816312
1785504015.504154,-0.0532226487994194,-0.228515625,0.9648436903953552,0.9929629339054379,0.4673004150390625,0.1354217529296875,0.3910064697265625,0.6241752866224829
1785504015.513698,-0.0551757775247097,-0.2158203125,0.9633788466453552,0.9887980460522708,-0.0209808349609375,0.3185272216796875,0.1468658447265625,0.3513820751459665
1785504015.5233,-0.0493164025247097,-0.19580078125,0.9697265028953552,0.990524883036133,0.09918212890625,0.011444091796875,0.0247955322265625,0.1028731274426407
1785504015.5329,-0.0585937425494194,-0.2333984375,0.9653319716453552,0.9948737974105549,-0.0209808349609375,0.0743865966796875,-0.2803802490234375,0.2908378332399164
1785504015.5425,-0.0590820237994194,-0.21728515625,0.9541015028953552,0.9803128084902275,-0.20599365234375,0.194549560546875,-0.2803802490234375,0.39861761169991566
1785504015.5521,-0.0546874962747097,-0.2211913913488388,0.9599608778953552,0.9866312588526945,0.1010894775390625,0.3185272216796875,-0.6465911865234375,0.7278453379048931
1785504015.5617,-0.0561523400247097,-0.2138671875,0.9672850966453552,0.9922362205501395,0.0400543212890625,0.2574920654296875,-0.7076263427734375,0.7540832536266034
1785504015.571293,-0.0615234337747097,-0.22021484375,0.9667968153953552,0.9934665533221884,-0.08392333984375,0.072479248046875,-0.5245208740234375,0.5361142748092805
1785504015.580886,-0.0576171837747097,-0.2294921875,0.9589843153953552,0.9877435503023859,0.1621246337890625,0.0743865966796875,-0.7686614990234375,0.7890869804576566
1785504015.590479,-0.06640625,-0.2167968600988388,0.9624022841453552,0.9887511441793506,0.0400543212890625,0.1354217529296875,-0.8907318115234375,0.9018572835434115
1785504015.600072,-0.0551757775247097,-0.21923828125,0.9575194716453552,0.9838461917245553,0.2231597900390625,-0.1697540283203125,-0.7686614990234375,0.8182036556397252
1785504015.609665,-0.0546874925494194,-0.22216796875,0.9633788466453552,0.9901758077955544,-0.1430511474609375,-0.0476837158203125,-0.7076263427734375,0.7235139311245041
1785504015.617766,-0.0581054612994194,-0.22216796875,0.9497069716453552,0.9770763444905985,-0.02288818359375,-0.293731689453125,-0.5245208740234375,0.6016014641135101
1785504015.625865,-0.07421875,-0.224609375,0.9589843153953552,0.9877290677932645,-0.3261566162109375,-0.2307891845703125,-0.0972747802734375,0.41122277282519765
1785504015.633964,-0.06689453125,-0.2138671875,0.9692382216453552,0.9948048967001359,-0.20599365234375,-0.110626220703125,-0.4634857177734375,0.5191247981872306
1785504015.642063,-0.052734375,-0.2265625,0.9648436903953552,0.9924892078046081,-0.2040863037109375,-0.2307891845703125,-0.4024505615234375,0.5068346096583707
1785504015.652595,-0.0551757737994194,-0.21240234375,0.9638671278953552,0.9885337434210827,-0.3261566162109375,-0.2307891845703125,-0.7076263427734375,0.8126357283553985
1785504015.663127,-0.05615234375,-0.212890625,0.9580077528953552,0.9829823795618703,-0.2651214599609375,-0.4138946533203125,-0.5855560302734375,0.7645090170616351
1785504015.673659,-0.0537109300494194,-0.2275390625,0.9619140028953552,0.9899178945429353,-0.0209808349609375,-0.4138946533203125,-0.5245208740234375,0.6684842008373202
1785504015.684383,-0.0561523400247097,-0.2294921875,0.9560546278953552,0.9848148053994273,-0.1430511474609375,-0.5359649658203125,-0.7076263427734375,0.8991424338577121
1785504015.695109,-0.0600585900247097,-0.22412109375,0.9565429091453552,0.9842822948401092,-0.1430511474609375,-0.1087188720703125,-1.0738372802734375,1.0887653229411676
1785504015.705835,-0.04248046875,-0.21826171875,0.9653319716453552,0.9906102076889944,-0.1430511474609375,-0.5359649658203125,-0.8296966552734375,0.9980574207672568
1785504015.713929,-0.05224609375,-0.2236328125,0.9687499403953552,0.9955991844888173,-0.1430511474609375,-0.9021759033203125,-0.5245208740234375,1.0533314476498001
1785504015.722023,-0.06591796875,-0.2070312350988388,0.9619140028953552,0.9861468754079394,-0.3261566162109375,-0.4138946533203125,-0.7686614990234375,0.9319481865566714
1785504015.730117,-0.07568359375,-0.224609375,0.9697265028953552,0.9982719409652167,-0.0209808349609375,-0.5970001220703125,-0.4024505615234375,0.7202886891088575
1785504015.738211,-0.0625,-0.22216796875,0.9672850966453552,0.9944371848089326,-0.3871917724609375,-0.7190704345703125,-0.4024505615234375,0.9104648334807395
1785504015.747689,-0.0546874925494194,-0.216796875,0.9658202528953552,0.9913628839904973,-0.4482269287109375,-0.2307891845703125,-0.0362396240234375,0.5054545851860776
1785504015.757167,-0.0488281175494194,-0.2236328125,0.9643554091453552,0.991149421145967,-0.3261566162109375,-0.1697540283203125,0.0858306884765625,0.37757313929026115
1785504015.766645,-0.0483398362994194,-0.22265625,0.9736327528953552,0.9999366394667739,-0.02288818359375,0.011444091796875,0.2689361572265625,0.27015087053175835
1785504015.776123,-0.0654296875,-0.21435546875,0.9570311903953552,0.9829231965819764,-0.57220458984375,-0.1678466796875,0.1468658447265625,0.6141336799652166
1785504015.785601,-0.0546874962747097,-0.21484375,0.9624022841453552,0.9876065591575706,-0.5092620849609375,-0.1697540283203125,0.2689361572265625,0.6004089922490543
1785504015.795214,-0.0541992150247097,-0.2158203125,0.9594725966453552,0.9849383868599462,-0.3871917724609375,0.2574920654296875,0.0858306884765625,0.47284938353036854
1785504015.804829,-0.05224609375,-0.212890625,0.9692382216453552,0.9937176675612018,-0.5092620849609375,0.1354217529296875,-0.0972747802734375,0.5358631403843298
1785504015.814444,-0.0478515625,-0.22314453125,0.9628905653953552,0.9895663165184335,-0.2040863037109375,0.4405975341796875,0.1468658447265625,0.5072937835562946
1785504015.824059,-0.0532226487994194,-0.22216796875,0.9531249403953552,0.9801216295375675,-0.1430511474609375,0.0743865966796875,-0.0972747802734375,0.18830661016736222
1785504015.833674,-0.0590820237994194,-0.23291015625,0.9643554091453552,0.9938406218144537,-0.3261566162109375,0.1354217529296875,-0.2193450927734375,0.41572762620315
1785504015.844319,-0.0590820237994194,-0.22705078125,0.9531249403953552,0.9815752109778038,-0.3261566162109375,0.1964569091796875,-0.3414154052734375,0.5114077965974222
1785504015.854965,-0.0693359375,-0.220703125,0.9624022841453552,0.9898158910332601,-0.2651214599609375,-0.1087188720703125,-0.2803802490234375,0.4009018155590029
1785504015.865611,-0.04736328125,-0.2216796875,0.9604491591453552,0.9868372467453203,-0.2040863037109375,-0.3528594970703125,-0.0362396240234375,0.40923630628827035
1785504015.873625,-0.0581054650247097,-0.2109375,0.9624022841453552,0.9869594877704884,-0.263214111328125,-0.293731689453125,0.3910064697265625,0.5553791796234991
1785504015.88164,-0.0605468712747097,-0.21337890625,0.9511718153953552,0.9766904850852691,-0.38909912109375,-0.415802001953125,0.3910064697265625,0.6907789011197321
1785504015.889655,-0.0620117150247097,-0.224609375,0.9570311903953552,0.9849890981771052,-0.3871917724609375,-0.6580352783203125,0.5741119384765625,0.9552656248797241
1785504015.89767,-0.0585937425494194,-0.22998046875,0.9653319716453552,0.9940774910202556,-0.0820159912109375,-0.3528594970703125,0.4520416259765625,0.5792910141738441
1785504015.908362,-0.0590820237994194,-0.2216796875,0.9702147841453552,0.996970058106336,-0.0209808349609375,-0.2307891845703125,0.8792877197265625,0.9093133328024097
1785504015.919054,-0.0615234337747097,-0.2294921875,0.9667968153953552,0.9955641010430051,-0.1430511474609375,-0.2307891845703125,1.1234283447265625,1.1557761566322369
1785504015.929746,-0.0532226487994194,-0.22509765625,0.9721679091453552,0.999305783414927,0.1621246337890625,-0.6580352783203125,1.0623931884765625,1.2601484481269363
1785504015.940524,-0.0473632775247097,-0.2260742038488388,0.9619140028953552,0.9892579919666732,0.3452301025390625,-0.0476837158203125,0.9403228759765625,1.0028283360268584
1785504015.951301,-0.0600585900247097,-0.22021484375,0.9575194716453552,0.9843501156720577,-0.0209808349609375,-0.2307891845703125,0.7572174072265625,0.7918851210606281
1785504015.962078,-0.0522460900247097,-0.224609375,0.9599608778953552,0.9872709417127508,-0.3871917724609375,0.1354217529296875,0.5130767822265625,0.6568898722677609
1785504015.96997,-0.0590820237994194,-0.19873046875,0.9643554091453552,0.986390308089924,-0.6923675537109375,0.4405975341796875,0.1468658447265625,0.8337077383016999
1785504015.977862,-0.0576171837747097,-0.23046875,0.9584960341453552,0.9874969529396357,-0.87738037109375,0.377655029296875,0.0858306884765625,0.9590550264808535
1785504015.985754,-0.0649413987994194,-0.2236328125,0.9760741591453552,1.003468875579107,-1.1806488037109375,0.2574920654296875,-0.0972747802734375,1.2123102508601336
1785504015.993646,-0.0629882737994194,-0.224609375,0.9682616591453552,0.9959656291986372,-0.6923675537109375,-0.0476837158203125,-0.1583099365234375,0.7118346733534094
1785504016.004316,-0.0600585900247097,-0.21923828125,0.9697265028953552,0.9960130263299098,-0.99945068359375,0.499725341796875,0.0858306884765625,1.12071137821224
1785504016.014986,-0.06494140625,-0.22021484375,0.9785155653953552,1.0050893867584894,-0.57220458984375,0.011444091796875,0.2689361572265625,0.6323572696973601
1785504016.025656,-0.0732421800494194,-0.2216796875,0.9726561903953552,1.0002831426665626,-0.1430511474609375,0.4405975341796875,0.6351470947265625,0.7861308096332981
1785504016.03632,-0.0624999962747097,-0.22021484375,0.9667968153953552,0.9935275080241996,-0.1430511474609375,-0.0476837158203125,0.9403228759765625,0.9523363264252588
1785504016.046982,-0.0581054612994194,-0.22119140625,0.9638671278953552,0.99062693435466,-0.1430511474609375,0.3185272216796875,0.9403228759765625,1.0030604831343448
1785504016.057644,-0.0595703050494194,-0.2138671875,0.9570311903953552,0.9824441432073335,-0.02288818359375,0.011444091796875,0.8182525634765625,0.8186526087549238
1785504016.068311,-0.0551757775247097,-0.22412109375,0.9614257216453552,0.9887436722075366,-0.08392333984375,-0.110626220703125,0.7572174072265625,0.7698438084991681
1785504016.078978,-0.0532226487994194,-0.2138671875,0.9638671278953552,0.9887424662022095,-0.2040863037109375,-0.1697540283203125,0.5741119384765625,0.6325125827955383
1785504016.089645,-0.0444335862994194,-0.2216796875,0.9560546278953552,0.9824238794744617,0.1621246337890625,-0.2307891845703125,0.6351470947265625,0.6949531470073794
1785504016.097636,-0.0546874962747097,-0.2255859375,0.9643554091453552,0.9918977228497179,-0.38909912109375,-0.415802001953125,0.3910064697265625,0.6907789011197321
1785504016.105628,-0.0541992112994194,-0.20703125,0.9624022841453552,0.985909554426895,-0.08392333984375,-0.232696533203125,0.3910064697265625,0.4626844096177348
1785504016.11362,-0.0532226487994194,-0.224609375,0.9721679091453552,0.9991959093466949,-0.08392333984375,-0.293731689453125,-0.0972747802734375,0.3205991503993143
1785504016.121612,-0.0458984337747097,-0.2221679538488388,0.9780272841453552,1.003993343839037,0.1010894775390625,-0.2307891845703125,-0.1583099365234375,0.2975647260442763
1785504016.132296,-0.0449218712747097,-0.2158203125,0.9658202528953552,0.9906589436881228,0.1621246337890625,-0.4138946533203125,-0.3414154052734375,0.5604976894567941
1785504016.14298,-0.0488281175494194,-0.22265625,0.9599608778953552,0.9866533726781171,0.225067138671875,-0.476837158203125,-0.4024505615234375,0.6633214505982052
1785504016.153664,-0.0595703050494194,-0.22412109375,0.9628905653953552,0.9904227010901779,-0.1430511474609375,-0.5970001220703125,-0.4024505615234375,0.7340566946853554
1785504016.161652,-0.0654296875,-0.2255859375,0.9624022841453552,0.9906504003594299,0.0400543212890625,-0.1697540283203125,-0.2803802490234375,0.330202760175238
1785504016.169639,-0.0703125,-0.224609375,0.9580077528953552,0.9864948421566879,-0.0820159912109375,-0.3528594970703125,-0.0362396240234375,0.3640738356932376
1785504016.177626,-0.0693359300494194,-0.21875,0.9580077528953552,0.9851080592013375,-0.2651214599609375,-0.2307891845703125,0.2079010009765625,0.40838200554567217
1785504016.193645,-0.0600585900247097,-0.23046875,0.9658202528953552,0.9947520494400434,-0.0820159912109375,-0.5359649658203125,0.1468658447265625,0.561742506624101
1785504016.201678,-0.0585937425494194,-0.21923828125,0.9687499403953552,0.9949749231249027,0.2231597900390625,-0.3528594970703125,0.9403228759765625,1.0288426641852613
1785504016.209711,-0.0488281175494194,-0.228515625,0.9628905653953552,0.990838945974545,0.225067138671875,0.011444091796875,0.7572174072265625,0.7900407495527798
1785504016.217744,-0.0541992112994194,-0.2216796875,0.9599608778953552,0.9867139025296024,0.225067138671875,0.194549560546875,0.7572174072265625,0.8135618908391943
1785504016.22847,-0.052734375,-0.2314453125,0.9428710341453552,0.972292977458541,0.2841949462890625,0.4405975341796875,0.5130767822265625,0.7335807652068227
1785504016.239196,-0.0581054612994194,-0.22314453125,0.9619140028953552,0.9891654439100498,0.3452301025390625,0.6237030029296875,0.7572174072265625,1.0399843563100164
1785504016.249922,-0.0600585900247097,-0.22509765625,0.9775390028953552,1.0049171564196944,0.5283355712890625,0.3185272216796875,0.9403228759765625,1.1246355756088968
1785504016.260529,-0.0585937425494194,-0.22119140625,0.9692382216453552,0.9958823199369747,0.58746337890625,0.011444091796875,0.0247955322265625,0.5880977871165662
1785504016.271136,-0.0512695275247097,-0.22314453125,0.9648436903953552,0.9916377328314596,0.7724761962890625,-0.0476837158203125,0.0247955322265625,0.7743436117164324
1785504016.281743,-0.0610351525247097,-0.220703125,0.9643554091453552,0.9911692662589905,0.5283355712890625,-0.2307891845703125,0.0247955322265625,0.5770762012268122
1785504016.292385,-0.06494140625,-0.22412109375,0.9633788466453552,0.9912348122786844,0.4673004150390625,0.1354217529296875,0.0858306884765625,0.4940401159284437
1785504016.303028,-0.0566406212747097,-0.22021484375,0.9619140028953552,0.9884236370870475,0.40435791015625,-0.8392333984375,0.0858306884765625,0.9355131873165906
1785504016.313671,-0.0654296800494194,-0.21826171875,0.9580077528953552,0.9847324893140682,0.95367431640625,-0.293731689453125,0.0858306884765625,1.0015687266714532
1785504016.321682,-0.0712890625,-0.224609375,0.9619140028953552,0.9903585465558344,0.5283355712890625,-0.1697540283203125,0.0247955322265625,0.5554905259666559
1785504016.329693,-0.0595703087747097,-0.2211913913488388,0.9707030653953552,0.9973658779316088,0.4062652587890625,0.1354217529296875,0.5741119384765625,0.7162367133614483
1785504016.337704,-0.0605468712747097,-0.21533203125,0.9731444716453552,0.9985208911171187,0.77056884765625,-0.293731689453125,0.5130767822265625,0.971237581041442
1785504016.345715,-0.0566406212747097,-0.2216796725988388,0.9726561903953552,0.9992047347447464,0.89263916015625,-0.232696533203125,0.6351470947265625,1.1199840082558328
1785504016.356434,-0.0610351525247097,-0.2119140475988388,0.9707030653953552,0.9954382424748291,1.5048980712890625,-0.1087188720703125,0.6961822509765625,1.6616882152463424
1785504016.367153,-0.0561523400247097,-0.22021484375,0.9672850966453552,0.9936237320486572,1.2607574462890625,0.0743865966796875,0.4520416259765625,1.3414113223595658
1785504016.377872,-0.0590820237994194,-0.21337890625,0.9609374403953552,0.9861146016170018,1.5048980712890625,-0.0476837158203125,0.5130767822265625,1.590672727553954
1785504016.388463,-0.0610351525247097,-0.21875,0.9570311903953552,0.983608434151144,1.74713134765625,-0.110626220703125,0.5130767822265625,1.8242680425667068
1785504016.399055,-0.0502929650247097,-0.21044921875,0.9672850966453552,0.9911905539277885,1.3828277587890625,-0.0476837158203125,0.5741119384765625,1.4980289934221334
1785504016.409647,-0.05126953125,-0.2177734375,0.9609374403953552,0.9866380284930933,1.44195556640625,0.011444091796875,0.1468658447265625,1.4494607269858233
1785504016.417636,-0.0654296875,-0.2216796725988388,0.9624022841453552,0.9897681939616332,1.3217926025390625,0.2574920654296875,-0.0362396240234375,1.3471270015242047
1785504016.425624,-0.0571289025247097,-0.21923828125,0.9550780653953552,0.9815820120949987,0.9555816650390625,0.2574920654296875,-0.1583099365234375,1.002247733008226
1785504016.433612,-0.0585937425494194,-0.2236328125,0.9467772841453552,0.9745932932594306,0.7724761962890625,0.1354217529296875,0.0858306884765625,0.7889394349911331
1785504016.4416,-0.064453125,-0.21435546875,0.9628905653953552,0.9885649767378393,1.0166168212890625,0.1964569091796875,-0.3414154052734375,1.0902612335813555
1785504016.452281,-0.0444335900247097,-0.21044921875,0.9609374403953552,0.9847151780837676,0.46539306640625,0.194549560546875,-0.2803802490234375,0.5771077211495608
1785504016.462962,-0.0541992112994194,-0.2236328125,0.9604491591453552,0.9876293721002627,0.2231597900390625,0.0743865966796875,-0.0972747802734375,0.2545506639808871
1785504016.473643,-0.0605468712747097,-0.2216796725988388,0.9614257216453552,0.9885075715976973,0.6504058837890625,-0.1087188720703125,-0.0362396240234375,0.6604248005344988
1785504016.48165,-0.0576171875,-0.22265625,0.9589843153953552,0.9861777036283931,0.3452301025390625,-0.1697540283203125,-0.2803802490234375,0.4760392188386897
1785504016.489657,-0.0605468712747097,-0.2260742038488388,0.9614257216453552,0.9895023433566666,0.09918212890625,0.072479248046875,-0.2193450927734375,0.2514012844350727
1785504016.497664,-0.0654296875,-0.2211913913488388,0.9584960341453552,0.985860701664062,0.1010894775390625,-0.2307891845703125,-0.0972747802734375,0.2700835297847611
1785504016.505671,-0.06494140625,-0.22021484375,0.9550780653953552,0.9822861470329809,0.1621246337890625,-0.1697540283203125,-0.0972747802734375,0.25409291585846433
1785504016.516331,-0.0610351525247097,-0.2167968600988388,0.9653319716453552,0.9912577787201162,-0.0820159912109375,0.1354217529296875,-0.0972747802734375,0.18581726738413587
1785504016.526991,-0.0537109337747097,-0.220703125,0.9609374403953552,0.9874186033012006,0.3452301025390625,-0.0476837158203125,-0.2193450927734375,0.41178857460759133
1785504016.537651,-0.0463867150247097,-0.2124023288488388,0.9633788466453552,0.987605831693459,-0.1430511474609375,-0.2307891845703125,-0.4634857177734375,0.5371650482714593
1785504016.548325,-0.0620117150247097,-0.21435546875,0.9550780653953552,0.9807995874706884,-0.4482269287109375,-0.1087188720703125,-0.5245208740234375,0.6984621106775883
1785504016.558999,-0.0722656175494194,-0.22607421875,0.9638671278953552,0.992658910250879,0.0400543212890625,-0.3528594970703125,-1.0128021240234375,1.073257804888009
1785504016.569673,-0.0620117150247097,-0.2158203125,0.9648436903953552,0.9906297022518715,-0.08392333984375,-0.232696533203125,-0.6465911865234375,0.6922939881474267
1785504016.577655,-0.0449218675494194,-0.203125,0.9565429091453552,0.9789035074231713,-0.20599365234375,-0.293731689453125,-0.5245208740234375,0.6354792187642454
1785504016.585639,-0.0629882737994194,-0.2138671875,0.9526366591453552,0.9783778926738964,-0.3871917724609375,-0.3528594970703125,-0.4024505615234375,0.6606010504114314
1785504016.593623,-0.0551757737994194,-0.2333984375,0.9677733778953552,0.9970478963443994,-0.1430511474609375,-0.2918243408203125,-0.5245208740234375,0.6170471813171271
1785504016.601607,-0.0605468712747097,-0.2172851413488388,0.9589843153953552,0.9851546444322532,-0.3261566162109375,-0.0476837158203125,-0.1583099365234375,0.36566912783916544
1785504016.612289,-0.0620117150247097,-0.21044921875,0.9560546278953552,0.9809050810312471,0.1010894775390625,-0.1697540283203125,0.2689361572265625,0.33370970807557343
1785504016.622971,-0.0571289025247097,-0.21435546875,0.9550780653953552,0.9805029778058016,0.041961669921875,0.011444091796875,0.5741119384765625,0.5757571249068516
1785504016.633653,-0.0537109300494194,-0.22900390625,0.9682616591453552,0.9964227484634464,0.0400543212890625,0.1354217529296875,0.6961822509765625,0.7103612647063958
1785504016.641919,-0.0610351525247097,-0.2167968600988388,0.9667968153953552,0.9926843660756578,0.2841949462890625,0.1354217529296875,0.5130767822265625,0.6019581406732165
1785504016.650185,-0.0600585862994194,-0.2119140625,0.9638671278953552,0.9887135297500382,0.28228759765625,0.194549560546875,0.5741119384765625,0.6686855293789715
1785504016.658451,-0.0444335862994194,-0.2041015625,0.9584960341453552,0.9809925784014593,0.5893707275390625,0.4405975341796875,0.5741119384765625,0.9333212520383649
1785504016.666717,-0.0537109300494194,-0.22998046875,0.9580077528953552,0.9866887729273356,0.2841949462890625,0.3185272216796875,0.4520416259765625,0.6217459208251859
1785504016.677092,-0.0551757775247097,-0.2216796725988388,0.9584960341453552,0.9853430322184039,0.5893707275390625,0.3185272216796875,0.5130767822265625,0.8438395759211985
1785504016.687467,-0.0537109300494194,-0.22216796875,0.9628905653953552,0.9896472660865898,0.8335113525390625,0.4405975341796875,0.3299713134765625,0.9988735804165441
1785504016.697842,-0.0595703087747097,-0.2309570163488388,0.9624022841453552,0.991517988549108,0.4673004150390625,0.3795623779296875,-0.0972747802734375,0.6098357643764135
1785504016.705922,-0.06884765625,-0.21044921875,0.9628905653953552,0.9880218187727386,0.5893707275390625,0.4405975341796875,-0.0972747802734375,0.7422576537041503
1785504016.714002,-0.04296875,-0.22705078125,0.9501952528953552,0.9778902747075798,0.4062652587890625,0.6237030029296875,-0.4024505615234375,0.8461816299311773
1785504016.722082,-0.05126953125,-0.212890625,0.9541015028953552,0.9789078919258241,0.1010894775390625,0.8068084716796875,-0.2193450927734375,0.8421824399540884
1785504016.730162,-0.0693359300494194,-0.20849609375,0.9506835341453552,0.9757444718777194,-0.38909912109375,0.560760498046875,-0.5245208740234375,0.860797658856028
1785504016.740647,-0.0615234337747097,-0.21435546875,0.9604491591453552,0.9859999935037947,-0.5702972412109375,0.4405975341796875,-0.4634857177734375,0.8568454592503748
1785504016.751132,-0.07080078125,-0.22412109375,0.9760741591453552,1.0039739934085041,-0.9365081787109375,-0.0476837158203125,-0.2803802490234375,0.9787412270816809
1785504016.761617,-0.0678710862994194,-0.21826171875,0.9624022841453552,0.9891727951957455,-0.6313323974609375,-0.1087188720703125,-0.2193450927734375,0.6771356281807981
1785504016.772306,-0.0639648362994194,-0.216796875,0.9628905653953552,0.9890655318127126,-0.3871917724609375,0.2574920654296875,0.5130767822265625,0.6924358575930715
1785504016.782994,-0.0800781175494194,-0.21826171875,0.9628905653953552,0.9905599041498447,-0.1430511474609375,0.0133514404296875,0.6351470947265625,0.6511940752886434
1785504016.793682,-0.0605468675494194,-0.22802734375,0.9731444716453552,1.0013353860528675,-0.2040863037109375,0.0743865966796875,0.5130767822265625,0.5571645803422387
1785504016.802012,-0.0493163987994194,-0.20703125,0.9604491591453552,0.9837462238657517,-0.02288818359375,-0.293731689453125,1.0013580322265625,1.043800787047922
1785504016.810342,-0.0605468712747097,-0.21142578125,0.9687499403953552,0.9933998347162805,-0.1430511474609375,-0.2307891845703125,0.9403228759765625,0.9787412270816809
1785504016.818672,-0.0532226487994194,-0.2265625,0.9599608778953552,0.9877692563757476,0.09918212890625,0.011444091796875,0.8792877197265625,0.8849378260608873
1785504016.827002,-0.0507812462747097,-0.2124023288488388,0.9628905653953552,0.9873457981887652,0.1621246337890625,-0.5359649658203125,0.6351470947265625,0.8467317600087996
1785504016.837232,-0.0434570237994194,-0.2294921875,0.9604491591453552,0.9884420895247522,-0.2651214599609375,-0.4138946533203125,0.3910064697265625,0.6280797974357955
1785504016.847464,-0.0507812462747097,-0.21875,0.9580077528953552,0.9839761948750695,-0.2651214599609375,-0.4138946533203125,0.1468658447265625,0.5129987806283826
1785504016.857696,-0.0463867150247097,-0.2255859375,0.9575194716453552,0.9848270310610578,-0.4482269287109375,-0.2918243408203125,-0.0362396240234375,0.5360803445997716
1785504016.865745,-0.056640625,-0.2275390625,0.9609374403953552,0.9891324227409323,-0.2651214599609375,-0.1697540283203125,-0.1583099365234375,0.35237459423864154
1785504016.873794,-0.06689453125,-0.224609375,0.9580077528953552,0.9862571187356043,-0.2651214599609375,-0.4138946533203125,-0.5245208740234375,0.7188326090720089
1785504016.881843,-0.0434570237994194,-0.20703125,0.9506835341453552,0.9739351279675503,0.2231597900390625,-0.0476837158203125,-0.4024505615234375,0.4626450941220937
1785504016.889892,-0.0678710862994194,-0.2080078125,0.9633788466453552,0.9879132232034518,0.1010894775390625,0.3185272216796875,-0.1583099365234375,0.36978467980996216
