timestamp,accel_x,accel_y,accel_z,accel_rms,gyro_x,gyro_y,gyro_z,gyro_rms
1779896667.39286,-0.0590820275247097,-0.3037109375,0.9360350966453552,0.9858461957554225,-0.377655029296875,0.1983642578125,0.0514984130859375,0.4296787014515583
1779896667.400807,-0.0454101487994194,-0.31689453125,0.9379882216453552,0.9911135805222117,-0.377655029296875,0.1373291015625,-0.1316070556640625,0.4228510617105633
1779896667.408754,-0.04736328125,-0.3076171875,0.9399413466453552,0.9901319859441269,0.0514984130859375,0.1354217529296875,-0.1316070556640625,0.19573337686118542
1779896667.416701,-0.0541992150247097,-0.29833984375,0.9374999403953552,0.9853173882152714,0.0514984130859375,0.5016326904296875,-0.4978179931640625,0.7085973447424081
1779896667.42474,-0.0522460900247097,-0.30029296875,0.9326171278953552,0.9811626920380432,0.1125335693359375,0.3185272216796875,-0.4978179931640625,0.6016196053124945
1779896667.432779,-0.056640625,-0.3115234375,0.9448241591453552,0.996467613230322,0.2346038818359375,0.3185272216796875,-0.4978179931640625,0.6358626633490646
1779896667.440818,-0.04296875,-0.3056640625,0.9311522841453552,0.980979820816758,0.2346038818359375,-0.0438690185546875,-0.3757476806640625,0.44514019329405013
1779896667.448857,-0.0512695275247097,-0.30810546875,0.9350585341453552,0.9858458330815851,0.2346038818359375,-0.1697540283203125,-0.6198883056640625,0.6841907066034485
1779896667.459499,-0.05126953125,-0.31201171875,0.9370116591453552,0.988924024809922,0.6008148193359375,-0.1697540283203125,-0.4978179931640625,0.7985096314901551
1779896667.470141,-0.0566406212747097,-0.29931640625,0.9389647841453552,0.9871440304706977,0.11444091796875,-0.2288818359375,-0.1316070556640625,0.287756903702091
1779896667.480783,-0.0571289025247097,-0.30810546875,0.9423827528953552,0.9931152724291189,0.293731689453125,-0.2288818359375,-0.4978179931640625,0.6216815539558836
1779896667.491528,-0.0434570237994194,-0.296875,0.9428710341453552,0.9894589761949886,0.1125335693359375,-0.5321502685546875,-0.1316070556640625,0.5596142686269497
1779896667.502273,-0.0644531175494194,-0.30126953125,0.9438475966453552,0.9928574019035398,-0.0095367431640625,-0.1697540283203125,0.0514984130859375,0.17764984140584142
1779896667.513018,-0.0483398362994194,-0.3095703125,0.9501952528953552,1.0005206328605474,-0.06866455078125,-0.2288818359375,0.0514984130859375,0.24444590793564408
1779896667.520963,-0.0415039025247097,-0.31982421875,0.9326171278953552,0.9868053567282709,-0.0095367431640625,-0.1697540283203125,0.1087188720703125,0.20180974393074216
1779896667.528908,-0.0561523400247097,-0.30810546875,0.9438475966453552,0.9944497729182309,-0.1316070556640625,-0.5321502685546875,-0.3757476806640625,0.6645981078424855
1779896667.536853,-0.0522460900247097,-0.3154296875,0.9370116591453552,0.9900587816152883,-0.011444091796875,-0.4730224609375,0.1087188720703125,0.48549048284458163
1779896667.544798,-0.0581054612994194,-0.3056640625,0.9306640028953552,0.9812962091142653,0.171661376953125,-0.0457763671875,0.0514984130859375,0.1849734864262918
1779896667.555435,-0.0517578125,-0.30224609375,0.9472655653953552,0.99566240449547,-0.1316070556640625,0.0133514404296875,-0.3147125244140625,0.3413834370399112
1779896667.566072,-0.0517578087747097,-0.3095703125,0.9433593153953552,0.9942029204813776,-0.0705718994140625,0.4444122314453125,0.1087188720703125,0.46292809116465544
1779896667.576709,-0.0556640550494194,-0.30224609375,0.9384765028953552,0.987516751603928,-0.1926422119140625,0.1354217529296875,0.1087188720703125,0.2593643501368931
1779896667.587433,-0.0590820237994194,-0.32080078125,0.9384765028953552,0.9935501865902603,0.0514984130859375,0.0133514404296875,0.0514984130859375,0.07404346063149136
1779896667.598156,-0.06640625,-0.30712890625,0.9252929091453552,0.9771923673504918,0.0514984130859375,-0.0438690185546875,0.2956390380859375,0.30328042828329654
1779896667.608879,-0.0600585862994194,-0.296875,0.9355468153953552,0.9833563154877665,-0.0095367431640625,0.1354217529296875,0.3566741943359375,0.38163658307598963
1779896667.619798,-0.0551757775247097,-0.30810546875,0.9428710341453552,0.9934682346856617,0.11444091796875,0.0762939453125,0.2956390380859375,0.32606737131650465
1779896667.630719,-0.0585937462747097,-0.298828125,0.9389647841453552,0.9871100958143697,-0.06866455078125,0.0762939453125,0.4138946533203125,0.426432140759206
1779896667.64164,-0.0625,-0.3056640625,0.9492186903953552,0.9991761062494825,-0.1316070556640625,0.0133514404296875,0.1735687255859375,0.21823102566692393
1779896667.649415,-0.0634765625,-0.3232421875,0.9306640028953552,0.9872437753927888,-0.06866455078125,-0.2288818359375,0.2307891845703125,0.3322128279743895
1779896667.657191,-0.0502929650247097,-0.30615234375,0.9477538466453552,0.9972441996550606,0.0514984130859375,-0.3528594970703125,0.4787445068359375,0.5969574641870798
1779896667.664967,-0.0537109337747097,-0.30810546875,0.9555663466453552,1.005445616193019,-0.011444091796875,-0.2899169921875,0.2956390380859375,0.41422852441192487
1779896667.672743,-0.06396484375,-0.30419921875,0.9384765028953552,0.988618638510709,-0.0705718994140625,-0.0438690185546875,0.4138946533203125,0.422153606905119
1779896667.683411,-0.0483398400247097,-0.3037109375,0.9467772841453552,0.9954718978777845,-0.1316070556640625,-0.3528594970703125,0.1735687255859375,0.4146761920761837
1779896667.694079,-0.056640625,-0.3115234375,0.9497069716453552,1.0010985688252674,-0.011444091796875,0.0762939453125,-0.3757476806640625,0.38358578291279816
1779896667.704747,-0.04296875,-0.30712890625,0.9365233778953552,0.9865345994314696,0.4177093505859375,0.0133514404296875,0.0514984130859375,0.4210836604272873
1779896667.712796,-0.0590820237994194,-0.30615234375,0.9458007216453552,0.9958709495636109,0.2346038818359375,0.0133514404296875,0.0514984130859375,0.2405604474646817
1779896667.720848,-0.0493163987994194,-0.310546875,0.9365233778953552,0.9879005547661845,0.2346038818359375,0.0133514404296875,-0.1316070556640625,0.2693281630921684
1779896667.7289,-0.0590820237994194,-0.306640625,0.9340819716453552,0.9849001412272718,0.2346038818359375,-0.1087188720703125,-0.1316070556640625,0.2901365051442082
1779896667.736952,-0.0478515587747097,-0.30419921875,0.9311522841453552,0.9807504843916174,0.3566741943359375,0.1354217529296875,-0.3147125244140625,0.4945700204165345
1779896667.747561,-0.0488281175494194,-0.30517578125,0.9541015028953552,1.00290882953145,0.4787445068359375,0.1354217529296875,-0.0095367431640625,0.4976206421183828
1779896667.75817,-0.0541992150247097,-0.30859375,0.9321288466453552,0.9833777728811839,0.4177093505859375,0.1964569091796875,-0.4978179931640625,0.678895553858807
1779896667.768779,-0.0605468712747097,-0.29833984375,0.9326171278953552,0.9810439812942701,-0.133514404296875,-0.1068115234375,-0.3757476806640625,0.4128209263327276
1779896667.776843,-0.0488281175494194,-0.3154296875,0.9345702528953552,0.9875736075942166,0.0514984130859375,0.0133514404296875,-0.1316070556640625,0.14195338887283035
1779896667.784907,-0.0610351525247097,-0.31396484375,0.9428710341453552,0.9956430083041854,0.171661376953125,0.0762939453125,-0.3757476806640625,0.42008893576623973
1779896667.792971,-0.0478515625,-0.31591796875,0.9477538466453552,1.0001656307051772,0.0514984130859375,0.0133514404296875,-0.3757476806640625,0.3794952793334057
1779896667.801035,-0.0439453050494194,-0.30029296875,0.9497069716453552,0.9970207565082918,0.3566741943359375,-0.1697540283203125,-0.3147125244140625,0.5050513677431588
1779896667.811599,-0.0512695275247097,-0.30419921875,0.9379882216453552,0.9874146206564562,-0.06866455078125,0.0762939453125,-0.3147125244140625,0.3310280345354597
1779896667.822163,-0.0551757775247097,-0.3173828125,0.9370116591453552,0.9908415945398122,0.1735687255859375,0.3185272216796875,-0.3147125244140625,0.4802391763231933
1779896667.832727,-0.0566406212747097,-0.30029296875,0.9374999403953552,0.9860477500102965,-0.316619873046875,-0.4119873046875,-0.1316070556640625,0.5360056905784246
1779896667.840757,-0.06591796875,-0.302734375,0.9487304091453552,0.9980394128729986,-0.1316070556640625,-0.4749298095703125,-0.0743865966796875,0.4984095774407264
1779896667.848787,-0.0532226487994194,-0.2978515625,0.9277343153953552,0.9758274251070248,-0.0095367431640625,-0.3528594970703125,-0.2574920654296875,0.43692440753766276
1779896667.856817,-0.06689453125,-0.31103515625,0.9389647841453552,0.9913993204555633,-0.1316070556640625,-0.3528594970703125,0.1087188720703125,0.39198218699007037
1779896667.864847,-0.0537109337747097,-0.3095703125,0.9345702528953552,0.9859717036432573,0.0514984130859375,-0.5321502685546875,0.1735687255859375,0.5621050590189723
1779896667.872829,-0.0522460900247097,-0.322265625,0.9433593153953552,0.998254268672418,0.2346038818359375,-0.4100799560546875,0.2956390380859375,0.5573212651341086
1779896667.880811,-0.0405273400247097,-0.30517578125,0.9331054091453552,0.9825784586114978,-0.06866455078125,-0.1068115234375,0.1087188720703125,0.1671625413101615
1779896667.888793,-0.0454101525247097,-0.31298828125,0.9433593153953552,0.9949625842690467,0.354766845703125,0.3814697265625,-0.1316070556640625,0.5373072530632516
1779896667.896775,-0.046875,-0.306640625,0.9472655653953552,0.9967636579998153,-0.0095367431640625,0.8068084716796875,-0.4367828369140625,0.9175021013964965
1779896667.907603,-0.0634765550494194,-0.3076171875,0.9458007216453552,0.9965925005493603,0.41961669921875,0.5645751953125,-0.5626678466796875,0.9007876726024523
1779896667.918431,-0.0576171837747097,-0.30908203125,0.9438475966453552,0.9948365331052975,0.293731689453125,0.2593994140625,-0.5626678466796875,0.6856832119077378
1779896667.929259,-0.0527343712747097,-0.298828125,0.9379882216453552,0.9858504278794885,-0.1316070556640625,0.1354217529296875,-0.1926422119140625,0.26976006019842064
1779896667.939792,-0.0605468712747097,-0.30078125,0.9365233778953552,0.985500543539802,-0.499725341796875,-0.2288818359375,-0.0095367431640625,0.5497301715626508
1779896667.950325,-0.06591796875,-0.3095703125,0.9350585341453552,0.9871744624247196,-0.621795654296875,-0.1068115234375,0.1735687255859375,0.6543429068485765
1779896667.960858,-0.0590820237994194,-0.302734375,0.9467772841453552,0.9957539922674327,-0.55694580078125,-0.2288818359375,0.5970001220703125,0.8479296348058348
1779896667.96884,-0.0595703087747097,-0.3037109375,0.9331054091453552,0.9830944307750725,-0.682830810546875,-0.2899169921875,1.0852813720703125,1.3145894548314196
1779896667.976821,-0.0488281212747097,-0.3095703125,0.9331054091453552,0.984329044773589,-0.865936279296875,0.0762939453125,0.7190704345703125,1.1281527803303062
1779896667.984802,-0.0703125,-0.30322265625,0.9306640028953552,0.9813375123803031,-0.804901123046875,-0.1068115234375,0.7190704345703125,1.084590618295354
1779896667.992783,-0.0405273400247097,-0.3095703125,0.9404296278953552,0.9909006654020485,-0.621795654296875,0.0762939453125,0.7190704345703125,0.9536838531017309
1779896668.003467,-0.0551757737994194,-0.3212890625,0.9370116591453552,0.9920997314135434,-0.194549560546875,-0.1678466796875,0.2956390380859375,0.39169437094688864
1779896668.014151,-0.0493164025247097,-0.3193359375,0.9433593153953552,0.9971631493793663,-0.1926422119140625,0.1354217529296875,0.1087188720703125,0.2593643501368931
1779896668.024835,-0.0493163987994194,-0.31201171875,0.9467772841453552,0.9980834862883601,0.11444091796875,-0.1068115234375,-0.1316070556640625,0.20451367275840857
1779896668.035509,-0.0488281175494194,-0.30517578125,0.9599608778953552,1.0084846699948338,0.1125335693359375,0.0133514404296875,-0.0743865966796875,0.13555600670800333
1779896668.046184,-0.0629882737994194,-0.3125,0.9511718153953552,1.0031707706261812,0.3566741943359375,0.0133514404296875,-0.2574920654296875,0.44011010625295127
1779896668.056859,-0.0375976525247097,-0.30419921875,0.9458007216453552,0.9942282198913657,0.41961669921875,-0.1068115234375,-0.2574920654296875,0.5037747905180697
1779896668.06759,-0.0624999962747097,-0.2998046875,0.9482421278953552,0.9964698857952621,0.476837158203125,0.0762939453125,-0.3757476806640625,0.6118666203176972
1779896668.078321,-0.0512695275247097,-0.3046875,0.9487304091453552,0.9977737350451604,1.0280609130859375,-0.1697540283203125,-0.5626678466796875,1.1841962577348493
1779896668.089052,-0.0532226525247097,-0.30859375,0.9345702528953552,0.9856390368069422,0.659942626953125,-0.0457763671875,-0.0095367431640625,0.6615970799004887
1779896668.097281,-0.0498046837747097,-0.29541015625,0.9384765028953552,0.9851323837070041,0.41961669921875,0.0762939453125,-0.3757476806640625,0.5684058935998183
1779896668.105511,-0.0483398362994194,-0.30517578125,0.9472655653953552,0.9963839865326943,0.293731689453125,-0.2288818359375,-0.0743865966796875,0.37973486273542784
1779896668.113741,-0.0644531175494194,-0.30126953125,0.9467772841453552,0.9956428880854262,0.4177093505859375,0.0133514404296875,-0.1926422119140625,0.46018516310243607
1779896668.121971,-0.0625,-0.29638671875,0.9521483778953552,0.9991685896685042,0.4177093505859375,-0.3528594970703125,-0.0743865966796875,0.5518371970112436
1779896668.130131,-0.0493164025247097,-0.294921875,0.9374999403953552,0.984031075806445,0.293731689453125,-0.3509521484375,-0.1926422119140625,0.4965447992810182
1779896668.138291,-0.0512695275247097,-0.29541015625,0.9438475966453552,0.9903252044462312,-0.011444091796875,-0.0457763671875,-0.1316070556640625,0.13981008593983402
1779896668.146451,-0.0556640587747097,-0.30810546875,0.9458007216453552,0.996276303230086,-0.06866455078125,-0.2288818359375,-0.0743865966796875,0.2502700164256558
1779896668.154611,-0.0625,-0.31689453125,0.9467772841453552,1.0003577458638544,-0.06866455078125,-0.4119873046875,-0.1926422119140625,0.45995584741234063
1779896668.164763,-0.0493163987994194,-0.3115234375,0.9399413466453552,0.9914477769584455,0.3566741943359375,-0.3528594970703125,-0.1316070556640625,0.5186971396474707
1779896668.174915,-0.0517578087747097,-0.31298828125,0.9453124403953552,0.997123936597257,0.11444091796875,-0.2288818359375,-0.0095367431640625,0.2560753170413504
1779896668.185067,-0.0532226487994194,-0.31494140625,0.9370116591453552,0.9899553470183821,0.5397796630859375,0.3185272216796875,-0.1316070556640625,0.6404233699145532
1779896668.195748,-0.0415039025247097,-0.31396484375,0.9414061903953552,0.993248263200313,0.476837158203125,0.0152587890625,-0.2574920654296875,0.5421334428405357
1779896668.206428,-0.0375976525247097,-0.31005859375,0.9536132216453552,1.0034580666527275,0.5397796630859375,0.2613067626953125,-0.3147125244140625,0.6772645583038761
1779896668.217108,-0.0419921837747097,-0.30419921875,0.9433593153953552,0.9920823081425616,0.354766845703125,-0.1068115234375,-0.4367828369140625,0.572754278003998
1779896668.227657,-0.06640625,-0.287109375,0.9453124403953552,0.9901803841816779,0.3566741943359375,0.0133514404296875,-0.0743865966796875,0.36459307128951873
1779896668.238207,-0.0556640587747097,-0.31005859375,0.9384765028953552,0.9899358390745319,-0.011444091796875,-0.4119873046875,-0.0095367431640625,0.4122565414046253
1779896668.248757,-0.052734375,-0.30224609375,0.9497069716453552,0.9980365461673064,-0.4367828369140625,-0.2918243408203125,-0.1926422119140625,0.5595102450617405
1779896668.256776,-0.0541992150247097,-0.2998046875,0.9448241591453552,0.9927301230752469,-0.06866455078125,-0.2288818359375,0.2956390380859375,0.3801370229226429
1779896668.264796,-0.0517578087747097,-0.3095703125,0.9443358778953552,0.9951295892650858,-0.133514404296875,-0.1068115234375,0.2307891845703125,0.28722542611756846
1779896668.272816,-0.0483398362994194,-0.3115234375,0.9482421278953552,0.9992730983073558,-0.377655029296875,-0.4119873046875,0.3566741943359375,0.663003273960306
1779896668.280836,-0.0634765550494194,-0.3115234375,0.9409179091453552,0.993178048943504,-0.682830810546875,-0.5340576171875,0.5970001220703125,1.052560972134185
1779896668.291483,-0.0478515625,-0.2978515625,0.9384765028953552,0.985770496517358,-0.377655029296875,0.0762939453125,0.2956390380859375,0.4856403279021921
1779896668.30213,-0.0502929650247097,-0.3037109375,0.9384765028953552,0.9876780155368455,-0.0705718994140625,-0.2918243408203125,0.1087188720703125,0.3193143154109434
1779896668.312777,-0.0444335862994194,-0.3076171875,0.9482421278953552,0.9978806595742545,-0.316619873046875,-0.0457763671875,0.0514984130859375,0.32403040960915064
1779896668.320786,-0.0483398362994194,-0.30126953125,0.9482421278953552,0.9961240903364201,-0.011444091796875,0.4425048828125,-0.1926422119140625,0.4827551764208254
1779896668.328793,-0.0693359300494194,-0.3017578125,0.9243163466453552,0.9747953412262594,0.11444091796875,0.3814697265625,-0.4367828369140625,0.5910965425477426
1779896668.336801,-0.0468749962747097,-0.3037109375,0.9409179091453552,0.98983034434359,0.293731689453125,0.5035400390625,-0.4978179931640625,0.7665856968701841
1779896668.344809,-0.0634765625,-0.29931640625,0.9545897841453552,1.0024276737161177,0.1735687255859375,0.5016326904296875,-0.8029937744140625,0.9625801059428745
1779896668.35454,-0.06201171875,-0.31689453125,0.9501952528953552,1.003562960567674,0.1735687255859375,0.5016326904296875,-0.4367828369140625,0.687415962305175
1779896668.364271,-0.0546874925494194,-0.31103515625,0.9389647841453552,0.9906505216926593,0.3566741943359375,0.1354217529296875,-0.3757476806640625,0.5354828210093782
1779896668.374002,-0.0576171875,-0.31103515625,0.9291991591453552,0.9815669544535958,0.293731689453125,0.0762939453125,-0.3147125244140625,0.43719909023625114
1779896668.383733,-0.0629882737994194,-0.302734375,0.9477538466453552,0.9969217513295308,0.2346038818359375,-0.2269744873046875,-0.3147125244140625,0.4534317724672458
1779896668.393464,-0.0600585862994194,-0.302734375,0.9477538466453552,0.9967409339572609,0.293731689453125,-0.1068115234375,-0.0095367431640625,0.31269466960311937
1779896668.402934,-0.0683593675494194,-0.3046875,0.9374999403953552,0.9881364349265243,-0.1316070556640625,-0.3528594970703125,-0.0743865966796875,0.3838796784656151
1779896668.412405,-0.0644531175494194,-0.29638671875,0.9291991591453552,0.9774509546620055,-0.0705718994140625,-0.7801055908203125,0.1087188720703125,0.7908001763784948
1779896668.421876,-0.0605468712747097,-0.3134765625,0.9443358778953552,0.9968468935289732,0.0514984130859375,-0.6580352783203125,0.1735687255859375,0.6824870816110642
1779896668.431347,-0.0576171837747097,-0.3134765625,0.9331054091453552,0.9860390457173924,0.0514984130859375,-0.4749298095703125,0.3566741943359375,0.5961768961256829
1779896668.440818,-0.0532226487994194,-0.3056640625,0.9370116591453552,0.9870430683731899,-0.011444091796875,-0.2288818359375,-0.0095367431640625,0.2293661080660202
1779896668.450406,-0.0595703087747097,-0.31005859375,0.9448241591453552,0.9961815321267853,-0.0705718994140625,-0.1697540283203125,-0.1316070556640625,0.2260912210114441
1779896668.459994,-0.0522460900247097,-0.32373046875,0.9399413466453552,0.9955002789821049,0.0514984130859375,-0.0438690185546875,-0.3147125244140625,0.3219014606403538
1779896668.469582,-0.0590820275247097,-0.30810546875,0.9438475966453552,0.9946195008862941,-0.06866455078125,-0.2288818359375,-0.1316070556640625,0.2728042016844227
1779896668.47917,-0.0458984337747097,-0.31103515625,0.9482421278953552,0.9990058397036248,-0.194549560546875,0.0152587890625,-0.4367828369140625,0.4783948251970673
1779896668.488758,-0.0390624925494194,-0.30712890625,0.9335936903953552,0.9835909831451858,-0.0705718994140625,-0.0438690185546875,-0.6198883056640625,0.6254329662521174
1779896668.498388,-0.0634765550494194,-0.3115234375,0.9443358778953552,0.996416767940579,0.0514984130859375,0.1964569091796875,-0.3147125244140625,0.3745549048375655
1779896668.508022,-0.05224609375,-0.302734375,0.9477538466453552,0.996300712611329,0.1735687255859375,0.1354217529296875,-0.4978179931640625,0.5443233487422439
1779896668.517656,-0.0634765625,-0.314453125,0.9472655653953552,1.0001110404314433,0.1735687255859375,0.0133514404296875,-0.2574920654296875,0.3108159056778151
1779896668.52729,-0.07421875,-0.3095703125,0.9340819716453552,0.9868390603263454,0.171661376953125,0.1983642578125,-0.0743865966796875,0.27267081413406413
1779896668.536924,-0.0463867150247097,-0.30419921875,0.9365233778953552,0.9857813801058631,-0.06866455078125,0.0762939453125,0.1735687255859375,0.2016474376898057
1779896668.546509,-0.052734375,-0.3125,0.9399413466453552,0.9919308944881818,-0.1316070556640625,0.1964569091796875,0.1735687255859375,0.2933288883941132
1779896668.556098,-0.0444335862994194,-0.302734375,0.9487304091453552,0.9968509590882589,-0.06866455078125,-0.2288818359375,0.4138946533203125,0.4779231103464795
1779896668.565687,-0.0561523400247097,-0.3115234375,0.9487304091453552,1.0001446528573654,-0.1316070556640625,-0.1697540283203125,0.4787445068359375,0.5247219740559015
1779896668.575276,-0.0522460900247097,-0.31494140625,0.9409179091453552,0.9936016581327068,-0.194549560546875,-0.0457763671875,0.1735687255859375,0.2647094818917401
1779896668.584865,-0.0493163987994194,-0.30078125,0.9467772841453552,0.9946299278202725,-0.4367828369140625,-0.3528594970703125,0.2956390380859375,0.6345797917801896
1779896668.594476,-0.0561523400247097,-0.30224609375,0.9409179091453552,0.9898647878512759,0.0514984130859375,-0.3528594970703125,0.4138946533203125,0.5463247159613277
1779896668.604088,-0.0561523400247097,-0.30419921875,0.9399413466453552,0.9895352369227913,-0.194549560546875,-0.1068115234375,0.2307891845703125,0.32019038205831785
1779896668.6137,-0.04248046875,-0.306640625,0.9394530653953552,0.9891436322427294,-0.011444091796875,-0.1068115234375,0.3566741943359375,0.3724998653439824
1779896668.623312,-0.06591796875,-0.30419921875,0.9248046278953552,0.9757796590772442,-0.06866455078125,-0.1068115234375,-0.0743865966796875,0.14716279366272225
1779896668.632924,-0.0566406212747097,-0.3095703125,0.9414061903953552,0.9926165189409395,-0.377655029296875,-0.1068115234375,-0.1316070556640625,0.4139473877110795
1779896668.642516,-0.0493164025247097,-0.298828125,0.9414061903953552,0.9889266763333319,0.0514984130859375,-0.0438690185546875,0.1735687255859375,0.18628655303281513
1779896668.652107,-0.06396484375,-0.31396484375,0.9472655653953552,0.9999887378019343,0.049591064453125,0.0762939453125,-0.2574920654296875,0.2730974249680637
1779896668.661698,-0.0439453087747097,-0.30810546875,0.9482421278953552,0.9980096708712161,0.2346038818359375,0.4444122314453125,-0.2574920654296875,0.5646621791743618
1779896668.671289,-0.0600585900247097,-0.3056640625,0.9360350966453552,0.9865086190660676,0.1735687255859375,0.0133514404296875,-0.0743865966796875,0.18930855561400406
1779896668.68088,-0.0498046837747097,-0.294921875,0.9409179091453552,0.9873124787167846,0.2346038818359375,0.1964569091796875,-0.4978179931640625,0.5843432662868813
1779896668.69151,-0.0532226487994194,-0.30712890625,0.9404296278953552,0.9907414902097034,0.1125335693359375,0.1354217529296875,-0.0095367431640625,0.17633435531459227
1779896668.702138,-0.0502929650247097,-0.31396484375,0.9370116591453552,0.9894918669783345,0.2346038818359375,-0.1087188720703125,-0.0743865966796875,0.26905787533970826
1779896668.712766,-0.0527343712747097,-0.28857421875,0.9301757216453552,0.9753373092317186,0.171661376953125,-0.1068115234375,-0.1926422119140625,0.27926215584576625
1779896668.720763,-0.0434570237994194,-0.31201171875,0.9350585341453552,0.9866986813779032,0.171661376953125,-0.0457763671875,-0.5626678466796875,0.590049328291698
1779896668.728762,-0.05615234375,-0.30712890625,0.9487304091453552,0.9987845813788139,0.274658203125,0.217437744140625,-0.4367828369140625,0.559906731289698
1779896668.736761,-0.0483398362994194,-0.3017578125,0.9335936903953552,0.9823399085470661,0.1544952392578125,0.1544952392578125,-0.1926422119140625,0.29128779534645804
1779896668.74476,-0.0541992112994194,-0.30029296875,0.9335936903953552,0.9821968236215112,-0.396728515625,0.217437744140625,-0.3147125244140625,0.5511049452781672
1779896668.755431,-0.0624999962747097,-0.30322265625,0.9287108778953552,0.9789556289836663,-0.5168914794921875,0.0324249267578125,-0.0095367431640625,0.5179952962306215
1779896668.766102,-0.0590820237994194,-0.3115234375,0.9389647841453552,0.9910562060313154,-0.4558563232421875,-0.5779266357421875,-0.2536773681640625,0.7785604606315518
1779896668.776773,-0.0605468712747097,-0.30322265625,0.9345702528953552,0.9843939559349957,-0.4558563232421875,-0.6389617919921875,0.1125335693359375,0.7929318780912011
1779896668.787437,-0.0429687462747097,-0.31982421875,0.9433593153953552,0.9970258983590454,-0.1506805419921875,-0.5779266357421875,-0.0095367431640625,0.5973230043330993
1779896668.7981,-0.0512695275247097,-0.302734375,0.9433593153953552,0.9920702919664719,0.2155303955078125,-0.5130767822265625,-0.1926422119140625,0.588907596876505
1779896668.808764,-0.0356445275247097,-0.30810546875,0.9487304091453552,0.9981427259932469,0.2155303955078125,-0.5779266357421875,-0.1316070556640625,0.6306924486535421
1779896668.819445,-0.0468749962747097,-0.30810546875,0.9467772841453552,0.996751458952063,0.274658203125,0.522613525390625,-0.3757476806640625,0.6998202233356031
1779896668.830129,-0.0537109300494194,-0.29150390625,0.9433593153953552,0.9888307182268236,0.274658203125,0.644683837890625,-0.2536773681640625,0.7452560543195101
1779896668.840813,-0.0473632775247097,-0.30517578125,0.9409179091453552,0.9903040186073656,0.457763671875,0.278472900390625,-0.6198883056640625,0.8193633180949168
1779896668.848804,-0.0673828050494194,-0.29736328125,0.9326171278953552,0.981193187244936,-0.1506805419921875,0.0324249267578125,-0.2536773681640625,0.296830269226294
1779896668.856797,-0.0493164025247097,-0.298828125,0.9374999403953552,0.9852088581058787,-0.4558563232421875,0.0324249267578125,-0.0705718994140625,0.4624248655749859
1779896668.86479,-0.0712890625,-0.30810546875,0.9360350966453552,0.9880145810956767,-0.823974609375,-0.087738037109375,-0.1926422119140625,0.8507309456353592
1779896668.872783,-0.0507812462747097,-0.31494140625,0.9448241591453552,0.9972259102373282,-1.312255859375,-0.087738037109375,0.4177093505859375,1.379925543348898
1779896668.883435,-0.0624999962747097,-0.29345703125,0.9355468153953552,0.9824821232576159,-1.3103485107421875,0.1544952392578125,0.5397796630859375,1.4255679861861257
1779896668.894087,-0.0473632775247097,-0.30859375,0.9370116591453552,0.9876559279279786,-0.9441375732421875,0.2155303955078125,0.6618499755859375,1.1729852935047853
1779896668.904739,-0.0551757775247097,-0.310546875,0.9365233778953552,0.9882103851621112,-0.885009765625,0.278472900390625,0.6618499755859375,1.1396643504500308
1779896668.912748,-0.0493164025247097,-0.3232421875,0.9340819716453552,0.9896599158754681,-0.759124755859375,0.095367431640625,0.4787445068359375,0.9025306891191401
1779896668.920755,-0.0463867150247097,-0.3115234375,0.9365233778953552,0.9880660994018196,-0.4558563232421875,-0.1506805419921875,0.5397796630859375,0.7224068783283513
1779896668.928762,-0.0473632775247097,-0.32763671875,0.9448241591453552,1.001140245537995,-0.1506805419921875,-0.0247955322265625,0.2956390380859375,0.33274898195762564
1779896668.936769,-0.0458984337747097,-0.318359375,0.9404296278953552,0.9939151084960719,0.274658203125,0.278472900390625,0.2956390380859375,0.4902924898835379
1779896668.947676,-0.0527343712747097,-0.3173828125,0.9545897841453552,1.007350197090776,0.2155303955078125,0.1544952392578125,0.4177093505859375,0.49477594111679324
1779896668.958583,-0.0683593675494194,-0.3056640625,0.9399413466453552,0.9907538833480515,0.3986358642578125,-0.1506805419921875,-0.0705718994140625,0.4319670948053116
1779896668.96949,-0.0556640587747097,-0.3134765625,0.9384765028953552,0.9910116998112517,0.3376007080078125,0.1544952392578125,0.0514984130859375,0.3748267647208172
1779896668.980024,-0.0483398400247097,-0.2939453125,0.9418944716453552,0.9878794372748225,0.1544952392578125,-0.1506805419921875,0.1735687255859375,0.27694675876405306
1779896668.990561,-0.0517578087747097,-0.294921875,0.9360350966453552,0.9827611537268628,0.2765655517578125,0.3376007080078125,0.1735687255859375,0.4696688673608312
1779896669.001098,-0.0405273400247097,-0.29931640625,0.9394530653953552,0.9868155037394898,0.0324249267578125,0.1544952392578125,0.0514984130859375,0.16604891260995386
1779896669.009073,-0.0639648362994194,-0.3056640625,0.9418944716453552,0.9923140707975969,-0.1506805419921875,-0.0247955322265625,-0.1316070556640625,0.20159330657048494
1779896669.017048,-0.0600585862994194,-0.30126953125,0.9335936903953552,0.9828364782576489,-0.1506805419921875,-0.1506805419921875,0.3566741943359375,0.41548252956689874
1779896669.025023,-0.0488281175494194,-0.294921875,0.9399413466453552,0.9863330231470603,-0.030517578125,-0.026702880859375,0.1735687255859375,0.17824272473885697
1779896669.032998,-0.0610351525247097,-0.31396484375,0.9423827528953552,0.9951806197416149,-0.335693359375,0.095367431640625,0.2956390380859375,0.4573701120390144
1779896669.043633,-0.0517578125,-0.29248046875,0.9374999403953552,0.983427594689258,-0.2727508544921875,0.0324249267578125,-0.1316070556640625,0.3045731793872067
1779896669.054268,-0.0595703087747097,-0.30419921875,0.9394530653953552,0.9892713725042053,-0.518798828125,0.400543212890625,0.1125335693359375,0.6650194686504329
1779896669.064903,-0.0605468712747097,-0.3056640625,0.9404296278953552,0.9907090025575404,-0.4558563232421875,-0.0247955322265625,0.0514984130859375,0.4594256113982481
1779896669.07552,-0.0527343712747097,-0.31396484375,0.9462890028953552,0.9984075891264982,-0.640869140625,-0.392913818359375,0.6008148193359375,0.9623268525801643
1779896669.086138,-0.0449218712747097,-0.3203125,0.9482421278953552,1.0018888188270108,-0.5168914794921875,-0.4558563232421875,0.2346038818359375,0.7280252539465913
1779896669.096756,-0.0507812462747097,-0.31005859375,0.9511718153953552,1.0017199653266056,-0.087738037109375,0.278472900390625,0.2956390380859375,0.4155087968360615
1779896669.107412,-0.04248046875,-0.29638671875,0.9379882216453552,0.9846174796447742,0.1544952392578125,0.2155303955078125,0.2956390380859375,0.3971455289707555
1779896669.118069,-0.052734375,-0.31103515625,0.9423827528953552,0.9937852060101975,-0.030517578125,-0.026702880859375,0.2346038818359375,0.2380826490807257
1779896669.128726,-0.0498046837747097,-0.3056640625,0.9414061903953552,0.9910381632130009,0.2155303955078125,0.3376007080078125,-0.1316070556640625,0.42160171552745607
1779896669.136747,-0.0644531175494194,-0.302734375,0.9389647841453552,0.9886643373934418,0.400543212890625,0.278472900390625,0.0514984130859375,0.4905447056029464
1779896669.14477,-0.0537109337747097,-0.3037109375,0.9384765028953552,0.9878579576289174,0.4596710205078125,0.1544952392578125,-0.3147125244140625,0.5781091584390394
1779896669.152793,-0.0644531175494194,-0.30712890625,0.9423827528953552,0.9932611048313473,-0.087738037109375,0.278472900390625,-0.1926422119140625,0.34979442708384534
1779896669.160816,-0.0483398400247097,-0.30859375,0.9399413466453552,0.9904830022802819,0.091552734375,0.217437744140625,-0.2536773681640625,0.34642933315056984
1779896669.168809,-0.0532226487994194,-0.30517578125,0.9326171278953552,0.9827205172634565,-0.030517578125,-0.209808349609375,-0.2536773681640625,0.3306101529884866
1779896669.176802,-0.0634765550494194,-0.3017578125,0.9321288466453552,0.981810183892043,-0.396728515625,-0.453948974609375,-0.2536773681640625,0.6540759847124523
1779896669.184795,-0.06201171875,-0.306640625,0.9448241591453552,0.9952721325684987,0.091552734375,-0.087738037109375,-0.0705718994140625,0.14512153291036423
1779896669.192788,-0.0571289025247097,-0.30322265625,0.9418944716453552,0.9911472577185826,0.152587890625,-0.209808349609375,0.1125335693359375,0.28278333076523965
1779896669.203504,-0.0502929650247097,-0.3095703125,0.9541015028953552,1.0043270575562027,-0.335693359375,-0.209808349609375,-0.0095367431640625,0.3959804598265676
1779896669.21422,-0.0595703087747097,-0.314453125,0.9521483778953552,1.0044978462090082,-0.030517578125,-0.087738037109375,-0.0705718994140625,0.11666052767465994
1779896669.224936,-0.0556640587747097,-0.31103515625,0.9404296278953552,0.9920933629886517,-0.2117156982421875,0.1544952392578125,-0.2536773681640625,0.36475268738441263
1779896669.235551,-0.0590820275247097,-0.322265625,0.9404296278953552,0.995868316624476,-0.0286102294921875,0.1544952392578125,-0.4978179931640625,0.5220249788111858
1779896669.246164,-0.0546874925494194,-0.31689453125,0.9477538466453552,1.0008247696817698,0.5207061767578125,0.3986358642578125,-0.1316070556640625,0.668854163392047
1779896669.256777,-0.0454101525247097,-0.31103515625,0.9374999403953552,0.988792743003848,0.2155303955078125,0.3986358642578125,-0.4367828369140625,0.6293990389911822
1779896669.267443,-0.07177734375,-0.29736328125,0.9355468153953552,0.9842889575261744,0.3376007080078125,0.3986358642578125,-0.4978179931640625,0.7216006822598243
1779896669.27811,-0.0473632775247097,-0.30419921875,0.9428710341453552,0.9918599859739905,0.2155303955078125,0.4634857177734375,-0.4978179931640625,0.713509016260907
1779896669.288777,-0.0590820237994194,-0.302734375,0.9423827528953552,0.9915765428334334,0.3376007080078125,0.0324249267578125,-0.1316070556640625,0.3637939403332461
1779896669.299711,-0.0590820275247097,-0.3046875,0.9399413466453552,0.989855996479369,0.152587890625,-0.026702880859375,0.0514984130859375,0.16324274796127022
1779896669.310645,-0.0478515587747097,-0.32421875,0.9418944716453552,0.9972826907375937,-0.270843505859375,-0.209808349609375,0.2346038818359375,0.41522852696376433
1779896669.321579,-0.0590820237994194,-0.2978515625,0.9306640028953552,0.978949296493507,-0.1506805419921875,-0.2727508544921875,-0.0095367431640625,0.31175086821283293
1779896669.329394,-0.0502929612994194,-0.30712890625,0.9345702528953552,0.9850274638848778,-0.213623046875,-0.270843505859375,-0.1316070556640625,0.3692037756076167
1779896669.337211,-0.0493163987994194,-0.2958984375,0.9384765028953552,0.9852543524350351,0.0324249267578125,-0.1506805419921875,0.1735687255859375,0.23212519060161343
1779896669.345028,-0.0576171875,-0.30712890625,0.9443358778953552,0.9946950063361747,-0.1506805419921875,-0.0896453857421875,0.1735687255859375,0.24671243061802023
1779896669.352845,-0.0615234337747097,-0.314453125,0.9414061903953552,0.9944403029042983,0.152587890625,-0.026702880859375,-0.1316070556640625,0.2032646681352679
1779896669.363509,-0.0395507775247097,-0.3193359375,0.9453124403953552,0.9985766445035829,-0.2727508544921875,0.2155303955078125,-0.0095367431640625,0.3477604484183758
1779896669.374173,-0.0502929650247097,-0.3056640625,0.9453124403953552,0.9947741006887959,0.2155303955078125,0.1544952392578125,-0.0705718994140625,0.2744130524009224
1779896669.384837,-0.0546874962747097,-0.30908203125,0.9560546278953552,1.0062618326313229,-0.030517578125,-0.026702880859375,-0.1316070556640625,0.13771268467853315
1779896669.392985,-0.0532226525247097,-0.30859375,0.9428710341453552,0.9935132310700044,-0.0286102294921875,0.1544952392578125,0.0514984130859375,0.16534633571777219
1779896669.401135,-0.0449218712747097,-0.29443359375,0.9394530653953552,0.985535984999072,0.3986358642578125,0.0324249267578125,-0.1926422119140625,0.44392899202346
1779896669.409285,-0.06494140625,-0.30322265625,0.9296874403953552,0.9800408676876187,0.3376007080078125,-0.0247955322265625,-0.0705718994140625,0.3457881569005557
1779896669.417435,-0.0693359375,-0.30810546875,0.9340819716453552,0.9860251426082072,0.400543212890625,0.095367431640625,0.2346038818359375,0.4738868997798571
1779896669.427911,-0.0590820237994194,-0.3017578125,0.9365233778953552,0.9857101502396871,0.400543212890625,0.095367431640625,0.4177093505859375,0.5865244359593208
1779896669.438387,-0.0537109300494194,-0.3056640625,0.9384765028953552,0.9884601810884812,0.457763671875,0.095367431640625,0.2956390380859375,0.5532133107098838
1779896669.448863,-0.0683593675494194,-0.29736328125,0.9370116591453552,0.9854383661811907,0.2155303955078125,0.1544952392578125,0.4787445068359375,0.5472827725834861
1779896669.459569,-0.0502929650247097,-0.31884765625,0.9335936903953552,0.9878210308416769,0.0324249267578125,-0.2727508544921875,0.4787445068359375,0.5519426667028496
1779896669.470271,-0.06591796875,-0.3134765625,0.9487304091453552,1.0013501500864,-0.0896453857421875,0.1544952392578125,0.4177093505859375,0.4542974528930577
1779896669.480974,-0.0639648362994194,-0.2958984375,0.9414061903953552,0.9888847257959082,0.152587890625,-0.026702880859375,0.2956390380859375,0.3337642117602715
1779896669.491611,-0.0512695275247097,-0.3076171875,0.9291991591453552,0.980136712838802,-0.213623046875,-0.087738037109375,0.4177093505859375,0.47729851338432866
1779896669.502251,-0.0639648362994194,-0.30615234375,0.9414061903953552,0.9920011961591203,0.2765655517578125,-0.3337860107421875,0.2956390380859375,0.5246942407027786
1779896669.512891,-0.0439453050494194,-0.29736328125,0.9472655653953552,0.9938149537290305,-0.087738037109375,-0.087738037109375,0.1125335693359375,0.16751038934674584
1779896669.520851,-0.0610351525247097,-0.29345703125,0.9399413466453552,0.9865759241777907,0.091552734375,-0.087738037109375,0.2346038818359375,0.26668117237599637
1779896669.528812,-0.06982421875,-0.3056640625,0.9458007216453552,0.996416050499452,0.091552734375,-0.209808349609375,0.2346038818359375,0.3277810673450185
1779896669.536773,-0.0620117150247097,-0.31787109375,0.9306640028953552,0.985404978334965,0.2155303955078125,-0.1506805419921875,0.0514984130859375,0.26797399812889183
1779896669.544734,-0.0454101525247097,-0.3154296875,0.9462890028953552,0.9985093122797356,0.2765655517578125,0.3376007080078125,-0.0095367431640625,0.43652456051940175
1779896669.555402,-0.0595703050494194,-0.3056640625,0.9443358778953552,0.9943587836531017,0.2155303955078125,0.2155303955078125,0.0514984130859375,0.30912584706859764
1779896669.56607,-0.0551757775247097,-0.30908203125,0.9355468153953552,0.986825168033058,-0.0286102294921875,0.1544952392578125,0.0514984130859375,0.16534633571777219
1779896669.576738,-0.0458984337747097,-0.3076171875,0.9477538466453552,0.9974830094289572,0.2765655517578125,-0.1506805419921875,0.1125335693359375,0.3344501971619226
1779896669.587399,-0.0654296875,-0.30322265625,0.9311522841453552,0.9814629893881713,0.5207061767578125,-0.2727508544921875,0.0514984130859375,0.5900678246526636
1779896669.598059,-0.0537109300494194,-0.2958984375,0.9409179091453552,0.9878093242484512,0.274658203125,-0.026702880859375,-0.0705718994140625,0.28483427704009273
1779896669.608719,-0.06689453125,-0.30517578125,0.9560546278953552,1.0058069334086095,0.2765655517578125,0.1544952392578125,-0.0095367431640625,0.3169356919670129
1779896669.616793,-0.0463867150247097,-0.2841796875,0.9365233778953552,0.9797886810240806,0.335693359375,0.583648681640625,0.1735687255859375,0.6953142581673692
1779896669.624868,-0.0541992150247097,-0.28955078125,0.9423827528953552,0.9873512357749942,-0.087738037109375,0.461578369140625,0.1735687255859375,0.5008778858323171
1779896669.632943,-0.0532226487994194,-0.30078125,0.9345702528953552,0.983221017011779,-0.030517578125,0.095367431640625,0.2346038818359375,0.2550789112506859
1779896669.641018,-0.0571289025247097,-0.30078125,0.9296874403953552,0.978801209993177,-0.087738037109375,-0.209808349609375,-0.0705718994140625,0.2381132077574118
1779896669.65161,-0.0473632775247097,-0.31298828125,0.9462890028953552,0.9978315595622326,-0.0286102294921875,-0.3337860107421875,-0.1316070556640625,0.35993341509137905
1779896669.662202,-0.0483398362994194,-0.3056640625,0.9311522841453552,0.9812297565537701,0.152587890625,-0.087738037109375,0.1735687255859375,0.24719856395764014
1779896669.672794,-0.0371093712747097,-0.3154296875,0.9355468153953552,0.9879882777589736,-0.1506805419921875,-0.1506805419921875,0.2346038818359375,0.3169356919670129
1779896669.683449,-0.0419921837747097,-0.30126953125,0.9541015028953552,1.0014171717046494,0.274658203125,0.522613525390625,-0.2536773681640625,0.6425840276444136
1779896669.694103,-0.0551757775247097,-0.30419921875,0.9340819716453552,0.9839159826257732,0.0324249267578125,0.9517669677734375,-0.0095367431640625,0.9523668863888908
1779896669.704757,-0.0556640587747097,-0.31103515625,0.9506835341453552,1.0018186152981183,0.2155303955078125,1.0700225830078125,-0.3147125244140625,1.1359778398179856
1779896669.712777,-0.0351562462747097,-0.30029296875,0.9282225966453552,0.976221807611294,-0.3337860107421875,0.7038116455078125,-0.4367828369140625,0.8930527307736621
1779896669.7208,-0.0678710862994194,-0.306640625,0.9321288466453552,0.9836153435181122,-0.4558563232421875,-0.0896453857421875,-0.6809234619140625,0.824316713169024
1779896669.728823,-0.064453125,-0.30859375,0.9472655653953552,0.998346813109107,-0.6389617919921875,0.0324249267578125,-0.4367828369140625,0.7746630197213583
1779896669.736846,-0.0517578087747097,-0.3046875,0.9370116591453552,0.9866631607594056,-0.7610321044921875,-0.7610321044921875,-0.1316070556640625,1.084278628967748
1779896669.7475,-0.0561523400247097,-0.298828125,0.9370116591453552,0.9851102389862759,-0.7610321044921875,-0.2727508544921875,0.1735687255859375,0.8268548815817397
1779896669.758154,-0.0654296875,-0.30859375,0.9501952528953552,1.0011903740899022,-1.4324188232421875,0.0324249267578125,0.2956390380859375,1.4629687289529332
1779896669.768808,-0.0649413987994194,-0.3076171875,0.9409179091453552,0.9920545504526967,-0.8220672607421875,0.0324249267578125,0.4787445068359375,0.9518625215255605
1779896669.779472,-0.0532226487994194,-0.31689453125,0.9433593153953552,0.9965849648798525,-0.518798828125,0.095367431640625,0.4787445068359375,0.7123506677944421
1779896669.790135,-0.0473632775247097,-0.30419921875,0.9345702528953552,0.9839725617835495,-0.6999969482421875,-0.1506805419921875,0.2346038818359375,0.7534847939115464
1779896669.800798,-0.0639648362994194,-0.3017578125,0.9399413466453552,0.9892618525047251,-0.213623046875,-0.087738037109375,-0.0095367431640625,0.23113571507264255
1779896669.808783,-0.0541992112994194,-0.31103515625,0.9355468153953552,0.9873845586828527,-0.087738037109375,-0.209808349609375,0.1735687255859375,0.2860832207997216
1779896669.81677,-0.0483398362994194,-0.31201171875,0.9296874403953552,0.9818384741084711,-0.087738037109375,-0.209808349609375,0.1735687255859375,0.2860832207997216
1779896669.824757,-0.056640625,-0.29736328125,0.9545897841453552,1.0014363371831647,0.2765655517578125,-0.1506805419921875,0.3566741943359375,0.47582518960155185
1779896669.832744,-0.0532226487994194,-0.310546875,0.9389647841453552,0.990417526996885,-0.030517578125,0.095367431640625,0.2956390380859375,0.3121357243775905
1779896669.843547,-0.0493163987994194,-0.302734375,0.9360350966453552,0.9850085843022199,0.7038116455078125,0.3376007080078125,0.3566741943359375,0.8582199900404215
1779896669.85435,-0.0449218675494194,-0.30126953125,0.9453124403953552,0.9931751681400136,0.3986358642578125,0.1544952392578125,0.2346038818359375,0.48766618972242926
1779896669.865153,-0.0551757775247097,-0.3095703125,0.9311522841453552,0.9828136756658997,0.274658203125,0.522613525390625,0.1735687255859375,0.6153764116104855
1779896669.875916,-0.04736328125,-0.30712890625,0.9409179091453552,0.9909076431310614,-0.1506805419921875,0.3986358642578125,0.2346038818359375,0.48647112903041123
1779896669.886678,-0.0468749962747097,-0.3134765625,0.9462890028953552,0.9979617715690596,-0.0896453857421875,0.0324249267578125,0.1125335693359375,0.14748381364611288
1779896669.89744,-0.06298828125,-0.298828125,0.9399413466453552,0.9883094186535554,-0.087738037109375,-0.026702880859375,-0.0095367431640625,0.09220605442254501
1779896669.905365,-0.0439453050494194,-0.3115234375,0.9404296278953552,0.9916581704252223,-0.087738037109375,-0.087738037109375,0.1735687255859375,0.2133589201630403
1779896669.913289,-0.0566406212747097,-0.29931640625,0.9326171278953552,0.9811081379096708,-0.270843505859375,0.095367431640625,-0.0095367431640625,0.28730141168136275
1779896669.921213,-0.0581054612994194,-0.302734375,0.9267577528953552,0.9766802337464945,-0.2727508544921875,-0.1506805419921875,-0.1316070556640625,0.3382574041493275
1779896669.929137,-0.0625,-0.3056640625,0.9467772841453552,0.9968570583978721,-0.518798828125,-0.026702880859375,0.1125335693359375,0.5315346386996331
1779896669.939723,-0.06396484375,-0.3046875,0.9409179091453552,0.9910865177383248,-0.2727508544921875,-0.4558563232421875,0.2956390380859375,0.6079477419207038
1779896669.950309,-0.06396484375,-0.29833984375,0.9399413466453552,0.9882246195770575,-0.396728515625,-0.576019287109375,0.2956390380859375,0.7593379847422272
1779896669.960895,-0.0571289025247097,-0.2958984375,0.9340819716453552,0.9814931108120389,-0.213623046875,-0.698089599609375,0.2956390380859375,0.7876333766920459
1779896669.968919,-0.0434570237994194,-0.3017578125,0.9477538466453552,0.9955820629929789,0.1544952392578125,0.1544952392578125,-0.0705718994140625,0.22960389999641995
1779896669.976942,-0.0541992150247097,-0.3037109375,0.9374999403953552,0.9869569528139098,-0.2727508544921875,0.1544952392578125,-0.0705718994140625,0.3213132436835676
1779896669.984965,-0.0537109300494194,-0.30126953125,0.9458007216453552,0.9940760531927338,0.0324249267578125,0.1544952392578125,-0.1926422119140625,0.24906058829072253
1779896669.992988,-0.0507812462747097,-0.29931640625,0.9360350966453552,0.9840379810634888,0.274658203125,-0.026702880859375,0.0514984130859375,0.2807174004945429
1779896670.003589,-0.0488281175494194,-0.30224609375,0.9487304091453552,0.9969083586206241,0.457763671875,0.400543212890625,-0.4367828369140625,0.7488402308262583
1779896670.01419,-0.0522460900247097,-0.30322265625,0.9345702528953552,0.9839182846065337,0.274658203125,-0.026702880859375,-0.4978179931640625,0.5691861968705305
1779896670.024791,-0.0502929650247097,-0.30419921875,0.9428710341453552,0.9920042006208535,0.1544952392578125,0.2155303955078125,-0.6809234619140625,0.7307385930181288
1779896670.032788,-0.0654296875,-0.30029296875,0.9389647841453552,0.9879836926549799,0.0324249267578125,0.3376007080078125,-0.1316070556640625,0.3637939403332461
1779896670.040785,-0.0600585900247097,-0.31005859375,0.9379882216453552,0.9897298973656398,-0.0896453857421875,0.0324249267578125,-0.1316070556640625,0.16250565578058734
1779896670.048782,-0.0537109300494194,-0.31689453125,0.9521483778953552,1.0049345956188824,0.1544952392578125,-0.3337860107421875,0.1735687255859375,0.4067038018288481
1779896670.056779,-0.0610351525247097,-0.3125,0.9438475966453552,0.9961073363533308,-0.5168914794921875,0.1544952392578125,0.1735687255859375,0.5667201099541799
1779896670.067451,-0.0590820275247097,-0.31005859375,0.9428710341453552,0.9943001581841319,-0.3337860107421875,-0.1506805419921875,-0.0095367431640625,0.3663450234033764
1779896670.078123,-0.0654296800494194,-0.306640625,0.9340819716453552,0.9853012969059942,-0.1506805419921875,-0.3337860107421875,0.4177093505859375,0.5555167218627796
1779896670.088795,-0.0605468712747097,-0.31787109375,0.9389647841453552,0.9931580044122441,-0.087738037109375,-0.209808349609375,0.0514984130859375,0.23317288279726192
1779896670.096828,-0.0556640587747097,-0.3173828125,0.9453124403953552,0.9987221570967105,-0.0896453857421875,0.3376007080078125,-0.0095367431640625,0.34943022579968547
1779896670.104861,-0.0600585900247097,-0.314453125,0.9331054091453552,0.9864955684818572,-0.087738037109375,0.095367431640625,0.2956390380859375,0.322793046724854
1779896670.112894,-0.0405273362994194,-0.31640625,0.9360350966453552,0.9888969016932292,0.1544952392578125,0.3376007080078125,0.0514984130859375,0.3748267647208172
1779896670.120927,-0.0537109300494194,-0.31640625,0.9458007216453552,0.998767632690763,0.335693359375,0.278472900390625,-0.1926422119140625,0.4768104545745431
1779896670.131544,-0.05224609375,-0.2978515625,0.9272460341453552,0.9753104200376999,0.400543212890625,0.400543212890625,-0.0705718994140625,0.5708328334743874
1779896670.142161,-0.0600585900247097,-0.32275390625,0.9501952528953552,1.0053099705365793,0.2155303955078125,0.3376007080078125,-0.0705718994140625,0.4067038018288481
1779896670.152778,-0.0576171875,-0.30615234375,0.9326171278953552,0.9832719385413222,0.091552734375,0.278472900390625,-0.6809234619140625,0.7413405562955112
1779896670.160787,-0.056640625,-0.3017578125,0.9311522841453552,0.9804644379447366,0.091552734375,-0.026702880859375,-0.3147125244140625,0.32884482669003806
1779896670.168795,-0.0507812462747097,-0.30615234375,0.9541015028953552,1.0033033790354773,0.152587890625,-0.026702880859375,0.1125335693359375,0.19146778433737408
1779896670.176803,-0.0610351525247097,-0.31640625,0.9394530653953552,0.9931818901709327,-0.087738037109375,-0.576019287109375,-0.1316070556640625,0.5973412754685233
1779896670.184811,-0.0678710862994194,-0.306640625,0.9423827528953552,0.9933379134063504,-0.0286102294921875,-0.6389617919921875,0.0514984130859375,0.6416718814221432
1779896670.195482,-0.0488281212747097,-0.2939453125,0.9331054091453552,0.9795273027048614,-0.2727508544921875,-0.5779266357421875,0.1125335693359375,0.6488883025251633
1779896670.206153,-0.0620117150247097,-0.29345703125,0.9335936903953552,0.9805914851437308,-0.152587890625,-0.392913818359375,0.4177093505859375,0.5934184312861006
1779896670.216824,-0.0590820275247097,-0.3134765625,0.9370116591453552,0.9898227571578552,-0.087738037109375,-0.026702880859375,0.2346038818359375,0.25189281127989055
1779896670.22751,-0.0581054650247097,-0.2939453125,0.9482421278953552,0.9944562458559811,-0.213623046875,-0.087738037109375,0.2956390380859375,0.37514691808989037
1779896670.238198,-0.0610351525247097,-0.30908203125,0.9355468153953552,0.9871701148645715,-0.3337860107421875,0.2155303955078125,0.4177093505859375,0.5764959270644185
1779896670.248886,-0.056640625,-0.29736328125,0.9394530653953552,0.9870183096158281,-0.3948211669921875,0.1544952392578125,0.3566741943359375,0.5540478442910789
1779896670.259552,-0.0517578087747097,-0.3037109375,0.9487304091453552,0.9975011747178052,0.091552734375,0.095367431640625,-0.0095367431640625,0.13254357645486212
1779896670.27022,-0.0581054612994194,-0.31103515625,0.9482421278953552,0.9996410586664553,0.274658203125,0.095367431640625,-0.1316070556640625,0.31914337320731995
1779896670.280888,-0.0610351525247097,-0.3115234375,0.9521483778953552,1.0036725937696451,0.2155303955078125,0.2155303955078125,0.0514984130859375,0.30912584706859764
1779896670.288857,-0.0498046837747097,-0.30322265625,0.9467772841453552,0.9953952539382831,0.274658203125,0.034332275390625,-0.0705718994140625,0.28565053240675053
1779896670.296829,-0.0581054612994194,-0.29931640625,0.9350585341453552,0.9835146251893226,0.400543212890625,0.278472900390625,0.1125335693359375,0.5006454093190087
1779896670.304799,-0.0634765550494194,-0.29638671875,0.9414061903953552,0.9889994820054403,0.091552734375,0.217437744140625,-0.0095367431640625,0.2361186676624288
1779896670.31277,-0.0454101525247097,-0.30322265625,0.9389647841453552,0.9877554996459177,0.3376007080078125,0.1544952392578125,0.2956390380859375,0.47460031378106293
1779896670.323452,-0.05224609375,-0.3017578125,0.9355468153953552,0.9843958936897846,0.217437744140625,0.095367431640625,0.2346038818359375,0.3337860107421875
1779896670.334134,-0.0634765625,-0.30859375,0.9433593153953552,0.9945783903087138,0.274658203125,0.034332275390625,0.3566741943359375,0.4514779225859683
1779896670.344816,-0.064453125,-0.3046875,0.9287108778953552,0.97953691747666,0.274658203125,0.034332275390625,0.0514984130859375,0.28154559173910243
1779896670.352897,-0.0688476487994194,-0.3056640625,0.9350585341453552,0.9861566711873284,0.152587890625,-0.209808349609375,0.2956390380859375,0.3933256268940216
1779896670.360978,-0.0620117150247097,-0.3154296875,0.9404296278953552,0.9938557368049197,-0.2727508544921875,-0.3337860107421875,0.2956390380859375,0.5226935722139507
1779896670.369059,-0.0590820275247097,-0.30322265625,0.9340819716453552,0.9838413464540969,-0.030517578125,-0.392913818359375,0.1125335693359375,0.40984923503630655
1779896670.37714,-0.0581054650247097,-0.30322265625,0.9443358778953552,0.9935242697636705,-0.0896453857421875,-0.2727508544921875,-0.0095367431640625,0.28726342141188344
1779896670.38772,-0.056640625,-0.3115234375,0.9414061903953552,0.9932273797207278,0.091552734375,-0.209808349609375,-0.2536773681640625,0.34169233801183535
1779896670.3983,-0.0385742112994194,-0.30224609375,0.9365233778953552,0.9848434943223376,-0.1506805419921875,-0.1506805419921875,-0.0705718994140625,0.22447637839431417
1779896670.40888,-0.0400390550494194,-0.30224609375,0.9360350966453552,0.984437671601541,0.0324249267578125,-0.2727508544921875,-0.0705718994140625,0.283592661203312
1779896670.419518,-0.068359375,-0.31787109375,0.9423827528953552,0.9968953251705216,0.217437744140625,-0.209808349609375,-0.3147125244140625,0.4362828086984926
1779896670.430156,-0.0571289025247097,-0.2958984375,0.9477538466453552,0.9945134240671096,-0.0896453857421875,-0.3337860107421875,-0.0705718994140625,0.35274606892063
1779896670.440794,-0.0610351525247097,-0.29736328125,0.9394530653953552,0.9872802403371652,-0.2117156982421875,0.1544952392578125,-0.1316070556640625,0.29327927464461134
1779896670.45148,-0.0488281175494194,-0.3154296875,0.9423827528953552,0.9949700125000731,-0.213623046875,0.278472900390625,-0.0705718994140625,0.35799770305832124
1779896670.462164,-0.0522460900247097,-0.30908203125,0.9311522841453552,0.9824998382868103,0.091552734375,0.095367431640625,0.1735687255859375,0.21818100900581394
1779896670.472848,-0.0615234375,-0.3125,0.9345702528953552,0.9873514779239988,0.457763671875,0.095367431640625,-0.1926422119140625,0.5057208203320825
1779896670.480806,-0.0537109300494194,-0.30126953125,0.9331054091453552,0.9820050402328335,0.2155303955078125,0.2155303955078125,-0.3147125244140625,0.43812175910194195
1779896670.488766,-0.0576171837747097,-0.3046875,0.9418944716453552,0.9916246307138914,0.1544952392578125,0.2155303955078125,0.1125335693359375,0.28807279387087054
1779896670.496726,-0.0502929650247097,-0.3046875,0.9374999403953552,0.9870511603906462,0.4596710205078125,0.3376007080078125,-0.2536773681640625,0.6241986000150236
1779896670.504686,-0.0551757775247097,-0.30029296875,0.9418944716453552,0.9901441456789146,0.0934600830078125,0.1544952392578125,-0.0095367431640625,0.18081624799595092
1779896670.515399,-0.06640625,-0.3056640625,0.9321288466453552,0.983211318024496,0.274658203125,-0.026702880859375,-0.0095367431640625,0.27611794918154275
1779896670.52611,-0.0502929612994194,-0.3115234375,0.9350585341453552,0.9868691384100233,-0.213623046875,-0.453948974609375,0.0514984130859375,0.5043377481960192
1779896670.536822,-0.0537109300494194,-0.30078125,0.9423827528953552,0.9906762727112042,-0.396728515625,-0.148773193359375,-0.0095367431640625,0.42381355292456035
1779896670.547471,-0.0498046837747097,-0.30810546875,0.9492186903953552,0.999212494215034,-0.087738037109375,-0.392913818359375,0.2346038818359375,0.46595945444431164
1779896670.558122,-0.0605468712747097,-0.30517578125,0.9482421278953552,0.9979786140986265,0.3376007080078125,-0.3337860107421875,0.4177093505859375,0.6323515166278054
1779896670.568773,-0.0644531175494194,-0.31201171875,0.9467772841453552,0.9989458157341784,0.457763671875,0.095367431640625,-0.0095367431640625,0.4676895078750316
1779896670.576815,-0.0458984337747097,-0.314453125,0.9428710341453552,0.9949840305630883,0.274658203125,0.888824462890625,-0.2536773681640625,0.9642604738841611
1779896670.58486,-0.0551757775247097,-0.30517578125,0.9409179091453552,0.9907084009119288,0.091552734375,1.010894775390625,-0.1316070556640625,1.0235284887017875
1779896670.592905,-0.05712890625,-0.3017578125,0.9370116591453552,0.986058993523429,0.6427764892578125,0.8258819580078125,-0.4367828369140625,1.134029042982636
1779896670.60095,-0.0512695275247097,-0.30859375,0.9404296278953552,0.991093614153106,0.1544952392578125,0.2155303955078125,-0.4978179931640625,0.5640433357987464
1779896670.611603,-0.0693359300494194,-0.29296875,0.9331054091453552,0.9804712460081128,-0.396728515625,-0.148773193359375,-0.3147125244140625,0.5277982106785071
1779896670.622256,-0.0483398400247097,-0.30810546875,0.9360350966453552,0.9866242558133016,-0.5779266357421875,-0.4558563232421875,-0.4978179931640625,0.8886095532111183
1779896670.632909,-0.0541992112994194,-0.29296875,0.9360350966453552,0.9823084775842673,-0.5168914794921875,-0.1506805419921875,0.1735687255859375,0.565692080383143
1779896670.643515,-0.06689453125,-0.306640625,0.9335936903953552,0.9849368152107861,-1.190185546875,-0.209808349609375,0.5397796630859375,1.3236023814715356
1779896670.654121,-0.0458984337747097,-0.3017578125,0.9414061903953552,0.9896514835751282,-1.190185546875,-0.026702880859375,0.7228851318359375,1.3927733461212537
1779896670.664727,-0.0566406212747097,-0.29638671875,0.9423827528953552,0.9895142747754602,-1.2493133544921875,0.3376007080078125,0.7839202880859375,1.5130396934094748
1779896670.672745,-0.0410156212747097,-0.30517578125,0.9516600966453552,1.0002357113186597,-1.007080078125,-0.087738037109375,0.8449554443359375,1.3175196202808532
1779896670.680765,-0.0458984337747097,-0.30322265625,0.9536132216453552,1.0017129439031476,-0.823974609375,-0.209808349609375,0.5397796630859375,1.0071324566022395
1779896670.688785,-0.0571289025247097,-0.30810546875,0.9335936903953552,0.9847790971194268,-0.5779266357421875,0.2155303955078125,0.4177093505859375,0.7449386882522365
1779896670.696805,-0.05224609375,-0.30615234375,0.9453124403953552,0.9950248850465871,-0.2117156982421875,0.1544952392578125,-0.1316070556640625,0.29327927464461134
1779896670.707462,-0.0502929650247097,-0.3095703125,0.9472655653953552,0.9978352630049242,-0.0896453857421875,0.0324249267578125,-0.1926422119140625,0.21493881192390002
1779896670.718119,-0.0541992150247097,-0.32275390625,0.9316405653953552,0.9874521669423313,0.2155303955078125,0.2155303955078125,-0.0705718994140625,0.3128691352025903
1779896670.728776,-0.0576171875,-0.31103515625,0.9423827528953552,0.9940562668549,0.3376007080078125,-0.0247955322265625,-0.1926422119140625,0.3894869423702383
1779896670.736806,-0.0527343712747097,-0.298828125,0.9379882216453552,0.9858504278794885,0.0324249267578125,0.0324249267578125,-0.0705718994140625,0.0841614207188042
1779896670.744837,-0.0600585862994194,-0.2978515625,0.9350585341453552,0.983187189374453,0.1544952392578125,0.0324249267578125,0.1735687255859375,0.2346193882229359
1779896670.752868,-0.0566406212747097,-0.3037109375,0.9458007216453552,0.9949811548971109,0.3986358642578125,0.0324249267578125,0.0514984130859375,0.40325428044621237
1779896670.760899,-0.0639648362994194,-0.3125,0.9238280653953552,0.9773464302359406,0.2155303955078125,-0.0896453857421875,0.1735687255859375,0.2908878634012532
1779896670.771555,-0.0493163987994194,-0.30712890625,0.9458007216453552,0.9956401344410235,0.2155303955078125,0.0324249267578125,0.3566741943359375,0.4179966604749297
1779896670.782211,-0.0532226487994194,-0.30224609375,0.9321288466453552,0.9813508741937107,-0.030517578125,-0.026702880859375,-0.0095367431640625,0.04165712293213187
1779896670.792867,-0.0522460900247097,-0.3134765625,0.9467772841453552,0.9986913611989148,0.0324249267578125,0.1544952392578125,0.1735687255859375,0.2346193882229359
1779896670.800831,-0.0498046800494194,-0.30126953125,0.9384765028953552,0.9869052553822557,-0.2117156982421875,0.1544952392578125,0.2956390380859375,0.39508828972254306
1779896670.808795,-0.0634765625,-0.30419921875,0.9384765028953552,0.9885871661930588,-0.396728515625,0.095367431640625,0.0514984130859375,0.41126700412033423
1779896670.816759,-0.0405273362994194,-0.3017578125,0.9399413466453552,0.9880232677046604,-0.759124755859375,0.095367431640625,-0.0705718994140625,0.7683395961182747
1779896670.824723,-0.0571289025247097,-0.31298828125,0.9409179091453552,0.9932531839636729,-0.4558563232421875,-0.0247955322265625,-0.0095367431640625,0.45662977928346016
1779896670.835663,-0.0659179612994194,-0.30712890625,0.9399413466453552,0.9910414107441106,-0.3337860107421875,-0.6389617919921875,0.0514984130859375,0.722729104951102
1779896670.846603,-0.0449218712747097,-0.3193359375,0.9526366591453552,1.005738544476371,-0.270843505859375,-0.392913818359375,0.1125335693359375,0.49030732969376206
1779896670.857543,-0.0522460900247097,-0.30908203125,0.9379882216453552,0.9889809198917399,0.091552734375,0.400543212890625,-0.0095367431640625,0.4109838415734384
1779896670.865672,-0.0483398362994194,-0.30712890625,0.9404296278953552,0.9904911861552187,-0.2727508544921875,0.6465911865234375,-0.0095367431640625,0.7018291391686317
1779896670.873803,-0.0615234337747097,-0.31787109375,0.9389647841453552,0.9932180178643488,0.091552734375,0.217437744140625,0.1735687255859375,0.2928944831334822
1779896670.881934,-0.0483398400247097,-0.3134765625,0.9355468153953552,0.9878522861069978,0.0324249267578125,0.0324249267578125,-0.3147125244140625,0.31803572876890873
1779896670.890065,-0.0488281212747097,-0.3134765625,0.9355468153953552,0.9878763001815688,0.3376007080078125,0.2155303955078125,-0.3757476806640625,0.549193871924617
1779896670.901744,-0.0566406212747097,-0.3046875,0.9409179091453552,0.9906407746429086,0.091552734375,-0.026702880859375,-0.3757476806640625,0.38766127810519274
1779896670.91342,-0.0610351525247097,-0.302734375,0.9404296278953552,0.9898390155342188,0.335693359375,0.095367431640625,-0.3757476806640625,0.5128072718581753
1779896670.925096,-0.0590820237994194,-0.30029296875,0.9365233778953552,0.985262700989665,0.2155303955078125,0.0324249267578125,0.0514984130859375,0.22395716959582573
1779896670.936772,-0.0546874962747097,-0.3046875,0.9316405653953552,0.9817226380170845,0.1544952392578125,0.1544952392578125,-0.1926422119140625,0.29128779534645804
1779896670.944773,-0.0541992112994194,-0.30615234375,0.9384765028953552,0.9886379309817083,-0.1506805419921875,0.0324249267578125,0.1125335693359375,0.19083973862326248
1779896670.952776,-0.0444335862994194,-0.310546875,0.9394530653953552,0.9904472561648213,-0.1506805419921875,-0.1506805419921875,0.2346038818359375,0.3169356919670129
1779896670.960779,-0.0585937425494194,-0.310546875,0.9467772841453552,0.9981281551042771,-0.1506805419921875,-0.1506805419921875,0.1735687255859375,0.2748369588895301
1779896670.968782,-0.0522460900247097,-0.314453125,0.9355468153953552,0.9883614043160156,-0.0324249267578125,0.1964569091796875,0.4253387451171875,0.46963788298810527
1779896670.976765,-0.0522460900247097,-0.31298828125,0.9414061903953552,0.993446995786587,-0.3376007080078125,-0.1697540283203125,0.0553131103515625,0.3819034018637617
1779896670.984748,-0.0537109300494194,-0.3203125,0.9482421278953552,1.0023213530492776,-0.2155303955078125,0.2613067626953125,-0.2498626708984375,0.4209108337006299
1779896670.992731,-0.0517578087747097,-0.29931640625,0.9482421278953552,0.995706942295315,-0.0324249267578125,-0.1087188720703125,-0.0019073486328125,0.1134672067088001
1779896671.000714,-0.0449218712747097,-0.30859375,0.9423827528953552,0.9926395770935754,0.087738037109375,0.3814697265625,-0.3070831298828125,0.4975109688218933
1779896671.011416,-0.0683593675494194,-0.30712890625,0.9404296278953552,0.9916698307448272,0.152587890625,0.0762939453125,-0.1239776611328125,0.21088928592201214
1779896671.022118,-0.0478515587747097,-0.3232421875,0.9331054091453552,0.9886662672678154,0.2727508544921875,0.3795623779296875,-0.4901885986328125,0.6773075295576286
1779896671.03282,-0.0517578087747097,-0.3154296875,0.9355468153953552,0.9886468542011844,0.0896453857421875,0.4444122314453125,-0.3681182861328125,0.5839945198616394
1779896671.040824,-0.0722656175494194,-0.3095703125,0.9345702528953552,0.9871563480310679,0.209808349609375,0.0152587890625,-0.4329681396484375,0.48136657981219727
1779896671.048828,-0.0581054612994194,-0.310546875,0.9331054091453552,0.985140249295198,0.270843505859375,-0.1068115234375,-0.1239776611328125,0.31644172712396734
1779896671.056832,-0.052734375,-0.30712890625,0.9350585341453552,0.9856183549625191,0.1506805419921875,-0.2918243408203125,-0.2498626708984375,0.41267108687036724
1779896671.064836,-0.0610351525247097,-0.31396484375,0.9384765028953552,0.9914824050084662,-0.0934600830078125,0.1354217529296875,-0.1239776611328125,0.20602014159382334
1779896671.075493,-0.0483398362994194,-0.30126953125,0.9472655653953552,0.9951945144627915,-0.0324249267578125,-0.3528594970703125,0.1811981201171875,0.3979873858327247
1779896671.08615,-0.0468749962747097,-0.32080078125,0.9379882216453552,0.9924375599864106,0.0896453857421875,-0.3528594970703125,0.0553131103515625,0.36824673798194546
1779896671.096807,-0.0502929650247097,-0.31787109375,0.9331054091453552,0.987044638883733,0.087738037109375,0.0762939453125,0.3032684326171875,0.32479296708709443
1779896671.104805,-0.0595703087747097,-0.30029296875,0.9433593153953552,0.9917919573738214,0.026702880859375,0.0152587890625,0.0553131103515625,0.06328834542479346
1779896671.112805,-0.0483398362994194,-0.310546875,0.9482421278953552,0.9989690858386117,0.1506805419921875,-0.2269744873046875,0.1201629638671875,0.29776027523434373
1779896671.120805,-0.0493164025247097,-0.30859375,0.9350585341453552,0.98589891590117,0.2117156982421875,0.1354217529296875,0.3032684326171875,0.39387095636872227
1779896671.128805,-0.0483398362994194,-0.30615234375,0.9374999403953552,0.987406773117527,0.209808349609375,0.3814697265625,0.0553131103515625,0.4388601554325049
1779896671.139552,-0.052734375,-0.30078125,0.9389647841453552,0.9873728477750118,-0.0934600830078125,0.0133514404296875,0.2384185791015625,0.25643023795602327
1779896671.150299,-0.0615234337747097,-0.31591796875,0.9448241591453552,0.998139262621847,0.209808349609375,0.1983642578125,-0.1850128173828125,0.34292515938501744
1779896671.161046,-0.0478515625,-0.3056640625,0.9438475966453552,0.9932615852991137,0.152587890625,0.0762939453125,-0.0629425048828125,0.18183946045250074
1779896671.172024,-0.0444335900247097,-0.30419921875,0.9379882216453552,0.9870832855215462,0.026702880859375,0.0762939453125,-0.0019073486328125,0.08085448606196077
1779896671.183005,-0.0551757775247097,-0.31396484375,0.9443358778953552,0.9966887878454385,0.026702880859375,0.0762939453125,0.4863739013671875,0.49304500998253226
1779896671.193986,-0.05712890625,-0.30224609375,0.9423827528953552,0.9913131019365593,0.026702880859375,0.0762939453125,0.3032684326171875,0.3138559417306327
1779896671.201911,-0.0576171875,-0.31103515625,0.9399413466453552,0.9917420752657194,-0.0934600830078125,0.0133514404296875,0.3032684326171875,0.3176236614288367
1779896671.209836,-0.0595703087747097,-0.31298828125,0.9404296278953552,0.9929341221404064,0.270843505859375,-0.1068115234375,0.4253387451171875,0.5154395738620587
1779896671.217761,-0.0532226487994194,-0.294921875,0.9379882216453552,0.9846996834792616,0.209808349609375,-0.0457763671875,0.6084442138671875,0.6452281617746969
1779896671.225686,-0.0581054650247097,-0.30859375,0.9409179091453552,0.9919338986824007,0.026702880859375,-0.1068115234375,0.3643035888671875,0.38057699647606447
1779896671.236382,-0.0576171875,-0.296875,0.9399413466453552,0.9873926478629937,0.392913818359375,-0.0457763671875,0.2384185791015625,0.4618659581647437
1779896671.247078,-0.0585937462747097,-0.30419921875,0.9379882216453552,0.9878219959770239,0.152587890625,-0.1068115234375,0.3643035888671875,0.4091562913679067
1779896671.257774,-0.0527343712747097,-0.30322265625,0.9443358778953552,0.9932246188337439,-0.0324249267578125,-0.1697540283203125,-0.0629425048828125,0.18392815153517375
1779896671.265862,-0.0532226525247097,-0.30419921875,0.9394530653953552,0.9889094384778648,0.152587890625,-0.1068115234375,-0.1239776611328125,0.22374589686604102
1779896671.27395,-0.0581054612994194,-0.32177734375,0.9477538466453552,1.0025738164418077,0.3337860107421875,0.0133514404296875,0.1201629638671875,0.3550077461325009
1779896671.282038,-0.0600585862994194,-0.3017578125,0.9350585341453552,0.9843776071564867,0.1506805419921875,-0.1697540283203125,-0.1239776611328125,0.25863394271826606
1779896671.290126,-0.0678710862994194,-0.3076171875,0.9316405653953552,0.9834576561759284,-0.095367431640625,-0.2288818359375,0.1811981201171875,0.3071068227406429
1779896671.300324,-0.0610351525247097,-0.3173828125,0.9404296278953552,0.9944169269162312,-0.0324249267578125,-0.2269744873046875,-0.0019073486328125,0.22928678928643564
1779896671.310522,-0.0600585900247097,-0.31298828125,0.9365233778953552,0.9892647450405334,0.087738037109375,-0.2288818359375,-0.0629425048828125,0.25307433077823127
1779896671.32072,-0.0595703050494194,-0.306640625,0.9370116591453552,0.9877084304178044,0.1506805419921875,0.1354217529296875,0.2384185791015625,0.3128691352025903
1779896671.331405,-0.0424804650247097,-0.30419921875,0.9458007216453552,0.9944248386186362,-0.152587890625,0.0762939453125,-0.1850128173828125,0.2516616241159141
1779896671.342092,-0.0585937425494194,-0.31005859375,0.9394530653953552,0.9910305849492763,0.0896453857421875,0.1964569091796875,0.1811981201171875,0.2818942551442017
1779896671.352779,-0.0576171837747097,-0.314453125,0.9428710341453552,0.9955934384670913,0.026702880859375,0.3814697265625,-0.2498626708984375,0.45679705607453225
1779896671.360781,-0.0458984337747097,-0.3037109375,0.9423827528953552,0.9911772055161118,0.0896453857421875,-0.3528594970703125,-0.1850128173828125,0.40838200554567217
1779896671.368782,-0.0458984337747097,-0.3134765625,0.9541015028953552,1.0053277571453816,0.0896453857421875,-0.1697540283203125,-0.3681182861328125,0.4151671927081887
1779896671.376783,-0.0478515625,-0.3115234375,0.9506835341453552,1.001566675883643,0.026702880859375,-0.2288818359375,-0.6732940673828125,0.7116353278479097
1779896671.384784,-0.0468749962747097,-0.30859375,0.9360350966453552,0.9867061720526005,0.4558563232421875,0.0133514404296875,-0.1239776611328125,0.47260311981767084
1779896671.395485,-0.0585937462747097,-0.30810546875,0.9365233778953552,0.9876427716136481,0.1506805419921875,0.0133514404296875,-0.3681182861328125,0.3979873858327247
1779896671.406186,-0.0639648362994194,-0.3076171875,0.9350585341453552,0.9864351456665978,-0.278472900390625,0.0762939453125,-0.4901885986328125,0.5689048994101863
1779896671.416887,-0.0595703087747097,-0.30908203125,0.9545897841453552,1.0051477402470823,-0.5207061767578125,-0.4749298095703125,-0.2498626708984375,0.7477463479287161
1779896671.427558,-0.0434570275247097,-0.3134765625,0.9477538466453552,0.9991963882586682,-0.3986358642578125,-0.3528594970703125,-0.3070831298828125,0.6145896400069817
1779896671.438229,-0.0595703050494194,-0.291015625,0.9531249403953552,0.9983415584064759,-0.278472900390625,-0.5340576171875,0.1811981201171875,0.6289653833574309
1779896671.4489,-0.052734375,-0.306640625,0.9409179091453552,0.9910276983805741,0.209808349609375,-0.4730224609375,0.0553131103515625,0.5204126557780302
1779896671.456875,-0.0478515587747097,-0.30859375,0.9409179091453552,0.991386093288936,0.209808349609375,-0.7171630859375,0.0553131103515625,0.7492676261349959
1779896671.46485,-0.0488281175494194,-0.32177734375,0.9423827528953552,0.9970005501346796,0.1506805419921875,0.3185272216796875,-0.3070831298828125,0.467401610335977
1779896671.472825,-0.0527343712747097,-0.3193359375,0.9404296278953552,0.9945673631866969,0.270843505859375,1.2359619140625,-0.4329681396484375,1.3373180129011442
1779896671.4808,-0.0634765625,-0.30810546875,0.9477538466453552,0.9985968193878554,-0.0324249267578125,1.1119842529296875,-0.4901885986328125,1.2156665730653473
1779896671.488812,-0.06201171875,-0.3076171875,0.9409179091453552,0.99186707731339,-0.278472900390625,0.3814697265625,-0.5512237548828125,0.7258883774264073
1779896671.496824,-0.0605468675494194,-0.28759765625,0.9335936903953552,0.9787622355794886,-0.3376007080078125,0.3185272216796875,-0.4901885986328125,0.6750693973421974
1779896671.504836,-0.0551757775247097,-0.30029296875,0.9423827528953552,0.9906086444508613,-0.0324249267578125,-0.0438690185546875,-0.4901885986328125,0.4932146884408468
1779896671.512848,-0.06494140625,-0.2939453125,0.9282225966453552,0.9758167973085399,-0.400543212890625,-0.1068115234375,-0.2498626708984375,0.48401954634114214
1779896671.523488,-0.0625,-0.30078125,0.9365233778953552,0.9856224671222186,-1.132965087890625,0.2593994140625,-0.0629425048828125,1.163984409395548
1779896671.534128,-0.0615234337747097,-0.2900390625,0.9335936903953552,0.9795432453063664,-1.0700225830078125,0.1354217529296875,0.3032684326171875,1.1203834707524678
1779896671.544768,-0.0600585900247097,-0.30419921875,0.9443358778953552,0.9939388558680347,-1.2531280517578125,-0.1697540283203125,0.2384185791015625,1.286852657880502
1779896671.552757,-0.0517578087747097,-0.29833984375,0.9501952528953552,0.9972745618749141,-0.949859619140625,0.2593994140625,0.6084442138671875,1.1574652104829766
1779896671.560746,-0.0458984337747097,-0.31298828125,0.9458007216453552,0.997300022805412,-0.766754150390625,0.0152587890625,0.6084442138671875,0.9789530730190099
1779896671.568735,-0.0458984337747097,-0.29833984375,0.9399413466453552,0.9872198659494397,-0.5207061767578125,0.1964569091796875,0.4253387451171875,0.7004593405587779
1779896671.576724,-0.0556640587747097,-0.30810546875,0.9462890028953552,0.9967398578935314,-0.583648681640625,-0.0457763671875,0.4253387451171875,0.7236396254155713
1779896671.587404,-0.0532226487994194,-0.3095703125,0.9335936903953552,0.9850195975068681,-0.2155303955078125,0.1964569091796875,0.3643035888671875,0.4666538046707675
1779896671.598084,-0.0493163987994194,-0.31103515625,0.9545897841453552,1.0051948227128318,0.1506805419921875,-0.1697540283203125,0.3032684326171875,0.37880443250854184
1779896671.608764,-0.0512695275247097,-0.32373046875,0.9492186903953552,1.0042141719003845,0.3337860107421875,-0.0438690185546875,0.1811981201171875,0.38232231231009517
1779896671.616771,-0.0405273362994194,-0.3017578125,0.9374999403953552,0.9857009590304789,0.514984130859375,-0.1068115234375,0.2384185791015625,0.5774606267416277
1779896671.624778,-0.0781249925494194,-0.2978515625,0.9350585341453552,0.9844559563650365,0.392913818359375,0.0762939453125,0.3032684326171875,0.5021690720974125
1779896671.632785,-0.0463867150247097,-0.3115234375,0.9428710341453552,0.9940846877771188,0.392913818359375,0.0762939453125,-0.3070831298828125,0.504481995127393
1779896671.640792,-0.0346679612994194,-0.3115234375,0.9321288466453552,0.9834189882246908,0.392913818359375,-0.1068115234375,0.1201629638671875,0.4245339893131415
1779896671.651499,-0.0512695275247097,-0.322265625,0.9467772841453552,1.001434432842661,0.3948211669921875,0.1354217529296875,-0.0629425048828125,0.42211913483345553
1779896671.662206,-0.0546874962747097,-0.29833984375,0.9355468153953552,0.9834862624429289,0.392913818359375,0.1983642578125,-0.0629425048828125,0.44462501769038004
1779896671.672913,-0.0498046837747097,-0.3134765625,0.9492186903953552,1.000881703278958,0.026702880859375,-0.1068115234375,-0.1850128173828125,0.21529395714036081
1779896671.681073,-0.0498046800494194,-0.3076171875,0.9306640028953552,0.9814501141094442,-0.2155303955078125,0.1354217529296875,-0.0019073486328125,0.2545506639808871
1779896671.689234,-0.0454101525247097,-0.30810546875,0.9492186903953552,0.9990030951012353,-0.1544952392578125,0.1354217529296875,-0.3681182861328125,0.4215671983269539
1779896671.697395,-0.06396484375,-0.314453125,0.9296874403953552,0.9835095352293717,-0.152587890625,-0.0457763671875,-0.1850128173828125,0.24414807546691356
1779896671.713362,-0.0502929650247097,-0.31884765625,0.9399413466453552,0.9938223912553886,-0.0934600830078125,0.1354217529296875,0.1811981201171875,0.24475824197844542
1779896671.721169,-0.05712890625,-0.30615234375,0.9345702528953552,0.9850962019568584,-0.5207061767578125,-0.3528594970703125,0.3032684326171875,0.6982954170038193
1779896671.728977,-0.0483398362994194,-0.3095703125,0.9409179091453552,0.9917141876091464,-0.5207061767578125,-0.7152557373046875,0.5435943603515625,1.0383739792902338
1779896671.736785,-0.0498046800494194,-0.30224609375,0.9404296278953552,0.9890607121736031,-0.2155303955078125,-0.7801055908203125,0.4863739013671875,0.9442338990673876
1779896671.747443,-0.0556640587747097,-0.3212890625,0.9443358778953552,0.9990472458306436,-0.0324249267578125,-0.2918243408203125,0.4863739013671875,0.5681306132410029
1779896671.758101,-0.0463867150247097,-0.3046875,0.9423827528953552,0.9914995980542108,-0.2155303955078125,0.3185272216796875,0.6084442138671875,0.7198036563724823
1779896671.768759,-0.05126953125,-0.31689453125,0.9384765028953552,0.9918613084788859,0.1506805419921875,0.4444122314453125,0.3643035888671875,0.5940740375195454
1779896671.779461,-0.0439453050494194,-0.3076171875,0.9531249403953552,1.002500212411422,0.3337860107421875,0.1354217529296875,-0.1850128173828125,0.4049467801201276
1779896671.790163,-0.05224609375,-0.30712890625,0.9423827528953552,0.992543738240831,0.514984130859375,0.5035400390625,-0.4329681396484375,0.8403705348991471
1779896671.800865,-0.0488281212747097,-0.29931640625,0.9438475966453552,0.9913741887757851,0.209808349609375,0.1983642578125,-0.6122589111328125,0.6769260643562566
1779896671.808838,-0.0537109300494194,-0.31591796875,0.9360350966453552,0.9893688539355678,-0.0934600830078125,0.1354217529296875,-0.6732940673828125,0.6931080287049544
1779896671.816809,-0.0639648362994194,-0.306640625,0.9335936903953552,0.9847421753582104,-0.2155303955078125,-0.0438690185546875,-0.6122589111328125,0.6505680721017922
1779896671.82478,-0.06689453125,-0.310546875,0.9355468153953552,0.9880091516174401,0.0896453857421875,0.1354217529296875,-0.8563995361328125,0.871662498814714
1779896671.832751,-0.06201171875,-0.29736328125,0.9326171278953552,0.98083896820114,-0.030517578125,0.0762939453125,-0.4901885986328125,0.4970281188178017
1779896671.843429,-0.06298828125,-0.29833984375,0.9418944716453552,0.9900198895273198,-0.2155303955078125,-0.1697540283203125,-0.3681182861328125,0.45910876064837486
1779896671.854107,-0.0483398400247097,-0.30859375,0.9384765028953552,0.9890930134013548,-0.1544952392578125,-0.3528594970703125,-0.3070831298828125,0.492624250605537
1779896671.864785,-0.05224609375,-0.3076171875,0.9448241591453552,0.9950129044702242,-0.152587890625,-0.2288818359375,-0.1850128173828125,0.3315112393018275
1779896671.875469,-0.0478515587747097,-0.30419921875,0.9428710341453552,0.9918834222808703,-0.2155303955078125,-0.2918243408203125,0.1811981201171875,0.4055213385470199
1779896671.886153,-0.0498046837747097,-0.31005859375,0.9482421278953552,0.998889368849042,-0.217437744140625,-0.4119873046875,-0.0629425048828125,0.4700792174959001
1779896671.896837,-0.0576171875,-0.3056640625,0.9487304091453552,0.9984185738639517,-0.2155303955078125,0.1354217529296875,-0.0019073486328125,0.2545506639808871
1779896671.907517,-0.0610351525247097,-0.31201171875,0.9394530653953552,0.9917906354477104,0.3337860107421875,0.1354217529296875,-0.1239776611328125,0.3809496194954072
1779896671.918197,-0.0356445275247097,-0.30517578125,0.9350585341453552,0.9842445082813864,0.2727508544921875,0.1354217529296875,-0.1239776611328125,0.3287895075161771
1779896671.928877,-0.0585937425494194,-0.30615234375,0.9433593153953552,0.9935236696691021,0.209808349609375,0.1983642578125,-0.1239776611328125,0.3142266424147962
1779896671.937146,-0.0458984337747097,-0.31787109375,0.9423827528953552,0.9956073279257344,0.4558563232421875,0.3795623779296875,-0.4901885986328125,0.7695176725775212
1779896671.945415,-0.0571289025247097,-0.31982421875,0.9394530653953552,0.9940439147660707,0.209808349609375,-0.0457763671875,-0.3681182861328125,0.4261761278439394
1779896671.953684,-0.0541992150247097,-0.31005859375,0.9331054091453552,0.9847637234605279,0.759124755859375,0.0762939453125,-0.1850128173828125,0.7850610827482333
1779896671.961953,-0.0571289025247097,-0.318359375,0.9370116591453552,0.9912654803474192,0.209808349609375,-0.4730224609375,-0.3681182861328125,0.6350439864312847
1779896671.972226,-0.0615234337747097,-0.30810546875,0.9458007216453552,0.9966208495922424,-0.2765655517578125,-0.1697540283203125,-0.2498626708984375,0.4095562096447539
1779896671.982499,-0.0634765550494194,-0.29541015625,0.9350585341453552,0.9826652002257187,-0.278472900390625,-0.2288818359375,-0.3070831298828125,0.4735336310471643
1779896671.992772,-0.0610351525247097,-0.30810546875,0.9501952528953552,1.0007623535796297,-0.1544952392578125,-0.1697540283203125,-0.0019073486328125,0.22954051290155575
1779896672.003474,-0.0439453087747097,-0.298828125,0.9443358778953552,0.9914634076629916,-0.3376007080078125,-0.1697540283203125,0.2384185791015625,0.4468043050812713
1779896672.014179,-0.0600585862994194,-0.302734375,0.9365233778953552,0.9860685437328643,-0.095367431640625,-0.2288818359375,0.1811981201171875,0.3071068227406429
1779896672.024884,-0.0507812462747097,-0.3115234375,0.9453124403953552,0.996614868969579,-0.400543212890625,0.2593994140625,0.5435943603515625,0.7233379224226649
1779896672.033143,-0.0581054612994194,-0.30419921875,0.9404296278953552,0.9901117585123029,0.0896453857421875,0.0133514404296875,0.1201629638671875,0.150511441531068
1779896672.041402,-0.0488281212747097,-0.30859375,0.9414061903953552,0.991897123335367,-0.2765655517578125,-0.3528594970703125,0.1811981201171875,0.48356084190701365
1779896672.049661,-0.0390624962747097,-0.30859375,0.9418944716453552,0.9919280099232792,-0.095367431640625,-0.4119873046875,0.1811981201171875,0.4600665658091261
1779896672.05792,-0.0571289025247097,-0.3134765625,0.9414061903953552,0.9938696504346985,0.0896453857421875,0.0133514404296875,0.1201629638671875,0.150511441531068
1779896672.068263,-0.06396484375,-0.32373046875,0.9306640028953552,0.987435265684927,0.026702880859375,0.0152587890625,-0.0019073486328125,0.030814160197073958
1779896672.078607,-0.07373046875,-0.30322265625,0.9477538466453552,0.9978063515113882,0.026702880859375,-0.0457763671875,0.0553131103515625,0.0766032624360016
1779896672.088951,-0.0610351525247097,-0.30322265625,0.9443358778953552,0.9936999141528651,0.209808349609375,-0.1068115234375,-0.2498626708984375,0.343306858966363
1779896672.098568,-0.0581054612994194,-0.296875,0.9374999403953552,0.9850975324804712,0.6389617919921875,0.2613067626953125,0.0553131103515625,0.6925409273342161
1779896672.108184,-0.0610351525247097,-0.298828125,0.9389647841453552,0.9872580230111395,0.3337860107421875,0.3185272216796875,0.0553131103515625,0.4646850891678456
1779896672.1178,-0.0615234337747097,-0.3037109375,0.9443358778953552,0.9938791258201126,0.209808349609375,-0.0457763671875,0.3643035888671875,0.42288547411823846
1779896672.127416,-0.0488281175494194,-0.30517578125,0.9350585341453552,0.984810085652573,0.3337860107421875,0.1354217529296875,0.3643035888671875,0.5123175353189131
1779896672.137032,-0.0561523400247097,-0.30859375,0.9370116591453552,0.9881164087310991,-0.2155303955078125,-0.1087188720703125,0.3643035888671875,0.43702431213092463
1779896672.145005,-0.0493163987994194,-0.3154296875,0.9394530653953552,0.9922197624657657,-0.278472900390625,-0.2899169921875,0.3643035888671875,0.542509099898358
1779896672.152978,-0.0429687462747097,-0.294921875,0.9360350966453552,0.9823374815519438,-0.152587890625,-0.2288818359375,0.2384185791015625,0.3640238701628173
1779896672.160951,-0.0449218712747097,-0.3046875,0.9379882216453552,0.9872559704152148,-0.583648681640625,-0.1068115234375,0.4863739013671875,0.7672118723345057
1779896672.168924,-0.0434570275247097,-0.31396484375,0.9365233778953552,0.9887054534575864,-0.278472900390625,0.0152587890625,0.3643035888671875,0.4587996204849494
1779896672.179539,-0.0541992112994194,-0.3154296875,0.9521483778953552,1.0044998635094895,-0.3376007080078125,-0.1697540283203125,-0.0629425048828125,0.3830827940527643
1779896672.190154,-0.0576171837747097,-0.31396484375,0.9492186903953552,1.0014538357672629,-0.152587890625,-0.2288818359375,0.1811981201171875,0.329397507460986
1779896672.200769,-0.0556640587747097,-0.31103515625,0.9287108778953552,0.980991972741825,0.087738037109375,0.0762939453125,-0.0629425048828125,0.1322137971925611
1779896672.211438,-0.0483398362994194,-0.3046875,0.9472655653953552,0.996234542571922,-0.095367431640625,-0.0457763671875,0.0553131103515625,0.11937320883421974
1779896672.222105,-0.0561523400247097,-0.30224609375,0.9433593153953552,0.9921857610450664,0.3337860107421875,0.3185272216796875,-0.1239776611328125,0.47774800091484104
1779896672.232772,-0.0610351525247097,-0.302734375,0.9223632216453552,0.9726907547079667,0.152587890625,0.2593994140625,-0.3681182861328125,0.4754810122041831
1779896672.240779,-0.0488281212747097,-0.31298828125,0.9462890028953552,0.9979021628535196,-0.278472900390625,0.0152587890625,0.0553131103515625,0.28432292744762067
1779896672.248785,-0.07373046875,-0.30908203125,0.9409179091453552,0.993123555160277,-0.0324249267578125,-0.4100799560546875,-0.1239776611328125,0.4296363656547551
1779896672.256791,-0.0561523400247097,-0.30859375,0.9423827528953552,0.9932111763285496,0.1506805419921875,-0.2918243408203125,-0.1239776611328125,0.35105061186420367
1779896672.264797,-0.0605468712747097,-0.3154296875,0.9414061903953552,0.994689613242342,-0.0324249267578125,-0.2269744873046875,-0.3070831298828125,0.3832347093115387
1779896672.275443,-0.0434570275247097,-0.30908203125,0.9453124403953552,0.9955078227965521,0.2727508544921875,-0.2269744873046875,-0.0019073486328125,0.3548437465874963
1779896672.286089,-0.0478515625,-0.31689453125,0.9433593153953552,0.996312558343536,0.6389617919921875,-0.3528594970703125,-0.0019073486328125,0.7299216631100823
1779896672.296735,-0.0581054612994194,-0.31103515625,0.9516600966453552,1.002883867954474,0.640869140625,-0.4119873046875,-0.4329681396484375,0.8763037170865623
1779896672.307454,-0.0507812462747097,-0.3056640625,0.9345702528953552,0.9845967761851065,0.6389617919921875,0.3185272216796875,-0.1850128173828125,0.7375374601827179
1779896672.318172,-0.0419921837747097,-0.29443359375,0.9423827528953552,0.9882002517614217,0.640869140625,0.7476806640625,-0.4901885986328125,1.1000111331472822
1779896672.32889,-0.06689453125,-0.30078125,0.9448241591453552,0.9937992404743763,0.1506805419921875,0.8068084716796875,-0.4901885986328125,0.9559965470328714
1779896672.33953,-0.0585937462747097,-0.29833984375,0.9389647841453552,0.9869623880049396,-0.766754150390625,0.1983642578125,-0.0019073486328125,0.7919999645817923
1779896672.350169,-0.0527343712747097,-0.28466796875,0.9335936903953552,0.9774527840729742,-0.766754150390625,-0.2288818359375,-0.0019073486328125,0.8001890151346599
1779896672.360808,-0.0688476487994194,-0.3017578125,0.9384765028953552,0.9881983215107628,-1.0089874267578125,-0.0438690185546875,-0.0019073486328125,1.0099424518867948
1779896672.368827,-0.0610351525247097,-0.318359375,0.9438475966453552,0.9979610549451909,-1.3141632080078125,0.1354217529296875,0.1201629638671875,1.3265757145120973
1779896672.376848,-0.0541992112994194,-0.30224609375,0.9453124403953552,0.9939345379142607,-1.3141632080078125,0.0133514404296875,0.3643035888671875,1.3637889510860708
1779896672.384869,-0.0566406212747097,-0.32080078125,0.9531249403953552,1.0072578881461514,-0.823974609375,0.2593994140625,0.5435943603515625,1.0206454043969808
1779896672.39289,-0.0576171837747097,-0.3232421875,0.9321288466453552,0.9882658743447099,-0.2155303955078125,-0.0438690185546875,0.5435943603515625,0.5864065746414598
1779896672.403518,-0.0429687462747097,-0.32275390625,0.9584960341453552,1.0122900002610062,-0.2155303955078125,0.0133514404296875,0.3032684326171875,0.37229471467022895
1779896672.414146,-0.0429687462747097,-0.32373046875,0.9487304091453552,1.0033629048308634,0.1506805419921875,0.3185272216796875,0.4253387451171875,0.5523379986782586
1779896672.424774,-0.0556640587747097,-0.3076171875,0.9418944716453552,0.9924172596245832,0.576019287109375,-0.1068115234375,0.1811981201171875,0.6132207427958019
1779896672.432899,-0.0478515625,-0.3056640625,0.9428710341453552,0.9923336526431152,0.759124755859375,0.3814697265625,-0.0019073486328125,0.8495841248640603
1779896672.441026,-0.0576171837747097,-0.30029296875,0.9526366591453552,1.000505977640534,0.942230224609375,0.5645751953125,-0.2498626708984375,1.126487594977451
1779896672.449153,-0.06787109375,-0.30859375,0.9428710341453552,0.9944055384681922,0.8220672607421875,0.0133514404296875,-0.3681182861328125,0.9008240198457579
1779896672.45728,-0.0541992112994194,-0.3056640625,0.9355468153953552,0.9857057965771906,0.4558563232421875,0.1964569091796875,-0.0019073486328125,0.496390917103777
1779896672.468347,-0.0458984337747097,-0.30615234375,0.9350585341453552,0.9849722768101903,0.698089599609375,-0.0457763671875,-0.0019073486328125,0.6995914542463119
1779896672.479414,-0.0590820237994194,-0.302734375,0.9296874403953552,0.9795190269574874,0.1506805419921875,-0.2918243408203125,0.0553131103515625,0.3330549681464509
1779896672.490481,-0.0649413987994194,-0.296875,0.9379882216453552,0.9859888715641983,-0.095367431640625,-0.2288818359375,0.4253387451171875,0.4923361554240291
1779896672.500571,-0.0532226525247097,-0.298828125,0.9541015028953552,1.001219544785237,-0.152587890625,-0.1068115234375,0.1201629638671875,0.22165492051784816
1779896672.51066,-0.0498046837747097,-0.31787109375,0.9526366591453552,1.0055044222256528,-0.461578369140625,-0.1068115234375,0.5435943603515625,0.7210812166487095
1779896672.520749,-0.0517578125,-0.3017578125,0.9399413466453552,0.9885476132655696,-0.3376007080078125,-0.2918243408203125,-0.0629425048828125,0.45066333649799944
1779896672.529921,-0.0610351525247097,-0.2978515625,0.9423827528953552,0.9902151766570911,-0.3376007080078125,-0.2918243408203125,0.1811981201171875,0.4816310233743139
1779896672.539093,-0.05224609375,-0.296875,0.9394530653953552,0.9866288471445903,-0.2155303955078125,0.2613067626953125,0.1811981201171875,0.3841449392508785
1779896672.548265,-0.0556640587747097,-0.31103515625,0.9326171278953552,0.9846908464622374,-0.095367431640625,0.0762939453125,0.0553131103515625,0.13407182137138346
1779896672.557437,-0.06494140625,-0.31884765625,0.9374999403953552,0.9923645259596598,-0.400543212890625,-0.4119873046875,0.1811981201171875,0.6024957786992522
1779896672.566176,-0.0541992150247097,-0.30908203125,0.9589843153953552,1.009019412164711,-0.095367431640625,-0.2899169921875,0.3032684326171875,0.4302540547151901
1779896672.574919,-0.0585937425494194,-0.30712890625,0.9487304091453552,0.9989248124645729,0.0286102294921875,0.1354217529296875,0.0553131103515625,0.14905413974428583
1779896672.58366,-0.05224609375,-0.306640625,0.9443358778953552,0.994247643946374,0.5168914794921875,0.6237030029296875,0.0553131103515625,0.8119370527398638
1779896672.592402,-0.0483398362994194,-0.314453125,0.9331054091453552,0.9858515162903798,0.4558563232421875,0.3795623779296875,0.3032684326171875,0.6662164275981269
1779896672.601144,-0.0556640550494194,-0.30224609375,0.9487304091453552,0.9972665528577561,0.2727508544921875,0.1964569091796875,0.2384185791015625,0.412106496735325
1779896672.611681,-0.0493163987994194,-0.3076171875,0.9311522841453552,0.9818884954540744,0.335693359375,0.2593994140625,-0.0019073486328125,0.4242425314878841
1779896672.622218,-0.06201171875,-0.296875,0.9301757216453552,0.978369609107819,0.2117156982421875,0.3185272216796875,0.0553131103515625,0.3864487909282702
1779896672.632755,-0.0634765550494194,-0.29736328125,0.9355468153953552,0.9837184749068706,0.209808349609375,0.0762939453125,-0.0629425048828125,0.2319527291886848
1779896672.640757,-0.0532226487994194,-0.30712890625,0.9384765028953552,0.9888877397795178,0.209808349609375,-0.0457763671875,-0.1239776611328125,0.2479626581133882
1779896672.648759,-0.0502929650247097,-0.31298828125,0.9418944716453552,0.9938089566143428,-0.095367431640625,0.1983642578125,-0.1850128173828125,0.28752924788820905
1779896672.656761,-0.0703125,-0.2978515625,0.9379882216453552,0.9866515620447562,-0.0324249267578125,0.1964569091796875,-0.4329681396484375,0.4765586039411253
1779896672.664763,-0.0595703087747097,-0.30810546875,0.9404296278953552,0.9914058132695046,-0.3986358642578125,-0.1697540283203125,-0.3681182861328125,0.5685402844028783
1779896672.672807,-0.0576171875,-0.3056640625,0.9526366591453552,1.0021311609500214,-0.278472900390625,0.0152587890625,-0.1239776611328125,0.3052055821173383
1779896672.680851,-0.0541992112994194,-0.3115234375,0.9472655653953552,0.998647314120995,-0.2155303955078125,0.1354217529296875,-0.4901885986328125,0.5523379986782586
1779896672.688895,-0.0605468675494194,-0.31201171875,0.9365233778953552,0.9889859822828139,-0.5207061767578125,0.1964569091796875,0.0553131103515625,0.5592761212987181
1779896672.696939,-0.0439453087747097,-0.3046875,0.9409179091453552,0.9899960477547481,-0.335693359375,-0.2288818359375,-0.3681182861328125,0.5482590618822025
1779896672.70768,-0.0566406212747097,-0.2890625,0.9443358778953552,0.9892095527061121,-0.278472900390625,0.0152587890625,-0.4901885986328125,0.5639723833001234
1779896672.718421,-0.0502929612994194,-0.3115234375,0.9399413466453552,0.9914968326734912,-0.1544952392578125,-0.5321502685546875,-0.1239776611328125,0.5678231659030101
1779896672.729162,-0.0556640550494194,-0.31689453125,0.9516600966453552,1.0045783048163786,-0.0934600830078125,-0.1697540283203125,-0.3070831298828125,0.3631132962388254
1779896672.737099,-0.0502929650247097,-0.31787109375,0.9428710341453552,0.9962816878790504,-0.152587890625,0.0762939453125,0.1811981201171875,0.2488706274166086
1779896672.745035,-0.0537109337747097,-0.3173828125,0.9453124403953552,0.9986152031906902,0.1506805419921875,0.0133514404296875,-0.0019073486328125,0.15128292922671072
1779896672.752971,-0.0561523400247097,-0.302734375,0.9311522841453552,0.9807373569748445,-0.095367431640625,0.2593994140625,-0.0019073486328125,0.2763813326049802
1779896672.760907,-0.0571289025247097,-0.31494140625,0.9350585341453552,0.9883249785128704,-0.095367431640625,-0.1068115234375,-0.1850128173828125,0.233951685509412
1779896672.769258,-0.0698242112994194,-0.306640625,0.9511718153953552,1.0018142122102642,-0.0324249267578125,-0.0438690185546875,-0.0019073486328125,0.05458483894826578
1779896672.777609,-0.0502929650247097,-0.30859375,0.9428710341453552,0.9933605951014821,-0.278472900390625,0.0762939453125,-0.3070831298828125,0.4215067864245343
1779896672.78596,-0.0551757737994194,-0.30712890625,0.9448241591453552,0.9950202122436577,-0.0934600830078125,0.0133514404296875,-0.0019073486328125,0.09442820582951784
1779896672.794311,-0.0488281212747097,-0.3037109375,0.9389647841453552,0.9880685122244713,-0.217437744140625,-0.4119873046875,-0.2498626708984375,0.5286246930565538
1779896672.805933,-0.0566406212747097,-0.29833984375,0.9462890028953552,0.9938197519408865,-0.2155303955078125,0.0133514404296875,-0.3681182861328125,0.4267817767134168
1779896672.817555,-0.05712890625,-0.30615234375,0.9404296278953552,0.9906567793824135,-0.2155303955078125,-0.2269744873046875,-0.1850128173828125,0.3635938831593647
1779896672.829177,-0.0571289025247097,-0.30908203125,0.9409179091453552,0.9920291957879923,-0.400543212890625,-0.4119873046875,-0.0629425048828125,0.5780399324764149
1779896672.840799,-0.0551757775247097,-0.31103515625,0.9541015028953552,1.0050357768139868,-0.1544952392578125,-0.1697540283203125,-0.0019073486328125,0.22954051290155575
1779896672.848774,-0.0483398362994194,-0.314453125,0.9453124403953552,0.9974132130476026,-0.152587890625,0.0762939453125,0.2384185791015625,0.2931676130092506
1779896672.856749,-0.06689453125,-0.31201171875,0.9355468153953552,0.988470553301856,0.026702880859375,0.0152587890625,0.0553131103515625,0.06328834542479346
1779896672.864724,-0.0551757737994194,-0.3125,0.9340819716453552,0.9865139359214541,0.335693359375,0.1983642578125,0.0553131103515625,0.3938247712914222
1779896672.872699,-0.0502929650247097,-0.3037109375,0.9394530653953552,0.9886059771055581,0.1506805419921875,0.1354217529296875,0.5435943603515625,0.5801193890119801
1779896672.883389,-0.0439453050494194,-0.30615234375,0.9418944716453552,0.9913756317035373,0.209808349609375,0.5035400390625,0.2384185791015625,0.5953280888431872
1779896672.894077,-0.0615234337747097,-0.31396484375,0.9565429091453552,1.0086294627119774,0.152587890625,-0.1068115234375,0.0553131103515625,0.19429695335025382
1779896672.904766,-0.0561523400247097,-0.30615234375,0.9453124403953552,0.9952376363663559,0.335693359375,0.2593994140625,0.1201629638671875,0.44092768730233783
1779896672.91276,-0.06396484375,-0.31396484375,0.9350585341453552,0.9884330461012442,-0.2155303955078125,-0.1697540283203125,-0.0629425048828125,0.28148097704756253
1779896672.920753,-0.06494140625,-0.2998046875,0.9458007216453552,0.9943033953263837,-0.0934600830078125,0.1354217529296875,-0.3070831298828125,0.3483875527928643
1779896672.928746,-0.0615234337747097,-0.30078125,0.9282225966453552,0.9776766756847785,-0.0324249267578125,0.1354217529296875,0.1811981201171875,0.2285239282346633
1779896672.936739,-0.0473632775247097,-0.30029296875,0.9404296278953552,0.9883456036032979,0.026702880859375,-0.1068115234375,0.1811981201171875,0.21202477241877257
1779896672.947841,-0.0649413987994194,-0.3076171875,0.9331054091453552,0.9846478679709595,-0.278472900390625,-0.0457763671875,0.3643035888671875,0.4608250610658719
1779896672.958943,-0.06591796875,-0.3134765625,0.9389647841453552,0.9921026155121636,0.1506805419921875,0.0133514404296875,0.3032684326171875,0.3389020934114932
1779896672.970045,-0.0625,-0.302734375,0.9487304091453552,0.9978194932169614,0.087738037109375,-0.1068115234375,0.7266998291015625,0.7397292114761224
1779896672.980378,-0.0566406212747097,-0.3134765625,0.9248046278953552,0.978130520427549,0.087738037109375,-0.2288818359375,0.4863739013671875,0.5446507412177691
1779896672.99071,-0.0434570237994194,-0.31689453125,0.9448241591453552,0.997498545642242,-0.2155303955078125,0.1964569091796875,0.3643035888671875,0.4666538046707675
1779896673.001042,-0.0541992150247097,-0.31298828125,0.9355468153953552,0.9880015500521822,0.209808349609375,-0.1068115234375,0.3643035888671875,0.4337572477392881
1779896673.009298,-0.0581054612994194,-0.31640625,0.9389647841453552,0.9925442184290906,-0.2155303955078125,0.1964569091796875,0.2384185791015625,0.37668566127873526
1779896673.017555,-0.0546874962747097,-0.31396484375,0.9404296278953552,0.9929614949146591,0.0896453857421875,0.0133514404296875,0.0553131103515625,0.1061795475747435
1779896673.025812,-0.0434570275247097,-0.30419921875,0.9389647841453552,0.9879678860137748,-0.095367431640625,-0.1068115234375,-0.1239776611328125,0.1894046172001395
1779896673.034069,-0.0502929650247097,-0.291015625,0.9501952528953552,0.9950329114908639,0.1506805419921875,0.0133514404296875,-0.2498626708984375,0.2920860164491066
1779896673.044304,-0.06591796875,-0.310546875,0.9389647841453552,0.9911808139999104,0.0896453857421875,0.0133514404296875,-0.4329681396484375,0.4423527620542704
1779896673.054539,-0.0502929612994194,-0.30224609375,0.9316405653953552,0.9807324947372631,0.087738037109375,0.3814697265625,-0.2498626708984375,0.46437966121264984
1779896673.064775,-0.0576171837747097,-0.31298828125,0.9340819716453552,0.9868082558525906,-0.278472900390625,0.0152587890625,-0.0629425048828125,0.28590513429552766
1779896673.072778,-0.0600585900247097,-0.32080078125,0.9189452528953552,0.9751823179822708,-0.278472900390625,-0.2899169921875,0.0553131103515625,0.4057814174993454
1779896673.080782,-0.06689453125,-0.3193359375,0.9331054091453552,0.9885019088835802,0.270843505859375,-0.5950927734375,-0.3070831298828125,0.7223514811519094
1779896673.088786,-0.0483398362994194,-0.31005859375,0.9487304091453552,0.9992809717836096,0.0896453857421875,-0.3528594970703125,0.1811981201171875,0.40666802012401
1779896673.09679,-0.0537109337747097,-0.3095703125,0.9467772841453552,0.9975499328664975,0.026702880859375,-0.4730224609375,-0.1239776611328125,0.4897282438838107
1779896673.107449,-0.0644531175494194,-0.3017578125,0.9340819716453552,0.9837281695262663,0.3337860107421875,-0.5321502685546875,-0.0629425048828125,0.6313151100765232
1779896673.118108,-0.0385742112994194,-0.3046875,0.9394530653953552,0.988379737001094,0.2727508544921875,-0.4749298095703125,-0.0629425048828125,0.5512831500831806
1779896673.128767,-0.0541992150247097,-0.298828125,0.9389647841453552,0.986858991480264,0.3337860107421875,0.1354217529296875,-0.3681182861328125,0.5150371100407156
1779896673.139458,-0.0439453087747097,-0.3134765625,0.9453124403953552,0.9969023800585206,0.335693359375,0.8697509765625,-0.2498626708984375,0.9651881407624092
1779896673.15015,-0.0600585900247097,-0.30810546875,0.9453124403953552,0.9960680820484288,-0.152587890625,0.3814697265625,-0.6122589111328125,0.7373351957628177
1779896673.160842,-0.0551757737994194,-0.3076171875,0.9497069716453552,0.9998079975933211,-0.152587890625,0.2593994140625,-0.4329681396484375,0.5272879008018145
1779896673.171498,-0.0629882737994194,-0.30419921875,0.9272460341453552,0.977900759362948,-0.1544952392578125,-0.3528594970703125,-0.1239776611328125,0.40465919498511965
1779896673.182157,-0.0512695275247097,-0.30810546875,0.9370116591453552,0.9876985338151493,-0.7038116455078125,-0.2269744873046875,0.0553131103515625,0.7415711634202106
1779896673.192816,-0.0576171875,-0.310546875,0.9423827528953552,0.993903594330106,-0.7038116455078125,-0.2918243408203125,-0.0019073486328125,0.7619159508938186
1779896673.203687,-0.0522460900247097,-0.2998046875,0.9492186903953552,0.9968092228534585,-0.682830810546875,0.385284423828125,0.4405975341796875,0.8993487589372064
1779896673.21456,-0.0434570237994194,-0.3017578125,0.9448241591453552,0.9927935243679906,-0.865936279296875,0.141143798828125,0.5626678466796875,1.0422870609564843
1779896673.225433,-0.0541992150247097,-0.318359375,0.9482421278953552,1.0017252016771847,-0.7457733154296875,-0.1049041748046875,0.3757476806640625,0.8416466262172402
1779896673.233444,-0.0419921837747097,-0.314453125,0.9453124403953552,0.9971257299291081,-0.8068084716796875,-0.0438690185546875,0.3185272216796875,0.8685182736788245
1779896673.241456,-0.05224609375,-0.31201171875,0.9423827528953552,0.9940655008117377,-0.0095367431640625,0.2002716064453125,0.1926422119140625,0.2780479951905893
1779896673.249468,-0.0566406212747097,-0.314453125,0.9423827528953552,0.9950749623798595,-0.194549560546875,0.019073486328125,-0.1697540283203125,0.2589010612582822
1779896673.25748,-0.0522460900247097,-0.31494140625,0.9550780653953552,1.00702127797427,0.293731689453125,0.019073486328125,0.1354217529296875,0.3240079542792824
1779896673.267939,-0.0541992150247097,-0.32470703125,0.9492186903953552,1.004683200440993,0.3528594970703125,0.0209808349609375,-0.4138946533203125,0.5442966141319581
1779896673.278398,-0.0585937425494194,-0.31640625,0.9438475966453552,0.9971932748460668,0.537872314453125,-0.347137451171875,-0.1697540283203125,0.6622895641577337
1779896673.288857,-0.0615234337747097,-0.30419921875,0.9433593153953552,0.9931007479277895,0.5359649658203125,0.0782012939453125,0.0743865966796875,0.546724110248557
1779896673.299514,-0.0551757737994194,-0.29638671875,0.9404296278953552,0.9875714344234308,0.476837158203125,0.141143798828125,-0.2956390380859375,0.5785306286025353
1779896673.310171,-0.0590820275247097,-0.31982421875,0.9458007216453552,1.0001585983934513,0.293731689453125,-0.225067138671875,-0.0476837158203125,0.3731048901493579
1779896673.320828,-0.0400390587747097,-0.3037109375,0.9335936903953552,0.982568388729615,0.5359649658203125,0.0782012939453125,-0.1697540283203125,0.5676181084959001
1779896673.331457,-0.0502929650247097,-0.3037109375,0.9418944716453552,0.990926289692724,0.049591064453125,-0.225067138671875,0.0743865966796875,0.242173194943465
1779896673.342089,-0.0449218712747097,-0.3154296875,0.9394530653953552,0.9920110505210609,0.0476837158203125,-0.4100799560546875,0.2574920654296875,0.48656086039825813
1779896673.352721,-0.0478515587747097,-0.3046875,0.9331054091453552,0.9827563018926616,-0.1354217529296875,-0.2880096435546875,0.1354217529296875,0.34587231330882323
1779896673.360766,-0.0537109337747097,-0.298828125,0.9301757216453552,0.9784732933690241,-0.1354217529296875,0.2613067626953125,0.1926422119140625,0.35175459799126474
1779896673.368812,-0.0527343712747097,-0.30419921875,0.9335936903953552,0.9833184923247745,-0.499725341796875,-0.225067138671875,0.3185272216796875,0.6339086882942443
1779896673.376858,-0.0551757775247097,-0.30908203125,0.9335936903953552,0.9849737291994648,-0.255584716796875,-0.164031982421875,0.4405975341796875,0.5351226269207928
1779896673.384904,-0.0634765550494194,-0.302734375,0.9379882216453552,0.9876736701932468,-0.1926422119140625,-0.2880096435546875,0.1926422119140625,0.3964487336375074
1779896673.394949,-0.0483398362994194,-0.30615234375,0.9345702528953552,0.984625591254849,-0.194549560546875,-0.347137451171875,0.4978179931640625,0.6373199320851205
1779896673.404997,-0.0517578087747097,-0.30322265625,0.9277343153953552,0.9774015602578878,0.1697540283203125,0.3833770751953125,0.3757476806640625,0.563010418589841
1779896673.415045,-0.05224609375,-0.3310546875,0.9374999403953552,0.9956068494486923,0.110626220703125,0.690460205078125,0.2574920654296875,0.7451681818642214
1779896673.425093,-0.0444335900247097,-0.30810546875,0.9365233778953552,0.9869039270064071,0.049591064453125,0.324249267578125,0.1354217529296875,0.35487450227523226
1779896673.435141,-0.0585937462747097,-0.32373046875,0.9448241591453552,1.0004635601581535,0.049591064453125,0.141143798828125,-0.4138946533203125,0.44010184011018394
1779896673.444291,-0.0498046837747097,-0.3193359375,0.9345702528953552,0.9888768907714403,0.293731689453125,0.019073486328125,-0.5970001220703125,0.6656209499570038
1779896673.45344,-0.0507812462747097,-0.31494140625,0.9379882216453552,0.9907515976718666,0.598907470703125,-0.164031982421875,-0.3528594970703125,0.7142173859505093
1779896673.462589,-0.0478515625,-0.31201171875,0.9467772841453552,0.9980121795071818,0.293731689453125,-0.102996826171875,-0.2956390380859375,0.4292890546366689
1779896673.471738,-0.0610351525247097,-0.3056640625,0.9458007216453552,0.9958387490013597,0.293731689453125,0.263214111328125,-0.1087188720703125,0.4091207241578977
1779896673.480887,-0.0673828050494194,-0.30322265625,0.9418944716453552,0.9917911158080196,0.1697540283203125,0.0782012939453125,-0.1087188720703125,0.21622133486299544
1779896673.48957,-0.0566406212747097,-0.314453125,0.9335936903953552,0.9867553428011774,0.293731689453125,0.385284423828125,-0.0476837158203125,0.4868224824183756
1779896673.498253,-0.0546874962747097,-0.3037109375,0.9472655653953552,0.9962645769019931,0.2307891845703125,-0.2880096435546875,0.0095367431640625,0.3691939218964814
1779896673.506936,-0.0527343712747097,-0.2900390625,0.9453124403953552,0.9902116852753455,0.171661376953125,-0.347137451171875,0.0743865966796875,0.3943417351855308
1779896673.515619,-0.0566406212747097,-0.30322265625,0.9467772841453552,0.9957606966612739,0.1697540283203125,-0.4100799560546875,-0.0476837158203125,0.4463807088609679
1779896673.524302,-0.0620117150247097,-0.30810546875,0.9414061903953552,0.9924817620433429,-0.0743865966796875,-0.2880096435546875,0.0095367431640625,0.29761362538745084
1779896673.532985,-0.0498046837747097,-0.3134765625,0.9467772841453552,0.9985666164740187,-0.133514404296875,-0.530242919921875,-0.0476837158203125,0.5488691893670637
1779896673.541738,-0.0375976525247097,-0.30517578125,0.9326171278953552,0.9819982424529577,0.110626220703125,-0.102996826171875,0.0095367431640625,0.15145116829761746
1779896673.550491,-0.0498046800494194,-0.30615234375,0.9311522841453552,0.9814552154874696,0.476837158203125,0.019073486328125,-0.4138946533203125,0.6317010822937403
1779896673.559244,-0.0483398362994194,-0.3095703125,0.9311522841453552,0.9824536092986348,0.1697540283203125,0.0782012939453125,-0.3528594970703125,0.3993015116154815
1779896673.567997,-0.0615234337747097,-0.30322265625,0.9326171278953552,0.9826005390851962,0.1697540283203125,0.2002716064453125,-0.4138946533203125,0.49013664474950375
1779896673.57675,-0.0571289025247097,-0.318359375,0.9394530653953552,0.9935735832009615,0.2307891845703125,0.3833770751953125,-0.4787445068359375,0.6553151397041939
1779896673.587387,-0.0634765625,-0.31396484375,0.9345702528953552,0.9879396513424626,0.1697540283203125,0.2002716064453125,-0.2956390380859375,0.39538283639978355
1779896673.598024,-0.0454101525247097,-0.3056640625,0.9384765028953552,0.9880438996031589,0.110626220703125,0.080108642578125,0.0095367431640625,0.13691787608980646
1779896673.608661,-0.0551757737994194,-0.31640625,0.9394530653953552,0.992839031834545,0.0476837158203125,0.0782012939453125,-0.5970001220703125,0.6039853681018452
1779896673.61938,-0.0537109337747097,-0.30322265625,0.9267577528953552,0.9765801432662377,0.049591064453125,0.019073486328125,0.1926422119140625,0.1998351654875731
1779896673.630099,-0.0468749962747097,-0.3056640625,0.9453124403953552,0.994607155788646,0.049591064453125,-0.347137451171875,0.1354217529296875,0.37590256030818575
1779896673.640818,-0.0590820237994194,-0.306640625,0.9511718153953552,1.0011228600122573,-0.0743865966796875,-0.2880096435546875,-0.1087188720703125,0.316706036712794
1779896673.648794,-0.0551757737994194,-0.306640625,0.9331054091453552,0.983747194908873,0.049591064453125,-0.225067138671875,0.4978179931640625,0.5485774739281897
1779896673.656771,-0.0546874962747097,-0.3203125,0.9365233778953552,0.9912955448551016,-0.2574920654296875,-0.1049041748046875,0.2574920654296875,0.37895806286440903
1779896673.664748,-0.0566406212747097,-0.32568359375,0.9506835341453552,1.0065173348290644,-0.0095367431640625,-0.1049041748046875,0.0095367431640625,0.10576759821328562
1779896673.672725,-0.0600585900247097,-0.3271484375,0.9355468153953552,0.9929153932691538,0.3528594970703125,0.3833770751953125,0.1926422119140625,0.5555167218627796
1779896673.68074,-0.0600585900247097,-0.314453125,0.9448241591453552,0.997587336408572,0.1697540283203125,-0.1049041748046875,0.0095367431640625,0.1997805433284312
1779896673.688755,-0.0551757775247097,-0.29345703125,0.9399413466453552,0.986230769520503,0.049591064453125,0.141143798828125,0.0743865966796875,0.16707546614274255
1779896673.69677,-0.0600585862994194,-0.306640625,0.9340819716453552,0.9849592054707391,0.232696533203125,0.141143798828125,-0.2956390380859375,0.40183540082074115
1779896673.704785,-0.0478515587747097,-0.3037109375,0.9526366591453552,1.0010228316986192,-0.072479248046875,0.080108642578125,-0.1087188720703125,0.1532658773419289
1779896673.715455,-0.0493163987994194,-0.31103515625,0.9345702528953552,0.9862030892320777,0.415802001953125,0.263214111328125,0.1354217529296875,0.5104037856413591
1779896673.726125,-0.0463867150247097,-0.30029296875,0.9248046278953552,0.9734429588774776,0.110626220703125,-0.041961669921875,-0.1697540283203125,0.20691875840692253
1779896673.736795,-0.0346679612994194,-0.3125,0.9443358778953552,0.9953031537280735,0.110626220703125,0.019073486328125,-0.1697540283203125,0.2035150822881173
1779896673.747572,-0.0581054612994194,-0.29638671875,0.9287108778953552,0.9765885655716902,-0.072479248046875,-0.102996826171875,0.1926422119140625,0.2301577924165559
1779896673.75835,-0.0581054612994194,-0.3173828125,0.9335936903953552,0.9877779472377619,0.1697540283203125,-0.4100799560546875,0.1926422119140625,0.4838316053131817
1779896673.769128,-0.0590820275247097,-0.31884765625,0.9501952528953552,1.0040047472484463,-0.072479248046875,-0.530242919921875,0.1926422119140625,0.568789783079706
1779896673.779679,-0.0498046837747097,-0.30908203125,0.9423827528953552,0.9930244012722713,-0.011444091796875,-0.225067138671875,0.5626678466796875,0.6061198642464679
1779896673.790231,-0.0546874925494194,-0.31591796875,0.9472655653953552,1.0000534666727827,-0.011444091796875,0.019073486328125,0.3757476806640625,0.37640547902785204
1779896673.800783,-0.064453125,-0.30322265625,0.9379882216453552,0.9878866779803174,0.3528594970703125,-0.2269744873046875,0.4978179931640625,0.6510376309230014
1779896673.808987,-0.0512695275247097,-0.29443359375,0.9511718153953552,0.9970193217704674,0.110626220703125,0.080108642578125,0.5626678466796875,0.5790083427809332
1779896673.817194,-0.0478515587747097,-0.2939453125,0.9321288466453552,0.9785488261534486,-0.194549560546875,0.080108642578125,0.1926422119140625,0.28526820351352605
1779896673.825401,-0.06396484375,-0.3173828125,0.9521483778953552,1.0056887612154808,0.049591064453125,0.263214111328125,-0.1697540283203125,0.31710782425985967
1779896673.833608,-0.0439453050494194,-0.31103515625,0.9418944716453552,0.9928943820847368,0.1697540283203125,-0.0438690185546875,-0.5970001220703125,0.6222138432017509
1779896673.84404,-0.052734375,-0.3076171875,0.9374999403953552,0.9880867302991906,-0.072479248046875,0.019073486328125,-0.2307891845703125,0.24265342979809573
1779896673.854472,-0.0551757775247097,-0.30810546875,0.9331054091453552,0.9842047809655439,0.049591064453125,0.019073486328125,-0.1087188720703125,0.12100770512055893
1779896673.864904,-0.0620117150247097,-0.3134765625,0.9340819716453552,0.9872295263969755,0.049591064453125,0.019073486328125,-0.3528594970703125,0.3568373526230362
1779896673.873161,-0.0590820275247097,-0.3046875,0.9379882216453552,0.988001549886485,0.1697540283203125,-0.1621246337890625,-0.3528594970703125,0.4238049689242977
1779896673.881419,-0.0532226525247097,-0.30810546875,0.9453124403953552,0.9956792860061141,0.598907470703125,-0.041961669921875,-0.2307891845703125,0.6432064893339282
1779896673.889677,-0.0595703087747097,-0.3154296875,0.9589843153953552,1.0112840484345436,0.5359649658203125,-0.1049041748046875,-0.0476837158203125,0.5482126113403937
1779896673.897935,-0.0571289025247097,-0.30029296875,0.9340819716453552,0.9828268964254288,0.110626220703125,0.263214111328125,-0.2956390380859375,0.41100154494805674
1779896673.906254,-0.0615234337747097,-0.30322265625,0.9428710341453552,0.9923380972214402,-0.133514404296875,0.141143798828125,-0.0476837158203125,0.20005350498508126
1779896673.914573,-0.06591796875,-0.318359375,0.9355468153953552,0.9904270362075681,-0.072479248046875,-0.469207763671875,-0.1087188720703125,0.4870615567170576
1779896673.922892,-0.0527343712747097,-0.31005859375,0.9389647841453552,0.990238411362183,-0.1354217529296875,-0.4673004150390625,0.0743865966796875,0.4921809574006454
1779896673.931211,-0.0517578087747097,-0.31103515625,0.9433593153953552,0.9946600108257165,-0.1354217529296875,-0.2880096435546875,0.2574920654296875,0.4093785164200656
1779896673.941144,-0.05224609375,-0.31689453125,0.9501952528953552,1.00300688774961,-0.011444091796875,-0.530242919921875,0.3757476806640625,0.6499806465493827
1779896673.951077,-0.06494140625,-0.30419921875,0.9487304091453552,0.9984207230275978,-0.1354217529296875,-0.7152557373046875,0.0743865966796875,0.7317535013099753
1779896673.96101,-0.0483398362994194,-0.30712890625,0.9462890028953552,0.9960561137950319,0.110626220703125,-0.164031982421875,0.2574920654296875,0.32472575463543585
1779896673.968944,-0.0454101525247097,-0.30126953125,0.9443358778953552,0.9922679389622056,0.110626220703125,0.263214111328125,-0.1087188720703125,0.30551533881877696
1779896673.976878,-0.03759765625,-0.302734375,0.9282225966453552,0.9770664636989541,0.415802001953125,1.056671142578125,-0.1697540283203125,1.1481557553383426
1779896673.984812,-0.0576171837747097,-0.30029296875,0.9370116591453552,0.985640125157833,0.110626220703125,0.995635986328125,-0.2307891845703125,1.0280042926434036
1779896673.992746,-0.0483398362994194,-0.31005859375,0.9365233778953552,0.9876988957552846,0.171661376953125,0.812530517578125,-0.7190704345703125,1.098515252605241
1779896674.003419,-0.0415039025247097,-0.302734375,0.9374999403953552,0.9860409798647903,-0.194549560546875,0.080108642578125,-0.5359649658203125,0.5757823987510045
1779896674.014092,-0.0654296875,-0.30517578125,0.9335936903953552,0.984383299438747,-0.3185272216796875,-0.1049041748046875,-0.4787445068359375,0.584517561471012
1779896674.024765,-0.06689453125,-0.29345703125,0.9541015028953552,1.000450691102963,-0.438690185546875,-0.469207763671875,-0.2956390380859375,0.7071120457363826
1779896674.03566,-0.06201171875,-0.32177734375,0.9409179091453552,0.9963496494522401,-0.865936279296875,-0.652313232421875,0.0743865966796875,1.0866883448168463
1779896674.046553,-0.0493164025247097,-0.30908203125,0.9526366591453552,1.0027364628591247,-0.560760498046875,-0.164031982421875,0.6809234619140625,0.8972266092866736
1779896674.057446,-0.0473632775247097,-0.30859375,0.9340819716453552,0.9848769021303218,-0.804901123046875,0.141143798828125,0.6237030029296875,1.0280042926434036
1779896674.0653,-0.0419921837747097,-0.31494140625,0.9409179091453552,0.9931152725738153,-0.560760498046875,0.324249267578125,0.9288787841796875,1.1324335386210813
1779896674.073155,-0.0522460900247097,-0.318359375,0.9340819716453552,0.9882264291781185,-0.4405975341796875,-0.1049041748046875,1.2950897216796875,1.3720016254425662
1779896674.08101,-0.0561523400247097,-0.31494140625,0.9448241591453552,0.9975138426937772,-0.3185272216796875,0.2613067626953125,0.6237030029296875,0.7474933117057269
1779896674.088865,-0.0375976525247097,-0.31787109375,0.9565429091453552,1.0086773283629653,-0.011444091796875,0.141143798828125,0.5626678466796875,0.5802134476827006
1779896674.099548,-0.0463867150247097,-0.3193359375,0.9433593153953552,0.9970225505237987,0.110626220703125,-0.164031982421875,0.0743865966796875,0.21137175244079642
1779896674.110231,-0.0493163987994194,-0.30224609375,0.9643554091453552,1.011813304679071,0.415802001953125,0.141143798828125,0.0743865966796875,0.4453608004095638
1779896674.120914,-0.04736328125,-0.31591796875,0.9389647841453552,0.9918176794426615,0.0476837158203125,-0.1049041748046875,-0.1697540283203125,0.20517078928750607
1779896674.131525,-0.0473632775247097,-0.298828125,0.9414061903953552,0.9888312007939445,0.720977783203125,0.141143798828125,-0.4138946533203125,0.8432314746659236
1779896674.142136,-0.0415039025247097,-0.3046875,0.9394530653953552,0.9884984110567706,0.598907470703125,0.202178955078125,-0.4138946533203125,0.7555628844693463
1779896674.152747,-0.0581054612994194,-0.31494140625,0.9409179091453552,0.9939269821038227,0.476837158203125,0.141143798828125,-0.1697540283203125,0.525463297977927
1779896674.16081,-0.0517578087747097,-0.2978515625,0.9345702528953552,0.9822504678796233,0.476837158203125,0.141143798828125,0.3185272216796875,0.5905546870035383
1779896674.168874,-0.0639648362994194,-0.3056640625,0.9433593153953552,0.9937045925877613,0.293731689453125,0.263214111328125,0.1926422119140625,0.4389430436883403
1779896674.176938,-0.0571289025247097,-0.3203125,0.9370116591453552,0.9918944795361345,0.110626220703125,0.080108642578125,0.1926422119140625,0.2361494804862142
1779896674.185002,-0.0512695275247097,-0.3017578125,0.9458007216453552,0.9940952403679775,-0.499725341796875,0.019073486328125,0.0743865966796875,0.505591318042843
1779896674.195618,-0.0512695275247097,-0.2958984375,0.9399413466453552,0.9867493019511249,-0.377655029296875,-0.286102294921875,0.1354217529296875,0.49276454365075456
1779896674.206234,-0.0488281212747097,-0.314453125,0.9423827528953552,0.9946608498398394,-0.377655029296875,0.141143798828125,0.3757476806640625,0.5511181476101835
1779896674.21685,-0.0473632775247097,-0.30810546875,0.9414061903953552,0.9916742788064212,-0.621795654296875,-0.164031982421875,0.1354217529296875,0.657172259096714
1779896674.227542,-0.0532226487994194,-0.31005859375,0.9541015028953552,1.0046286178138812,-0.8068084716796875,-0.5321502685546875,0.1926422119140625,0.9855124758764253
